onset	duration	onsetsample	eventnumber	subjectnr	sequencenumber	blocksequencenumber	istarget	presentationnumber	stimnumber	stim	stimname	time_stimon	time_stimoff	stimdur	cresp	resp	rt	correct
49.3330078125	0.2	101034	0	66	0	0	0	0	223	stimuli\Videos_short_600ms_horvertflip\49.repeated_slap_with_hand_short_horvertflip_short_600ms.mp4	49.repeated_slap_with_hand_short_horvertflip_short_600ms.mp4	65.66229752214349	66.27050613379106	0.6082086116475693	n/a	n/a	n/a	n/a
50.13330078125	0.2	102673	1	66	0	0	0	1	187	stimuli\Videos_short_600ms_horvertflip\16.repeated_touch_with_plastic_brush_short_horvertflip_short_600ms.mp4	16.repeated_touch_with_plastic_brush_short_horvertflip_short_600ms.mp4	66.46239112572403	67.07048566533922	0.6080945396151947	n/a	n/a	n/a	n/a
50.93310546875	0.2	104311	2	66	0	0	0	2	353	stimuli\Videos_short_600ms_vertflip\85.touch_top_to_bottom_with_fabric_short_vertflip_short_600ms.mp4	85.touch_top_to_bottom_with_fabric_short_vertflip_short_600ms.mp4	67.26221934321438	67.87047311448259	0.6082537712682097	n/a	n/a	n/a	n/a
51.73291015625	0.2	105949	3	66	0	0	0	3	40	stimuli\Videos_short_600ms\46.scratching_top_to_bottom_with_finger_nails_short_short_600ms.mp4	46.scratching_top_to_bottom_with_finger_nails_short_short_600ms.mp4	68.06248713390596	68.67044854060987	0.6079614067039074	n/a	n/a	n/a	n/a
52.533203125	0.2	107588	4	66	0	0	0	4	87	stimuli\Videos_short_600ms\89.single_touch_with_plastic_brush_short_short_600ms.mp4	89.single_touch_with_plastic_brush_short_short_600ms.mp4	68.86219394825821	69.47042895189225	0.6082350036340358	n/a	n/a	n/a	n/a
53.3330078125	0.2	109226	5	66	0	0	0	5	242	stimuli\Videos_short_600ms_horvertflip\66.stroke_top_to_bottom_with_sponge_short_horvertflip_short_600ms.mp4	66.stroke_top_to_bottom_with_sponge_short_horvertflip_short_600ms.mp4	69.66211101877161	70.2704111226376	0.6083001038659859	n/a	n/a	n/a	n/a
54.1328125	0.2	110864	6	66	0	0	0	6	135	stimuli\Videos_short_600ms_horflip\50.single_(long)hard_push_with_thumb_short_horflip_short_600ms.mp4	50.single_(long)hard_push_with_thumb_short_horflip_short_600ms.mp4	70.46206738401997	71.07039124067524	0.6083238566552609	n/a	n/a	n/a	n/a
54.93310546875	0.2	112503	7	66	0	0	0	7	222	stimuli\Videos_short_600ms_horvertflip\48.single_slap_with_hand_short_horvertflip_short_600ms.mp4	48.single_slap_with_hand_short_horvertflip_short_600ms.mp4	71.2620501412548	71.87037135871105	0.6083212174562505	n/a	n/a	n/a	n/a
55.73291015625	0.2	114141	8	66	0	0	0	8	25	stimuli\Videos_short_600ms\32.single_(long)pinch_with_fingers_short_short_600ms.mp4	32.single_(long)pinch_with_fingers_short_short_600ms.mp4	72.06214667727727	72.67035235648109	0.6082056792038202	n/a	n/a	n/a	n/a
56.53271484375	0.2	115779	9	66	0	0	0	9	320	stimuli\Videos_short_600ms_vertflip\55.touch_top_to_bottom_with_nail_file_short_vertflip_short_600ms.mp4	55.touch_top_to_bottom_with_nail_file_short_vertflip_short_600ms.mp4	72.86212444936064	73.47033276776165	0.6082083184010116	n/a	n/a	n/a	n/a
57.3330078125	0.2	117418	10	66	0	0	0	10	318	stimuli\Videos_short_600ms_vertflip\53.touch_top_to_bottom_with_knife_short_vertflip_short_600ms.mp4	53.touch_top_to_bottom_with_knife_short_vertflip_short_600ms.mp4	73.66199958593825	74.27031259255455	0.6083130066162994	n/a	n/a	n/a	n/a
58.1328125	0.2	119056	11	66	0	0	0	11	46	stimuli\Videos_short_600ms\51.repeated_touch_with_hammer_short_short_600ms.mp4	51.repeated_touch_with_hammer_short_short_600ms.mp4	74.46228497128868	75.07029652276651	0.6080115514778299	n/a	n/a	n/a	n/a
58.9326171875	0.2	120694	12	66	0	0	0	12	144	stimuli\Videos_short_600ms_horflip\59.single_push_with_long_side_pencil_short_horflip_short_600ms.mp4	59.single_push_with_long_side_pencil_short_horflip_short_600ms.mp4	75.26228590967003	75.87027517458228	0.6079892649122485	n/a	n/a	n/a	n/a
59.73291015625	0.2	122333	13	66	0	0	0	13	35	stimuli\Videos_short_600ms\41.injection_with_blunt_syringe_short_short_600ms.mp4	41.injection_with_blunt_syringe_short_short_600ms.mp4	76.06197952802904	76.67025587910757	0.6082763510785298	n/a	n/a	n/a	n/a
60.53271484375	0.2	123971	14	66	0	0	0	14	217	stimuli\Videos_short_600ms_horvertflip\43.touch_top_to_bottom_with_sharp_wooden_stick_short_horvertflip_short_600ms.mp4	43.touch_top_to_bottom_with_sharp_wooden_stick_short_horvertflip_short_600ms.mp4	76.86191712564323	77.47023892958714	0.6083218039439089	n/a	n/a	n/a	n/a
61.33251953125	0.2	125609	15	66	0	0	0	15	174	stimuli\Videos_short_600ms_horflip\86.touch_top_to_bottom_with_hair_brush_short_horflip_short_600ms.mp4	86.touch_top_to_bottom_with_hair_brush_short_horflip_short_600ms.mp4	77.66192979379593	78.2702167016705	0.6082869078745716	n/a	n/a	n/a	n/a
62.1328125	0.2	127248	16	66	0	0	0	16	232	stimuli\Videos_short_600ms_horvertflip\57.single_touch_with_nail_file_short_horvertflip_short_600ms.mp4	57.single_touch_with_nail_file_short_horvertflip_short_600ms.mp4	78.46195272549994	79.07020121837013	0.6082484928701888	n/a	n/a	n/a	n/a
62.9326171875	0.2	128886	17	66	0	0	0	17	132	stimuli\Videos_short_600ms_horflip\48.single_slap_with_hand_short_horflip_short_600ms.mp4	48.single_slap_with_hand_short_horflip_short_600ms.mp4	79.26224602844559	79.87017840396402	0.6079323755184305	n/a	n/a	n/a	n/a
63.732421875	0.2	130524	18	66	0	0	0	18	75	stimuli\Videos_short_600ms\78.single_stroke_top_to_bottom_with_soft_brush_short_short_600ms.mp4	78.single_stroke_top_to_bottom_with_soft_brush_short_short_600ms.mp4	80.061815017978	80.67013594219134	0.6083209242133307	n/a	n/a	n/a	n/a
64.53271484375	0.2	132163	19	66	0	0	0	19	133	stimuli\Videos_short_600ms_horflip\49.repeated_slap_with_hand_short_horflip_short_600ms.mp4	49.repeated_slap_with_hand_short_horflip_short_600ms.mp4	80.86194117167543	81.47012866973273	0.6081874980573048	n/a	n/a	n/a	n/a
65.33251953125	0.2	133801	20	66	0	0	0	20	140	stimuli\Videos_short_600ms_horflip\55.touch_top_to_bottom_with_nail_file_short_horflip_short_600ms.mp4	55.touch_top_to_bottom_with_nail_file_short_horflip_short_600ms.mp4	81.66185853543175	82.27013107433595	0.6082725389042025	n/a	n/a	n/a	n/a
66.13232421875	0.2	135439	21	66	0	0	0	21	334	stimuli\Videos_short_600ms_vertflip\68.stroke_top_to_bottom_with_shawl_short_vertflip_short_600ms.mp4	68.stroke_top_to_bottom_with_shawl_short_vertflip_short_600ms.mp4	82.46185038324074	83.07010356801948	0.6082531847787322	n/a	n/a	n/a	n/a
66.9326171875	0.2	137078	22	66	0	0	0	22	272	stimuli\Videos_short_600ms_vertflip\11.single_touch_with_lighter_short_vertflip_short_600ms.mp4	11.single_touch_with_lighter_short_vertflip_short_600ms.mp4	83.2618152525738	83.87009336311894	0.6082781105451431	n/a	n/a	n/a	n/a
67.732421875	0.2	138716	23	66	0	0	0	23	316	stimuli\Videos_short_600ms_vertflip\51.repeated_touch_with_hammer_short_vertflip_short_600ms.mp4	51.repeated_touch_with_hammer_short_vertflip_short_600ms.mp4	84.06182557477223	84.67006732302434	0.6082417482521123	n/a	n/a	n/a	n/a
68.53271484375	0.2	140355	24	66	0	0	0	24	323	stimuli\Videos_short_600ms_vertflip\58.single_slap_with_pencil_short_vertflip_short_600ms.mp4	58.single_slap_with_pencil_short_vertflip_short_600ms.mp4	84.8617276898276	85.47004802754964	0.6083203377220343	n/a	n/a	n/a	n/a
69.33251953125	0.2	141993	25	66	0	0	0	25	240	stimuli\Videos_short_600ms_horvertflip\64.repeated_touch_with_screwdriver_short_horvertflip_short_600ms.mp4	64.repeated_touch_with_screwdriver_short_horvertflip_short_600ms.mp4	85.6617145524815	86.27002726585488	0.6083127133733797	n/a	n/a	n/a	n/a
70.13232421875	0.2	143631	26	66	0	0	1	26	367	stimuli\Targets_short_600ms_horflip\chopstick-silver-tap_short_horflip_short_600ms.mp4	chopstick-silver-tap_short_horflip_short_600ms.mp4	86.46180991552683	87.07000885011257	0.6081989345857437	n/a	n/a	n/a	n/a
70.9326171875	0.2	145270	27	66	0	0	0	27	333	stimuli\Videos_short_600ms_vertflip\67.single_touch_with_sponge_short_vertflip_short_600ms.mp4	67.single_touch_with_sponge_short_vertflip_short_600ms.mp4	87.2617129103146	87.86999131410266	0.6082784037880629	n/a	n/a	n/a	n/a
71.732421875	0.2	146908	28	66	0	0	0	28	277	stimuli\Videos_short_600ms_vertflip\16.repeated_touch_with_plastic_brush_short_vertflip_short_600ms.mp4	16.repeated_touch_with_plastic_brush_short_vertflip_short_600ms.mp4	88.06165783903452	88.66997201862796	0.6083141795934353	n/a	n/a	n/a	n/a
72.5322265625	0.2	148546	29	66	0	0	0	29	128	stimuli\Videos_short_600ms_horflip\44.pushing_top_to_bottom_with_finger_short_horflip_short_600ms.mp4	44.pushing_top_to_bottom_with_finger_short_horflip_short_600ms.mp4	88.8616435287131	89.469955655597	0.6083121268839022	n/a	n/a	n/a	n/a
73.33251953125	0.2	150185	30	66	0	0	0	30	34	stimuli\Videos_short_600ms\40.repeated_push_with_finger_short_short_600ms.mp4	40.repeated_push_with_finger_short_short_600ms.mp4	89.66192040997885	90.26993166821376	0.6080112582349102	n/a	n/a	n/a	n/a
74.13232421875	0.2	151823	31	66	0	0	0	31	173	stimuli\Videos_short_600ms_horflip\85.touch_top_to_bottom_with_fabric_short_horflip_short_600ms.mp4	85.touch_top_to_bottom_with_fabric_short_horflip_short_600ms.mp4	90.46160992291698	91.06991413220383	0.6083042092868709	n/a	n/a	n/a	n/a
74.93212890625	0.2	153461	32	66	0	0	0	32	102	stimuli\Videos_short_600ms_horflip\20.single_touch_with_screwdriver_short_horflip_short_600ms.mp4	20.single_touch_with_screwdriver_short_horflip_short_600ms.mp4	91.2615736192729	91.86989307726436	0.6083194579914561	n/a	n/a	n/a	n/a
75.732421875	0.2	155100	33	66	0	0	0	33	298	stimuli\Videos_short_600ms_vertflip\35.single_punch_with_hand_short_vertflip_short_600ms.mp4	35.single_punch_with_hand_short_vertflip_short_600ms.mp4	92.06155461704292	92.66987993992008	0.6083253228771355	n/a	n/a	n/a	n/a
76.5322265625	0.2	156738	34	66	0	0	1	34	376	stimuli\Targets_short_600ms_horvertflip\hand-pinch_short_vertflip_short_600ms.mp4	hand-pinch_short_vertflip_short_600ms.mp4	92.86163707733976	93.46985008765114	0.6082130103113741	n/a	n/a	n/a	n/a
77.33203125	0.2	158376	35	66	0	0	0	35	237	stimuli\Videos_short_600ms_horvertflip\61.single_hit_with_rolling_pin_short_horvertflip_short_600ms.mp4	61.single_hit_with_rolling_pin_short_horvertflip_short_600ms.mp4	93.66161191697938	94.26981730293846	0.6082053859590815	n/a	n/a	n/a	n/a
78.13232421875	0.2	160015	36	66	0	0	1	36	361	stimuli\Targets_short_600ms\chopstick-silver-tap_short_short_600ms.mp4	chopstick-silver-tap_short_short_600ms.mp4	94.4615404240194	95.06981501563314	0.6082745916137355	n/a	n/a	n/a	n/a
78.93212890625	0.2	161653	37	66	0	0	0	37	26	stimuli\Videos_short_600ms\33.scratch_top_to_bottom_with_scissors_short_short_600ms.mp4	33.scratch_top_to_bottom_with_scissors_short_short_600ms.mp4	95.2617912065416	95.86980774317452	0.6080165366329311	n/a	n/a	n/a	n/a
79.73193359375	0.2	163291	38	66	0	0	0	38	119	stimuli\Videos_short_600ms_horflip\36.single_slap_with_full_hand_short_horflip_short_600ms.mp4	36.single_slap_with_full_hand_short_horflip_short_600ms.mp4	96.06152470612506	96.6697770111714	0.6082523050463351	n/a	n/a	n/a	n/a
80.5322265625	0.2	164930	39	66	0	0	0	39	109	stimuli\Videos_short_600ms_horflip\27.single_push_with_a_plastic_whisk_short_horflip_short_600ms.mp4	27.single_push_with_a_plastic_whisk_short_horflip_short_600ms.mp4	96.8614394306842	97.46976504680424	0.6083256161200552	n/a	n/a	n/a	n/a
81.33203125	0.2	166568	40	66	0	0	0	40	131	stimuli\Videos_short_600ms_horflip\47.(long)scratching_with_finger_nails_short_horflip_short_600ms.mp4	47.(long)scratching_with_finger_nails_short_horflip_short_600ms.mp4	97.6615441775466	98.26974223239812	0.6081980548515276	n/a	n/a	n/a	n/a
82.1318359375	0.2	168206	41	66	0	0	0	41	42	stimuli\Videos_short_600ms\48.single_slap_with_hand_short_short_600ms.mp4	48.single_slap_with_hand_short_short_600ms.mp4	98.46138265858826	99.06973232074051	0.60834966215225	n/a	n/a	n/a	n/a
82.93212890625	0.2	169845	42	66	0	0	0	42	154	stimuli\Videos_short_600ms_horflip\68.stroke_top_to_bottom_with_shawl_short_horflip_short_600ms.mp4	68.stroke_top_to_bottom_with_shawl_short_horflip_short_600ms.mp4	99.26141350788748	99.8697024684716	0.6082889605841046	n/a	n/a	n/a	n/a
83.73193359375	0.2	171483	43	66	0	0	0	43	12	stimuli\Videos_short_600ms\20.single_touch_with_screwdriver_short_short_600ms.mp4	20.single_touch_with_screwdriver_short_short_600ms.mp4	100.06142646928492	100.6696861054388	0.608259636153889	n/a	n/a	n/a	n/a
84.53173828125	0.2	173121	44	66	0	0	1	44	364	stimuli\Targets_short_600ms\hand-pinch_short_short_600ms.mp4	hand-pinch_short_short_600ms.mp4	100.8613930980846	101.46966886267546	0.6082757645908714	n/a	n/a	n/a	n/a
85.33203125	0.2	174760	45	66	0	0	0	45	179	stimuli\Videos_short_600ms_horflip\90.repeated_touch_with_sponge_short_horflip_short_600ms.mp4	90.repeated_touch_with_sponge_short_horflip_short_600ms.mp4	101.6614031270401	102.26964927395602	0.608246146915917	n/a	n/a	n/a	n/a
86.1318359375	0.2	176398	46	66	0	0	0	46	279	stimuli\Videos_short_600ms_vertflip\18.single_stroke_from_top_to_bottom_with_rolling_pin_short_vertflip_short_600ms.mp4	18.single_stroke_from_top_to_bottom_with_rolling_pin_short_vertflip_short_600ms.mp4	102.46137591396835	103.06963027172606	0.6082543577576871	n/a	n/a	n/a	n/a
86.931640625	0.2	178036	47	66	0	0	0	47	31	stimuli\Videos_short_600ms\38.double_slap_with_pencil_short_short_600ms.mp4	38.double_slap_with_pencil_short_short_600ms.mp4	103.26132876028532	103.86960951002948	0.6082807497441536	n/a	n/a	n/a	n/a
87.73193359375	0.2	179675	48	66	0	0	0	48	311	stimuli\Videos_short_600ms_vertflip\47.(long)scratching_with_finger_nails_short_vertflip_short_600ms.mp4	47.(long)scratching_with_finger_nails_short_vertflip_short_600ms.mp4	104.06126958358618	104.66958845508816	0.6083188715019787	n/a	n/a	n/a	n/a
88.53173828125	0.2	181313	49	66	0	0	0	49	341	stimuli\Videos_short_600ms_vertflip\74.fingers_walking_from_top_to_bottom_short_vertflip_short_600ms.mp4	74.fingers_walking_from_top_to_bottom_short_vertflip_short_600ms.mp4	104.86130864372716	105.4695703325906	0.608261688863422	n/a	n/a	n/a	n/a
89.33203125	0.2	182952	50	66	0	0	0	50	146	stimuli\Videos_short_600ms_horflip\60.single_push_with_tip_of_pencil_short_horflip_short_600ms.mp4	60.single_push_with_tip_of_pencil_short_horflip_short_600ms.mp4	105.66128758878584	106.26955045062824	0.6082628618423769	n/a	n/a	n/a	n/a
90.1318359375	0.2	184590	51	66	0	0	0	51	145	stimuli\Videos_short_600ms_horflip\6.single_touch_with_flat_hand_short_horflip_short_600ms.mp4	6.single_touch_with_flat_hand_short_horflip_short_600ms.mp4	106.46121521609348	107.06953320786306	0.6083179917695816	n/a	n/a	n/a	n/a
90.931640625	0.2	186228	52	66	0	0	0	52	288	stimuli\Videos_short_600ms_vertflip\26.single_touch_with_a_blunt_syringe_short_vertflip_short_600ms.mp4	26.single_touch_with_a_blunt_syringe_short_vertflip_short_600ms.mp4	107.26116952863232	107.86951596509788	0.6083464364655811	n/a	n/a	n/a	n/a
91.73193359375	0.2	187867	53	66	0	0	0	53	181	stimuli\Videos_short_600ms_horvertflip\10.single_touch_with_knife_short_horvertflip_short_600ms.mp4	10.single_touch_with_knife_short_horvertflip_short_600ms.mp4	108.06123468751504	108.66947672901188	0.608242041496851	n/a	n/a	n/a	n/a
92.53173828125	0.2	189505	54	66	0	0	0	54	317	stimuli\Videos_short_600ms_vertflip\52.touch_top_to_bottom_with_hammer_short_vertflip_short_600ms.mp4	52.touch_top_to_bottom_with_hammer_short_vertflip_short_600ms.mp4	108.86169044780036	109.46945860651432	0.6077681587139523	n/a	n/a	n/a	n/a
93.33984375	0.2	191160	55	66	0	0	0	55	297	stimuli\Videos_short_600ms_vertflip\34.repeated_punch_with_hand_short_vertflip_short_600ms.mp4	34.repeated_punch_with_hand_short_vertflip_short_600ms.mp4	109.66944535187211	110.27779032211583	0.6083449702437065	n/a	n/a	n/a	n/a
94.14013671875	0.2	192799	56	66	0	0	0	56	228	stimuli\Videos_short_600ms_horvertflip\53.touch_top_to_bottom_with_knife_short_horvertflip_short_600ms.mp4	53.touch_top_to_bottom_with_knife_short_horvertflip_short_600ms.mp4	110.46946036598092	111.07777278610774	0.608312420126822	n/a	n/a	n/a	n/a
94.93994140625	0.2	194437	57	66	0	0	0	57	331	stimuli\Videos_short_600ms_vertflip\65.stroke_top_to_bottom_with_stanley_knife_short_vertflip_short_600ms.mp4	65.stroke_top_to_bottom_with_stanley_knife_short_vertflip_short_600ms.mp4	111.26945661245372	111.87775349063304	0.608296878179317	n/a	n/a	n/a	n/a
95.73974609375	0.2	196075	58	66	0	0	0	58	54	stimuli\Videos_short_600ms\59.single_push_with_long_side_pencil_short_short_600ms.mp4	59.single_push_with_long_side_pencil_short_short_600ms.mp4	112.069429399382	112.67771572076708	0.6082863213850942	n/a	n/a	n/a	n/a
96.5400390625	0.2	197714	59	66	0	0	0	59	289	stimuli\Videos_short_600ms_vertflip\27.single_push_with_a_plastic_whisk_short_vertflip_short_600ms.mp4	27.single_push_with_a_plastic_whisk_short_vertflip_short_600ms.mp4	112.87012004835016	113.47768938742956	0.6075693390794186	n/a	n/a	n/a	n/a
97.33984375	0.2	199352	60	66	0	0	0	60	213	stimuli\Videos_short_600ms_horvertflip\4.repeated_tap_with_finger_slow_short_horvertflip_short_600ms.mp4	4.repeated_tap_with_finger_slow_short_horvertflip_short_600ms.mp4	113.6697632286905	114.27769501771944	0.6079317890289531	n/a	n/a	n/a	n/a
98.1396484375	0.2	200990	61	66	0	0	0	61	150	stimuli\Videos_short_600ms_horflip\64.repeated_touch_with_screwdriver_short_horflip_short_600ms.mp4	64.repeated_touch_with_screwdriver_short_horflip_short_600ms.mp4	114.46940816849563	115.07767718846662	0.6082690199709759	n/a	n/a	n/a	n/a
98.93994140625	0.2	202629	62	66	0	0	0	62	16	stimuli\Videos_short_600ms\24.single_stroke_top_to_bottom_with_a_spoon_short_short_600ms.mp4	24.single_stroke_top_to_bottom_with_a_spoon_short_short_600ms.mp4	115.26933491607087	115.8776432307768	0.6083083147059369	n/a	n/a	n/a	n/a
99.73974609375	0.2	204267	63	66	0	0	0	63	340	stimuli\Videos_short_600ms_vertflip\73.single_stroke_with_flat_hand_short_vertflip_short_600ms.mp4	73.single_stroke_with_flat_hand_short_vertflip_short_600ms.mp4	116.0695085753432	116.67763625156294	0.6081276762197376	n/a	n/a	n/a	n/a
100.53955078125	0.2	205905	64	66	0	0	1	64	360	stimuli\Targets_short_600ms\brush-stroke_short_short_600ms.mp4	brush-stroke_short_short_600ms.mp4	116.86933180768028	117.47760786551588	0.6082760578356101	n/a	n/a	n/a	n/a
101.33984375	0.2	207544	65	66	0	0	0	65	208	stimuli\Videos_short_600ms_horvertflip\35.single_punch_with_hand_short_horvertflip_short_600ms.mp4	35.single_punch_with_hand_short_horvertflip_short_600ms.mp4	117.66926823231734	118.27760880389724	0.6083405715799017	n/a	n/a	n/a	n/a
102.1396484375	0.2	209182	66	66	0	0	0	66	91	stimuli\Videos_short_600ms_horflip\10.single_touch_with_knife_short_horflip_short_600ms.mp4	10.single_touch_with_knife_short_horflip_short_600ms.mp4	118.46925861390446	119.0775909746444	0.6083323607399507	n/a	n/a	n/a	n/a
102.939453125	0.2	210820	67	66	0	0	0	67	80	stimuli\Videos_short_600ms\82.repeated_touch_with_cotton_bud_short_short_600ms.mp4	82.repeated_touch_with_cotton_bud_short_short_600ms.mp4	119.26927949289892	119.8775587764194	0.60827928352046	n/a	n/a	n/a	n/a
103.73974609375	0.2	212459	68	66	0	0	1	68	368	stimuli\Targets_short_600ms_horflip\chopstickwood-tap_short_horflip_short_600ms.mp4	chopstickwood-tap_short_horflip_short_600ms.mp4	120.06987483746887	120.67755003774072	0.6076752002718422	n/a	n/a	n/a	n/a
104.53955078125	0.2	214097	69	66	0	0	0	69	308	stimuli\Videos_short_600ms_vertflip\44.pushing_top_to_bottom_with_finger_short_vertflip_short_600ms.mp4	44.pushing_top_to_bottom_with_finger_short_vertflip_short_600ms.mp4	120.86937960650177	121.47752575711274	0.6081461506109918	n/a	n/a	n/a	n/a
105.33984375	0.2	215736	70	66	0	0	1	70	380	stimuli\Targets_short_600ms_vertflip\chopstickwood-tap_short_horvertflip_short_600ms.mp4	chopstickwood-tap_short_horvertflip_short_600ms.mp4	121.66966645807224	122.27750675488278	0.6078402968105365	n/a	n/a	n/a	n/a
106.1396484375	0.2	217374	71	66	0	0	0	71	127	stimuli\Videos_short_600ms_horflip\43.touch_top_to_bottom_with_sharp_wooden_stick_short_horflip_short_600ms.mp4	43.touch_top_to_bottom_with_sharp_wooden_stick_short_horflip_short_600ms.mp4	122.46942869559643	123.07748394047483	0.6080552448784147	n/a	n/a	n/a	n/a
106.939453125	0.2	219012	72	66	0	0	0	72	205	stimuli\Videos_short_600ms_horvertflip\32.single_(long)pinch_with_fingers_short_horvertflip_short_600ms.mp4	32.single_(long)pinch_with_fingers_short_horvertflip_short_600ms.mp4	123.26914518701052	123.87747138962004	0.6083262026095326	n/a	n/a	n/a	n/a
107.73974609375	0.2	220651	73	66	0	0	0	73	92	stimuli\Videos_short_600ms_horflip\11.single_touch_with_lighter_short_horflip_short_600ms.mp4	11.single_touch_with_lighter_short_horflip_short_600ms.mp4	124.06912999695489	124.67744798872444	0.6083179917695816	n/a	n/a	n/a	n/a
108.53955078125	0.2	222289	74	66	0	0	0	74	350	stimuli\Videos_short_600ms_vertflip\82.repeated_touch_with_cotton_bud_short_vertflip_short_600ms.mp4	82.repeated_touch_with_cotton_bud_short_vertflip_short_600ms.mp4	124.86908577571558	125.47742722702787	0.6083414513122989	n/a	n/a	n/a	n/a
109.33935546875	0.2	223927	75	66	0	0	0	75	282	stimuli\Videos_short_600ms_vertflip\20.single_touch_with_screwdriver_short_vertflip_short_600ms.mp4	20.single_touch_with_screwdriver_short_vertflip_short_600ms.mp4	125.6690770370351	126.27740822479792	0.6083311877628148	n/a	n/a	n/a	n/a
110.1396484375	0.2	225566	76	66	0	0	0	76	0	stimuli\Videos_short_600ms\1.repeated_touch_with_finger_fast_short_short_600ms.mp4	1.repeated_touch_with_finger_fast_short_short_600ms.mp4	126.46911081877806	127.0773818914604	0.6082710726823279	n/a	n/a	n/a	n/a
110.939453125	0.2	227204	77	66	0	0	0	77	300	stimuli\Videos_short_600ms_vertflip\37.single_stab_with_nail_file_short_vertflip_short_600ms.mp4	37.single_stab_with_nail_file_short_vertflip_short_600ms.mp4	127.26911351662602	127.87737168655804	0.6082581699320144	n/a	n/a	n/a	n/a
111.7392578125	0.2	228842	78	66	0	0	0	78	257	stimuli\Videos_short_600ms_horvertflip\8.single_touch_with_hairbrush_short_horvertflip_short_600ms.mp4	8.single_touch_with_hairbrush_short_horvertflip_short_600ms.mp4	128.06926723528704	128.67735503028234	0.6080877949952992	n/a	n/a	n/a	n/a
112.53955078125	0.2	230481	79	66	0	0	0	79	163	stimuli\Videos_short_600ms_horflip\76.tickle_with_fingers_from_top_to_bottom_short_horflip_short_600ms.mp4	76.tickle_with_fingers_from_top_to_bottom_short_horflip_short_600ms.mp4	128.8690394431178	129.4773096360659	0.6082701929481118	n/a	n/a	n/a	n/a
113.33935546875	0.2	232119	80	66	0	0	0	80	110	stimuli\Videos_short_600ms_horflip\28.single_injection_with_sharp_needle_short_horflip_short_600ms.mp4	28.single_injection_with_sharp_needle_short_horflip_short_600ms.mp4	129.66902777199357	130.27729767169876	0.6082698997051921	n/a	n/a	n/a	n/a
114.13916015625	0.2	233757	81	66	0	0	0	81	234	stimuli\Videos_short_600ms_horvertflip\59.single_push_with_long_side_pencil_short_horvertflip_short_600ms.mp4	59.single_push_with_long_side_pencil_short_horvertflip_short_600ms.mp4	130.4689744601801	131.07729743710297	0.6083229769228637	n/a	n/a	n/a	n/a
114.939453125	0.2	235396	82	66	0	0	0	82	290	stimuli\Videos_short_600ms_vertflip\28.single_injection_with_sharp_needle_short_vertflip_short_600ms.mp4	28.single_injection_with_sharp_needle_short_vertflip_short_600ms.mp4	131.26900618921354	131.8772526293742	0.6082464401606558	n/a	n/a	n/a	n/a
115.7392578125	0.2	237034	83	66	0	0	0	83	252	stimuli\Videos_short_600ms_horvertflip\75.(long)stroke_with_fingers_all_over_the_hand_short_horvertflip_short_600ms.mp4	75.(long)stroke_with_fingers_all_over_the_hand_short_horvertflip_short_600ms.mp4	132.06898806671597	132.67724975558122	0.608261688865241	n/a	n/a	n/a	n/a
116.5390625	0.2	238672	84	66	0	0	0	84	281	stimuli\Videos_short_600ms_vertflip\2.single_touch_with_finger_short_vertflip_short_600ms.mp4	2.single_touch_with_finger_short_vertflip_short_600ms.mp4	132.86894296574246	133.4772416033884	0.6082986376459303	n/a	n/a	n/a	n/a
117.33935546875	0.2	240311	85	66	0	0	0	85	170	stimuli\Videos_short_600ms_horflip\82.repeated_touch_with_cotton_bud_short_horflip_short_600ms.mp4	82.repeated_touch_with_cotton_bud_short_horflip_short_600ms.mp4	133.66889786477077	134.27723227822025	0.6083344134494837	n/a	n/a	n/a	n/a
118.13916015625	0.2	241949	86	66	0	0	0	86	77	stimuli\Videos_short_600ms\8.single_touch_with_hairbrush_short_short_600ms.mp4	8.single_touch_with_hairbrush_short_short_600ms.mp4	134.46885540299627	135.07720154621893	0.6083461432226613	n/a	n/a	n/a	n/a
118.93896484375	0.2	243587	87	66	0	0	0	87	241	stimuli\Videos_short_600ms_horvertflip\65.stroke_top_to_bottom_with_stanley_knife_short_horvertflip_short_600ms.mp4	65.stroke_top_to_bottom_with_stanley_knife_short_horvertflip_short_600ms.mp4	135.26885986030902	135.87718430345376	0.6083244431447383	n/a	n/a	n/a	n/a
119.7392578125	0.2	245226	88	66	0	0	0	88	203	stimuli\Videos_short_600ms_horvertflip\30.finger_pulling_back_another_finger_short_horvertflip_short_600ms.mp4	30.finger_pulling_back_another_finger_short_horvertflip_short_600ms.mp4	136.06887487441782	136.6771620755353	0.6082872011174913	n/a	n/a	n/a	n/a
120.5390625	0.2	246864	89	66	0	0	0	89	188	stimuli\Videos_short_600ms_horvertflip\17.repeated_touch_with_rolling_pin_short_horvertflip_short_600ms.mp4	17.repeated_touch_with_rolling_pin_short_horvertflip_short_600ms.mp4	136.86881481798628	137.47714395303774	0.6083291350514628	n/a	n/a	n/a	n/a
121.3388671875	0.2	248502	90	66	0	0	0	90	177	stimuli\Videos_short_600ms_horflip\89.single_touch_with_plastic_brush_short_horflip_short_600ms.mp4	89.single_touch_with_plastic_brush_short_horflip_short_600ms.mp4	137.66880431983918	138.27712583054017	0.6083215107009892	n/a	n/a	n/a	n/a
122.13916015625	0.2	250141	91	66	0	0	0	91	51	stimuli\Videos_short_600ms\56.repeated_touch_with_nail_file_short_short_600ms.mp4	56.repeated_touch_with_nail_file_short_short_600ms.mp4	138.46883722184975	139.0771050688454	0.6082678469956591	n/a	n/a	n/a	n/a
122.93896484375	0.2	251779	92	66	0	0	0	92	329	stimuli\Videos_short_600ms_vertflip\63.stroke_top_to_bottom_with_screwdriver_short_vertflip_short_600ms.mp4	63.stroke_top_to_bottom_with_screwdriver_short_vertflip_short_600ms.mp4	139.26877218026493	139.87708635985837	0.6083141795934353	n/a	n/a	n/a	n/a
123.73876953125	0.2	253417	93	66	0	0	0	93	357	stimuli\Videos_short_600ms_vertflip\89.single_touch_with_plastic_brush_short_vertflip_short_600ms.mp4	89.single_touch_with_plastic_brush_short_vertflip_short_600ms.mp4	140.06878044975383	140.67706941033794	0.6082889605841046	n/a	n/a	n/a	n/a
124.5390625	0.2	255056	94	66	0	0	0	94	214	stimuli\Videos_short_600ms_horvertflip\40.repeated_push_with_finger_short_horvertflip_short_600ms.mp4	40.repeated_push_with_finger_short_horvertflip_short_600ms.mp4	140.86874825153063	141.4770533405499	0.608305089019268	n/a	n/a	n/a	n/a
125.3388671875	0.2	256694	95	66	0	0	0	95	359	stimuli\Videos_short_600ms_vertflip\90.repeated_touch_with_sponge_short_vertflip_short_600ms.mp4	90.repeated_touch_with_sponge_short_vertflip_short_600ms.mp4	141.66876443861474	142.27703081938853	0.6082663807737845	n/a	n/a	n/a	n/a
126.13916015625	0.2	258333	96	66	0	0	0	96	165	stimuli\Videos_short_600ms_horflip\78.single_stroke_top_to_bottom_with_soft_brush_short_horflip_short_600ms.mp4	78.single_stroke_top_to_bottom_with_soft_brush_short_horflip_short_600ms.mp4	142.4687911824949	143.07701269689096	0.6082215143960639	7.0	7.0	4.451932274641877	1.0
165.1376953125	0.2	338202	97	66	1	0	0	0	37	stimuli\Videos_short_600ms\43.touch_top_to_bottom_with_sharp_wooden_stick_short_short_600ms.mp4	43.touch_top_to_bottom_with_sharp_wooden_stick_short_short_600ms.mp4	181.46776658692397	182.0760971881973	0.6083306012733374	n/a	n/a	n/a	n/a
165.9375	0.2	339840	98	66	1	0	0	1	248	stimuli\Videos_short_600ms_horvertflip\71.single_stroke_with_finger_top_to_bottom_short_horvertflip_short_600ms.mp4	71.single_stroke_with_finger_top_to_bottom_short_horvertflip_short_600ms.mp4	182.2677716307244	182.8760667494389	0.6082951187145227	n/a	n/a	n/a	n/a
166.73779296875	0.2	341479	99	66	1	0	0	2	233	stimuli\Videos_short_600ms_horvertflip\58.single_slap_with_pencil_short_horvertflip_short_600ms.mp4	58.single_slap_with_pencil_short_horvertflip_short_600ms.mp4	183.0677458838763	183.6760456944994	0.6082998106230662	n/a	n/a	n/a	n/a
167.53759765625	0.2	343117	100	66	1	0	0	3	285	stimuli\Videos_short_600ms_vertflip\23.single_push_with_a_spoon_short_vertflip_short_600ms.mp4	23.single_push_with_a_spoon_short_vertflip_short_600ms.mp4	183.867707234278	184.4760272787571	0.6083200444791146	n/a	n/a	n/a	n/a
168.33740234375	0.2	344755	101	66	1	0	0	4	43	stimuli\Videos_short_600ms\49.repeated_slap_with_hand_short_short_600ms.mp4	49.repeated_slap_with_hand_short_short_600ms.mp4	184.66770641319457	185.27601032923667	0.6083039160421322	n/a	n/a	n/a	n/a
169.1376953125	0.2	346394	102	66	1	0	1	5	365	stimuli\Targets_short_600ms\hand-stroke_short_short_600ms.mp4	hand-stroke_short_short_600ms.mp4	185.4677290516538	186.07599191349436	0.6082628618405579	n/a	n/a	n/a	n/a
169.9375	0.2	348032	103	66	1	0	0	6	346	stimuli\Videos_short_600ms_vertflip\79.long_with_soft_brush_all_over_the_hand_short_vertflip_short_600ms.mp4	79.long_with_soft_brush_all_over_the_hand_short_vertflip_short_600ms.mp4	186.2677012520944	186.8759708585549	0.6082696064604534	n/a	n/a	n/a	n/a
170.7373046875	0.2	349670	104	66	1	0	0	7	227	stimuli\Videos_short_600ms_horvertflip\52.touch_top_to_bottom_with_hammer_short_horvertflip_short_600ms.mp4	52.touch_top_to_bottom_with_hammer_short_horvertflip_short_600ms.mp4	187.06765292543423	187.67595302930025	0.6083001038659859	n/a	n/a	n/a	n/a
171.53759765625	0.2	351309	105	66	1	0	0	8	309	stimuli\Videos_short_600ms_vertflip\45.scratching_with_finger_nails_short_vertflip_short_600ms.mp4	45.scratching_with_finger_nails_short_vertflip_short_600ms.mp4	187.86762717858437	188.47593314733783	0.6083059687534842	n/a	n/a	n/a	n/a
172.33740234375	0.2	352947	106	66	1	0	0	9	261	stimuli\Videos_short_600ms_horvertflip\83.single_stroke_top_to_bottom_with_cotton_bud_short_horvertflip_short_600ms.mp4	83.single_stroke_top_to_bottom_with_cotton_bud_short_horvertflip_short_600ms.mp4	188.66757152081664	189.27591561132976	0.6083440905131283	n/a	n/a	n/a	n/a
173.13720703125	0.2	354585	107	66	1	0	0	10	172	stimuli\Videos_short_600ms_horflip\84.single_touch_with_cotton_bud_short_horflip_short_600ms.mp4	84.single_touch_with_cotton_bud_short_horflip_short_600ms.mp4	189.46793051048553	190.075901887496	0.6079713770104718	n/a	n/a	n/a	n/a
173.9375	0.2	356224	108	66	1	0	1	11	379	stimuli\Targets_short_600ms_vertflip\chopstick-silver-tap_short_horvertflip_short_600ms.mp4	chopstick-silver-tap_short_horvertflip_short_600ms.mp4	190.26757867597735	190.875877606868	0.608298930890669	n/a	n/a	n/a	n/a
174.7373046875	0.2	357862	109	66	1	0	0	12	321	stimuli\Videos_short_600ms_vertflip\56.repeated_touch_with_nail_file_short_vertflip_short_600ms.mp4	56.repeated_touch_with_nail_file_short_vertflip_short_600ms.mp4	191.067545304777	191.6758316261621	0.6082863213850942	n/a	n/a	n/a	n/a
175.537109375	0.2	359500	110	66	1	0	0	13	120	stimuli\Videos_short_600ms_horflip\37.single_stab_with_nail_file_short_horflip_short_600ms.mp4	37.single_stab_with_nail_file_short_horflip_short_600ms.mp4	191.8676066514836	192.4758357902319	0.6082291387483565	n/a	n/a	n/a	n/a
176.33740234375	0.2	361139	111	66	1	0	0	14	358	stimuli\Videos_short_600ms_vertflip\9.single_touch_with_hammer_short_vertflip_short_600ms.mp4	9.single_touch_with_hammer_short_vertflip_short_600ms.mp4	192.66750818004948	193.27582881101625	0.608320630966773	n/a	n/a	n/a	n/a
177.13720703125	0.2	362777	112	66	1	0	0	15	219	stimuli\Videos_short_600ms_horvertflip\45.scratching_with_finger_nails_short_horvertflip_short_600ms.mp4	45.scratching_with_finger_nails_short_horvertflip_short_600ms.mp4	193.4675223144241	194.07580101145868	0.6082786970346206	n/a	n/a	n/a	n/a
177.93701171875	0.2	364415	113	66	1	0	0	16	106	stimuli\Videos_short_600ms_horflip\24.single_stroke_top_to_bottom_with_a_spoon_short_horflip_short_600ms.mp4	24.single_stroke_top_to_bottom_with_a_spoon_short_horflip_short_600ms.mp4	194.2675118162788	194.87578699438015	0.608275178101394	n/a	n/a	n/a	n/a
178.7373046875	0.2	366054	114	66	1	0	0	17	330	stimuli\Videos_short_600ms_vertflip\64.repeated_touch_with_screwdriver_short_vertflip_short_600ms.mp4	64.repeated_touch_with_screwdriver_short_vertflip_short_600ms.mp4	195.0674567449987	195.67577180432636	0.6083150593276514	n/a	n/a	n/a	n/a
179.537109375	0.2	367692	115	66	1	0	0	18	98	stimuli\Videos_short_600ms_horflip\17.repeated_touch_with_rolling_pin_short_horflip_short_600ms.mp4	17.repeated_touch_with_rolling_pin_short_horflip_short_600ms.mp4	195.86744478063156	196.4757451777441	0.6083003971125436	n/a	n/a	n/a	n/a
180.3369140625	0.2	369330	116	66	1	0	0	19	305	stimuli\Videos_short_600ms_vertflip\41.injection_with_blunt_syringe_short_vertflip_short_600ms.mp4	41.injection_with_blunt_syringe_short_vertflip_short_600ms.mp4	196.66740964996643	197.27572646875703	0.6083168187906267	n/a	n/a	n/a	n/a
181.13720703125	0.2	370969	117	66	1	0	0	20	60	stimuli\Videos_short_600ms\64.repeated_touch_with_screwdriver_short_short_600ms.mp4	64.repeated_touch_with_screwdriver_short_short_600ms.mp4	197.46815103019617	198.0757033611062	0.607552330910039	n/a	n/a	n/a	n/a
181.93701171875	0.2	372607	118	66	1	0	0	21	209	stimuli\Videos_short_600ms_horvertflip\36.single_slap_with_full_hand_short_horvertflip_short_600ms.mp4	36.single_slap_with_full_hand_short_horvertflip_short_600ms.mp4	198.26736343466473	198.87568699807525	0.6083235634105222	n/a	n/a	n/a	n/a
182.73681640625	0.2	374245	119	66	1	0	0	22	103	stimuli\Videos_short_600ms_horflip\21.repeated_touch_with_metal_chopstick_short_horflip_short_600ms.mp4	21.repeated_touch_with_metal_chopstick_short_horflip_short_600ms.mp4	199.06738460690212	199.67566535664628	0.6082807497441536	n/a	n/a	n/a	n/a
183.537109375	0.2	375884	120	66	1	0	0	23	56	stimuli\Videos_short_600ms\60.single_push_with_tip_of_pencil_short_short_600ms.mp4	60.single_push_with_tip_of_pencil_short_short_600ms.mp4	199.86735094245705	200.47564899361532	0.6082980511582718	n/a	n/a	n/a	n/a
184.3369140625	0.2	377522	121	66	1	0	0	24	130	stimuli\Videos_short_600ms_horflip\46.scratching_top_to_bottom_with_finger_nails_short_horflip_short_600ms.mp4	46.scratching_top_to_bottom_with_finger_nails_short_horflip_short_600ms.mp4	200.66733751186803	201.27563087111776	0.6082933592497284	n/a	n/a	n/a	n/a
185.13720703125	0.2	379161	122	66	1	0	0	25	9	stimuli\Videos_short_600ms\18.single_stroke_from_top_to_bottom_with_rolling_pin_short_short_600ms.mp4	18.single_stroke_from_top_to_bottom_with_rolling_pin_short_short_600ms.mp4	201.467326720478	202.07561098915355	0.6082842686755612	n/a	n/a	n/a	n/a
185.93701171875	0.2	380799	123	66	1	0	0	26	354	stimuli\Videos_short_600ms_vertflip\86.touch_top_to_bottom_with_hair_brush_short_vertflip_short_600ms.mp4	86.touch_top_to_bottom_with_hair_brush_short_vertflip_short_600ms.mp4	202.26781356466017	202.8755884679922	0.6077749033320288	n/a	n/a	n/a	n/a
186.73681640625	0.2	382437	124	66	1	0	0	27	160	stimuli\Videos_short_600ms_horflip\73.single_stroke_with_flat_hand_short_horflip_short_600ms.mp4	73.single_stroke_with_flat_hand_short_horflip_short_600ms.mp4	203.0675194992782	203.6755709319823	0.6080514327040873	n/a	n/a	n/a	n/a
187.537109375	0.2	384076	125	66	1	0	0	28	20	stimuli\Videos_short_600ms\28.single_injection_with_sharp_needle_short_short_600ms.mp4	28.single_injection_with_sharp_needle_short_short_600ms.mp4	203.86728173680424	204.47555134326285	0.6082696064586344	n/a	n/a	n/a	n/a
188.3369140625	0.2	385714	126	66	1	0	0	29	265	stimuli\Videos_short_600ms_horvertflip\87.single_stroke_top_to_bottom_with_plastic_brush_short_horvertflip_short_600ms.mp4	87.single_stroke_top_to_bottom_with_plastic_brush_short_horvertflip_short_600ms.mp4	204.6672407412516	205.2755314613005	0.608290720048899	n/a	n/a	n/a	n/a
189.13671875	0.2	387352	127	66	1	0	0	30	258	stimuli\Videos_short_600ms_horvertflip\80.stroke_with_sharp_stick_all_over_the_hand_short_horvertflip_short_600ms.mp4	80.stroke_with_sharp_stick_all_over_the_hand_short_horvertflip_short_600ms.mp4	205.46727305677268	206.07551187258105	0.6082388158083631	n/a	n/a	n/a	n/a
189.93701171875	0.2	388991	128	66	1	0	0	31	189	stimuli\Videos_short_600ms_horvertflip\18.single_stroke_from_top_to_bottom_with_rolling_pin_short_horvertflip_short_600ms.mp4	18.single_stroke_from_top_to_bottom_with_rolling_pin_short_horvertflip_short_600ms.mp4	206.2672481896552	206.87547117027316	0.6082229806179384	n/a	n/a	n/a	n/a
190.73681640625	0.2	390629	129	66	1	0	0	32	338	stimuli\Videos_short_600ms_vertflip\71.single_stroke_with_finger_top_to_bottom_short_vertflip_short_600ms.mp4	71.single_stroke_with_finger_top_to_bottom_short_vertflip_short_600ms.mp4	207.0671907724227	207.67545773968413	0.6082669672614429	n/a	n/a	n/a	n/a
191.53662109375	0.2	392267	130	66	1	0	0	33	351	stimuli\Videos_short_600ms_vertflip\83.single_stroke_top_to_bottom_with_cotton_bud_short_vertflip_short_600ms.mp4	83.single_stroke_top_to_bottom_with_cotton_bud_short_vertflip_short_600ms.mp4	207.8671172267532	208.47547040783863	0.6083531810854765	n/a	n/a	n/a	n/a
192.3369140625	0.2	393906	131	66	1	0	0	34	111	stimuli\Videos_short_600ms_horflip\29.single_pinch_with_tweezers_short_horflip_short_600ms.mp4	29.single_pinch_with_tweezers_short_horflip_short_600ms.mp4	208.66713986521245	209.27543557041463	0.6082957052021811	n/a	n/a	n/a	n/a
193.13671875	0.2	395544	132	66	1	0	0	35	83	stimuli\Videos_short_600ms\85.touch_top_to_bottom_with_fabric_short_short_600ms.mp4	85.touch_top_to_bottom_with_fabric_short_short_600ms.mp4	209.4670771695819	210.0754209668503	0.6083437972683896	n/a	n/a	n/a	n/a
193.9365234375	0.2	397182	133	66	1	0	0	36	273	stimuli\Videos_short_600ms_vertflip\12.repeated_touch_with_nail_file_short_vertflip_short_600ms.mp4	12.repeated_touch_with_nail_file_short_vertflip_short_600ms.mp4	210.26712209460857	210.8754016713756	0.6082795767670177	n/a	n/a	n/a	n/a
194.73681640625	0.2	398821	134	66	1	0	0	37	283	stimuli\Videos_short_600ms_vertflip\21.repeated_touch_with_metal_chopstick_short_vertflip_short_600ms.mp4	21.repeated_touch_with_metal_chopstick_short_vertflip_short_600ms.mp4	211.0670945882939	211.67538032318953	0.6082857348956168	n/a	n/a	n/a	n/a
195.53662109375	0.2	400459	135	66	1	0	0	38	152	stimuli\Videos_short_600ms_horflip\66.stroke_top_to_bottom_with_sponge_short_horflip_short_600ms.mp4	66.stroke_top_to_bottom_with_sponge_short_horflip_short_600ms.mp4	211.86708936854484	212.47536220069196	0.6082728321471222	n/a	n/a	n/a	n/a
196.33642578125	0.2	402097	136	66	1	0	0	39	256	stimuli\Videos_short_600ms_horvertflip\79.long_with_soft_brush_all_over_the_hand_short_horvertflip_short_600ms.mp4	79.long_with_soft_brush_all_over_the_hand_short_horvertflip_short_600ms.mp4	212.66721522899752	213.2753429052173	0.6081276762197376	n/a	n/a	n/a	n/a
197.13671875	0.2	403736	137	66	1	0	0	40	95	stimuli\Videos_short_600ms_horflip\14.repeated_touch_with_pencil_short_horflip_short_600ms.mp4	14.repeated_touch_with_pencil_short_horflip_short_600ms.mp4	213.46701676125667	214.07532448947677	0.6083077282200975	n/a	n/a	n/a	n/a
197.9365234375	0.2	405374	138	66	1	0	0	41	194	stimuli\Videos_short_600ms_horvertflip\22.single_touch_with_metal_chopstick_short_horvertflip_short_600ms.mp4	22.single_touch_with_metal_chopstick_short_horvertflip_short_600ms.mp4	214.2670517159768	214.8753046075126	0.6082528915358125	n/a	n/a	n/a	n/a
198.736328125	0.2	407012	139	66	1	0	0	42	269	stimuli\Videos_short_600ms_horvertflip\90.repeated_touch_with_sponge_short_horvertflip_short_600ms.mp4	90.repeated_touch_with_sponge_short_horvertflip_short_600ms.mp4	215.0669406350371	215.6752870715045	0.6083464364674	n/a	n/a	n/a	n/a
199.53662109375	0.2	408651	140	66	1	0	0	43	149	stimuli\Videos_short_600ms_horflip\63.stroke_top_to_bottom_with_screwdriver_short_horflip_short_600ms.mp4	63.stroke_top_to_bottom_with_screwdriver_short_horflip_short_600ms.mp4	215.8670503670528	216.4752660165632	0.6082156495103845	n/a	n/a	n/a	n/a
200.33642578125	0.2	410289	141	66	1	0	0	44	78	stimuli\Videos_short_600ms\80.stroke_with_sharp_stick_all_over_the_hand_short_short_600ms.mp4	80.stroke_with_sharp_stick_all_over_the_hand_short_short_600ms.mp4	216.6669560010396	217.27524672108848	0.608290720048899	n/a	n/a	n/a	n/a
201.13623046875	0.2	411927	142	66	1	0	0	45	53	stimuli\Videos_short_600ms\58.single_slap_with_pencil_short_short_600ms.mp4	58.single_slap_with_pencil_short_short_600ms.mp4	217.46703904782407	218.07522830534617	0.6081892575220991	n/a	n/a	n/a	n/a
201.9365234375	0.2	413566	143	66	1	0	0	46	339	stimuli\Videos_short_600ms_vertflip\72.(short)stroke_with_finger_all_over_the_hand_short_vertflip_short_600ms.mp4	72.(short)stroke_with_finger_all_over_the_hand_short_vertflip_short_600ms.mp4	218.2669118384474	218.8752101828486	0.6082983444011916	n/a	n/a	n/a	n/a
202.736328125	0.2	415204	144	66	1	0	0	47	303	stimuli\Videos_short_600ms_vertflip\4.repeated_tap_with_finger_slow_short_vertflip_short_600ms.mp4	4.repeated_tap_with_finger_slow_short_vertflip_short_600ms.mp4	219.06691189709636	219.67519059413095	0.6082786970346206	n/a	n/a	n/a	n/a
203.5361328125	0.2	416842	145	66	1	0	0	48	198	stimuli\Videos_short_600ms_horvertflip\26.single_touch_with_a_blunt_syringe_short_horvertflip_short_600ms.mp4	26.single_touch_with_a_blunt_syringe_short_horvertflip_short_600ms.mp4	219.86685946501711	220.47517305812107	0.6083135931039578	n/a	n/a	n/a	n/a
204.33642578125	0.2	418481	146	66	1	0	0	49	251	stimuli\Videos_short_600ms_horvertflip\74.fingers_walking_from_top_to_bottom_short_horvertflip_short_600ms.mp4	74.fingers_walking_from_top_to_bottom_short_horvertflip_short_600ms.mp4	220.66699441604217	221.27514907073785	0.6081546546956815	n/a	n/a	n/a	n/a
205.13623046875	0.2	420119	147	66	1	0	0	50	185	stimuli\Videos_short_600ms_horvertflip\14.repeated_touch_with_pencil_short_horvertflip_short_600ms.mp4	14.repeated_touch_with_pencil_short_horvertflip_short_600ms.mp4	221.46687219181877	222.0751365198812	0.6082643280624325	n/a	n/a	n/a	n/a
205.9365234375	0.2	421758	148	66	1	0	0	51	322	stimuli\Videos_short_600ms_vertflip\57.single_touch_with_nail_file_short_vertflip_short_600ms.mp4	57.single_touch_with_nail_file_short_vertflip_short_600ms.mp4	222.2670097820428	222.87508848646576	0.608078704422951	n/a	n/a	n/a	n/a
206.736328125	0.2	423396	149	66	1	0	0	52	67	stimuli\Videos_short_600ms\70.(long)stroke_with_finger_all_over_the_hand_short_short_600ms.mp4	70.(long)stroke_with_finger_all_over_the_hand_short_short_600ms.mp4	223.06743973683115	223.6751081924831	0.6076684556519467	n/a	n/a	n/a	n/a
207.5361328125	0.2	425034	150	66	1	0	0	53	10	stimuli\Videos_short_600ms\19.single_touch_with_rolling_pin_short_short_600ms.mp4	19.single_touch_with_rolling_pin_short_short_600ms.mp4	223.86677647687975	224.4750762875028	0.6082998106230662	n/a	n/a	n/a	n/a
208.33642578125	0.2	426673	151	66	1	0	0	54	343	stimuli\Videos_short_600ms_vertflip\76.tickle_with_fingers_from_top_to_bottom_short_vertflip_short_600ms.mp4	76.tickle_with_fingers_from_top_to_bottom_short_vertflip_short_600ms.mp4	224.66676245980307	225.27505904473944	0.6082965849363973	n/a	n/a	n/a	n/a
209.13623046875	0.2	428311	152	66	1	0	0	55	250	stimuli\Videos_short_600ms_horvertflip\73.single_stroke_with_flat_hand_short_horvertflip_short_600ms.mp4	73.single_stroke_with_flat_hand_short_horvertflip_short_600ms.mp4	225.46679829425557	226.07504150872956	0.6082432144739869	n/a	n/a	n/a	n/a
209.93603515625	0.2	429949	153	66	1	0	0	56	122	stimuli\Videos_short_600ms_horflip\39.single_stab_with_scissors_short_horflip_short_600ms.mp4	39.single_stab_with_scissors_short_horflip_short_600ms.mp4	226.26678105149225	226.87503101058428	0.6082499590920634	n/a	n/a	n/a	n/a
210.736328125	0.2	431588	154	66	1	0	0	57	264	stimuli\Videos_short_600ms_horvertflip\86.touch_top_to_bottom_with_hair_brush_short_horvertflip_short_600ms.mp4	86.touch_top_to_bottom_with_hair_brush_short_horvertflip_short_600ms.mp4	227.0667550113976	227.67500057182588	0.6082455604282586	n/a	n/a	n/a	n/a
211.5361328125	0.2	433226	155	66	1	0	0	58	310	stimuli\Videos_short_600ms_vertflip\46.scratching_top_to_bottom_with_finger_nails_short_vertflip_short_600ms.mp4	46.scratching_top_to_bottom_with_finger_nails_short_vertflip_short_600ms.mp4	227.86665947240544	228.47499828452055	0.6083388121151074	n/a	n/a	n/a	n/a
212.3359375	0.2	434864	156	66	1	0	0	59	129	stimuli\Videos_short_600ms_horflip\45.scratching_with_finger_nails_short_horflip_short_600ms.mp4	45.scratching_with_finger_nails_short_horflip_short_600ms.mp4	228.66669002846177	229.27496168763173	0.6082716591699864	n/a	n/a	n/a	n/a
213.13623046875	0.2	436503	157	66	1	0	0	60	314	stimuli\Videos_short_600ms_vertflip\5.repeated_tap_with_finger_moving_from_top_to_bottom_short_vertflip_short_600ms.mp4	5.repeated_tap_with_finger_moving_from_top_to_bottom_short_vertflip_short_600ms.mp4	229.46667161271944	230.0749412191799	0.6082696064604534	n/a	n/a	n/a	n/a
213.93603515625	0.2	438141	158	66	1	0	0	61	226	stimuli\Videos_short_600ms_horvertflip\51.repeated_touch_with_hammer_short_horvertflip_short_600ms.mp4	51.repeated_touch_with_hammer_short_horvertflip_short_600ms.mp4	230.26661800766303	230.87492426965943	0.6083062619964039	n/a	n/a	n/a	n/a
214.73583984375	0.2	439779	159	66	1	0	0	62	86	stimuli\Videos_short_600ms\88.repeated_stroke_with_plastic_brush_short_short_600ms.mp4	88.repeated_stroke_with_plastic_brush_short_short_600ms.mp4	231.06658844863705	231.6749052674295	0.6083168187924457	n/a	n/a	n/a	n/a
215.5361328125	0.2	441418	160	66	1	0	0	63	6	stimuli\Videos_short_600ms\15.single_stroke_top_to_bottom_with_a_plastic_whisk_short_short_600ms.mp4	15.single_stroke_top_to_bottom_with_a_plastic_whisk_short_short_600ms.mp4	231.86656387476617	232.47488567871005	0.6083218039439089	n/a	n/a	n/a	n/a
216.3359375	0.2	443056	161	66	1	0	0	64	255	stimuli\Videos_short_600ms_horvertflip\78.single_stroke_top_to_bottom_with_soft_brush_short_horvertflip_short_600ms.mp4	78.single_stroke_top_to_bottom_with_soft_brush_short_horvertflip_short_600ms.mp4	232.66659267135583	233.27486491701347	0.6082722456576448	n/a	n/a	n/a	n/a
217.1357421875	0.2	444694	162	66	1	0	0	65	197	stimuli\Videos_short_600ms_horvertflip\25.single_touch_with_stanley_knife_short_horvertflip_short_600ms.mp4	25.single_touch_with_stanley_knife_short_horvertflip_short_600ms.mp4	233.46655812717657	234.07484708776065	0.6082889605841046	n/a	n/a	n/a	n/a
217.93603515625	0.2	446333	163	66	1	0	1	66	381	stimuli\Targets_short_600ms_vertflip\finger-tap_short_horvertflip_short_600ms.mp4	finger-tap_short_horvertflip_short_600ms.mp4	234.2665048153649	234.87482867202016	0.6083238566552609	n/a	n/a	n/a	n/a
218.73583984375	0.2	447971	164	66	1	0	0	67	112	stimuli\Videos_short_600ms_horflip\3.single_push_with_finger_short_horflip_short_600ms.mp4	3.single_push_with_finger_short_horflip_short_600ms.mp4	235.06647496309415	235.674808790056	0.6083338269618253	n/a	n/a	n/a	n/a
219.53564453125	0.2	449609	165	66	1	0	0	68	24	stimuli\Videos_short_600ms\31.hand_grabbing_wrist_short_short_600ms.mp4	31.hand_grabbing_wrist_short_short_600ms.mp4	235.86732337749345	236.4747965324441	0.6074731549506396	n/a	n/a	n/a	n/a
220.3359375	0.2	451248	166	66	1	0	0	69	349	stimuli\Videos_short_600ms_vertflip\81.single_stroke_top_to_bottom_with_cotton_pad_short_vertflip_short_600ms.mp4	81.single_stroke_top_to_bottom_with_cotton_pad_short_vertflip_short_600ms.mp4	236.66688972782867	237.2747754775046	0.6078857496759156	n/a	n/a	n/a	n/a
221.1357421875	0.2	452886	167	66	1	0	0	70	326	stimuli\Videos_short_600ms_vertflip\60.single_push_with_tip_of_pencil_short_vertflip_short_600ms.mp4	60.single_push_with_tip_of_pencil_short_vertflip_short_600ms.mp4	237.4665801204992	238.0747485576776	0.6081684371783922	n/a	n/a	n/a	n/a
221.935546875	0.2	454524	168	66	1	0	0	71	47	stimuli\Videos_short_600ms\52.touch_top_to_bottom_with_hammer_short_short_600ms.mp4	52.touch_top_to_bottom_with_hammer_short_short_600ms.mp4	238.2663869311564	238.8747406987295	0.608353767573135	n/a	n/a	n/a	n/a
222.73583984375	0.2	456163	169	66	1	0	0	72	313	stimuli\Videos_short_600ms_vertflip\49.repeated_slap_with_hand_short_vertflip_short_600ms.mp4	49.repeated_slap_with_hand_short_vertflip_short_600ms.mp4	239.0663910952262	239.67469354504829	0.6083024498220766	n/a	n/a	n/a	n/a
223.5439453125	0.2	457818	170	66	1	0	0	73	5	stimuli\Videos_short_600ms\14.repeated_touch_with_pencil_short_short_600ms.mp4	14.repeated_touch_with_pencil_short_short_600ms.mp4	239.87470756212497	240.48302995255835	0.6083223904333863	n/a	n/a	n/a	n/a
224.34423828125	0.2	459457	171	66	1	0	0	74	15	stimuli\Videos_short_600ms\23.single_push_with_a_spoon_short_short_600ms.mp4	23.single_push_with_a_spoon_short_short_600ms.mp4	240.67475102092976	241.28300919086175	0.6082581699320144	n/a	n/a	n/a	n/a
225.14404296875	0.2	461095	172	66	1	0	0	75	229	stimuli\Videos_short_600ms_horvertflip\54.repeated_touch_with_knife_short_horvertflip_short_600ms.mp4	54.repeated_touch_with_knife_short_horvertflip_short_600ms.mp4	241.47475489175488	242.08298549672327	0.6082306049684121	n/a	n/a	n/a	n/a
225.94384765625	0.2	462733	173	66	1	0	0	76	236	stimuli\Videos_short_600ms_horvertflip\60.single_push_with_tip_of_pencil_short_horvertflip_short_600ms.mp4	60.single_push_with_tip_of_pencil_short_horvertflip_short_600ms.mp4	242.2751358747446	242.88297382560089	0.6078379508562648	n/a	n/a	n/a	n/a
226.744140625	0.2	464372	174	66	1	0	0	77	319	stimuli\Videos_short_600ms_vertflip\54.repeated_touch_with_knife_short_vertflip_short_600ms.mp4	54.repeated_touch_with_knife_short_vertflip_short_600ms.mp4	243.07489517982503	243.6829471990186	0.6080520191935648	n/a	n/a	n/a	n/a
227.5439453125	0.2	466010	175	66	1	0	1	78	369	stimuli\Targets_short_600ms_horflip\finger-tap_short_horflip_short_600ms.mp4	finger-tap_short_horflip_short_600ms.mp4	243.87466768090053	244.48292761029916	0.6082599293986277	n/a	n/a	n/a	n/a
228.34375	0.2	467648	176	66	1	0	0	79	312	stimuli\Videos_short_600ms_vertflip\48.single_slap_with_hand_short_vertflip_short_600ms.mp4	48.single_slap_with_hand_short_vertflip_short_600ms.mp4	244.6746809355427	245.28291154051112	0.6082306049684121	n/a	n/a	n/a	n/a
229.14404296875	0.2	469287	177	66	1	0	0	80	108	stimuli\Videos_short_600ms_horflip\26.single_touch_with_a_blunt_syringe_short_horflip_short_600ms.mp4	26.single_touch_with_a_blunt_syringe_short_horflip_short_600ms.mp4	245.47459419387997	246.08289195179168	0.6082977579117141	n/a	n/a	n/a	n/a
229.94384765625	0.2	470925	178	66	1	0	0	81	235	stimuli\Videos_short_600ms_horvertflip\6.single_touch_with_flat_hand_short_horvertflip_short_600ms.mp4	6.single_touch_with_flat_hand_short_horvertflip_short_600ms.mp4	246.27458076329097	246.88287060360744	0.6082898403165018	n/a	n/a	n/a	n/a
230.74365234375	0.2	472563	179	66	1	0	0	82	249	stimuli\Videos_short_600ms_horvertflip\72.(short)stroke_with_finger_all_over_the_hand_short_horvertflip_short_600ms.mp4	72.(short)stroke_with_finger_all_over_the_hand_short_horvertflip_short_600ms.mp4	247.07455061777728	247.68285160137748	0.608300983600202	n/a	n/a	n/a	n/a
231.5439453125	0.2	474202	180	66	1	0	0	83	84	stimuli\Videos_short_600ms\86.touch_top_to_bottom_with_hair_brush_short_short_600ms.mp4	86.touch_top_to_bottom_with_hair_brush_short_short_600ms.mp4	247.874542758831	248.48284432891887	0.6083015700878605	n/a	n/a	n/a	n/a
232.34375	0.2	475840	181	66	1	0	0	84	99	stimuli\Videos_short_600ms_horflip\18.single_stroke_from_top_to_bottom_with_rolling_pin_short_horflip_short_600ms.mp4	18.single_stroke_from_top_to_bottom_with_rolling_pin_short_horflip_short_600ms.mp4	248.6744958983909	249.2828141834052	0.6083182850143203	n/a	n/a	n/a	n/a
233.1435546875	0.2	477478	182	66	1	0	0	85	215	stimuli\Videos_short_600ms_horvertflip\41.injection_with_blunt_syringe_short_horvertflip_short_600ms.mp4	41.injection_with_blunt_syringe_short_horvertflip_short_600ms.mp4	249.47454698154797	250.08279518117524	0.6082481996272691	n/a	n/a	n/a	n/a
233.94384765625	0.2	479117	183	66	1	0	0	86	325	stimuli\Videos_short_600ms_vertflip\6.single_touch_with_flat_hand_short_vertflip_short_600ms.mp4	6.single_touch_with_flat_hand_short_vertflip_short_600ms.mp4	250.27452270092	250.8827755924558	0.6082528915358125	n/a	n/a	n/a	n/a
234.74365234375	0.2	480755	184	66	1	0	0	87	69	stimuli\Videos_short_600ms\72.(short)stroke_with_finger_all_over_the_hand_short_short_600ms.mp4	72.(short)stroke_with_finger_all_over_the_hand_short_short_600ms.mp4	251.0744899162073	251.6827548307592	0.6082649145519099	n/a	n/a	n/a	n/a
235.54345703125	0.2	482393	185	66	1	0	0	88	50	stimuli\Videos_short_600ms\55.touch_top_to_bottom_with_nail_file_short_short_600ms.mp4	55.touch_top_to_bottom_with_nail_file_short_short_600ms.mp4	251.87448059103917	252.4827358285293	0.6082552374900843	n/a	n/a	n/a	n/a
236.34375	0.2	484032	186	66	1	0	0	89	90	stimuli\Videos_short_600ms_horflip\1.repeated_touch_with_finger_fast_short_horflip_short_600ms.mp4	1.repeated_touch_with_finger_fast_short_horflip_short_600ms.mp4	252.6748055643693	253.2827171195422	0.6079115551729046	n/a	n/a	n/a	n/a
237.1435546875	0.2	485670	187	66	1	0	0	90	107	stimuli\Videos_short_600ms_horflip\25.single_touch_with_stanley_knife_short_horflip_short_600ms.mp4	25.single_touch_with_stanley_knife_short_horflip_short_600ms.mp4	253.47436370386276	254.0826978240675	0.608334120204745	n/a	n/a	n/a	n/a
237.943359375	0.2	487308	188	66	1	0	0	91	18	stimuli\Videos_short_600ms\26.single_touch_with_a_blunt_syringe_short_short_600ms.mp4	26.single_touch_with_a_blunt_syringe_short_short_600ms.mp4	254.27439015449815	254.88267911508228	0.6082889605841046	n/a	n/a	n/a	n/a
238.74365234375	0.2	488947	189	66	1	0	0	92	14	stimuli\Videos_short_600ms\22.single_touch_with_metal_chopstick_short_short_600ms.mp4	22.single_touch_with_metal_chopstick_short_short_600ms.mp4	255.0743840550167	255.68265952636284	0.6082754713461327	n/a	n/a	n/a	n/a
239.54345703125	0.2	490585	190	66	1	0	0	93	105	stimuli\Videos_short_600ms_horflip\23.single_push_with_a_spoon_short_horflip_short_600ms.mp4	23.single_push_with_a_spoon_short_horflip_short_600ms.mp4	255.8743697446953	256.48264023088814	0.6082704861928505	4.0	4.0	2.1726249997791456	1.0
275.3505859375	0.2	563918	191	66	2	0	0	0	225	stimuli\Videos_short_600ms_horvertflip\50.single_(long)hard_push_with_thumb_short_horvertflip_short_600ms.mp4	50.single_(long)hard_push_with_thumb_short_horvertflip_short_600ms.mp4	291.68198037257207	292.290119778565	0.6081394059929153	n/a	n/a	n/a	n/a
276.15087890625	0.2	565557	192	66	2	0	0	1	104	stimuli\Videos_short_600ms_horflip\22.single_touch_with_metal_chopstick_short_horflip_short_600ms.mp4	22.single_touch_with_metal_chopstick_short_horflip_short_600ms.mp4	292.48178806296346	293.0901004830903	0.608312420126822	n/a	n/a	n/a	n/a
276.95068359375	0.2	567195	193	66	2	0	0	2	100	stimuli\Videos_short_600ms_horflip\19.single_touch_with_rolling_pin_short_horflip_short_600ms.mp4	19.single_touch_with_rolling_pin_short_horflip_short_600ms.mp4	293.28180835546846	293.8900779619289	0.6082696064604534	n/a	n/a	n/a	n/a
277.75048828125	0.2	568833	194	66	2	0	0	3	301	stimuli\Videos_short_600ms_vertflip\38.double_slap_with_pencil_short_vertflip_short_600ms.mp4	38.double_slap_with_pencil_short_vertflip_short_600ms.mp4	294.08180694789553	294.69004869614764	0.6082417482521123	n/a	n/a	n/a	n/a
278.55078125	0.2	570472	195	66	2	0	0	4	239	stimuli\Videos_short_600ms_horvertflip\63.stroke_top_to_bottom_with_screwdriver_short_horvertflip_short_600ms.mp4	63.stroke_top_to_bottom_with_screwdriver_short_horvertflip_short_600ms.mp4	294.88172343191945	295.4900393709795	0.6083159390600485	n/a	n/a	n/a	n/a
279.3505859375	0.2	572110	196	66	2	0	1	5	383	stimuli\Targets_short_600ms_vertflip\hand-stroke_short_horvertflip_short_600ms.mp4	hand-stroke_short_horvertflip_short_600ms.mp4	295.68172671625507	296.29002476741334	0.6082980511582718	n/a	n/a	n/a	n/a
280.150390625	0.2	573748	197	66	2	0	0	6	8	stimuli\Videos_short_600ms\17.repeated_touch_with_rolling_pin_short_short_600ms.mp4	17.repeated_touch_with_rolling_pin_short_short_600ms.mp4	296.4817584452885	297.0900078178929	0.6082493726044049	n/a	n/a	n/a	n/a
280.95068359375	0.2	575387	198	66	2	0	0	7	342	stimuli\Videos_short_600ms_vertflip\75.(long)stroke_with_fingers_all_over_the_hand_short_vertflip_short_600ms.mp4	75.(long)stroke_with_fingers_all_over_the_hand_short_vertflip_short_600ms.mp4	297.28204148468285	297.8899935075715	0.6079520228886395	n/a	n/a	n/a	n/a
281.75048828125	0.2	577025	199	66	2	0	1	8	374	stimuli\Targets_short_600ms_horvertflip\chopstickwood-tap_short_vertflip_short_600ms.mp4	chopstickwood-tap_short_vertflip_short_600ms.mp4	298.0816726420071	298.6899651215226	0.6082924795155122	n/a	n/a	n/a	n/a
282.55029296875	0.2	578663	200	66	2	0	0	9	19	stimuli\Videos_short_600ms\27.single_push_with_a_plastic_whisk_short_short_600ms.mp4	27.single_push_with_a_plastic_whisk_short_short_600ms.mp4	298.8821735619149	299.48995902204115	0.6077854601262516	n/a	n/a	n/a	n/a
283.3505859375	0.2	580302	201	66	2	0	0	10	17	stimuli\Videos_short_600ms\25.single_touch_with_stanley_knife_short_short_600ms.mp4	25.single_touch_with_stanley_knife_short_short_600ms.mp4	299.68234487523296	300.28992770355035	0.6075828283173905	n/a	n/a	n/a	n/a
284.150390625	0.2	581940	202	66	2	0	0	11	344	stimuli\Videos_short_600ms_vertflip\77.tapping_with_all_fingers_short_vertflip_short_600ms.mp4	77.tapping_with_all_fingers_short_vertflip_short_600ms.mp4	300.4822109212382	301.0899087013204	0.6076977800821624	n/a	n/a	n/a	n/a
284.9501953125	0.2	583578	203	66	2	0	0	12	39	stimuli\Videos_short_600ms\45.scratching_with_finger_nails_short_short_600ms.mp4	45.scratching_with_finger_nails_short_short_600ms.mp4	301.2823051113064	301.8898929247771	0.6075878134706727	n/a	n/a	n/a	n/a
285.75048828125	0.2	585217	204	66	2	0	0	13	332	stimuli\Videos_short_600ms_vertflip\66.stroke_top_to_bottom_with_sponge_short_vertflip_short_600ms.mp4	66.stroke_top_to_bottom_with_sponge_short_vertflip_short_600ms.mp4	302.081755043655	302.6898709901034	0.608115946448379	n/a	n/a	n/a	n/a
286.55029296875	0.2	586855	205	66	2	0	0	14	81	stimuli\Videos_short_600ms\83.single_stroke_top_to_bottom_with_cotton_bud_short_short_600ms.mp4	83.single_stroke_top_to_bottom_with_cotton_bud_short_short_600ms.mp4	302.88159440442905	303.48984817569726	0.6082537712682097	n/a	n/a	n/a	n/a
287.35009765625	0.2	588493	206	66	2	0	0	15	33	stimuli\Videos_short_600ms\4.repeated_tap_with_finger_slow_short_short_600ms.mp4	4.repeated_tap_with_finger_slow_short_short_600ms.mp4	303.68151147494245	304.2898326923987	0.6083212174562505	n/a	n/a	n/a	n/a
288.150390625	0.2	590132	207	66	2	0	0	16	202	stimuli\Videos_short_600ms_horvertflip\3.single_push_with_finger_short_horvertflip_short_600ms.mp4	3.single_push_with_finger_short_horvertflip_short_600ms.mp4	304.48149217946775	305.089810757725	0.60831857825724	n/a	n/a	n/a	n/a
288.9501953125	0.2	591770	208	66	2	0	0	17	64	stimuli\Videos_short_600ms\68.stroke_top_to_bottom_with_shawl_short_short_600ms.mp4	68.stroke_top_to_bottom_with_shawl_short_short_600ms.mp4	305.28160191148345	305.8897941014493	0.6081921899658482	n/a	n/a	n/a	n/a
289.75	0.2	593408	209	66	2	0	0	18	116	stimuli\Videos_short_600ms_horflip\33.scratch_top_to_bottom_with_scissors_short_horflip_short_600ms.mp4	33.scratch_top_to_bottom_with_scissors_short_horflip_short_600ms.mp4	306.0815034400475	306.6897739262422	0.6082704861946695	n/a	n/a	n/a	n/a
290.55029296875	0.2	595047	210	66	2	0	0	19	70	stimuli\Videos_short_600ms\73.single_stroke_with_flat_hand_short_short_600ms.mp4	73.single_stroke_with_flat_hand_short_short_600ms.mp4	306.88149382163465	307.4897563902323	0.6082625685976382	n/a	n/a	n/a	n/a
291.35009765625	0.2	596685	211	66	2	0	0	20	260	stimuli\Videos_short_600ms_horvertflip\82.repeated_touch_with_cotton_bud_short_horvertflip_short_600ms.mp4	82.repeated_touch_with_cotton_bud_short_horvertflip_short_600ms.mp4	307.68142027596514	308.2897338690709	0.6083135931057768	n/a	n/a	n/a	n/a
292.14990234375	0.2	598323	212	66	2	0	0	21	82	stimuli\Videos_short_600ms\84.single_touch_with_cotton_bud_short_short_600ms.mp4	84.single_touch_with_cotton_bud_short_short_600ms.mp4	308.48140713862085	309.0897221979485	0.6083150593276514	n/a	n/a	n/a	n/a
292.9501953125	0.2	599962	213	66	2	0	0	22	155	stimuli\Videos_short_600ms_horflip\69.stroke_with_soft_sock_short_horflip_short_600ms.mp4	69.stroke_with_soft_sock_short_horflip_short_600ms.mp4	309.28137933906146	309.8896979173205	0.608318578259059	n/a	n/a	n/a	n/a
293.75	0.2	601600	214	66	2	0	0	23	231	stimuli\Videos_short_600ms_horvertflip\56.repeated_touch_with_nail_file_short_horvertflip_short_600ms.mp4	56.repeated_touch_with_nail_file_short_horvertflip_short_600ms.mp4	310.0813791044675	310.68967217047066	0.6082930660031707	n/a	n/a	n/a	n/a
294.5498046875	0.2	603238	215	66	2	0	0	24	190	stimuli\Videos_short_600ms_horvertflip\19.single_touch_with_rolling_pin_short_horvertflip_short_600ms.mp4	19.single_touch_with_rolling_pin_short_horvertflip_short_600ms.mp4	310.8814023294144	311.4896643115244	0.6082619821099797	n/a	n/a	n/a	n/a
295.35009765625	0.2	604877	216	66	2	0	0	25	328	stimuli\Videos_short_600ms_vertflip\62.touch_top_to_bottom_with_scissors_short_vertflip_short_600ms.mp4	62.touch_top_to_bottom_with_scissors_short_vertflip_short_600ms.mp4	311.68211878387956	312.28964149711646	0.6075227132369037	n/a	n/a	n/a	n/a
296.14990234375	0.2	606515	217	66	2	0	0	26	336	stimuli\Videos_short_600ms_vertflip\7.repeated_touch_with_hairbrush_short_vertflip_short_600ms.mp4	7.repeated_touch_with_hairbrush_short_vertflip_short_600ms.mp4	312.48133646674614	313.08962982599405	0.6082933592479094	n/a	n/a	n/a	n/a
296.9501953125	0.2	608154	218	66	2	0	0	27	134	stimuli\Videos_short_600ms_horflip\5.repeated_tap_with_finger_moving_from_top_to_bottom_short_horflip_short_600ms.mp4	5.repeated_tap_with_finger_moving_from_top_to_bottom_short_horflip_short_600ms.mp4	313.28128051573367	313.88960026696986	0.6083197512361949	n/a	n/a	n/a	n/a
297.75	0.2	609792	219	66	2	0	0	28	121	stimuli\Videos_short_600ms_horflip\38.double_slap_with_pencil_short_horflip_short_600ms.mp4	38.double_slap_with_pencil_short_horflip_short_600ms.mp4	314.0812620999932	314.6895924080218	0.6083303080285987	n/a	n/a	n/a	n/a
298.5498046875	0.2	611430	220	66	2	0	0	29	207	stimuli\Videos_short_600ms_horvertflip\34.repeated_punch_with_hand_short_horvertflip_short_600ms.mp4	34.repeated_punch_with_hand_short_horvertflip_short_600ms.mp4	314.8812586397089	315.48956255575285	0.6083039160439512	n/a	n/a	n/a	n/a
299.35009765625	0.2	613069	221	66	2	0	1	30	378	stimuli\Targets_short_600ms_vertflip\brush-stroke_short_horvertflip_short_600ms.mp4	brush-stroke_short_horvertflip_short_600ms.mp4	315.6813578149304	316.2895168682917	0.6081590533613053	n/a	n/a	n/a	n/a
300.14990234375	0.2	614707	222	66	2	0	0	31	295	stimuli\Videos_short_600ms_vertflip\32.single_(long)pinch_with_fingers_short_vertflip_short_600ms.mp4	32.single_(long)pinch_with_fingers_short_vertflip_short_600ms.mp4	316.48123441772987	317.08952396480345	0.6082895470735821	n/a	n/a	n/a	n/a
300.94970703125	0.2	616345	223	66	2	0	0	32	168	stimuli\Videos_short_600ms_horflip\80.stroke_with_sharp_stick_all_over_the_hand_short_horflip_short_600ms.mp4	80.stroke_with_sharp_stick_all_over_the_hand_short_horflip_short_600ms.mp4	317.2811837451154	317.88950408283927	0.6083203377238533	n/a	n/a	n/a	n/a
301.75	0.2	617984	224	66	2	0	1	33	377	stimuli\Targets_short_600ms_horvertflip\hand-stroke_short_vertflip_short_600ms.mp4	hand-stroke_short_vertflip_short_600ms.mp4	318.08118204429957	318.68948478736456	0.6083027430649963	n/a	n/a	n/a	n/a
302.5498046875	0.2	619622	225	66	2	0	0	34	59	stimuli\Videos_short_600ms\63.stroke_top_to_bottom_with_screwdriver_short_short_600ms.mp4	63.stroke_top_to_bottom_with_screwdriver_short_short_600ms.mp4	318.8812518950908	319.4894657851346	0.6082138900437712	n/a	n/a	n/a	n/a
303.349609375	0.2	621260	226	66	2	0	0	35	262	stimuli\Videos_short_600ms_horvertflip\84.single_touch_with_cotton_bud_short_horvertflip_short_600ms.mp4	84.single_touch_with_cotton_bud_short_horvertflip_short_600ms.mp4	319.6811686723595	320.2894464896599	0.6082778173004044	n/a	n/a	n/a	n/a
304.14990234375	0.2	622899	227	66	2	0	0	36	220	stimuli\Videos_short_600ms_horvertflip\46.scratching_top_to_bottom_with_finger_nails_short_horvertflip_short_600ms.mp4	46.scratching_top_to_bottom_with_finger_nails_short_horvertflip_short_600ms.mp4	320.48120480005673	321.08942602120806	0.6082212211513252	n/a	n/a	n/a	n/a
304.94970703125	0.2	624537	228	66	2	0	0	37	153	stimuli\Videos_short_600ms_horflip\67.single_touch_with_sponge_short_horflip_short_600ms.mp4	67.single_touch_with_sponge_short_horflip_short_600ms.mp4	321.28113829225003	321.8894078987105	0.6082696064604534	n/a	n/a	n/a	n/a
305.74951171875	0.2	626175	229	66	2	0	0	38	247	stimuli\Videos_short_600ms_horvertflip\70.(long)stroke_with_finger_all_over_the_hand_short_horvertflip_short_600ms.mp4	70.(long)stroke_with_finger_all_over_the_hand_short_horvertflip_short_600ms.mp4	322.0811272076153	322.68938743025865	0.6082602226433664	n/a	n/a	n/a	n/a
306.5498046875	0.2	627814	230	66	2	0	0	39	61	stimuli\Videos_short_600ms\65.stroke_top_to_bottom_with_stanley_knife_short_short_600ms.mp4	65.stroke_top_to_bottom_with_stanley_knife_short_short_600ms.mp4	322.8813832685355	323.4893693077611	0.6079860392255796	n/a	n/a	n/a	n/a
307.349609375	0.2	629452	231	66	2	0	0	40	171	stimuli\Videos_short_600ms_horflip\83.single_stroke_top_to_bottom_with_cotton_bud_short_horflip_short_600ms.mp4	83.single_stroke_top_to_bottom_with_cotton_bud_short_horflip_short_600ms.mp4	323.6810502016633	324.2893520649959	0.6083018633325992	n/a	n/a	n/a	n/a
308.1494140625	0.2	631090	232	66	2	0	0	41	30	stimuli\Videos_short_600ms\37.single_stab_with_nail_file_short_short_600ms.mp4	37.single_stab_with_nail_file_short_short_600ms.mp4	324.48105172653413	325.0893145883747	0.6082628618405579	n/a	n/a	n/a	n/a
308.94970703125	0.2	632729	233	66	2	0	0	42	327	stimuli\Videos_short_600ms_vertflip\61.single_hit_with_rolling_pin_short_vertflip_short_600ms.mp4	61.single_hit_with_rolling_pin_short_vertflip_short_600ms.mp4	325.28096879704754	325.8893216848883	0.6083528878407378	n/a	n/a	n/a	n/a
309.74951171875	0.2	634367	234	66	2	0	0	43	246	stimuli\Videos_short_600ms_horvertflip\7.repeated_touch_with_hairbrush_short_horvertflip_short_600ms.mp4	7.repeated_touch_with_hairbrush_short_horvertflip_short_600ms.mp4	326.08099700714774	326.68929124612987	0.6082942389821255	n/a	n/a	n/a	n/a
310.54931640625	0.2	636005	235	66	2	0	0	44	88	stimuli\Videos_short_600ms\9.single_touch_with_hammer_short_short_600ms.mp4	9.single_touch_with_hammer_short_short_600ms.mp4	326.8810090888128	327.4892825074494	0.6082734186365997	n/a	n/a	n/a	n/a
311.349609375	0.2	637644	236	66	2	0	0	45	299	stimuli\Videos_short_600ms_vertflip\36.single_slap_with_full_hand_short_vertflip_short_600ms.mp4	36.single_slap_with_full_hand_short_vertflip_short_600ms.mp4	327.6809977109351	328.28926614441843	0.6082684334833175	n/a	n/a	n/a	n/a
312.1494140625	0.2	639282	237	66	2	0	0	46	280	stimuli\Videos_short_600ms_vertflip\19.single_touch_with_rolling_pin_short_vertflip_short_600ms.mp4	19.single_touch_with_rolling_pin_short_vertflip_short_600ms.mp4	328.4809112625153	329.08923599890477	0.608324736389477	n/a	n/a	n/a	n/a
312.94921875	0.2	640920	238	66	2	0	0	47	45	stimuli\Videos_short_600ms\50.single_(long)hard_push_with_thumb_short_short_600ms.mp4	50.single_(long)hard_push_with_thumb_short_short_600ms.mp4	329.2809462172354	329.8892161169406	0.6082698997051921	n/a	n/a	n/a	n/a
313.74951171875	0.2	642559	239	66	2	0	0	48	180	stimuli\Videos_short_600ms_horvertflip\1.repeated_touch_with_finger_fast_short_horvertflip_short_600ms.mp4	1.repeated_touch_with_finger_fast_short_horvertflip_short_600ms.mp4	330.0809301474492	330.68919652822115	0.6082663807719655	n/a	n/a	n/a	n/a
314.54931640625	0.2	644197	240	66	2	0	0	49	284	stimuli\Videos_short_600ms_vertflip\22.single_touch_with_metal_chopstick_short_vertflip_short_600ms.mp4	22.single_touch_with_metal_chopstick_short_vertflip_short_600ms.mp4	330.88135189139575	331.4891792854578	0.607827394062042	n/a	n/a	n/a	n/a
315.34912109375	0.2	645835	241	66	2	0	0	50	193	stimuli\Videos_short_600ms_horvertflip\21.repeated_touch_with_metal_chopstick_short_horvertflip_short_600ms.mp4	21.repeated_touch_with_metal_chopstick_short_horvertflip_short_600ms.mp4	331.6808877443236	332.28915793727174	0.6082701929481118	n/a	n/a	n/a	n/a
316.1494140625	0.2	647474	242	66	2	0	0	51	245	stimuli\Videos_short_600ms_horvertflip\69.stroke_with_soft_sock_short_horvertflip_short_600ms.mp4	69.stroke_with_soft_sock_short_horvertflip_short_600ms.mp4	332.48083355277777	333.08914040126365	0.6083068484858813	n/a	n/a	n/a	n/a
316.94921875	0.2	649112	243	66	2	0	0	52	136	stimuli\Videos_short_600ms_horflip\51.repeated_touch_with_hammer_short_horflip_short_600ms.mp4	51.repeated_touch_with_hammer_short_horflip_short_600ms.mp4	333.28087789131496	333.88912022605655	0.6082423347415897	n/a	n/a	n/a	n/a
317.74951171875	0.2	650751	244	66	2	0	0	53	216	stimuli\Videos_short_600ms_horvertflip\42.single_slap_with_plastic_whisk_short_horvertflip_short_600ms.mp4	42.single_slap_with_plastic_whisk_short_horvertflip_short_600ms.mp4	334.0808166619063	334.68910122382476	0.6082845619184809	n/a	n/a	n/a	n/a
318.54931640625	0.2	652389	245	66	2	0	0	54	93	stimuli\Videos_short_600ms_horflip\12.repeated_touch_with_nail_file_short_horflip_short_600ms.mp4	12.repeated_touch_with_nail_file_short_horflip_short_600ms.mp4	334.88078680963736	335.48908163510714	0.608294825469784	n/a	n/a	n/a	n/a
319.34912109375	0.2	654027	246	66	2	0	0	55	195	stimuli\Videos_short_600ms_horvertflip\23.single_push_with_a_spoon_short_horvertflip_short_600ms.mp4	23.single_push_with_a_spoon_short_horvertflip_short_600ms.mp4	335.6808188319137	336.2890673247839	0.6082484928701888	n/a	n/a	n/a	n/a
320.1494140625	0.2	655666	247	66	2	0	0	56	294	stimuli\Videos_short_600ms_vertflip\31.hand_grabbing_wrist_short_vertflip_short_600ms.mp4	31.hand_grabbing_wrist_short_vertflip_short_600ms.mp4	336.48073619567003	337.08904333740065	0.6083071417306201	n/a	n/a	n/a	n/a
320.94921875	0.2	657304	248	66	2	0	1	57	375	stimuli\Targets_short_600ms_horvertflip\finger-tap_short_vertflip_short_600ms.mp4	finger-tap_short_vertflip_short_600ms.mp4	337.28081425730306	337.8890087932232	0.60819453592012	n/a	n/a	n/a	n/a
321.7490234375	0.2	658942	249	66	2	0	0	58	74	stimuli\Videos_short_600ms\77.tapping_with_all_fingers_short_short_600ms.mp4	77.tapping_with_all_fingers_short_short_600ms.mp4	338.0816544608606	338.6889886180161	0.607334157155492	n/a	n/a	n/a	n/a
322.5576171875	0.2	660598	250	66	2	0	0	59	167	stimuli\Videos_short_600ms_horflip\8.single_touch_with_hairbrush_short_horflip_short_600ms.mp4	8.single_touch_with_hairbrush_short_horflip_short_600ms.mp4	338.8889753633739	339.49732004037287	0.6083446769989678	n/a	n/a	n/a	n/a
323.357421875	0.2	662236	251	66	2	0	0	60	286	stimuli\Videos_short_600ms_vertflip\24.single_stroke_top_to_bottom_with_a_spoon_short_vertflip_short_600ms.mp4	24.single_stroke_top_to_bottom_with_a_spoon_short_vertflip_short_600ms.mp4	339.6889792341972	340.29730074489817	0.6083215107009892	n/a	n/a	n/a	n/a
324.1572265625	0.2	663874	252	66	2	0	0	61	55	stimuli\Videos_short_600ms\6.single_touch_with_flat_hand_short_short_600ms.mp4	6.single_touch_with_flat_hand_short_short_600ms.mp4	340.4890006996811	341.0972826224006	0.6082819227194705	n/a	n/a	n/a	n/a
324.95751953125	0.2	665513	253	66	2	0	0	62	224	stimuli\Videos_short_600ms_horvertflip\5.repeated_tap_with_finger_moving_from_top_to_bottom_short_horvertflip_short_600ms.mp4	5.repeated_tap_with_finger_moving_from_top_to_bottom_short_horvertflip_short_600ms.mp4	341.2890948897493	341.89726479314777	0.6081699033984478	n/a	n/a	n/a	n/a
325.75732421875	0.2	667151	254	66	2	0	0	63	274	stimuli\Videos_short_600ms_vertflip\13.single_touch_with_pen_short_vertflip_short_600ms.mp4	13.single_touch_with_pen_short_vertflip_short_600ms.mp4	342.0889195883083	342.69724637740546	0.6083267890971911	n/a	n/a	n/a	n/a
326.55712890625	0.2	668789	255	66	2	0	0	64	253	stimuli\Videos_short_600ms_horvertflip\76.tickle_with_fingers_from_top_to_bottom_short_horvertflip_short_600ms.mp4	76.tickle_with_fingers_from_top_to_bottom_short_horvertflip_short_600ms.mp4	342.88893284295045	343.49721916433555	0.6082863213850942	n/a	n/a	n/a	n/a
327.357421875	0.2	670428	256	66	2	0	0	65	296	stimuli\Videos_short_600ms_vertflip\33.scratch_top_to_bottom_with_scissors_short_vertflip_short_600ms.mp4	33.scratch_top_to_bottom_with_scissors_short_vertflip_short_600ms.mp4	343.6888871554893	344.29720837294553	0.6083212174562505	n/a	n/a	n/a	n/a
328.1572265625	0.2	672066	257	66	2	0	0	66	348	stimuli\Videos_short_600ms_vertflip\80.stroke_with_sharp_stick_all_over_the_hand_short_vertflip_short_600ms.mp4	80.stroke_with_sharp_stick_all_over_the_hand_short_vertflip_short_600ms.mp4	344.489613580261	345.09715828681874	0.6075447065577464	n/a	n/a	n/a	n/a
328.95703125	0.2	673704	258	66	2	0	0	67	1	stimuli\Videos_short_600ms\10.single_touch_with_knife_short_short_600ms.mp4	10.single_touch_with_knife_short_short_600ms.mp4	345.28929634858105	345.89713899134404	0.6078426427629893	n/a	n/a	n/a	n/a
329.75732421875	0.2	675343	259	66	2	0	1	68	382	stimuli\Targets_short_600ms_vertflip\hand-pinch_short_horvertflip_short_600ms.mp4	hand-pinch_short_horvertflip_short_600ms.mp4	346.08896768037266	346.6971252675121	0.6081575871394307	n/a	n/a	n/a	n/a
330.55712890625	0.2	676981	260	66	2	0	0	69	147	stimuli\Videos_short_600ms_horflip\61.single_hit_with_rolling_pin_short_horflip_short_600ms.mp4	61.single_hit_with_rolling_pin_short_horflip_short_600ms.mp4	346.8888178911857	347.497138815399	0.6083209242133307	n/a	n/a	n/a	n/a
331.35693359375	0.2	678619	261	66	2	0	0	70	206	stimuli\Videos_short_600ms_horvertflip\33.scratch_top_to_bottom_with_scissors_short_horvertflip_short_600ms.mp4	33.scratch_top_to_bottom_with_scissors_short_horvertflip_short_600ms.mp4	347.6888053403309	348.29711306854915	0.6083077282182785	n/a	n/a	n/a	n/a
332.1572265625	0.2	680258	262	66	2	0	0	71	137	stimuli\Videos_short_600ms_horflip\52.touch_top_to_bottom_with_hammer_short_horflip_short_600ms.mp4	52.touch_top_to_bottom_with_hammer_short_horflip_short_600ms.mp4	348.4887702096639	349.09709817173825	0.6083279620743269	n/a	n/a	n/a	n/a
332.95703125	0.2	681896	263	66	2	0	0	72	182	stimuli\Videos_short_600ms_horvertflip\11.single_touch_with_lighter_short_horvertflip_short_600ms.mp4	11.single_touch_with_lighter_short_horvertflip_short_600ms.mp4	349.28878991567944	349.897068905957	0.6082789902775403	n/a	n/a	n/a	n/a
333.7568359375	0.2	683534	264	66	2	0	0	73	96	stimuli\Videos_short_600ms_horflip\15.single_stroke_top_to_bottom_with_a_plastic_whisk_short_horflip_short_600ms.mp4	15.single_stroke_top_to_bottom_with_a_plastic_whisk_short_horflip_short_600ms.mp4	350.08879026757313	350.6970563551022	0.6082660875290458	n/a	n/a	n/a	n/a
334.55712890625	0.2	685173	265	66	2	0	0	74	218	stimuli\Videos_short_600ms_horvertflip\44.pushing_top_to_bottom_with_finger_short_horvertflip_short_600ms.mp4	44.pushing_top_to_bottom_with_finger_short_horvertflip_short_600ms.mp4	350.8888557197006	351.49703148798653	0.6081757682859461	n/a	n/a	n/a	n/a
335.35693359375	0.2	686811	266	66	2	0	0	75	270	stimuli\Videos_short_600ms_vertflip\1.repeated_touch_with_finger_fast_short_vertflip_short_600ms.mp4	1.repeated_touch_with_finger_fast_short_vertflip_short_600ms.mp4	351.68871648730783	352.2970110195329	0.6082945322250453	n/a	n/a	n/a	n/a
336.1572265625	0.2	688450	267	66	2	0	0	76	267	stimuli\Videos_short_600ms_horvertflip\89.single_touch_with_plastic_brush_short_horvertflip_short_600ms.mp4	89.single_touch_with_plastic_brush_short_horvertflip_short_600ms.mp4	352.48867431877807	353.0969934835248	0.6083191647467174	n/a	n/a	n/a	n/a
336.95703125	0.2	690088	268	66	2	0	0	77	183	stimuli\Videos_short_600ms_horvertflip\12.repeated_touch_with_nail_file_short_horvertflip_short_600ms.mp4	12.repeated_touch_with_nail_file_short_horvertflip_short_600ms.mp4	353.28871777758286	353.8969736015606	0.6082558239777427	n/a	n/a	n/a	n/a
337.7568359375	0.2	691726	269	66	2	0	0	78	315	stimuli\Videos_short_600ms_vertflip\50.single_(long)hard_push_with_thumb_short_vertflip_short_600ms.mp4	50.single_(long)hard_push_with_thumb_short_vertflip_short_600ms.mp4	354.08860992233167	354.69695371959824	0.6083437972665706	n/a	n/a	n/a	n/a
338.55712890625	0.2	693365	270	66	2	0	0	79	11	stimuli\Videos_short_600ms\2.single_touch_with_finger_short_short_600ms.mp4	2.single_touch_with_finger_short_short_600ms.mp4	354.8886539676241	355.4969355971007	0.6082816294765507	n/a	n/a	n/a	n/a
339.35693359375	0.2	695003	271	66	2	0	0	80	139	stimuli\Videos_short_600ms_horflip\54.repeated_touch_with_knife_short_horflip_short_600ms.mp4	54.repeated_touch_with_knife_short_horflip_short_600ms.mp4	355.6886226491333	356.29691600838123	0.6082933592479094	n/a	n/a	n/a	n/a
340.15673828125	0.2	696641	272	66	2	0	0	81	36	stimuli\Videos_short_600ms\42.single_slap_with_plastic_whisk_short_short_600ms.mp4	42.single_slap_with_plastic_whisk_short_short_600ms.mp4	356.4887036432083	357.0968987656179	0.6081951224095974	n/a	n/a	n/a	n/a
340.95703125	0.2	698280	273	66	2	0	0	82	355	stimuli\Videos_short_600ms_vertflip\87.single_stroke_top_to_bottom_with_plastic_brush_short_vertflip_short_600ms.mp4	87.single_stroke_top_to_bottom_with_plastic_brush_short_vertflip_short_600ms.mp4	357.2888875660301	357.89687595120995	0.6079883851798513	n/a	n/a	n/a	n/a
341.7568359375	0.2	699918	274	66	2	0	1	83	373	stimuli\Targets_short_600ms_horvertflip\chopstick-silver-tap_short_vertflip_short_600ms.mp4	chopstick-silver-tap_short_vertflip_short_600ms.mp4	358.08884539750034	358.6968572422247	0.6080118447243876	n/a	n/a	n/a	n/a
342.556640625	0.2	701556	275	66	2	0	0	84	178	stimuli\Videos_short_600ms_horflip\9.single_touch_with_hammer_short_horflip_short_600ms.mp4	9.single_touch_with_hammer_short_horflip_short_600ms.mp4	358.8886510351804	359.49684087919377	0.6081898440133955	n/a	n/a	n/a	n/a
343.35693359375	0.2	703195	276	66	2	0	0	85	62	stimuli\Videos_short_600ms\66.stroke_top_to_bottom_with_sponge_short_short_600ms.mp4	66.stroke_top_to_bottom_with_sponge_short_short_600ms.mp4	359.68855490970054	360.296793432266	0.6082385225654434	n/a	n/a	n/a	n/a
344.15673828125	0.2	704833	277	66	2	0	0	86	200	stimuli\Videos_short_600ms_horvertflip\28.single_injection_with_sharp_needle_short_horvertflip_short_600ms.mp4	28.single_injection_with_sharp_needle_short_horvertflip_short_600ms.mp4	360.48856757785506	361.0968063936634	0.6082388158083631	n/a	n/a	n/a	n/a
344.95654296875	0.2	706471	278	66	2	0	0	87	238	stimuli\Videos_short_600ms_horvertflip\62.touch_top_to_bottom_with_scissors_short_horvertflip_short_600ms.mp4	62.touch_top_to_bottom_with_scissors_short_horvertflip_short_600ms.mp4	361.28853362016525	361.8967768346392	0.6082432144739869	n/a	n/a	n/a	n/a
345.7568359375	0.2	708110	279	66	2	0	0	88	196	stimuli\Videos_short_600ms_horvertflip\24.single_stroke_top_to_bottom_with_a_spoon_short_horvertflip_short_600ms.mp4	24.single_stroke_top_to_bottom_with_a_spoon_short_horvertflip_short_600ms.mp4	362.08876299585427	362.6967675094693	0.6080045136150147	n/a	n/a	n/a	n/a
346.556640625	0.2	709748	280	66	2	0	0	89	142	stimuli\Videos_short_600ms_horflip\57.single_touch_with_nail_file_short_horflip_short_600ms.mp4	57.single_touch_with_nail_file_short_horflip_short_600ms.mp4	362.88865572709074	363.4967455747974	0.6080898477066512	n/a	n/a	n/a	n/a
347.3564453125	0.2	711386	281	66	2	0	0	90	259	stimuli\Videos_short_600ms_horvertflip\81.single_stroke_top_to_bottom_with_cotton_pad_short_horvertflip_short_600ms.mp4	81.single_stroke_top_to_bottom_with_cotton_pad_short_horvertflip_short_600ms.mp4	363.68841649839305	364.2967309712312	0.608314472838174	n/a	n/a	n/a	n/a
348.15673828125	0.2	713025	282	66	2	0	0	91	21	stimuli\Videos_short_600ms\29.single_pinch_with_tweezers_short_short_600ms.mp4	29.single_pinch_with_tweezers_short_short_600ms.mp4	364.48854235884573	365.09670434464897	0.6081619858032354	n/a	n/a	n/a	n/a
348.96484375	0.2	714680	283	66	2	0	0	92	94	stimuli\Videos_short_600ms_horflip\13.single_touch_with_pen_short_horflip_short_600ms.mp4	13.single_touch_with_pen_short_horflip_short_600ms.mp4	365.2966972481372	365.9050023371565	0.608305089019268	n/a	n/a	n/a	n/a
349.7646484375	0.2	716318	284	66	2	0	0	93	73	stimuli\Videos_short_600ms\76.tickle_with_fingers_from_top_to_bottom_short_short_600ms.mp4	76.tickle_with_fingers_from_top_to_bottom_short_short_600ms.mp4	366.0966521471637	366.70500444851496	0.6083523013512604	n/a	n/a	n/a	n/a
350.56494140625	0.2	717957	285	66	2	0	0	94	291	stimuli\Videos_short_600ms_vertflip\29.single_pinch_with_tweezers_short_vertflip_short_600ms.mp4	29.single_pinch_with_tweezers_short_vertflip_short_600ms.mp4	366.8966551382546	367.5049787016669	0.6083235634123412	n/a	n/a	n/a	n/a
351.36474609375	0.2	719595	286	66	2	0	0	95	356	stimuli\Videos_short_600ms_vertflip\88.repeated_stroke_with_plastic_brush_short_vertflip_short_600ms.mp4	88.repeated_stroke_with_plastic_brush_short_vertflip_short_600ms.mp4	367.696638188736	368.30496145890174	0.6083232701657835	n/a	n/a	n/a	n/a
352.1650390625	0.2	721234	287	66	2	0	0	96	118	stimuli\Videos_short_600ms_horflip\35.single_punch_with_hand_short_horflip_short_600ms.mp4	35.single_punch_with_hand_short_horflip_short_600ms.mp4	368.49669103135784	369.1049480283127	0.6082569969548786	7.0	6.0	2.2365607605115656	0.0
387.58837890625	0.2	793781	288	66	3	0	1	0	363	stimuli\Targets_short_600ms\finger-tap_short_short_600ms.mp4	finger-tap_short_short_600ms.mp4	403.92075043561454	404.5290804504002	0.6083300147856789	n/a	n/a	n/a	n/a
388.388671875	0.2	795420	289	66	3	0	0	1	211	stimuli\Videos_short_600ms_horvertflip\38.double_slap_with_pencil_short_horvertflip_short_600ms.mp4	38.double_slap_with_pencil_short_horvertflip_short_600ms.mp4	404.7207730740738	405.329068779276	0.6082957052021811	n/a	n/a	n/a	n/a
389.1884765625	0.2	797058	290	66	3	0	0	2	13	stimuli\Videos_short_600ms\21.repeated_touch_with_metal_chopstick_short_short_600ms.mp4	21.repeated_touch_with_metal_chopstick_short_short_600ms.mp4	405.5207622826838	406.12904303242794	0.6082807497441536	n/a	n/a	n/a	n/a
389.98876953125	0.2	798697	291	66	3	0	0	3	159	stimuli\Videos_short_600ms_horflip\72.(short)stroke_with_finger_all_over_the_hand_short_horflip_short_600ms.mp4	72.(short)stroke_with_finger_all_over_the_hand_short_horflip_short_600ms.mp4	406.3206828721286	406.9290234437085	0.6083405715799017	n/a	n/a	n/a	n/a
390.78857421875	0.2	800335	292	66	3	0	1	4	370	stimuli\Targets_short_600ms_horflip\hand-pinch_short_horflip_short_600ms.mp4	hand-pinch_short_horflip_short_600ms.mp4	407.1207380607047	407.7290026820119	0.6082646213071712	n/a	n/a	n/a	n/a
391.58837890625	0.2	801973	293	66	3	0	0	5	28	stimuli\Videos_short_600ms\35.single_punch_with_hand_short_short_600ms.mp4	35.single_punch_with_hand_short_short_600ms.mp4	407.9206615825915	408.5289845595144	0.6083229769228637	n/a	n/a	n/a	n/a
392.388671875	0.2	803612	294	66	3	0	0	6	266	stimuli\Videos_short_600ms_horvertflip\88.repeated_stroke_with_plastic_brush_short_horvertflip_short_600ms.mp4	88.repeated_stroke_with_plastic_brush_short_horvertflip_short_600ms.mp4	408.72068480754024	409.3289623315959	0.6082775240556657	n/a	n/a	n/a	n/a
393.1884765625	0.2	805250	295	66	3	0	0	7	41	stimuli\Videos_short_600ms\47.(long)scratching_with_finger_nails_short_short_600ms.mp4	47.(long)scratching_with_finger_nails_short_short_600ms.mp4	409.5206382403466	410.128952713183	0.608314472836355	n/a	n/a	n/a	n/a
393.98828125	0.2	806888	296	66	3	0	1	8	371	stimuli\Targets_short_600ms_horflip\hand-stroke_short_horflip_short_600ms.mp4	hand-stroke_short_horflip_short_600ms.mp4	410.32062920842145	410.9289298987769	0.6083006903554633	n/a	n/a	n/a	n/a
394.78857421875	0.2	808527	297	66	3	0	0	9	204	stimuli\Videos_short_600ms_horvertflip\31.hand_grabbing_wrist_short_horvertflip_short_600ms.mp4	31.hand_grabbing_wrist_short_horvertflip_short_600ms.mp4	411.1208890815178	411.7289085505927	0.6080194690748613	n/a	n/a	n/a	n/a
395.58837890625	0.2	810165	298	66	3	0	0	10	304	stimuli\Videos_short_600ms_vertflip\40.repeated_push_with_finger_short_vertflip_short_600ms.mp4	40.repeated_push_with_finger_short_vertflip_short_600ms.mp4	411.92068445564655	412.5288625698868	0.6081781142402178	n/a	n/a	n/a	n/a
396.38818359375	0.2	811803	299	66	3	0	0	11	138	stimuli\Videos_short_600ms_horflip\53.touch_top_to_bottom_with_knife_short_horflip_short_600ms.mp4	53.touch_top_to_bottom_with_knife_short_horflip_short_600ms.mp4	412.7205950747848	413.3288737718194	0.6082786970346206	n/a	n/a	n/a	n/a
397.1884765625	0.2	813442	300	66	3	0	0	12	244	stimuli\Videos_short_600ms_horvertflip\68.stroke_top_to_bottom_with_shawl_short_horvertflip_short_600ms.mp4	68.stroke_top_to_bottom_with_shawl_short_horvertflip_short_600ms.mp4	413.5206177132459	414.12884861145903	0.6082308982131508	n/a	n/a	n/a	n/a
397.98828125	0.2	815080	301	66	3	0	0	13	324	stimuli\Videos_short_600ms_vertflip\59.single_push_with_long_side_pencil_short_vertflip_short_600ms.mp4	59.single_push_with_long_side_pencil_short_vertflip_short_600ms.mp4	414.320608094833	414.92883987277855	0.608231777945548	n/a	n/a	n/a	n/a
398.7880859375	0.2	816718	302	66	3	0	0	14	306	stimuli\Videos_short_600ms_vertflip\42.single_slap_with_plastic_whisk_short_vertflip_short_600ms.mp4	42.single_slap_with_plastic_whisk_short_vertflip_short_600ms.mp4	415.1205195937037	415.7288088475325	0.6082892538288434	n/a	n/a	n/a	n/a
399.58837890625	0.2	818357	303	66	3	0	0	15	161	stimuli\Videos_short_600ms_horflip\74.fingers_walking_from_top_to_bottom_short_horflip_short_600ms.mp4	74.fingers_walking_from_top_to_bottom_short_horflip_short_600ms.mp4	415.9204973657852	416.5287898453007	0.6082924795155122	n/a	n/a	n/a	n/a
400.38818359375	0.2	819995	304	66	3	0	1	16	362	stimuli\Targets_short_600ms\chopstickwood-tap_short_short_600ms.mp4	chopstickwood-tap_short_short_600ms.mp4	416.7204537310354	417.3287711363155	0.6083174052801041	n/a	n/a	n/a	n/a
401.18798828125	0.2	821633	305	66	3	0	0	17	63	stimuli\Videos_short_600ms\67.single_touch_with_sponge_short_short_600ms.mp4	67.single_touch_with_sponge_short_short_600ms.mp4	417.5204323828493	418.1287509611084	0.608318578259059	n/a	n/a	n/a	n/a
401.98828125	0.2	823272	306	66	3	0	0	18	275	stimuli\Videos_short_600ms_vertflip\14.repeated_touch_with_pencil_short_vertflip_short_600ms.mp4	14.repeated_touch_with_pencil_short_vertflip_short_600ms.mp4	418.3204471037134	418.92873665078696	0.6082895470735821	n/a	n/a	n/a	n/a
402.7880859375	0.2	824910	307	66	3	0	0	19	72	stimuli\Videos_short_600ms\75.(long)stroke_with_fingers_all_over_the_hand_short_short_600ms.mp4	75.(long)stroke_with_fingers_all_over_the_hand_short_short_600ms.mp4	419.1204316204148	419.728712370159	0.6082807497441536	n/a	n/a	n/a	n/a
403.587890625	0.2	826548	308	66	3	0	0	20	101	stimuli\Videos_short_600ms_horflip\2.single_touch_with_finger_short_horflip_short_600ms.mp4	2.single_touch_with_finger_short_horflip_short_600ms.mp4	419.92036540585286	420.5286924881948	0.6083270823419298	n/a	n/a	n/a	n/a
404.38818359375	0.2	828187	309	66	3	0	0	21	126	stimuli\Videos_short_600ms_horflip\42.single_slap_with_plastic_whisk_short_horflip_short_600ms.mp4	42.single_slap_with_plastic_whisk_short_horflip_short_600ms.mp4	420.72034523064576	421.3286775913839	0.6083323607381317	n/a	n/a	n/a	n/a
405.18798828125	0.2	829825	310	66	3	0	0	22	23	stimuli\Videos_short_600ms\30.finger_pulling_back_another_finger_short_short_600ms.mp4	30.finger_pulling_back_another_finger_short_short_600ms.mp4	421.5204590680805	422.12865536346726	0.6081962953867333	n/a	n/a	n/a	n/a
405.98779296875	0.2	831463	311	66	3	0	0	23	115	stimuli\Videos_short_600ms_horflip\32.single_(long)pinch_with_fingers_short_horflip_short_600ms.mp4	32.single_(long)pinch_with_fingers_short_horflip_short_600ms.mp4	422.3203318587057	422.928634015283	0.6083021565773379	n/a	n/a	n/a	n/a
406.7880859375	0.2	833102	312	66	3	0	0	24	123	stimuli\Videos_short_600ms_horflip\4.repeated_tap_with_finger_slow_short_horflip_short_600ms.mp4	4.repeated_tap_with_finger_slow_short_horflip_short_600ms.mp4	423.1202905699083	423.7286135468312	0.6083229769228637	n/a	n/a	n/a	n/a
407.587890625	0.2	834740	313	66	3	0	1	25	366	stimuli\Targets_short_600ms_horflip\brush-stroke_short_horflip_short_600ms.mp4	brush-stroke_short_horflip_short_600ms.mp4	423.92042141551246	424.5285960108213	0.6081745953088102	n/a	n/a	n/a	n/a
408.3876953125	0.2	836378	314	66	3	0	0	26	210	stimuli\Videos_short_600ms_horvertflip\37.single_stab_with_nail_file_short_horvertflip_short_600ms.mp4	37.single_stab_with_nail_file_short_horvertflip_short_600ms.mp4	424.7203645847694	425.32895060182454	0.6085860170551314	n/a	n/a	n/a	n/a
409.18798828125	0.2	838017	315	66	3	0	0	27	76	stimuli\Videos_short_600ms\79.long_with_soft_brush_all_over_the_hand_short_short_600ms.mp4	79.long_with_soft_brush_all_over_the_hand_short_short_600ms.mp4	425.5202971972285	426.1285324941073	0.6082352968787745	n/a	n/a	n/a	n/a
409.98779296875	0.2	839655	316	66	3	0	0	28	65	stimuli\Videos_short_600ms\69.stroke_with_soft_sock_short_short_600ms.mp4	69.stroke_with_soft_sock_short_short_600ms.mp4	426.3203814169919	426.9285126121431	0.6081311951511452	n/a	n/a	n/a	n/a
410.7880859375	0.2	841294	317	66	3	0	1	29	372	stimuli\Targets_short_600ms_horvertflip\brush-stroke_short_vertflip_short_600ms.mp4	brush-stroke_short_vertflip_short_600ms.mp4	427.1201811897863	427.72849214369126	0.6083109539049474	n/a	n/a	n/a	n/a
411.587890625	0.2	842932	318	66	3	0	0	30	117	stimuli\Videos_short_600ms_horflip\34.repeated_punch_with_hand_short_horflip_short_600ms.mp4	34.repeated_punch_with_hand_short_horflip_short_600ms.mp4	427.9201783159915	428.5285083307772	0.6083300147856789	n/a	n/a	n/a	n/a
412.3876953125	0.2	844570	319	66	3	0	0	31	352	stimuli\Videos_short_600ms_vertflip\84.single_touch_with_cotton_bud_short_vertflip_short_600ms.mp4	84.single_touch_with_cotton_bud_short_vertflip_short_600ms.mp4	428.7201839462814	429.3284872758358	0.6083033295544737	n/a	n/a	n/a	n/a
413.18798828125	0.2	846209	320	66	3	0	0	32	89	stimuli\Videos_short_600ms\90.repeated_touch_with_sponge_short_short_600ms.mp4	90.repeated_touch_with_sponge_short_short_600ms.mp4	429.52014353721825	430.1284688600936	0.6083253228753165	n/a	n/a	n/a	n/a
413.98779296875	0.2	847847	321	66	3	0	0	33	184	stimuli\Videos_short_600ms_horvertflip\13.single_touch_with_pen_short_horvertflip_short_600ms.mp4	13.single_touch_with_pen_short_horvertflip_short_600ms.mp4	430.3201213092998	430.9284413537789	0.6083200444791146	n/a	n/a	n/a	n/a
414.78759765625	0.2	849485	322	66	3	0	0	34	186	stimuli\Videos_short_600ms_horvertflip\15.single_stroke_top_to_bottom_with_a_plastic_whisk_short_horvertflip_short_600ms.mp4	15.single_stroke_top_to_bottom_with_a_plastic_whisk_short_horvertflip_short_600ms.mp4	431.1201284058115	431.7284220583042	0.6082936524926481	n/a	n/a	n/a	n/a
415.587890625	0.2	851124	323	66	3	0	0	35	49	stimuli\Videos_short_600ms\54.repeated_touch_with_knife_short_short_600ms.mp4	54.repeated_touch_with_knife_short_short_600ms.mp4	431.9200862372818	432.5284036425637	0.6083174052819231	n/a	n/a	n/a	n/a
416.3876953125	0.2	852762	324	66	3	0	0	36	337	stimuli\Videos_short_600ms_vertflip\70.(long)stroke_with_finger_all_over_the_hand_short_vertflip_short_600ms.mp4	70.(long)stroke_with_finger_all_over_the_hand_short_vertflip_short_600ms.mp4	432.7200918675735	433.32838229437766	0.6082904268041602	n/a	n/a	n/a	n/a
417.1875	0.2	854400	325	66	3	0	0	37	164	stimuli\Videos_short_600ms_horflip\77.tapping_with_all_fingers_short_horflip_short_600ms.mp4	77.tapping_with_all_fingers_short_horflip_short_600ms.mp4	433.520083128893	434.1283615326811	0.6082784037880629	n/a	n/a	n/a	n/a
417.98779296875	0.2	856039	326	66	3	0	0	38	79	stimuli\Videos_short_600ms\81.single_stroke_top_to_bottom_with_cotton_pad_short_short_600ms.mp4	81.single_stroke_top_to_bottom_with_cotton_pad_short_short_600ms.mp4	434.32002453868154	434.92834282369586	0.6083182850143203	n/a	n/a	n/a	n/a
418.78759765625	0.2	857677	327	66	3	0	0	39	68	stimuli\Videos_short_600ms\71.single_stroke_with_finger_top_to_bottom_short_short_600ms.mp4	71.single_stroke_with_finger_top_to_bottom_short_short_600ms.mp4	435.1199979120993	435.7283258741754	0.6083279620761459	n/a	n/a	n/a	n/a
419.58740234375	0.2	859315	328	66	3	0	0	40	169	stimuli\Videos_short_600ms_horflip\81.single_stroke_top_to_bottom_with_cotton_pad_short_horflip_short_600ms.mp4	81.single_stroke_top_to_bottom_with_cotton_pad_short_horflip_short_600ms.mp4	435.9200006099472	436.5283065787007	0.6083059687534842	n/a	n/a	n/a	n/a
420.3876953125	0.2	860954	329	66	3	0	0	41	166	stimuli\Videos_short_600ms_horflip\79.long_with_soft_brush_all_over_the_hand_short_horflip_short_600ms.mp4	79.long_with_soft_brush_all_over_the_hand_short_horflip_short_600ms.mp4	436.72010271761246	437.32828493727175	0.6081822196592839	n/a	n/a	n/a	n/a
421.1875	0.2	862592	330	66	3	0	0	42	157	stimuli\Videos_short_600ms_horflip\70.(long)stroke_with_finger_all_over_the_hand_short_horflip_short_600ms.mp4	70.(long)stroke_with_finger_all_over_the_hand_short_horflip_short_600ms.mp4	437.51992389724	438.12826652152944	0.6083426242894348	n/a	n/a	n/a	n/a
421.9873046875	0.2	864230	331	66	3	0	0	43	124	stimuli\Videos_short_600ms_horflip\40.repeated_push_with_finger_short_horflip_short_600ms.mp4	40.repeated_push_with_finger_short_horflip_short_600ms.mp4	438.3199383248593	438.92824693281	0.6083086079506757	n/a	n/a	n/a	n/a
422.78759765625	0.2	865869	332	66	3	0	0	44	7	stimuli\Videos_short_600ms\16.repeated_touch_with_plastic_brush_short_short_600ms.mp4	16.repeated_touch_with_plastic_brush_short_short_600ms.mp4	439.11995187274624	439.72822265218383	0.6082707794375892	n/a	n/a	n/a	n/a
423.58740234375	0.2	867507	333	66	3	0	0	45	58	stimuli\Videos_short_600ms\62.touch_top_to_bottom_with_scissors_short_short_600ms.mp4	62.touch_top_to_bottom_with_scissors_short_short_600ms.mp4	439.91998946666354	440.5281910404483	0.6082015737847541	n/a	n/a	n/a	n/a
424.38720703125	0.2	869145	334	66	3	0	0	46	335	stimuli\Videos_short_600ms_vertflip\69.stroke_with_soft_sock_short_vertflip_short_600ms.mp4	69.stroke_with_soft_sock_short_vertflip_short_600ms.mp4	440.7198678289296	441.3283746700272	0.6085068410975509	n/a	n/a	n/a	n/a
425.1875	0.2	870784	335	66	3	0	0	47	97	stimuli\Videos_short_600ms_horflip\16.repeated_touch_with_plastic_brush_short_horflip_short_600ms.mp4	16.repeated_touch_with_plastic_brush_short_horflip_short_600ms.mp4	441.519887534947	442.12816505900264	0.6082775240556657	n/a	n/a	n/a	n/a
425.9873046875	0.2	872422	336	66	3	0	0	48	191	stimuli\Videos_short_600ms_horvertflip\2.single_touch_with_finger_short_horvertflip_short_600ms.mp4	2.single_touch_with_finger_short_horvertflip_short_600ms.mp4	442.3203303924838	442.9281252364271	0.6077948439433385	n/a	n/a	n/a	n/a
426.79541015625	0.2	874077	337	66	3	0	0	49	38	stimuli\Videos_short_600ms\44.pushing_top_to_bottom_with_finger_short_short_600ms.mp4	44.pushing_top_to_bottom_with_finger_short_short_600ms.mp4	443.1281448251466	443.7364666290923	0.6083218039457279	n/a	n/a	n/a	n/a
427.595703125	0.2	875716	338	66	3	0	0	50	221	stimuli\Videos_short_600ms_horvertflip\47.(long)scratching_with_finger_nails_short_horvertflip_short_600ms.mp4	47.(long)scratching_with_finger_nails_short_horvertflip_short_600ms.mp4	443.9281815393333	444.536445574151	0.6082640348176938	n/a	n/a	n/a	n/a
428.3955078125	0.2	877354	339	66	3	0	0	51	268	stimuli\Videos_short_600ms_horvertflip\9.single_touch_with_hammer_short_horvertflip_short_600ms.mp4	9.single_touch_with_hammer_short_horvertflip_short_600ms.mp4	444.7281531532845	445.3364204137906	0.6082672605061816	n/a	n/a	n/a	n/a
429.19580078125	0.2	878993	340	66	3	0	0	52	3	stimuli\Videos_short_600ms\12.repeated_touch_with_nail_file_short_short_600ms.mp4	12.repeated_touch_with_nail_file_short_short_600ms.mp4	445.5280892846767	446.13640932915587	0.6083200444791146	n/a	n/a	n/a	n/a
429.99560546875	0.2	880631	341	66	3	0	0	53	113	stimuli\Videos_short_600ms_horflip\30.finger_pulling_back_another_finger_short_horflip_short_600ms.mp4	30.finger_pulling_back_another_finger_short_horflip_short_600ms.mp4	446.3280696959573	446.9363829958183	0.6083132998610381	n/a	n/a	n/a	n/a
430.79541015625	0.2	882269	342	66	3	0	1	54	368	stimuli\Targets_short_600ms_horflip\chopstickwood-tap_short_horflip_short_600ms.mp4	chopstickwood-tap_short_horflip_short_600ms.mp4	447.12809292090606	447.7363607678999	0.6082678469938401	n/a	n/a	n/a	n/a
431.595703125	0.2	883908	343	66	3	0	0	55	254	stimuli\Videos_short_600ms_horvertflip\77.tapping_with_all_fingers_short_horvertflip_short_600ms.mp4	77.tapping_with_all_fingers_short_horvertflip_short_600ms.mp4	447.9280316914974	448.5363470440679	0.6083153525705711	n/a	n/a	n/a	n/a
432.3955078125	0.2	885546	344	66	3	0	0	56	199	stimuli\Videos_short_600ms_horvertflip\27.single_push_with_a_plastic_whisk_short_horvertflip_short_600ms.mp4	27.single_push_with_a_plastic_whisk_short_horvertflip_short_600ms.mp4	448.72805345022425	449.33633537294554	0.6082819227212894	n/a	n/a	n/a	n/a
433.1953125	0.2	887184	345	66	3	0	0	57	27	stimuli\Videos_short_600ms\34.repeated_punch_with_hand_short_short_600ms.mp4	34.repeated_punch_with_hand_short_short_600ms.mp4	449.52802741012965	450.1363160774709	0.6082886673411849	n/a	n/a	n/a	n/a
433.99560546875	0.2	888823	346	66	3	0	0	58	271	stimuli\Videos_short_600ms_vertflip\10.single_touch_with_knife_short_vertflip_short_600ms.mp4	10.single_touch_with_knife_short_vertflip_short_600ms.mp4	450.3281116298931	450.93628915764384	0.6081775277507404	n/a	n/a	n/a	n/a
434.79541015625	0.2	890461	347	66	3	0	0	59	32	stimuli\Videos_short_600ms\39.single_stab_with_scissors_short_short_600ms.mp4	39.single_stab_with_scissors_short_short_600ms.mp4	451.1280108125029	451.7362760202995	0.6082652077966486	n/a	n/a	n/a	n/a
435.59521484375	0.2	892099	348	66	3	0	0	60	151	stimuli\Videos_short_600ms_horflip\65.stroke_top_to_bottom_with_stanley_knife_short_horflip_short_600ms.mp4	65.stroke_top_to_bottom_with_stanley_knife_short_horflip_short_600ms.mp4	451.927931108703	452.5362508599392	0.6083197512361949	n/a	n/a	n/a	n/a
436.3955078125	0.2	893738	349	66	3	0	0	61	114	stimuli\Videos_short_600ms_horflip\31.hand_grabbing_wrist_short_horflip_short_600ms.mp4	31.hand_grabbing_wrist_short_horflip_short_600ms.mp4	452.7279077078092	453.3362274590436	0.6083197512343759	n/a	n/a	n/a	n/a
437.1953125	0.2	895376	350	66	3	0	0	62	4	stimuli\Videos_short_600ms\13.single_touch_with_pen_short_short_600ms.mp4	13.single_touch_with_pen_short_short_600ms.mp4	453.52789310424305	454.1362248784935	0.6083317742504732	n/a	n/a	n/a	n/a
437.9951171875	0.2	897014	351	66	3	0	0	63	156	stimuli\Videos_short_600ms_horflip\7.repeated_touch_with_hairbrush_short_horflip_short_600ms.mp4	7.repeated_touch_with_hairbrush_short_horflip_short_600ms.mp4	454.3278468302924	454.93618945458365	0.6083426242912537	n/a	n/a	n/a	n/a
438.79541015625	0.2	898653	352	66	3	0	0	64	230	stimuli\Videos_short_600ms_horvertflip\55.touch_top_to_bottom_with_nail_file_short_horvertflip_short_600ms.mp4	55.touch_top_to_bottom_with_nail_file_short_horvertflip_short_600ms.mp4	455.1278553930261	455.7361707455966	0.6083153525705711	n/a	n/a	n/a	n/a
439.59521484375	0.2	900291	353	66	3	0	0	65	57	stimuli\Videos_short_600ms\61.single_hit_with_rolling_pin_short_short_600ms.mp4	61.single_hit_with_rolling_pin_short_short_600ms.mp4	455.92819502856946	456.5361514501219	0.6079564215524442	n/a	n/a	n/a	n/a
440.39501953125	0.2	901929	354	66	3	0	0	66	71	stimuli\Videos_short_600ms\74.fingers_walking_from_top_to_bottom_short_short_600ms.mp4	74.fingers_walking_from_top_to_bottom_short_short_600ms.mp4	456.7278138696329	457.3361336208691	0.6083197512361949	n/a	n/a	n/a	n/a
441.1953125	0.2	903568	355	66	3	0	0	67	307	stimuli\Videos_short_600ms_vertflip\43.touch_top_to_bottom_with_sharp_wooden_stick_short_vertflip_short_600ms.mp4	43.touch_top_to_bottom_with_sharp_wooden_stick_short_vertflip_short_600ms.mp4	457.52786231359096	458.1361137389049	0.6082514253139379	n/a	n/a	n/a	n/a
441.9951171875	0.2	905206	356	66	3	0	0	68	125	stimuli\Videos_short_600ms_horflip\41.injection_with_blunt_syringe_short_horflip_short_600ms.mp4	41.injection_with_blunt_syringe_short_horflip_short_600ms.mp4	458.3277943395642	458.9360926839654	0.6082983444011916	n/a	n/a	n/a	n/a
442.794921875	0.2	906844	357	66	3	0	0	69	293	stimuli\Videos_short_600ms_vertflip\30.finger_pulling_back_another_finger_short_vertflip_short_600ms.mp4	30.finger_pulling_back_another_finger_short_vertflip_short_600ms.mp4	459.12777211164575	459.7360792533764	0.6083071417306201	n/a	n/a	n/a	n/a
443.59521484375	0.2	908483	358	66	3	0	0	70	243	stimuli\Videos_short_600ms_horvertflip\67.single_touch_with_sponge_short_horvertflip_short_600ms.mp4	67.single_touch_with_sponge_short_horvertflip_short_600ms.mp4	459.92783287186467	460.5360526267941	0.6082197549294506	n/a	n/a	n/a	n/a
