onset	duration	onsetsample	eventnumber	subjectnr	sequencenumber	blocksequencenumber	istarget	presentationnumber	stimnumber	stim	stimname	time_stimon	time_stimoff	stimdur	cresp	resp	rt	correct
28.4228515625	0.2	58210	0	57	0	0	0	0	8	stimuli\Videos_short_600ms\17.repeated_touch_with_rolling_pin_short_short_600ms.mp4	17.repeated_touch_with_rolling_pin_short_short_600ms.mp4	63.02221350950913	63.63055869249092	0.6083451829817932	n/a	n/a	n/a	n/a
29.22265625	0.2	59848	1	57	0	0	0	1	49	stimuli\Videos_short_600ms\54.repeated_touch_with_knife_short_short_600ms.mp4	54.repeated_touch_with_knife_short_short_600ms.mp4	63.82222506346625	64.43054444065547	0.6083193771892184	n/a	n/a	n/a	n/a
30.0224609375	0.2	61486	2	57	0	0	0	2	313	stimuli\Videos_short_600ms_vertflip\49.repeated_slap_with_hand_short_vertflip_short_600ms.mp4	49.repeated_slap_with_hand_short_vertflip_short_600ms.mp4	64.62222430102247	65.23054309171584	0.6083187906933745	n/a	n/a	n/a	n/a
30.82275390625	0.2	63125	3	57	0	0	1	3	375	stimuli\Targets_short_600ms_horvertflip\finger-tap_short_vertflip_short_600ms.mp4	finger-tap_short_vertflip_short_600ms.mp4	65.42220653021468	66.03051095177307	0.6083044215583868	n/a	n/a	n/a	n/a
31.62255859375	0.2	64763	4	57	0	0	0	4	0	stimuli\Videos_short_600ms\1.repeated_touch_with_finger_fast_short_short_600ms.mp4	1.repeated_touch_with_finger_fast_short_short_600ms.mp4	66.22219403786494	66.83049464720443	0.6083006093394943	n/a	n/a	n/a	n/a
32.42236328125	0.2	66401	5	57	0	0	0	5	150	stimuli\Videos_short_600ms_horflip\64.repeated_touch_with_screwdriver_short_horflip_short_600ms.mp4	64.repeated_touch_with_screwdriver_short_horflip_short_600ms.mp4	67.02218389149584	67.63050737415233	0.6083234826564876	n/a	n/a	n/a	n/a
33.22265625	0.2	68040	6	57	0	0	0	6	100	stimuli\Videos_short_600ms_horflip\19.single_touch_with_rolling_pin_short_horflip_short_600ms.mp4	19.single_touch_with_rolling_pin_short_horflip_short_600ms.mp4	67.82217374512766	68.4304975210307	0.6083237759030453	n/a	n/a	n/a	n/a
34.0224609375	0.2	69678	7	57	0	0	0	7	17	stimuli\Videos_short_600ms\25.single_touch_with_stanley_knife_short_short_600ms.mp4	25.single_touch_with_stanley_knife_short_short_600ms.mp4	68.62216389200603	69.23049089363394	0.608327001627913	n/a	n/a	n/a	n/a
34.82275390625	0.2	71317	8	57	0	0	0	8	316	stimuli\Videos_short_600ms_vertflip\51.repeated_touch_with_hammer_short_vertflip_short_600ms.mp4	51.repeated_touch_with_hammer_short_vertflip_short_600ms.mp4	69.42215374563784	70.03047546880771	0.6083217231698654	n/a	n/a	n/a	n/a
35.62255859375	0.2	72955	9	57	0	0	0	9	171	stimuli\Videos_short_600ms_horflip\83.single_stroke_top_to_bottom_with_cotton_bud_short_horflip_short_600ms.mp4	83.single_stroke_top_to_bottom_with_cotton_bud_short_horflip_short_600ms.mp4	70.22214271952635	70.83046649542939	0.6083237759030453	n/a	n/a	n/a	n/a
36.42236328125	0.2	74593	10	57	0	0	0	10	93	stimuli\Videos_short_600ms_horflip\12.repeated_touch_with_nail_file_short_horflip_short_600ms.mp4	12.repeated_touch_with_nail_file_short_horflip_short_600ms.mp4	71.02213550563374	71.63045810854692	0.6083226029131765	n/a	n/a	n/a	n/a
37.22265625	0.2	76232	11	57	0	0	0	11	34	stimuli\Videos_short_600ms\40.repeated_push_with_finger_short_short_600ms.mp4	40.repeated_push_with_finger_short_short_600ms.mp4	71.822123013284	72.43044737568289	0.6083243623988892	n/a	n/a	n/a	n/a
38.0224609375	0.2	77870	12	57	0	0	0	12	272	stimuli\Videos_short_600ms_vertflip\11.single_touch_with_lighter_short_vertflip_short_600ms.mp4	11.single_touch_with_lighter_short_vertflip_short_600ms.mp4	72.62211374665821	73.23043957529535	0.6083258286371347	n/a	n/a	n/a	n/a
38.822265625	0.2	79508	13	57	0	0	0	13	32	stimuli\Videos_short_600ms\39.single_stab_with_scissors_short_short_600ms.mp4	39.single_stab_with_scissors_short_short_600ms.mp4	73.42210272054672	74.03042972217463	0.608327001627913	n/a	n/a	n/a	n/a
39.62255859375	0.2	81147	14	57	0	0	1	14	371	stimuli\Targets_short_600ms_horflip\hand-stroke_short_horflip_short_600ms.mp4	hand-stroke_short_horflip_short_600ms.mp4	74.22209550665411	74.83041957580554	0.608324069151422	n/a	n/a	n/a	n/a
40.42236328125	0.2	82785	15	57	0	0	0	15	196	stimuli\Videos_short_600ms_horvertflip\24.single_stroke_top_to_bottom_with_a_spoon_short_horvertflip_short_600ms.mp4	24.single_stroke_top_to_bottom_with_a_spoon_short_horvertflip_short_600ms.mp4	75.02208448054262	75.63041001593228	0.6083255353896675	n/a	n/a	n/a	n/a
41.22216796875	0.2	84423	16	57	0	0	0	16	356	stimuli\Videos_short_600ms_vertflip\88.repeated_stroke_with_plastic_brush_short_vertflip_short_600ms.mp4	88.repeated_stroke_with_plastic_brush_short_vertflip_short_600ms.mp4	75.82207169494541	76.43039869657332	0.608327001627913	n/a	n/a	n/a	n/a
42.0224609375	0.2	86062	17	57	0	0	0	17	70	stimuli\Videos_short_600ms\73.single_stroke_with_flat_hand_short_short_600ms.mp4	73.single_stroke_with_flat_hand_short_short_600ms.mp4	76.62205069841366	77.23039001644247	0.6083393180288112	n/a	n/a	n/a	n/a
42.822265625	0.2	87700	18	57	0	0	0	18	286	stimuli\Videos_short_600ms_vertflip\24.single_stroke_top_to_bottom_with_a_spoon_short_vertflip_short_600ms.mp4	24.single_stroke_top_to_bottom_with_a_spoon_short_vertflip_short_600ms.mp4	77.42205140220813	78.03038368229318	0.608332280085051	n/a	n/a	n/a	n/a
43.6220703125	0.2	89338	19	57	0	0	1	19	379	stimuli\Targets_short_600ms_vertflip\chopstick-silver-tap_short_horvertflip_short_600ms.mp4	chopstick-silver-tap_short_horvertflip_short_600ms.mp4	78.22204682754455	78.83036884396188	0.6083220164173326	n/a	n/a	n/a	n/a
44.42236328125	0.2	90977	20	57	0	0	0	20	292	stimuli\Videos_short_600ms_vertflip\3.single_push_with_finger_short_vertflip_short_600ms.mp4	3.single_push_with_finger_short_vertflip_short_600ms.mp4	79.02204401236668	79.6303358242767	0.6082918119100214	n/a	n/a	n/a	n/a
45.22216796875	0.2	92615	21	57	0	0	0	21	357	stimuli\Videos_short_600ms_vertflip\89.single_touch_with_plastic_brush_short_vertflip_short_600ms.mp4	89.single_touch_with_plastic_brush_short_vertflip_short_600ms.mp4	79.82203357275012	80.43032421166936	0.6082906389192431	n/a	n/a	n/a	n/a
46.02197265625	0.2	94253	22	57	0	0	0	22	26	stimuli\Videos_short_600ms\33.scratch_top_to_bottom_with_scissors_short_short_600ms.mp4	33.scratch_top_to_bottom_with_scissors_short_short_600ms.mp4	80.62201462895246	81.23032755469285	0.6083129257403925	n/a	n/a	n/a	n/a
46.822265625	0.2	95892	23	57	0	0	0	23	179	stimuli\Videos_short_600ms_horflip\90.repeated_touch_with_sponge_short_horflip_short_600ms.mp4	90.repeated_touch_with_sponge_short_horflip_short_600ms.mp4	81.42200565557414	82.0303056784187	0.6083000228445599	n/a	n/a	n/a	n/a
47.6220703125	0.2	97530	24	57	0	0	0	24	140	stimuli\Videos_short_600ms_horflip\55.touch_top_to_bottom_with_nail_file_short_horflip_short_600ms.mp4	55.touch_top_to_bottom_with_nail_file_short_horflip_short_600ms.mp4	82.22199257672946	82.83030550246986	0.6083129257403925	n/a	n/a	n/a	n/a
48.421875	0.2	99168	25	57	0	0	0	25	230	stimuli\Videos_short_600ms_horvertflip\55.touch_top_to_bottom_with_nail_file_short_horvertflip_short_600ms.mp4	55.touch_top_to_bottom_with_nail_file_short_horvertflip_short_600ms.mp4	83.02195809080513	83.63031881591269	0.6083607251075591	n/a	n/a	n/a	n/a
49.22216796875	0.2	100807	26	57	0	0	0	26	13	stimuli\Videos_short_600ms\21.repeated_touch_with_metal_chopstick_short_short_600ms.mp4	21.repeated_touch_with_metal_chopstick_short_short_600ms.mp4	83.82197550971614	84.43030221809568	0.6083267083795363	n/a	n/a	n/a	n/a
50.02197265625	0.2	102445	27	57	0	0	0	27	297	stimuli\Videos_short_600ms_vertflip\34.repeated_punch_with_hand_short_vertflip_short_600ms.mp4	34.repeated_punch_with_hand_short_vertflip_short_600ms.mp4	84.62196419035627	85.23028972574593	0.6083255353896675	n/a	n/a	n/a	n/a
50.82177734375	0.2	104083	28	57	0	0	0	28	248	stimuli\Videos_short_600ms_horvertflip\71.single_stroke_with_finger_top_to_bottom_short_horvertflip_short_600ms.mp4	71.single_stroke_with_finger_top_to_bottom_short_horvertflip_short_600ms.mp4	85.42195492373048	86.03027752664366	0.6083226029131765	n/a	n/a	n/a	n/a
51.6220703125	0.2	105722	29	57	0	0	0	29	285	stimuli\Videos_short_600ms_vertflip\23.single_push_with_a_spoon_short_vertflip_short_600ms.mp4	23.single_push_with_a_spoon_short_vertflip_short_600ms.mp4	86.22194741659132	86.8302832156478	0.6083357990564764	n/a	n/a	n/a	n/a
52.421875	0.2	107360	30	57	0	0	0	30	161	stimuli\Videos_short_600ms_horflip\74.fingers_walking_from_top_to_bottom_short_horflip_short_600ms.mp4	74.fingers_walking_from_top_to_bottom_short_horflip_short_600ms.mp4	87.0219346309932	87.63028978439525	0.6083551534020444	n/a	n/a	n/a	n/a
53.2216796875	0.2	108998	31	57	0	0	0	31	207	stimuli\Videos_short_600ms_horvertflip\34.repeated_punch_with_hand_short_horvertflip_short_600ms.mp4	34.repeated_punch_with_hand_short_horvertflip_short_600ms.mp4	87.82192507111995	88.4302488470239	0.6083237759039548	n/a	n/a	n/a	n/a
54.02197265625	0.2	110637	32	57	0	0	0	32	309	stimuli\Videos_short_600ms_vertflip\45.scratching_with_finger_nails_short_vertflip_short_600ms.mp4	45.scratching_with_finger_nails_short_vertflip_short_600ms.mp4	88.62191580449417	89.23023811415987	0.6083223096657093	n/a	n/a	n/a	n/a
54.82177734375	0.2	112275	33	57	0	0	0	33	27	stimuli\Videos_short_600ms\34.repeated_punch_with_hand_short_short_600ms.mp4	34.repeated_punch_with_hand_short_short_600ms.mp4	89.42196665363645	90.03022796779078	0.6082613141543334	n/a	n/a	n/a	n/a
55.6220703125	0.2	113914	34	57	0	0	0	34	233	stimuli\Videos_short_600ms_horvertflip\58.single_slap_with_pencil_short_horvertflip_short_600ms.mp4	58.single_slap_with_pencil_short_horvertflip_short_600ms.mp4	90.22189873748084	90.83022280663226	0.608324069151422	n/a	n/a	n/a	n/a
56.421875	0.2	115552	35	57	0	0	0	35	263	stimuli\Videos_short_600ms_horvertflip\85.touch_top_to_bottom_with_fabric_short_horvertflip_short_600ms.mp4	85.touch_top_to_bottom_with_fabric_short_horvertflip_short_600ms.mp4	91.02186219882331	91.6302144197498	0.6083522209264629	n/a	n/a	n/a	n/a
57.2216796875	0.2	117190	36	57	0	0	0	36	22	stimuli\Videos_short_600ms\3.single_push_with_finger_short_short_600ms.mp4	3.single_push_with_finger_short_short_600ms.mp4	91.82186260937031	92.43020192739914	0.6083393180288112	n/a	n/a	n/a	n/a
58.02197265625	0.2	118829	37	57	0	0	0	37	145	stimuli\Videos_short_600ms_horflip\6.single_touch_with_flat_hand_short_horflip_short_600ms.mp4	6.single_touch_with_flat_hand_short_horflip_short_600ms.mp4	92.62184131959113	93.23019354051668	0.6083522209255534	n/a	n/a	n/a	n/a
58.82177734375	0.2	120467	38	57	0	0	0	38	173	stimuli\Videos_short_600ms_horflip\85.touch_top_to_bottom_with_fabric_short_horflip_short_600ms.mp4	85.touch_top_to_bottom_with_fabric_short_horflip_short_600ms.mp4	93.42186313721596	94.03018808611068	0.6083249488947331	n/a	n/a	n/a	n/a
59.62158203125	0.2	122105	39	57	0	0	0	39	131	stimuli\Videos_short_600ms_horflip\47.(long)scratching_with_finger_nails_short_horflip_short_600ms.mp4	47.(long)scratching_with_finger_nails_short_horflip_short_600ms.mp4	94.22184917862796	94.8301711950462	0.6083220164182421	n/a	n/a	n/a	n/a
60.421875	0.2	123744	40	57	0	0	1	40	367	stimuli\Targets_short_600ms_horflip\chopstick-silver-tap_short_horflip_short_600ms.mp4	chopstick-silver-tap_short_horflip_short_600ms.mp4	95.02184519046024	95.63017189883976	0.6083267083795363	n/a	n/a	n/a	n/a
61.2216796875	0.2	125382	41	57	0	0	0	41	278	stimuli\Videos_short_600ms_vertflip\17.repeated_touch_with_rolling_pin_short_vertflip_short_600ms.mp4	17.repeated_touch_with_rolling_pin_short_vertflip_short_600ms.mp4	95.8218277128999	96.43015618076606	0.6083284678661585	n/a	n/a	n/a	n/a
62.021484375	0.2	127020	42	57	0	0	0	42	86	stimuli\Videos_short_600ms\88.repeated_stroke_with_plastic_brush_short_short_600ms.mp4	88.repeated_stroke_with_plastic_brush_short_short_600ms.mp4	96.62182870994184	97.23015101960756	0.6083223096657093	n/a	n/a	n/a	n/a
62.82177734375	0.2	128659	43	57	0	0	1	43	364	stimuli\Targets_short_600ms\hand-pinch_short_short_600ms.mp4	hand-pinch_short_short_600ms.mp4	97.4218085931534	98.03011975940808	0.6083111662546798	n/a	n/a	n/a	n/a
63.62158203125	0.2	130297	44	57	0	0	0	44	312	stimuli\Videos_short_600ms_vertflip\48.single_slap_with_hand_short_vertflip_short_600ms.mp4	48.single_slap_with_hand_short_vertflip_short_600ms.mp4	98.22179815353684	98.83012838088872	0.6083302273518711	n/a	n/a	n/a	n/a
64.42138671875	0.2	131935	45	57	0	0	0	45	53	stimuli\Videos_short_600ms\58.single_slap_with_pencil_short_short_600ms.mp4	58.single_slap_with_pencil_short_short_600ms.mp4	99.02179005990185	99.63011911426292	0.6083290543610929	n/a	n/a	n/a	n/a
65.2216796875	0.2	133574	46	57	0	0	0	46	210	stimuli\Videos_short_600ms_horvertflip\37.single_stab_with_nail_file_short_horvertflip_short_600ms.mp4	37.single_stab_with_nail_file_short_horvertflip_short_600ms.mp4	99.8217793270378	100.43010662191318	0.6083272948753802	n/a	n/a	n/a	n/a
66.021484375	0.2	135212	47	57	0	0	0	47	82	stimuli\Videos_short_600ms\84.single_touch_with_cotton_bud_short_short_600ms.mp4	84.single_touch_with_cotton_bud_short_short_600ms.mp4	100.6217721131452	101.23009500930584	0.6083228961606437	n/a	n/a	n/a	n/a
66.8212890625	0.2	136850	48	57	0	0	0	48	336	stimuli\Videos_short_600ms_vertflip\7.repeated_touch_with_hairbrush_short_vertflip_short_600ms.mp4	7.repeated_touch_with_hairbrush_short_vertflip_short_600ms.mp4	101.42175903430052	102.03008398319434	0.6083249488938236	n/a	n/a	n/a	n/a
67.62158203125	0.2	138489	49	57	0	0	0	49	126	stimuli\Videos_short_600ms_horflip\42.single_slap_with_plastic_whisk_short_horflip_short_600ms.mp4	42.single_slap_with_plastic_whisk_short_horflip_short_600ms.mp4	102.2217529933987	102.83007588955934	0.6083228961606437	n/a	n/a	n/a	n/a
68.42138671875	0.2	140127	50	57	0	0	0	50	279	stimuli\Videos_short_600ms_vertflip\18.single_stroke_from_top_to_bottom_with_rolling_pin_short_vertflip_short_600ms.mp4	18.single_stroke_from_top_to_bottom_with_rolling_pin_short_vertflip_short_600ms.mp4	103.02174079429642	103.63006662293355	0.6083258286371347	n/a	n/a	n/a	n/a
69.22119140625	0.2	141765	51	57	0	0	0	51	2	stimuli\Videos_short_600ms\11.single_touch_with_lighter_short_short_600ms.mp4	11.single_touch_with_lighter_short_short_600ms.mp4	103.8217327006614	104.43005647656535	0.6083237759039548	n/a	n/a	n/a	n/a
70.021484375	0.2	143404	52	57	0	0	0	52	58	stimuli\Videos_short_600ms\62.touch_top_to_bottom_with_scissors_short_short_600ms.mp4	62.touch_top_to_bottom_with_scissors_short_short_600ms.mp4	104.62172226104484	105.23004838292944	0.6083261218846019	n/a	n/a	n/a	n/a
70.8212890625	0.2	145042	53	57	0	0	0	53	116	stimuli\Videos_short_600ms_horflip\33.scratch_top_to_bottom_with_scissors_short_horflip_short_600ms.mp4	33.scratch_top_to_bottom_with_scissors_short_horflip_short_600ms.mp4	105.42168630888318	106.03003559733224	0.6083492884490624	n/a	n/a	n/a	n/a
71.62109375	0.2	146680	54	57	0	0	0	54	345	stimuli\Videos_short_600ms_vertflip\78.single_stroke_top_to_bottom_with_soft_brush_short_vertflip_short_600ms.mp4	78.single_stroke_top_to_bottom_with_soft_brush_short_vertflip_short_600ms.mp4	106.22167821524818	106.83002838344056	0.6083501681923735	n/a	n/a	n/a	n/a
72.42138671875	0.2	148319	55	57	0	0	0	55	7	stimuli\Videos_short_600ms\16.repeated_touch_with_plastic_brush_short_short_600ms.mp4	16.repeated_touch_with_plastic_brush_short_short_600ms.mp4	107.02166865537492	107.63001471810004	0.6083460627251043	n/a	n/a	n/a	n/a
73.22119140625	0.2	149957	56	57	0	0	0	56	262	stimuli\Videos_short_600ms_horvertflip\84.single_touch_with_cotton_bud_short_horvertflip_short_600ms.mp4	84.single_touch_with_cotton_bud_short_horvertflip_short_600ms.mp4	107.82165821575836	108.4300095569406	0.6083513411822423	n/a	n/a	n/a	n/a
74.02099609375	0.2	151595	57	57	0	0	0	57	213	stimuli\Videos_short_600ms_horvertflip\4.repeated_tap_with_finger_slow_short_horvertflip_short_600ms.mp4	4.repeated_tap_with_finger_slow_short_horvertflip_short_600ms.mp4	108.62167123595373	109.22999823758164	0.608327001627913	n/a	n/a	n/a	n/a
74.8212890625	0.2	153234	58	57	0	0	0	58	154	stimuli\Videos_short_600ms_horflip\68.stroke_top_to_bottom_with_shawl_short_horflip_short_600ms.mp4	68.stroke_top_to_bottom_with_shawl_short_horflip_short_600ms.mp4	109.42167164650073	110.0299895574508	0.6083179109500634	n/a	n/a	n/a	n/a
75.62109375	0.2	154872	59	57	0	0	0	59	303	stimuli\Videos_short_600ms_vertflip\4.repeated_tap_with_finger_slow_short_vertflip_short_600ms.mp4	4.repeated_tap_with_finger_slow_short_vertflip_short_600ms.mp4	110.22166296636988	110.82995536477485	0.6082923984049557	n/a	n/a	n/a	n/a
76.42138671875	0.2	156511	60	57	0	0	0	60	172	stimuli\Videos_short_600ms_horflip\84.single_touch_with_cotton_bud_short_horflip_short_600ms.mp4	84.single_touch_with_cotton_bud_short_horflip_short_600ms.mp4	111.02164578205792	111.62996545249462	0.6083196704366856	n/a	n/a	n/a	n/a
77.22119140625	0.2	158149	61	57	0	0	0	61	231	stimuli\Videos_short_600ms_horvertflip\56.repeated_touch_with_nail_file_short_horvertflip_short_600ms.mp4	56.repeated_touch_with_nail_file_short_horvertflip_short_600ms.mp4	111.8216350491939	112.42995618586885	0.608321136674931	n/a	n/a	n/a	n/a
78.02099609375	0.2	159787	62	57	0	0	0	62	332	stimuli\Videos_short_600ms_vertflip\66.stroke_top_to_bottom_with_sponge_short_vertflip_short_600ms.mp4	66.stroke_top_to_bottom_with_sponge_short_vertflip_short_600ms.mp4	112.62162519607318	113.22994662599558	0.6083214299223982	n/a	n/a	n/a	n/a
78.8212890625	0.2	161426	63	57	0	0	0	63	333	stimuli\Videos_short_600ms_vertflip\67.single_touch_with_sponge_short_vertflip_short_600ms.mp4	67.single_touch_with_sponge_short_vertflip_short_600ms.mp4	113.42161739568564	114.02994557030344	0.6083281746177818	n/a	n/a	n/a	n/a
79.62109375	0.2	163064	64	57	0	0	0	64	258	stimuli\Videos_short_600ms_horvertflip\80.stroke_with_sharp_stick_all_over_the_hand_short_horvertflip_short_600ms.mp4	80.stroke_with_sharp_stick_all_over_the_hand_short_horvertflip_short_600ms.mp4	114.22160343709676	114.82993278470622	0.6083293476094696	n/a	n/a	n/a	n/a
80.4208984375	0.2	164702	65	57	0	0	0	65	24	stimuli\Videos_short_600ms\31.hand_grabbing_wrist_short_short_600ms.mp4	31.hand_grabbing_wrist_short_short_600ms.mp4	115.02159592995758	115.629925864062	0.608329934104404	n/a	n/a	n/a	n/a
81.22119140625	0.2	166341	66	57	0	0	0	66	223	stimuli\Videos_short_600ms_horvertflip\49.repeated_slap_with_hand_short_horvertflip_short_600ms.mp4	49.repeated_slap_with_hand_short_horvertflip_short_600ms.mp4	115.8215866633318	116.42990926624498	0.6083226029131765	n/a	n/a	n/a	n/a
82.02099609375	0.2	167979	67	57	0	0	0	67	72	stimuli\Videos_short_600ms\75.(long)stroke_with_fingers_all_over_the_hand_short_short_600ms.mp4	75.(long)stroke_with_fingers_all_over_the_hand_short_short_600ms.mp4	116.62157798320096	117.22990997003852	0.6083319868375838	n/a	n/a	n/a	n/a
82.82080078125	0.2	169617	68	57	0	0	0	68	73	stimuli\Videos_short_600ms\76.tickle_with_fingers_from_top_to_bottom_short_short_600ms.mp4	76.tickle_with_fingers_from_top_to_bottom_short_short_600ms.mp4	117.42156607734614	118.0298945452123	0.6083284678661585	n/a	n/a	n/a	n/a
83.62109375	0.2	171256	69	57	0	0	0	69	148	stimuli\Videos_short_600ms_horflip\62.touch_top_to_bottom_with_scissors_short_horflip_short_600ms.mp4	62.touch_top_to_bottom_with_scissors_short_horflip_short_600ms.mp4	118.22155710396872	118.82993131846796	0.6083742144992357	n/a	n/a	n/a	n/a
84.4208984375	0.2	172894	70	57	0	0	0	70	326	stimuli\Videos_short_600ms_vertflip\60.single_push_with_tip_of_pencil_short_vertflip_short_600ms.mp4	60.single_push_with_tip_of_pencil_short_vertflip_short_600ms.mp4	119.0215454913614	119.6298678010271	0.6083223096657093	n/a	n/a	n/a	n/a
85.220703125	0.2	174532	71	57	0	0	0	71	319	stimuli\Videos_short_600ms_vertflip\54.repeated_touch_with_knife_short_vertflip_short_600ms.mp4	54.repeated_touch_with_knife_short_vertflip_short_600ms.mp4	119.8215382774688	120.4298605871345	0.6083223096657093	n/a	n/a	n/a	n/a
86.02099609375	0.2	176171	72	57	0	0	0	72	302	stimuli\Videos_short_600ms_vertflip\39.single_stab_with_scissors_short_vertflip_short_600ms.mp4	39.single_stab_with_scissors_short_vertflip_short_600ms.mp4	120.62150144556472	121.22985161375618	0.608350168191464	n/a	n/a	n/a	n/a
86.82080078125	0.2	177809	73	57	0	0	0	73	37	stimuli\Videos_short_600ms\43.touch_top_to_bottom_with_sharp_wooden_stick_short_short_600ms.mp4	43.touch_top_to_bottom_with_sharp_wooden_stick_short_short_600ms.mp4	121.42157956673871	122.02984029439722	0.6082607276584895	n/a	n/a	n/a	n/a
87.62060546875	0.2	179447	74	57	0	0	1	74	376	stimuli\Targets_short_600ms_horvertflip\hand-pinch_short_vertflip_short_600ms.mp4	hand-pinch_short_vertflip_short_600ms.mp4	122.22151927502182	122.8298295615332	0.6083102865113688	n/a	n/a	n/a	n/a
88.4208984375	0.2	181086	75	57	0	0	0	75	243	stimuli\Videos_short_600ms_horvertflip\67.single_touch_with_sponge_short_horvertflip_short_600ms.mp4	67.single_touch_with_sponge_short_horvertflip_short_600ms.mp4	123.02147305919152	123.62981970841248	0.6083466492209482	n/a	n/a	n/a	n/a
89.220703125	0.2	182724	76	57	0	0	0	76	96	stimuli\Videos_short_600ms_horflip\15.single_stroke_top_to_bottom_with_a_plastic_whisk_short_horflip_short_600ms.mp4	15.single_stroke_top_to_bottom_with_a_plastic_whisk_short_horflip_short_600ms.mp4	123.82148637263526	124.42980985529084	0.6083234826555781	n/a	n/a	n/a	n/a
90.0205078125	0.2	184362	77	57	0	0	0	77	74	stimuli\Videos_short_600ms\77.tapping_with_all_fingers_short_short_600ms.mp4	77.tapping_with_all_fingers_short_short_600ms.mp4	124.62148091822928	125.22980234815168	0.6083214299223982	n/a	n/a	n/a	n/a
90.82080078125	0.2	186001	78	57	0	0	0	78	71	stimuli\Videos_short_600ms\74.fingers_walking_from_top_to_bottom_short_short_600ms.mp4	74.fingers_walking_from_top_to_bottom_short_short_600ms.mp4	125.4214707718602	126.02977724615266	0.6083064742924762	n/a	n/a	n/a	n/a
91.62060546875	0.2	187639	79	57	0	0	0	79	227	stimuli\Videos_short_600ms_horvertflip\52.touch_top_to_bottom_with_hammer_short_horvertflip_short_600ms.mp4	52.touch_top_to_bottom_with_hammer_short_horvertflip_short_600ms.mp4	126.2214691296731	126.82976123483058	0.6082921051574885	n/a	n/a	n/a	n/a
92.42041015625	0.2	189277	80	57	0	0	0	80	322	stimuli\Videos_short_600ms_vertflip\57.single_touch_with_nail_file_short_vertflip_short_600ms.mp4	57.single_touch_with_nail_file_short_vertflip_short_600ms.mp4	127.02144930613213	127.62975079521402	0.6083014890818959	n/a	n/a	n/a	n/a
93.220703125	0.2	190916	81	57	0	0	0	81	220	stimuli\Videos_short_600ms_horvertflip\46.scratching_top_to_bottom_with_finger_nails_short_horvertflip_short_600ms.mp4	46.scratching_top_to_bottom_with_finger_nails_short_horvertflip_short_600ms.mp4	127.82145968709938	128.42976234917205	0.6083026620726741	n/a	n/a	n/a	n/a
94.0205078125	0.2	192554	82	57	0	0	0	82	107	stimuli\Videos_short_600ms_horflip\25.single_touch_with_stanley_knife_short_horflip_short_600ms.mp4	25.single_touch_with_stanley_knife_short_horflip_short_600ms.mp4	128.62142989313725	129.2297583610034	0.6083284678661585	n/a	n/a	n/a	n/a
94.8203125	0.2	194192	83	57	0	0	0	83	329	stimuli\Videos_short_600ms_vertflip\63.stroke_top_to_bottom_with_screwdriver_short_vertflip_short_600ms.mp4	63.stroke_top_to_bottom_with_screwdriver_short_vertflip_short_600ms.mp4	129.42142062651237	130.02974381592048	0.6083231894081109	n/a	n/a	n/a	n/a
95.62060546875	0.2	195831	84	57	0	0	0	84	323	stimuli\Videos_short_600ms_vertflip\58.single_slap_with_pencil_short_vertflip_short_600ms.mp4	58.single_slap_with_pencil_short_vertflip_short_600ms.mp4	130.2214131193723	130.82974246698086	0.6083293476085601	n/a	n/a	n/a	n/a
96.42041015625	0.2	197469	85	57	0	0	0	85	280	stimuli\Videos_short_600ms_vertflip\19.single_touch_with_rolling_pin_short_vertflip_short_600ms.mp4	19.single_touch_with_rolling_pin_short_vertflip_short_600ms.mp4	131.0214029730032	131.6297244029256	0.6083214299223982	n/a	n/a	n/a	n/a
97.220703125	0.2	199108	86	57	0	0	0	86	201	stimuli\Videos_short_600ms_horvertflip\29.single_pinch_with_tweezers_short_horvertflip_short_600ms.mp4	29.single_pinch_with_tweezers_short_horvertflip_short_600ms.mp4	131.82139546586313	132.42972745270163	0.6083319868384933	n/a	n/a	n/a	n/a
98.0205078125	0.2	200746	87	57	0	0	0	87	23	stimuli\Videos_short_600ms\30.finger_pulling_back_another_finger_short_short_600ms.mp4	30.finger_pulling_back_another_finger_short_short_600ms.mp4	132.6213838532567	133.22970674941735	0.6083228961606437	n/a	n/a	n/a	n/a
98.8203125	0.2	202384	88	57	0	0	0	88	255	stimuli\Videos_short_600ms_horvertflip\78.single_stroke_top_to_bottom_with_soft_brush_short_horvertflip_short_600ms.mp4	78.single_stroke_top_to_bottom_with_soft_brush_short_horvertflip_short_600ms.mp4	133.42137253389774	134.02969484356254	0.6083223096647998	n/a	n/a	n/a	n/a
99.62060546875	0.2	204023	89	57	0	0	0	89	253	stimuli\Videos_short_600ms_horvertflip\76.tickle_with_fingers_from_top_to_bottom_short_horvertflip_short_600ms.mp4	76.tickle_with_fingers_from_top_to_bottom_short_horvertflip_short_600ms.mp4	134.22136532000513	134.82968762967084	0.6083223096657093	n/a	n/a	n/a	n/a
100.42041015625	0.2	205661	90	57	0	0	0	90	92	stimuli\Videos_short_600ms_horflip\11.single_touch_with_lighter_short_horflip_short_600ms.mp4	11.single_touch_with_lighter_short_horflip_short_600ms.mp4	135.02135488038857	135.6296768968068	0.6083220164182421	n/a	n/a	n/a	n/a
101.22021484375	0.2	207299	91	57	0	0	0	91	122	stimuli\Videos_short_600ms_horflip\39.single_stab_with_scissors_short_horflip_short_600ms.mp4	39.single_stab_with_scissors_short_horflip_short_600ms.mp4	135.8213397488098	136.42966616394278	0.6083264151329786	n/a	n/a	n/a	n/a
102.0205078125	0.2	208938	92	57	0	0	0	92	198	stimuli\Videos_short_600ms_horvertflip\26.single_touch_with_a_blunt_syringe_short_horvertflip_short_600ms.mp4	26.single_touch_with_a_blunt_syringe_short_horvertflip_short_600ms.mp4	136.62131581980157	137.22965719056447	0.6083413707629006	n/a	n/a	n/a	n/a
102.8203125	0.2	210576	93	57	0	0	0	93	88	stimuli\Videos_short_600ms\9.single_touch_with_hammer_short_short_600ms.mp4	9.single_touch_with_hammer_short_short_600ms.mp4	137.42132708051122	138.02964851043362	0.6083214299223982	n/a	n/a	n/a	n/a
103.6201171875	0.2	212214	94	57	0	0	0	94	91	stimuli\Videos_short_600ms_horflip\10.single_touch_with_knife_short_horflip_short_600ms.mp4	10.single_touch_with_knife_short_horflip_short_600ms.mp4	138.2213266113149	138.8296377775696	0.6083111662546798	n/a	n/a	n/a	n/a
104.42041015625	0.2	213853	95	57	0	0	0	95	141	stimuli\Videos_short_600ms_horflip\56.repeated_touch_with_nail_file_short_horflip_short_600ms.mp4	56.repeated_touch_with_nail_file_short_horflip_short_600ms.mp4	139.02128274146708	139.6296273379539	0.6083445964868588	6.0	5.0	4.046433712687758	0.0
142.96875	0.2	292800	96	57	1	0	0	0	108	stimuli\Videos_short_600ms_horflip\26.single_touch_with_a_blunt_syringe_short_horflip_short_600ms.mp4	26.single_touch_with_a_blunt_syringe_short_horflip_short_600ms.mp4	177.57084701944586	178.1791661033867	0.6083190839408417	n/a	n/a	n/a	n/a
143.76904296875	0.2	294439	97	57	1	0	1	1	380	stimuli\Targets_short_600ms_vertflip\chopstickwood-tap_short_horvertflip_short_600ms.mp4	chopstickwood-tap_short_horvertflip_short_600ms.mp4	178.3708348203436	178.97915595701852	0.608321136674931	n/a	n/a	n/a	n/a
144.56884765625	0.2	296077	98	57	1	0	0	2	139	stimuli\Videos_short_600ms_horflip\54.repeated_touch_with_knife_short_horflip_short_600ms.mp4	54.repeated_touch_with_knife_short_horflip_short_600ms.mp4	179.17085165275876	179.77914639714436	0.6082947443856028	n/a	n/a	n/a	n/a
145.369140625	0.2	297716	99	57	1	0	0	3	244	stimuli\Videos_short_600ms_horvertflip\68.stroke_top_to_bottom_with_shawl_short_horvertflip_short_600ms.mp4	68.stroke_top_to_bottom_with_shawl_short_horvertflip_short_600ms.mp4	179.97081599384455	180.5791377170144	0.6083217231698654	n/a	n/a	n/a	n/a
146.1689453125	0.2	299354	100	57	1	0	0	4	219	stimuli\Videos_short_600ms_horvertflip\45.scratching_with_finger_nails_short_horvertflip_short_600ms.mp4	45.scratching_with_finger_nails_short_horvertflip_short_600ms.mp4	180.7708073137137	181.37912815714117	0.6083208434274638	n/a	n/a	n/a	n/a
146.96875	0.2	300992	101	57	1	0	0	5	194	stimuli\Videos_short_600ms_horvertflip\22.single_touch_with_metal_chopstick_short_horvertflip_short_600ms.mp4	22.single_touch_with_metal_chopstick_short_horvertflip_short_600ms.mp4	181.57079746059296	182.17911977025776	0.6083223096647998	n/a	n/a	n/a	n/a
147.76904296875	0.2	302631	102	57	1	0	0	6	320	stimuli\Videos_short_600ms_vertflip\55.touch_top_to_bottom_with_nail_file_short_vertflip_short_600ms.mp4	55.touch_top_to_bottom_with_nail_file_short_vertflip_short_600ms.mp4	182.3707635611645	182.9791087441463	0.6083451829817932	n/a	n/a	n/a	n/a
148.56884765625	0.2	304269	103	57	1	0	0	7	259	stimuli\Videos_short_600ms_horvertflip\81.single_stroke_top_to_bottom_with_cotton_pad_short_horvertflip_short_600ms.mp4	81.single_stroke_top_to_bottom_with_cotton_pad_short_horvertflip_short_600ms.mp4	183.17077276914097	183.7790985977781	0.6083258286371347	n/a	n/a	n/a	n/a
149.36865234375	0.2	305907	104	57	1	0	0	8	274	stimuli\Videos_short_600ms_vertflip\13.single_touch_with_pen_short_vertflip_short_600ms.mp4	13.single_touch_with_pen_short_vertflip_short_600ms.mp4	183.97076731473408	184.57909109063803	0.6083237759039548	n/a	n/a	n/a	n/a
150.1689453125	0.2	307546	105	57	1	0	0	9	76	stimuli\Videos_short_600ms\79.long_with_soft_brush_all_over_the_hand_short_short_600ms.mp4	79.long_with_soft_brush_all_over_the_hand_short_short_600ms.mp4	184.7708161111432	185.3790791847832	0.6082630736400461	n/a	n/a	n/a	n/a
150.96875	0.2	309184	106	57	1	0	0	10	232	stimuli\Videos_short_600ms_horvertflip\57.single_touch_with_nail_file_short_horvertflip_short_600ms.mp4	57.single_touch_with_nail_file_short_horvertflip_short_600ms.mp4	185.57074936797835	186.17907197089153	0.6083226029131765	n/a	n/a	n/a	n/a
151.7685546875	0.2	310822	107	57	1	0	0	11	267	stimuli\Videos_short_600ms_horvertflip\89.single_touch_with_plastic_brush_short_horvertflip_short_600ms.mp4	89.single_touch_with_plastic_brush_short_horvertflip_short_600ms.mp4	186.3707424473332	186.97906182452243	0.6083193771892184	n/a	n/a	n/a	n/a
152.56884765625	0.2	312461	108	57	1	0	0	12	202	stimuli\Videos_short_600ms_horvertflip\3.single_push_with_finger_short_horvertflip_short_600ms.mp4	3.single_push_with_finger_short_horvertflip_short_600ms.mp4	187.1707325942125	187.77902997782803	0.6082973836155361	n/a	n/a	n/a	n/a
153.36865234375	0.2	314099	109	57	1	0	0	13	78	stimuli\Videos_short_600ms\80.stroke_with_sharp_stick_all_over_the_hand_short_short_600ms.mp4	80.stroke_with_sharp_stick_all_over_the_hand_short_short_600ms.mp4	187.97071834237704	188.57904446426164	0.6083261218846019	n/a	n/a	n/a	n/a
154.16845703125	0.2	315737	110	57	1	0	0	14	132	stimuli\Videos_short_600ms_horflip\48.single_slap_with_hand_short_horflip_short_600ms.mp4	48.single_slap_with_hand_short_horflip_short_600ms.mp4	188.77071494070424	189.37903314490268	0.6083182041984401	n/a	n/a	n/a	n/a
154.96875	0.2	317376	111	57	1	0	0	15	321	stimuli\Videos_short_600ms_vertflip\56.repeated_touch_with_nail_file_short_vertflip_short_600ms.mp4	56.repeated_touch_with_nail_file_short_vertflip_short_600ms.mp4	189.5707003956204	190.17902211879027	0.6083217231698654	n/a	n/a	n/a	n/a
155.7685546875	0.2	319014	112	57	1	0	0	16	225	stimuli\Videos_short_600ms_horvertflip\50.single_(long)hard_push_with_thumb_short_horvertflip_short_600ms.mp4	50.single_(long)hard_push_with_thumb_short_horvertflip_short_600ms.mp4	190.37069112899465	190.9790166643843	0.6083255353896675	n/a	n/a	n/a	n/a
156.568359375	0.2	320652	113	57	1	0	0	17	269	stimuli\Videos_short_600ms_horvertflip\90.repeated_touch_with_sponge_short_horvertflip_short_600ms.mp4	90.repeated_touch_with_sponge_short_horvertflip_short_600ms.mp4	191.17068156912137	191.77901238296815	0.6083308138468055	n/a	n/a	n/a	n/a
157.36865234375	0.2	322291	114	57	1	0	0	18	265	stimuli\Videos_short_600ms_horvertflip\87.single_stroke_top_to_bottom_with_plastic_brush_short_horvertflip_short_600ms.mp4	87.single_stroke_top_to_bottom_with_plastic_brush_short_horvertflip_short_600ms.mp4	191.97067288899052	192.57900370283824	0.608330813847715	n/a	n/a	n/a	n/a
158.16845703125	0.2	323929	115	57	1	0	0	19	288	stimuli\Videos_short_600ms_vertflip\26.single_touch_with_a_blunt_syringe_short_vertflip_short_600ms.mp4	26.single_touch_with_a_blunt_syringe_short_vertflip_short_600ms.mp4	192.7706603966408	193.37898505228804	0.6083246556472659	n/a	n/a	n/a	n/a
158.96826171875	0.2	325567	116	57	1	0	0	20	164	stimuli\Videos_short_600ms_horflip\77.tapping_with_all_fingers_short_horflip_short_600ms.mp4	77.tapping_with_all_fingers_short_horflip_short_600ms.mp4	193.57065259625324	194.1789763721572	0.6083237759039548	n/a	n/a	n/a	n/a
159.7685546875	0.2	327206	117	57	1	0	1	21	372	stimuli\Targets_short_600ms_horvertflip\brush-stroke_short_vertflip_short_600ms.mp4	brush-stroke_short_vertflip_short_600ms.mp4	194.37064332962743	194.9789653460457	0.6083220164182421	n/a	n/a	n/a	n/a
160.568359375	0.2	328844	118	57	1	0	0	22	273	stimuli\Videos_short_600ms_vertflip\12.repeated_touch_with_nail_file_short_vertflip_short_600ms.mp4	12.repeated_touch_with_nail_file_short_vertflip_short_600ms.mp4	195.1706334765067	195.7789549064291	0.6083214299223982	n/a	n/a	n/a	n/a
161.3681640625	0.2	330482	119	57	1	0	0	23	158	stimuli\Videos_short_600ms_horflip\71.single_stroke_with_finger_top_to_bottom_short_horflip_short_600ms.mp4	71.single_stroke_with_finger_top_to_bottom_short_horflip_short_600ms.mp4	195.97061834492797	196.5789479857849	0.6083296408569367	n/a	n/a	n/a	n/a
162.16845703125	0.2	332121	120	57	1	0	0	24	137	stimuli\Videos_short_600ms_horflip\52.touch_top_to_bottom_with_hammer_short_horflip_short_600ms.mp4	52.touch_top_to_bottom_with_hammer_short_horflip_short_600ms.mp4	196.7705870847285	197.3789378394158	0.6083507546873079	n/a	n/a	n/a	n/a
162.96826171875	0.2	333759	121	57	1	0	0	25	18	stimuli\Videos_short_600ms\26.single_touch_with_a_blunt_syringe_short_short_600ms.mp4	26.single_touch_with_a_blunt_syringe_short_short_600ms.mp4	197.57060890235337	198.17892681330432	0.6083179109509729	n/a	n/a	n/a	n/a
163.7685546875	0.2	335398	122	57	1	0	0	26	149	stimuli\Videos_short_600ms_horflip\63.stroke_top_to_bottom_with_screwdriver_short_horflip_short_600ms.mp4	63.stroke_top_to_bottom_with_screwdriver_short_horflip_short_600ms.mp4	198.37059611675613	198.97891930616424	0.6083231894081109	n/a	n/a	n/a	n/a
164.568359375	0.2	337036	123	57	1	0	0	27	31	stimuli\Videos_short_600ms\38.double_slap_with_pencil_short_short_600ms.mp4	38.double_slap_with_pencil_short_short_600ms.mp4	199.17058567713957	199.77890828005275	0.6083226029131765	n/a	n/a	n/a	n/a
165.3681640625	0.2	338674	124	57	1	0	0	28	247	stimuli\Videos_short_600ms_horvertflip\70.(long)stroke_with_finger_all_over_the_hand_short_horvertflip_short_600ms.mp4	70.(long)stroke_with_finger_all_over_the_hand_short_horvertflip_short_600ms.mp4	199.97058902016303	200.57890194590345	0.6083129257403925	n/a	n/a	n/a	n/a
166.16845703125	0.2	340313	125	57	1	0	0	29	36	stimuli\Videos_short_600ms\42.single_slap_with_plastic_whisk_short_short_600ms.mp4	42.single_slap_with_plastic_whisk_short_short_600ms.mp4	200.7705691966221	201.3788885738104	0.6083193771883089	n/a	n/a	n/a	n/a
166.96826171875	0.2	341951	126	57	1	0	1	30	360	stimuli\Targets_short_600ms\brush-stroke_short_short_600ms.mp4	brush-stroke_short_short_600ms.mp4	201.5705655017009	202.1788798936805	0.6083143919795475	n/a	n/a	n/a	n/a
167.76806640625	0.2	343589	127	57	1	0	0	31	183	stimuli\Videos_short_600ms_horvertflip\12.repeated_touch_with_nail_file_short_horvertflip_short_600ms.mp4	12.repeated_touch_with_nail_file_short_horvertflip_short_600ms.mp4	202.37054861063643	202.97885244569989	0.6083038350634524	n/a	n/a	n/a	n/a
168.568359375	0.2	345228	128	57	1	0	0	32	359	stimuli\Videos_short_600ms_vertflip\90.repeated_touch_with_sponge_short_vertflip_short_600ms.mp4	90.repeated_touch_with_sponge_short_vertflip_short_600ms.mp4	203.17055078066917	203.7788376073686	0.608286826699441	n/a	n/a	n/a	n/a
169.3681640625	0.2	346866	129	57	1	0	1	33	383	stimuli\Targets_short_600ms_vertflip\hand-stroke_short_horvertflip_short_600ms.mp4	hand-stroke_short_horvertflip_short_600ms.mp4	203.970528904395	204.5788520938031	0.6083231894081109	n/a	n/a	n/a	n/a
170.16796875	0.2	348504	130	57	1	0	0	34	281	stimuli\Videos_short_600ms_vertflip\2.single_touch_with_finger_short_vertflip_short_600ms.mp4	2.single_touch_with_finger_short_vertflip_short_600ms.mp4	204.77051993101668	205.37881907411793	0.6082991431012488	n/a	n/a	n/a	n/a
170.96826171875	0.2	350143	131	57	1	0	0	35	181	stimuli\Videos_short_600ms_horvertflip\10.single_touch_with_knife_short_horvertflip_short_600ms.mp4	10.single_touch_with_knife_short_horvertflip_short_600ms.mp4	205.5705089049052	206.17881919141655	0.6083102865113688	n/a	n/a	n/a	n/a
171.76806640625	0.2	351781	132	57	1	0	0	36	104	stimuli\Videos_short_600ms_horflip\22.single_touch_with_metal_chopstick_short_horflip_short_600ms.mp4	22.single_touch_with_metal_chopstick_short_horflip_short_600ms.mp4	206.37050081126927	206.9788245871732	0.6083237759039548	n/a	n/a	n/a	n/a
172.56787109375	0.2	353419	133	57	1	0	0	37	51	stimuli\Videos_short_600ms\56.repeated_touch_with_nail_file_short_short_600ms.mp4	56.repeated_touch_with_nail_file_short_short_600ms.mp4	207.17049095814855	207.7788223584912	0.6083314003426494	n/a	n/a	n/a	n/a
173.3681640625	0.2	355058	134	57	1	0	0	38	134	stimuli\Videos_short_600ms_horflip\5.repeated_tap_with_finger_moving_from_top_to_bottom_short_horflip_short_600ms.mp4	5.repeated_tap_with_finger_moving_from_top_to_bottom_short_horflip_short_600ms.mp4	207.9704813982753	208.5788028281977	0.6083214299223982	n/a	n/a	n/a	n/a
174.16796875	0.2	356696	135	57	1	0	0	39	120	stimuli\Videos_short_600ms_horflip\37.single_stab_with_nail_file_short_horflip_short_600ms.mp4	37.single_stab_with_nail_file_short_horflip_short_600ms.mp4	208.77046978566796	209.3787935615719	0.6083237759039548	n/a	n/a	n/a	n/a
174.9677734375	0.2	358334	136	57	1	0	0	40	268	stimuli\Videos_short_600ms_horvertflip\9.single_touch_with_hammer_short_horvertflip_short_600ms.mp4	9.single_touch_with_hammer_short_horvertflip_short_600ms.mp4	209.57046081229055	210.17878312195535	0.6083223096647998	n/a	n/a	n/a	n/a
175.76806640625	0.2	359973	137	57	1	0	0	41	20	stimuli\Videos_short_600ms\28.single_injection_with_sharp_needle_short_short_600ms.mp4	28.single_injection_with_sharp_needle_short_short_600ms.mp4	210.37045330515048	210.97877385532956	0.6083205501790871	n/a	n/a	n/a	n/a
176.56787109375	0.2	361611	138	57	1	0	0	42	308	stimuli\Videos_short_600ms_vertflip\44.pushing_top_to_bottom_with_finger_short_vertflip_short_600ms.mp4	44.pushing_top_to_bottom_with_finger_short_vertflip_short_600ms.mp4	211.1704408128007	211.7787625359706	0.6083217231698654	n/a	n/a	n/a	n/a
177.36767578125	0.2	363249	139	57	1	0	0	43	331	stimuli\Videos_short_600ms_vertflip\65.stroke_top_to_bottom_with_stanley_knife_short_vertflip_short_600ms.mp4	65.stroke_top_to_bottom_with_stanley_knife_short_vertflip_short_600ms.mp4	211.97043037318417	212.578755322078	0.6083249488938236	n/a	n/a	n/a	n/a
178.16796875	0.2	364888	140	57	1	0	0	44	41	stimuli\Videos_short_600ms\47.(long)scratching_with_finger_nails_short_short_600ms.mp4	47.(long)scratching_with_finger_nails_short_short_600ms.mp4	212.77042052006345	213.3787448824623	0.6083243623988892	n/a	n/a	n/a	n/a
178.9677734375	0.2	366526	141	57	1	0	0	45	208	stimuli\Videos_short_600ms_horvertflip\35.single_punch_with_hand_short_horvertflip_short_600ms.mp4	35.single_punch_with_hand_short_horvertflip_short_600ms.mp4	213.57041330617085	214.17873502934071	0.6083217231698654	n/a	n/a	n/a	n/a
179.767578125	0.2	368164	142	57	1	0	0	46	143	stimuli\Videos_short_600ms_horflip\58.single_slap_with_pencil_short_horflip_short_600ms.mp4	58.single_slap_with_pencil_short_horflip_short_600ms.mp4	214.3704066787741	214.9787260559633	0.6083193771892184	n/a	n/a	n/a	n/a
180.56787109375	0.2	369803	143	57	1	0	0	47	186	stimuli\Videos_short_600ms_horvertflip\15.single_stroke_top_to_bottom_with_a_plastic_whisk_short_horvertflip_short_600ms.mp4	15.single_stroke_top_to_bottom_with_a_plastic_whisk_short_horvertflip_short_600ms.mp4	215.1704044500921	215.77871561634672	0.6083111662546798	n/a	n/a	n/a	n/a
181.36767578125	0.2	371441	144	57	1	0	0	48	295	stimuli\Videos_short_600ms_vertflip\32.single_(long)pinch_with_fingers_short_vertflip_short_600ms.mp4	32.single_(long)pinch_with_fingers_short_vertflip_short_600ms.mp4	215.970379934588	216.57870752271177	0.6083275881237569	n/a	n/a	n/a	n/a
182.16748046875	0.2	373079	145	57	1	0	0	49	325	stimuli\Videos_short_600ms_vertflip\6.single_touch_with_flat_hand_short_vertflip_short_600ms.mp4	6.single_touch_with_flat_hand_short_vertflip_short_600ms.mp4	216.7703762396677	217.37869561685693	0.6083193771892184	n/a	n/a	n/a	n/a
182.9677734375	0.2	374718	146	57	1	0	0	50	89	stimuli\Videos_short_600ms\90.repeated_touch_with_sponge_short_short_600ms.mp4	90.repeated_touch_with_sponge_short_short_600ms.mp4	217.57037342449075	218.1786857637353	0.6083123392445486	n/a	n/a	n/a	n/a
183.767578125	0.2	376356	147	57	1	0	0	51	199	stimuli\Videos_short_600ms_horvertflip\27.single_push_with_a_plastic_whisk_short_horvertflip_short_600ms.mp4	27.single_push_with_a_plastic_whisk_short_horvertflip_short_600ms.mp4	218.3703647443599	218.97868412154912	0.6083193771892184	n/a	n/a	n/a	n/a
184.56787109375	0.2	377995	148	57	1	0	0	52	35	stimuli\Videos_short_600ms\41.injection_with_blunt_syringe_short_short_600ms.mp4	41.injection_with_blunt_syringe_short_short_600ms.mp4	219.1703481465429	219.77864523691005	0.6082970903671594	n/a	n/a	n/a	n/a
185.36767578125	0.2	379633	149	57	1	0	0	53	221	stimuli\Videos_short_600ms_horvertflip\47.(long)scratching_with_finger_nails_short_horvertflip_short_600ms.mp4	47.(long)scratching_with_finger_nails_short_horvertflip_short_600ms.mp4	219.97035060982307	220.57863714327505	0.6082865334519738	n/a	n/a	n/a	n/a
186.16748046875	0.2	381271	150	57	1	0	0	54	21	stimuli\Videos_short_600ms\29.single_pinch_with_tweezers_short_short_600ms.mp4	29.single_pinch_with_tweezers_short_short_600ms.mp4	220.77032492132912	221.37864723099483	0.6083223096657093	n/a	n/a	n/a	n/a
186.9677734375	0.2	382910	151	57	1	0	0	55	178	stimuli\Videos_short_600ms_horflip\9.single_touch_with_hammer_short_horflip_short_600ms.mp4	9.single_touch_with_hammer_short_horflip_short_600ms.mp4	221.57031858717983	222.1786403103497	0.6083217231698654	n/a	n/a	n/a	n/a
187.767578125	0.2	384548	152	57	1	0	0	56	256	stimuli\Videos_short_600ms_horvertflip\79.long_with_soft_brush_all_over_the_hand_short_horvertflip_short_600ms.mp4	79.long_with_soft_brush_all_over_the_hand_short_horvertflip_short_600ms.mp4	222.37030756106833	222.97863045722897	0.6083228961606437	n/a	n/a	n/a	n/a
188.5673828125	0.2	386186	153	57	1	0	0	57	102	stimuli\Videos_short_600ms_horflip\20.single_touch_with_screwdriver_short_horflip_short_600ms.mp4	20.single_touch_with_screwdriver_short_horflip_short_600ms.mp4	223.17029858769	223.7786276420511	0.6083290543610929	n/a	n/a	n/a	n/a
189.36767578125	0.2	387825	154	57	1	0	0	58	135	stimuli\Videos_short_600ms_horflip\50.single_(long)hard_push_with_thumb_short_horflip_short_600ms.mp4	50.single_(long)hard_push_with_thumb_short_horflip_short_600ms.mp4	223.97028726833105	224.5786125104723	0.6083252421412908	n/a	n/a	n/a	n/a
190.16748046875	0.2	389463	155	57	1	0	0	59	354	stimuli\Videos_short_600ms_vertflip\86.touch_top_to_bottom_with_hair_brush_short_vertflip_short_600ms.mp4	86.touch_top_to_bottom_with_hair_brush_short_vertflip_short_600ms.mp4	224.77028181392416	225.37860060461844	0.608318790694284	n/a	n/a	n/a	n/a
190.96728515625	0.2	391101	156	57	1	0	0	60	94	stimuli\Videos_short_600ms_horflip\13.single_touch_with_pen_short_horflip_short_600ms.mp4	13.single_touch_with_pen_short_horflip_short_600ms.mp4	225.57026814858364	226.1785919244876	0.6083237759039548	n/a	n/a	n/a	n/a
191.767578125	0.2	392740	157	57	1	0	0	61	29	stimuli\Videos_short_600ms\36.single_slap_with_full_hand_short_short_600ms.mp4	36.single_slap_with_full_hand_short_short_600ms.mp4	226.3702594684537	226.97858060512863	0.608321136674931	n/a	n/a	n/a	n/a
192.5673828125	0.2	394378	158	57	1	0	0	62	80	stimuli\Videos_short_600ms\82.repeated_touch_with_cotton_bud_short_short_600ms.mp4	82.repeated_touch_with_cotton_bud_short_short_600ms.mp4	227.1702519613136	227.77857192499775	0.6083199636841528	n/a	n/a	n/a	n/a
193.3671875	0.2	396016	159	57	1	0	0	63	5	stimuli\Videos_short_600ms\14.repeated_touch_with_pencil_short_short_600ms.mp4	14.repeated_touch_with_pencil_short_short_600ms.mp4	227.97023624323992	228.57856295161943	0.6083267083795363	n/a	n/a	n/a	n/a
194.16748046875	0.2	397655	160	57	1	0	0	64	215	stimuli\Videos_short_600ms_horvertflip\41.injection_with_blunt_syringe_short_horvertflip_short_600ms.mp4	41.injection_with_blunt_syringe_short_horvertflip_short_600ms.mp4	228.77022228465103	229.3785525120038	0.6083302273527806	n/a	n/a	n/a	n/a
194.96728515625	0.2	399293	161	57	1	0	0	65	151	stimuli\Videos_short_600ms_horflip\65.stroke_top_to_bottom_with_stanley_knife_short_horflip_short_600ms.mp4	65.stroke_top_to_bottom_with_stanley_knife_short_horflip_short_600ms.mp4	229.57022738716023	230.1785444183679	0.6083170312076618	n/a	n/a	n/a	n/a
195.76708984375	0.2	400931	162	57	1	0	0	66	261	stimuli\Videos_short_600ms_horvertflip\83.single_stroke_top_to_bottom_with_cotton_bud_short_horvertflip_short_600ms.mp4	83.single_stroke_top_to_bottom_with_cotton_bud_short_horvertflip_short_600ms.mp4	230.37021460156305	230.9785333922564	0.6083187906933745	n/a	n/a	n/a	n/a
196.5673828125	0.2	402570	163	57	1	0	1	67	361	stimuli\Targets_short_600ms\chopstick-silver-tap_short_short_600ms.mp4	chopstick-silver-tap_short_short_600ms.mp4	231.1702000564792	231.7785241256306	0.608324069151422	n/a	n/a	n/a	n/a
197.3671875	0.2	404208	164	57	1	0	0	68	168	stimuli\Videos_short_600ms_horflip\80.stroke_with_sharp_stick_all_over_the_hand_short_horflip_short_600ms.mp4	80.stroke_with_sharp_stick_all_over_the_hand_short_horflip_short_600ms.mp4	231.9701966548064	232.5785142725099	0.6083176177035057	n/a	n/a	n/a	n/a
198.1669921875	0.2	405846	165	57	1	0	0	69	19	stimuli\Videos_short_600ms\27.single_push_with_a_plastic_whisk_short_short_600ms.mp4	27.single_push_with_a_plastic_whisk_short_short_600ms.mp4	232.7701894409147	233.37848917051087	0.6082997295961832	n/a	n/a	n/a	n/a
198.96728515625	0.2	407485	166	57	1	0	0	70	62	stimuli\Videos_short_600ms\66.stroke_top_to_bottom_with_sponge_short_short_600ms.mp4	66.stroke_top_to_bottom_with_sponge_short_short_600ms.mp4	233.5701834000129	234.1784769714086	0.608293571395734	n/a	n/a	n/a	n/a
199.76708984375	0.2	409123	167	57	1	0	0	71	97	stimuli\Videos_short_600ms_horflip\16.repeated_touch_with_plastic_brush_short_horflip_short_600ms.mp4	16.repeated_touch_with_plastic_brush_short_horflip_short_600ms.mp4	234.37016504271017	234.9784726899934	0.6083076472832545	n/a	n/a	n/a	n/a
200.56689453125	0.2	410761	168	57	1	0	0	72	205	stimuli\Videos_short_600ms_horvertflip\32.single_(long)pinch_with_fingers_short_horvertflip_short_600ms.mp4	32.single_(long)pinch_with_fingers_short_horvertflip_short_600ms.mp4	235.17015958830416	235.77845550568057	0.6082959173763811	n/a	n/a	n/a	n/a
201.3671875	0.2	412400	169	57	1	0	0	73	343	stimuli\Videos_short_600ms_vertflip\76.tickle_with_fingers_from_top_to_bottom_short_vertflip_short_600ms.mp4	76.tickle_with_fingers_from_top_to_bottom_short_vertflip_short_600ms.mp4	235.97009958983472	236.57846266092383	0.6083630710891157	n/a	n/a	n/a	n/a
202.1669921875	0.2	414038	170	57	1	0	0	74	344	stimuli\Videos_short_600ms_vertflip\77.tapping_with_all_fingers_short_vertflip_short_600ms.mp4	77.tapping_with_all_fingers_short_vertflip_short_600ms.mp4	236.7701351900996	237.37846395121323	0.6083287611136257	n/a	n/a	n/a	n/a
202.966796875	0.2	415676	171	57	1	0	0	75	60	stimuli\Videos_short_600ms\64.repeated_touch_with_screwdriver_short_short_600ms.mp4	64.repeated_touch_with_screwdriver_short_short_600ms.mp4	237.57012475048305	238.17845204535843	0.6083272948753802	n/a	n/a	n/a	n/a
203.76708984375	0.2	417315	172	57	1	0	0	76	318	stimuli\Videos_short_600ms_vertflip\53.touch_top_to_bottom_with_knife_short_vertflip_short_600ms.mp4	53.touch_top_to_bottom_with_knife_short_vertflip_short_600ms.mp4	238.3701169500955	238.97845480188607	0.6083378517905658	n/a	n/a	n/a	n/a
204.56689453125	0.2	418953	173	57	1	0	0	77	39	stimuli\Videos_short_600ms\45.scratching_with_finger_nails_short_short_600ms.mp4	45.scratching_with_finger_nails_short_short_600ms.mp4	239.17010475099323	239.7784273539064	0.6083226029131765	n/a	n/a	n/a	n/a
205.3671875	0.2	420592	174	57	1	0	0	78	99	stimuli\Videos_short_600ms_horflip\18.single_stroke_from_top_to_bottom_with_rolling_pin_short_horflip_short_600ms.mp4	18.single_stroke_from_top_to_bottom_with_rolling_pin_short_horflip_short_600ms.mp4	239.97009753710063	240.5784166210424	0.6083190839417512	n/a	n/a	n/a	n/a
206.1669921875	0.2	422230	175	57	1	0	0	79	47	stimuli\Videos_short_600ms\52.touch_top_to_bottom_with_hammer_short_short_600ms.mp4	52.touch_top_to_bottom_with_hammer_short_short_600ms.mp4	240.7700829920177	241.37841145988384	0.6083284678661585	n/a	n/a	n/a	n/a
206.966796875	0.2	423868	176	57	1	0	0	80	304	stimuli\Videos_short_600ms_vertflip\40.repeated_push_with_finger_short_vertflip_short_600ms.mp4	40.repeated_push_with_finger_short_vertflip_short_600ms.mp4	241.5700766578684	242.1783980877908	0.6083214299223982	n/a	n/a	n/a	n/a
207.76708984375	0.2	425507	177	57	1	0	1	81	368	stimuli\Targets_short_600ms_horflip\chopstickwood-tap_short_horflip_short_600ms.mp4	chopstickwood-tap_short_horflip_short_600ms.mp4	242.37006240603296	242.97838882116503	0.6083264151320691	n/a	n/a	n/a	n/a
208.56689453125	0.2	427145	178	57	1	0	0	82	306	stimuli\Videos_short_600ms_vertflip\42.single_slap_with_plastic_whisk_short_vertflip_short_600ms.mp4	42.single_slap_with_plastic_whisk_short_vertflip_short_600ms.mp4	243.17008627639095	243.7783789680443	0.6082926916533324	n/a	n/a	n/a	n/a
209.36669921875	0.2	428783	179	57	1	0	0	83	103	stimuli\Videos_short_600ms_horflip\21.repeated_touch_with_metal_chopstick_short_horflip_short_600ms.mp4	21.repeated_touch_with_metal_chopstick_short_horflip_short_600ms.mp4	243.9700872734329	244.5783708744084	0.6082836009754828	n/a	n/a	n/a	n/a
210.1669921875	0.2	430422	180	57	1	0	0	84	81	stimuli\Videos_short_600ms\83.single_stroke_top_to_bottom_with_cotton_bud_short_short_600ms.mp4	83.single_stroke_top_to_bottom_with_cotton_bud_short_short_600ms.mp4	244.7700431103367	245.37835955504943	0.6083164447127274	n/a	n/a	n/a	n/a
210.966796875	0.2	432060	181	57	1	0	0	85	147	stimuli\Videos_short_600ms_horflip\61.single_hit_with_rolling_pin_short_horflip_short_600ms.mp4	61.single_hit_with_rolling_pin_short_horflip_short_600ms.mp4	245.5700244597865	246.1783508749195	0.6083264151329786	n/a	n/a	n/a	n/a
211.7666015625	0.2	433698	182	57	1	0	0	86	52	stimuli\Videos_short_600ms\57.single_touch_with_nail_file_short_short_600ms.mp4	57.single_touch_with_nail_file_short_short_600ms.mp4	246.37002076486624	246.97834102179783	0.60832025693162	n/a	n/a	n/a	n/a
212.56689453125	0.2	435337	183	57	1	0	1	87	377	stimuli\Targets_short_600ms_horvertflip\hand-stroke_short_vertflip_short_600ms.mp4	hand-stroke_short_vertflip_short_600ms.mp4	247.17001091174552	247.7783311686771	0.60832025693162	n/a	n/a	n/a	n/a
213.36669921875	0.2	436975	184	57	1	0	0	88	84	stimuli\Videos_short_600ms\86.touch_top_to_bottom_with_hair_brush_short_short_600ms.mp4	86.touch_top_to_bottom_with_hair_brush_short_short_600ms.mp4	247.9700048708437	248.57832366153707	0.6083187906933745	n/a	n/a	n/a	n/a
214.16650390625	0.2	438613	185	57	1	0	0	89	157	stimuli\Videos_short_600ms_horflip\70.(long)stroke_with_finger_all_over_the_hand_short_horflip_short_600ms.mp4	70.(long)stroke_with_finger_all_over_the_hand_short_horflip_short_600ms.mp4	248.7699941379797	249.37831087593983	0.6083167379601946	n/a	n/a	n/a	n/a
214.966796875	0.2	440252	186	57	1	0	0	90	251	stimuli\Videos_short_600ms_horvertflip\74.fingers_walking_from_top_to_bottom_short_horvertflip_short_600ms.mp4	74.fingers_walking_from_top_to_bottom_short_horvertflip_short_600ms.mp4	249.56998897682115	250.17830747426703	0.6083184974459073	n/a	n/a	n/a	n/a
215.7666015625	0.2	441890	187	57	1	0	0	91	270	stimuli\Videos_short_600ms_vertflip\1.repeated_touch_with_finger_fast_short_vertflip_short_600ms.mp4	1.repeated_touch_with_finger_fast_short_vertflip_short_600ms.mp4	250.3699717925083	250.97829087645005	0.6083190839417512	n/a	n/a	n/a	n/a
216.56640625	0.2	443528	188	57	1	0	0	92	349	stimuli\Videos_short_600ms_vertflip\81.single_stroke_top_to_bottom_with_cotton_pad_short_vertflip_short_600ms.mp4	81.single_stroke_top_to_bottom_with_cotton_pad_short_vertflip_short_600ms.mp4	251.1699598866544	251.7782613757363	0.6083014890818959	n/a	n/a	n/a	n/a
217.36669921875	0.2	445167	189	57	1	0	0	93	174	stimuli\Videos_short_600ms_horflip\86.touch_top_to_bottom_with_hair_brush_short_horflip_short_600ms.mp4	86.touch_top_to_bottom_with_hair_brush_short_horflip_short_600ms.mp4	251.969965868906	252.5782729296934	0.6083070607874106	n/a	n/a	n/a	n/a
218.16650390625	0.2	446805	190	57	1	0	0	94	105	stimuli\Videos_short_600ms_horflip\23.single_push_with_a_spoon_short_horflip_short_600ms.mp4	23.single_push_with_a_spoon_short_horflip_short_600ms.mp4	252.76994223314523	253.37826630229665	0.608324069151422	n/a	n/a	n/a	n/a
218.96630859375	0.2	448443	191	57	1	0	0	95	266	stimuli\Videos_short_600ms_horvertflip\88.repeated_stroke_with_plastic_brush_short_horvertflip_short_600ms.mp4	88.repeated_stroke_with_plastic_brush_short_horvertflip_short_600ms.mp4	253.569932673272	254.17826319387132	0.6083305205993383	n/a	n/a	n/a	n/a
219.7666015625	0.2	450082	192	57	1	0	0	96	192	stimuli\Videos_short_600ms_horvertflip\20.single_touch_with_screwdriver_short_horvertflip_short_600ms.mp4	20.single_touch_with_screwdriver_short_horvertflip_short_600ms.mp4	254.36992311339873	254.9782457163119	0.6083226029131765	7.0	7.0	3.273422056387062	1.0
255.0234375	0.2	522288	193	57	2	0	0	0	229	stimuli\Videos_short_600ms_horvertflip\54.repeated_touch_with_knife_short_horvertflip_short_600ms.mp4	54.repeated_touch_with_knife_short_horvertflip_short_600ms.mp4	289.62784233950606	290.23616406267683	0.6083217231707749	n/a	n/a	n/a	n/a
255.82373046875	0.2	523927	194	57	2	0	0	1	264	stimuli\Videos_short_600ms_horvertflip\86.touch_top_to_bottom_with_hair_brush_short_horvertflip_short_600ms.mp4	86.touch_top_to_bottom_with_hair_brush_short_horvertflip_short_600ms.mp4	290.4278145982789	291.036149517593	0.6083349193140748	n/a	n/a	n/a	n/a
256.62353515625	0.2	525565	195	57	2	0	0	2	44	stimuli\Videos_short_600ms\5.repeated_tap_with_finger_moving_from_top_to_bottom_short_short_600ms.mp4	5.repeated_tap_with_finger_moving_from_top_to_bottom_short_short_600ms.mp4	291.2278056249006	291.83613526575755	0.6083296408569367	n/a	n/a	n/a	n/a
257.423828125	0.2	527204	196	57	2	0	0	3	4	stimuli\Videos_short_600ms\13.single_touch_with_pen_short_short_600ms.mp4	13.single_touch_with_pen_short_short_600ms.mp4	292.0277948920366	292.63612423964514	0.6083293476085601	n/a	n/a	n/a	n/a
258.2236328125	0.2	528842	197	57	2	0	0	4	314	stimuli\Videos_short_600ms_vertflip\5.repeated_tap_with_finger_moving_from_top_to_bottom_short_vertflip_short_600ms.mp4	5.repeated_tap_with_finger_moving_from_top_to_bottom_short_vertflip_short_600ms.mp4	292.8277431045017	293.4361173190009	0.6083742144992357	n/a	n/a	n/a	n/a
259.0234375	0.2	530480	198	57	2	0	0	5	276	stimuli\Videos_short_600ms_vertflip\15.single_stroke_top_to_bottom_with_a_plastic_whisk_short_vertflip_short_600ms.mp4	15.single_stroke_top_to_bottom_with_a_plastic_whisk_short_vertflip_short_600ms.mp4	293.62778075749975	294.2361071726327	0.6083264151329786	n/a	n/a	n/a	n/a
259.82373046875	0.2	532119	199	57	2	0	0	6	250	stimuli\Videos_short_600ms_horvertflip\73.single_stroke_with_flat_hand_short_horvertflip_short_600ms.mp4	73.single_stroke_with_flat_hand_short_horvertflip_short_600ms.mp4	294.4277703178832	295.0361011317309	0.608330813847715	n/a	n/a	n/a	n/a
260.62353515625	0.2	533757	200	57	2	0	0	7	260	stimuli\Videos_short_600ms_horvertflip\82.repeated_touch_with_cotton_bud_short_horvertflip_short_600ms.mp4	82.repeated_touch_with_cotton_bud_short_horvertflip_short_600ms.mp4	295.2277563592952	295.8360880528853	0.6083316935901166	n/a	n/a	n/a	n/a
261.42333984375	0.2	535395	201	57	2	0	0	8	38	stimuli\Videos_short_600ms\44.pushing_top_to_bottom_with_finger_short_short_600ms.mp4	44.pushing_top_to_bottom_with_finger_short_short_600ms.mp4	296.02772568559067	296.63607673352635	0.6083510479356846	n/a	n/a	n/a	n/a
262.2236328125	0.2	537034	202	57	2	0	0	9	242	stimuli\Videos_short_600ms_horvertflip\66.stroke_top_to_bottom_with_sponge_short_horvertflip_short_600ms.mp4	66.stroke_top_to_bottom_with_sponge_short_horvertflip_short_600ms.mp4	296.82774251800583	297.43606776014803	0.6083252421422003	n/a	n/a	n/a	n/a
263.0234375	0.2	538672	203	57	2	0	0	10	95	stimuli\Videos_short_600ms_horflip\14.repeated_touch_with_pencil_short_horflip_short_600ms.mp4	14.repeated_touch_with_pencil_short_horflip_short_600ms.mp4	297.62770685909163	298.23605849352225	0.608351634430619	n/a	n/a	n/a	n/a
263.8232421875	0.2	540310	204	57	2	0	0	11	324	stimuli\Videos_short_600ms_vertflip\59.single_push_with_long_side_pencil_short_vertflip_short_600ms.mp4	59.single_push_with_long_side_pencil_short_vertflip_short_600ms.mp4	298.42771636031557	299.0360612500499	0.608344889734326	n/a	n/a	n/a	n/a
264.62353515625	0.2	541949	205	57	2	0	0	12	42	stimuli\Videos_short_600ms\48.single_slap_with_hand_short_short_600ms.mp4	48.single_slap_with_hand_short_short_600ms.mp4	299.22771677086257	299.8360340953177	0.608317324455129	n/a	n/a	n/a	n/a
265.42333984375	0.2	543587	206	57	2	0	0	13	226	stimuli\Videos_short_600ms_horvertflip\51.repeated_touch_with_hammer_short_horvertflip_short_600ms.mp4	51.repeated_touch_with_hammer_short_horvertflip_short_600ms.mp4	300.02770603799854	300.6360251219394	0.6083190839408417	n/a	n/a	n/a	n/a
266.22314453125	0.2	545225	207	57	2	0	0	14	238	stimuli\Videos_short_600ms_horvertflip\62.touch_top_to_bottom_with_scissors_short_horvertflip_short_600ms.mp4	62.touch_top_to_bottom_with_scissors_short_horvertflip_short_600ms.mp4	300.8276999970967	301.4360132160855	0.6083132189887692	n/a	n/a	n/a	n/a
267.0234375	0.2	546864	208	57	2	0	0	15	222	stimuli\Videos_short_600ms_horvertflip\48.single_slap_with_hand_short_horvertflip_short_600ms.mp4	48.single_slap_with_hand_short_horvertflip_short_600ms.mp4	301.6276825195373	302.2360086414219	0.6083261218846019	n/a	n/a	n/a	n/a
267.8232421875	0.2	548502	209	57	2	0	0	16	125	stimuli\Videos_short_600ms_horflip\41.injection_with_blunt_syringe_short_horflip_short_600ms.mp4	41.injection_with_blunt_syringe_short_horflip_short_600ms.mp4	302.4276717866733	303.03597826096484	0.6083064742915667	n/a	n/a	n/a	n/a
268.623046875	0.2	550140	210	57	2	0	0	17	87	stimuli\Videos_short_600ms\89.single_touch_with_plastic_brush_short_short_600ms.mp4	89.single_touch_with_plastic_brush_short_short_600ms.mp4	303.227659587571	303.8359921609035	0.6083325733325182	n/a	n/a	n/a	n/a
269.42333984375	0.2	551779	211	57	2	0	0	18	160	stimuli\Videos_short_600ms_horflip\73.single_stroke_with_flat_hand_short_horflip_short_600ms.mp4	73.single_stroke_with_flat_hand_short_horflip_short_600ms.mp4	304.02764973444937	304.6359840672685	0.6083343328191404	n/a	n/a	n/a	n/a
270.22314453125	0.2	553417	212	57	2	0	0	19	77	stimuli\Videos_short_600ms\8.single_touch_with_hairbrush_short_short_600ms.mp4	8.single_touch_with_hairbrush_short_short_600ms.mp4	304.8276395880812	305.4359748006427	0.608335212561542	n/a	n/a	n/a	n/a
271.02294921875	0.2	555055	213	57	2	0	0	20	287	stimuli\Videos_short_600ms_vertflip\25.single_touch_with_stanley_knife_short_vertflip_short_600ms.mp4	25.single_touch_with_stanley_knife_short_vertflip_short_600ms.mp4	305.62763002820793	306.2359593758165	0.6083293476085601	n/a	n/a	n/a	n/a
271.8232421875	0.2	556694	214	57	2	0	0	21	30	stimuli\Videos_short_600ms\37.single_stab_with_nail_file_short_short_600ms.mp4	37.single_stab_with_nail_file_short_short_600ms.mp4	306.4276184156006	307.0359624255925	0.6083440099919244	n/a	n/a	n/a	n/a
272.623046875	0.2	558332	215	57	2	0	1	22	374	stimuli\Targets_short_600ms_horvertflip\chopstickwood-tap_short_vertflip_short_600ms.mp4	chopstickwood-tap_short_vertflip_short_600ms.mp4	307.2276103219656	307.8359411358124	0.6083308138468055	n/a	n/a	n/a	n/a
273.4228515625	0.2	559970	216	57	2	0	0	23	128	stimuli\Videos_short_600ms_horflip\44.pushing_top_to_bottom_with_finger_short_horflip_short_600ms.mp4	44.pushing_top_to_bottom_with_finger_short_horflip_short_600ms.mp4	308.02760046884487	308.6359289367101	0.608328467865249	n/a	n/a	n/a	n/a
274.22314453125	0.2	561609	217	57	2	0	0	24	101	stimuli\Videos_short_600ms_horflip\2.single_touch_with_finger_short_horflip_short_600ms.mp4	2.single_touch_with_finger_short_horflip_short_600ms.mp4	308.8275967739237	309.43592406879907	0.6083272948753802	n/a	n/a	n/a	n/a
275.02294921875	0.2	563247	218	57	2	0	0	25	68	stimuli\Videos_short_600ms\71.single_stroke_with_finger_top_to_bottom_short_short_600ms.mp4	71.single_stroke_with_finger_top_to_bottom_short_short_600ms.mp4	309.6275866275555	310.23591128320186	0.6083246556463564	n/a	n/a	n/a	n/a
275.8232421875	0.2	564886	219	57	2	0	0	26	167	stimuli\Videos_short_600ms_horflip\8.single_touch_with_hairbrush_short_horflip_short_600ms.mp4	8.single_touch_with_hairbrush_short_horflip_short_600ms.mp4	310.4275794136629	311.03590230982354	0.6083228961606437	n/a	n/a	n/a	n/a
276.623046875	0.2	566524	220	57	2	0	0	27	123	stimuli\Videos_short_600ms_horflip\4.repeated_tap_with_finger_slow_short_horflip_short_600ms.mp4	4.repeated_tap_with_finger_slow_short_horflip_short_600ms.mp4	311.2275610563602	311.83589304319776	0.6083319868375838	n/a	n/a	n/a	n/a
277.4228515625	0.2	568162	221	57	2	0	0	28	106	stimuli\Videos_short_600ms_horflip\24.single_stroke_top_to_bottom_with_a_spoon_short_horflip_short_600ms.mp4	24.single_stroke_top_to_bottom_with_a_spoon_short_horflip_short_600ms.mp4	312.0275309691515	312.6358814305913	0.6083504614398407	n/a	n/a	n/a	n/a
278.22314453125	0.2	569801	222	57	2	0	0	29	113	stimuli\Videos_short_600ms_horflip\30.finger_pulling_back_another_finger_short_horflip_short_600ms.mp4	30.finger_pulling_back_another_finger_short_horflip_short_600ms.mp4	312.8275434028519	313.43587099097476	0.6083275881228474	n/a	n/a	n/a	n/a
279.02294921875	0.2	571439	223	57	2	0	0	30	1	stimuli\Videos_short_600ms\10.single_touch_with_knife_short_short_600ms.mp4	10.single_touch_with_knife_short_short_600ms.mp4	313.6275077439377	314.2358626040923	0.6083548601545772	n/a	n/a	n/a	n/a
279.82275390625	0.2	573077	224	57	2	0	0	31	317	stimuli\Videos_short_600ms_vertflip\52.touch_top_to_bottom_with_hammer_short_vertflip_short_600ms.mp4	52.touch_top_to_bottom_with_hammer_short_vertflip_short_600ms.mp4	314.4275319075441	315.03582929115873	0.6082973836146266	n/a	n/a	n/a	n/a
280.623046875	0.2	574716	225	57	2	0	0	32	185	stimuli\Videos_short_600ms_horvertflip\14.repeated_touch_with_pencil_short_horvertflip_short_600ms.mp4	14.repeated_touch_with_pencil_short_horvertflip_short_600ms.mp4	315.22751648271696	315.83582471649515	0.6083082337781889	n/a	n/a	n/a	n/a
281.4228515625	0.2	576354	226	57	2	0	0	33	338	stimuli\Videos_short_600ms_vertflip\71.single_stroke_with_finger_top_to_bottom_short_vertflip_short_600ms.mp4	71.single_stroke_with_finger_top_to_bottom_short_vertflip_short_600ms.mp4	316.0275145472833	316.6358409624154	0.6083264151320691	n/a	n/a	n/a	n/a
282.22265625	0.2	577992	227	57	2	0	0	34	159	stimuli\Videos_short_600ms_horflip\72.(short)stroke_with_finger_all_over_the_hand_short_horflip_short_600ms.mp4	72.(short)stroke_with_finger_all_over_the_hand_short_horflip_short_600ms.mp4	316.82749765621793	317.43582289836013	0.6083252421422003	n/a	n/a	n/a	n/a
283.02294921875	0.2	579631	228	57	2	0	0	35	115	stimuli\Videos_short_600ms_horflip\32.single_(long)pinch_with_fingers_short_horflip_short_600ms.mp4	32.single_(long)pinch_with_fingers_short_horflip_short_600ms.mp4	317.62748575036403	318.2358112857528	0.608325535388758	n/a	n/a	n/a	n/a
283.82275390625	0.2	581269	229	57	2	0	0	36	289	stimuli\Videos_short_600ms_vertflip\27.single_push_with_a_plastic_whisk_short_vertflip_short_600ms.mp4	27.single_push_with_a_plastic_whisk_short_vertflip_short_600ms.mp4	318.4274770702332	319.0357955676791	0.6083184974459073	n/a	n/a	n/a	n/a
284.62255859375	0.2	582907	230	57	2	0	0	37	110	stimuli\Videos_short_600ms_horflip\28.single_injection_with_sharp_needle_short_horflip_short_600ms.mp4	28.single_injection_with_sharp_needle_short_horflip_short_600ms.mp4	319.2274678036074	319.835799790445	0.6083319868375838	n/a	n/a	n/a	n/a
285.4228515625	0.2	584546	231	57	2	0	0	38	75	stimuli\Videos_short_600ms\78.single_stroke_top_to_bottom_with_soft_brush_short_short_600ms.mp4	78.single_stroke_top_to_bottom_with_soft_brush_short_short_600ms.mp4	320.0274588302291	320.63579169681	0.6083328665808949	n/a	n/a	n/a	n/a
286.22265625	0.2	586184	232	57	2	0	0	39	11	stimuli\Videos_short_600ms\2.single_touch_with_finger_short_short_600ms.mp4	2.single_touch_with_finger_short_short_600ms.mp4	320.8274439918978	321.43577245976394	0.6083284678661585	n/a	n/a	n/a	n/a
287.0224609375	0.2	587822	233	57	2	0	0	40	275	stimuli\Videos_short_600ms_vertflip\14.repeated_touch_with_pencil_short_vertflip_short_600ms.mp4	14.repeated_touch_with_pencil_short_vertflip_short_600ms.mp4	321.6274367780061	322.2357649526248	0.6083281746186913	n/a	n/a	n/a	n/a
287.82275390625	0.2	589461	234	57	2	0	0	41	121	stimuli\Videos_short_600ms_horflip\38.double_slap_with_pencil_short_horflip_short_600ms.mp4	38.double_slap_with_pencil_short_horflip_short_600ms.mp4	322.4274286843711	323.0357392641299	0.608310579758836	n/a	n/a	n/a	n/a
288.62255859375	0.2	591099	235	57	2	0	0	42	282	stimuli\Videos_short_600ms_vertflip\20.single_touch_with_screwdriver_short_vertflip_short_600ms.mp4	20.single_touch_with_screwdriver_short_vertflip_short_600ms.mp4	323.22742381646003	323.8357434868967	0.6083196704366856	n/a	n/a	n/a	n/a
289.42236328125	0.2	592737	236	57	2	0	0	43	176	stimuli\Videos_short_600ms_horflip\88.repeated_stroke_with_plastic_brush_short_horflip_short_600ms.mp4	88.repeated_stroke_with_plastic_brush_short_horflip_short_600ms.mp4	324.0274092713762	324.63573422027093	0.6083249488947331	n/a	n/a	n/a	n/a
290.22265625	0.2	594376	237	57	2	0	0	44	162	stimuli\Videos_short_600ms_horflip\75.(long)stroke_with_fingers_all_over_the_hand_short_horflip_short_600ms.mp4	75.(long)stroke_with_fingers_all_over_the_hand_short_horflip_short_600ms.mp4	324.8273970722739	325.4357255401401	0.6083284678661585	n/a	n/a	n/a	n/a
291.0224609375	0.2	596014	238	57	2	0	0	45	119	stimuli\Videos_short_600ms_horflip\36.single_slap_with_full_hand_short_horflip_short_600ms.mp4	36.single_slap_with_full_hand_short_horflip_short_600ms.mp4	325.62737138378	326.23571568701936	0.6083443032393916	n/a	n/a	n/a	n/a
291.822265625	0.2	597652	239	57	2	0	0	46	182	stimuli\Videos_short_600ms_horvertflip\11.single_touch_with_lighter_short_horvertflip_short_600ms.mp4	11.single_touch_with_lighter_short_horvertflip_short_600ms.mp4	326.427354199468	327.0356806146001	0.6083264151320691	n/a	n/a	n/a	n/a
292.62255859375	0.2	599291	240	57	2	0	0	47	98	stimuli\Videos_short_600ms_horflip\17.repeated_touch_with_rolling_pin_short_horflip_short_600ms.mp4	17.repeated_touch_with_rolling_pin_short_horflip_short_600ms.mp4	327.22737044538735	327.8356971537678	0.6083267083804458	n/a	n/a	n/a	n/a
293.42236328125	0.2	600929	241	57	2	0	0	48	347	stimuli\Videos_short_600ms_vertflip\8.single_touch_with_hairbrush_short_vertflip_short_600ms.mp4	8.single_touch_with_hairbrush_short_vertflip_short_600ms.mp4	328.0273600057708	328.63568466141805	0.6083246556472659	n/a	n/a	n/a	n/a
294.22216796875	0.2	602567	242	57	2	0	0	49	299	stimuli\Videos_short_600ms_vertflip\36.single_slap_with_full_hand_short_vertflip_short_600ms.mp4	36.single_slap_with_full_hand_short_vertflip_short_600ms.mp4	328.8273472201736	329.4356768610305	0.6083296408569367	n/a	n/a	n/a	n/a
295.0224609375	0.2	604206	243	57	2	0	0	50	63	stimuli\Videos_short_600ms\67.single_touch_with_sponge_short_short_600ms.mp4	67.single_touch_with_sponge_short_short_600ms.mp4	329.6273408860243	330.2356661281665	0.6083252421422003	n/a	n/a	n/a	n/a
295.822265625	0.2	605844	244	57	2	0	0	51	296	stimuli\Videos_short_600ms_vertflip\33.scratch_top_to_bottom_with_scissors_short_vertflip_short_600ms.mp4	33.scratch_top_to_bottom_with_scissors_short_vertflip_short_600ms.mp4	330.4273383640948	331.03566096700797	0.6083226029131765	n/a	n/a	n/a	n/a
296.62255859375	0.2	607483	245	57	2	0	0	52	40	stimuli\Videos_short_600ms\46.scratching_top_to_bottom_with_finger_nails_short_short_600ms.mp4	46.scratching_top_to_bottom_with_finger_nails_short_short_600ms.mp4	331.2272921482645	331.83562178912143	0.6083296408569367	n/a	n/a	n/a	n/a
297.42236328125	0.2	609121	246	57	2	0	0	53	79	stimuli\Videos_short_600ms\81.single_stroke_top_to_bottom_with_cotton_pad_short_short_600ms.mp4	81.single_stroke_top_to_bottom_with_cotton_pad_short_short_600ms.mp4	332.0273104469179	332.6356098832666	0.608299436348716	n/a	n/a	n/a	n/a
298.22216796875	0.2	610759	247	57	2	0	0	54	277	stimuli\Videos_short_600ms_vertflip\16.repeated_touch_with_plastic_brush_short_vertflip_short_600ms.mp4	16.repeated_touch_with_plastic_brush_short_vertflip_short_600ms.mp4	332.82730264653037	333.4356237832053	0.608321136674931	n/a	n/a	n/a	n/a
299.0224609375	0.2	612398	248	57	2	0	0	55	237	stimuli\Videos_short_600ms_horvertflip\61.single_hit_with_rolling_pin_short_horvertflip_short_600ms.mp4	61.single_hit_with_rolling_pin_short_horvertflip_short_600ms.mp4	333.62729103392394	334.23561334358965	0.6083223096657093	n/a	n/a	n/a	n/a
299.822265625	0.2	614036	249	57	2	0	0	56	28	stimuli\Videos_short_600ms\35.single_punch_with_hand_short_short_600ms.mp4	35.single_punch_with_hand_short_short_600ms.mp4	334.4272814740507	335.03561463387905	0.6083331598283621	n/a	n/a	n/a	n/a
300.6220703125	0.2	615674	250	57	2	0	0	57	188	stimuli\Videos_short_600ms_horvertflip\17.repeated_touch_with_rolling_pin_short_horvertflip_short_600ms.mp4	17.repeated_touch_with_rolling_pin_short_horvertflip_short_600ms.mp4	335.22726986144335	335.83560067529106	0.608330813847715	n/a	n/a	n/a	n/a
301.42236328125	0.2	617313	251	57	2	0	0	58	67	stimuli\Videos_short_600ms\70.(long)stroke_with_finger_all_over_the_hand_short_short_600ms.mp4	70.(long)stroke_with_finger_all_over_the_hand_short_short_600ms.mp4	336.0272632340466	336.63559170191274	0.6083284678661585	n/a	n/a	n/a	n/a
302.22216796875	0.2	618951	252	57	2	0	0	59	206	stimuli\Videos_short_600ms_horvertflip\33.scratch_top_to_bottom_with_scissors_short_horvertflip_short_600ms.mp4	33.scratch_top_to_bottom_with_scissors_short_horvertflip_short_600ms.mp4	336.82725074169684	337.435579209563	0.6083284678661585	n/a	n/a	n/a	n/a
303.02197265625	0.2	620589	253	57	2	0	0	60	112	stimuli\Videos_short_600ms_horflip\3.single_push_with_finger_short_horflip_short_600ms.mp4	3.single_push_with_finger_short_horflip_short_600ms.mp4	337.62724059532775	338.23556789020313	0.6083272948753802	n/a	n/a	n/a	n/a
303.822265625	0.2	622228	254	57	2	0	1	61	370	stimuli\Targets_short_600ms_horflip\hand-pinch_short_horflip_short_600ms.mp4	hand-pinch_short_horflip_short_600ms.mp4	338.4272327949402	339.0355589168257	0.6083261218855114	n/a	n/a	n/a	n/a
304.6220703125	0.2	623866	255	57	2	0	0	62	43	stimuli\Videos_short_600ms\49.repeated_slap_with_hand_short_short_600ms.mp4	49.repeated_slap_with_hand_short_short_600ms.mp4	339.2272217688287	339.8355481839617	0.6083264151329786	n/a	n/a	n/a	n/a
305.421875	0.2	625504	256	57	2	0	1	63	378	stimuli\Targets_short_600ms_vertflip\brush-stroke_short_horvertflip_short_600ms.mp4	brush-stroke_short_horvertflip_short_600ms.mp4	340.0272139684412	340.6355400903258	0.6083261218846019	n/a	n/a	n/a	n/a
306.22216796875	0.2	627143	257	57	2	0	0	64	193	stimuli\Videos_short_600ms_horvertflip\21.repeated_touch_with_metal_chopstick_short_horvertflip_short_600ms.mp4	21.repeated_touch_with_metal_chopstick_short_horvertflip_short_600ms.mp4	340.8272522079351	341.43552847771934	0.6082762697842554	n/a	n/a	n/a	n/a
307.02197265625	0.2	628781	258	57	2	0	0	65	169	stimuli\Videos_short_600ms_horflip\81.single_stroke_top_to_bottom_with_cotton_pad_short_horflip_short_600ms.mp4	81.single_stroke_top_to_bottom_with_cotton_pad_short_horflip_short_600ms.mp4	341.6271933824564	342.23551833135025	0.6083249488938236	n/a	n/a	n/a	n/a
307.82177734375	0.2	630419	259	57	2	0	0	66	293	stimuli\Videos_short_600ms_vertflip\30.finger_pulling_back_another_finger_short_vertflip_short_600ms.mp4	30.finger_pulling_back_another_finger_short_vertflip_short_600ms.mp4	342.4271788373726	343.03550906472447	0.6083302273518711	n/a	n/a	n/a	n/a
308.6220703125	0.2	632058	260	57	2	0	0	67	209	stimuli\Videos_short_600ms_horvertflip\36.single_slap_with_full_hand_short_horvertflip_short_600ms.mp4	36.single_slap_with_full_hand_short_horvertflip_short_600ms.mp4	343.2271704504901	343.8354986251088	0.6083281746186913	n/a	n/a	n/a	n/a
309.421875	0.2	633696	261	57	2	0	0	68	144	stimuli\Videos_short_600ms_horflip\59.single_push_with_long_side_pencil_short_horflip_short_600ms.mp4	59.single_push_with_long_side_pencil_short_horflip_short_600ms.mp4	344.0271394835381	344.6354905314729	0.6083510479347751	n/a	n/a	n/a	n/a
310.2216796875	0.2	635334	262	57	2	0	0	69	85	stimuli\Videos_short_600ms\87.single_stroke_top_to_bottom_with_plastic_brush_short_short_600ms.mp4	87.single_stroke_top_to_bottom_with_plastic_brush_short_short_600ms.mp4	344.82716159441134	345.4354815580955	0.6083199636841528	n/a	n/a	n/a	n/a
311.02197265625	0.2	636973	263	57	2	0	0	70	328	stimuli\Videos_short_600ms_vertflip\62.touch_top_to_bottom_with_scissors_short_vertflip_short_600ms.mp4	62.touch_top_to_bottom_with_scissors_short_vertflip_short_600ms.mp4	345.62714763582244	346.23547082523146	0.6083231894090204	n/a	n/a	n/a	n/a
311.82177734375	0.2	638611	264	57	2	0	0	71	152	stimuli\Videos_short_600ms_horflip\66.stroke_top_to_bottom_with_sponge_short_horflip_short_600ms.mp4	66.stroke_top_to_bottom_with_sponge_short_horflip_short_600ms.mp4	346.4271427679123	347.0354680100536	0.6083252421412908	n/a	n/a	n/a	n/a
312.62158203125	0.2	640249	265	57	2	0	0	72	90	stimuli\Videos_short_600ms_horflip\1.repeated_touch_with_finger_fast_short_horflip_short_600ms.mp4	1.repeated_touch_with_finger_fast_short_horflip_short_600ms.mp4	347.227096552082	347.83544701352184	0.6083504614398407	n/a	n/a	n/a	n/a
313.421875	0.2	641888	266	57	2	0	0	73	127	stimuli\Videos_short_600ms_horflip\43.touch_top_to_bottom_with_sharp_wooden_stick_short_horflip_short_600ms.mp4	43.touch_top_to_bottom_with_sharp_wooden_stick_short_horflip_short_600ms.mp4	348.02712482115567	348.6354362806578	0.608311459502147	n/a	n/a	n/a	n/a
314.2216796875	0.2	643526	267	57	2	0	0	74	153	stimuli\Videos_short_600ms_horflip\67.single_touch_with_sponge_short_horflip_short_600ms.mp4	67.single_touch_with_sponge_short_horflip_short_600ms.mp4	348.82710353137645	349.4354246680514	0.608321136674931	n/a	n/a	n/a	n/a
315.021484375	0.2	645164	268	57	2	0	0	75	146	stimuli\Videos_short_600ms_horflip\60.single_push_with_tip_of_pencil_short_horflip_short_600ms.mp4	60.single_push_with_tip_of_pencil_short_horflip_short_600ms.mp4	349.6270939715032	350.2354288908173	0.6083349193140748	n/a	n/a	n/a	n/a
315.82177734375	0.2	646803	269	57	2	0	0	76	346	stimuli\Videos_short_600ms_vertflip\79.long_with_soft_brush_all_over_the_hand_short_vertflip_short_600ms.mp4	79.long_with_soft_brush_all_over_the_hand_short_vertflip_short_600ms.mp4	350.42708441162904	351.0354119997528	0.6083275881237569	n/a	n/a	n/a	n/a
316.62158203125	0.2	648441	270	57	2	0	0	77	136	stimuli\Videos_short_600ms_horflip\51.repeated_touch_with_hammer_short_horflip_short_600ms.mp4	51.repeated_touch_with_hammer_short_horflip_short_600ms.mp4	351.22707338551754	351.8354091845749	0.6083357990573859	n/a	n/a	n/a	n/a
317.421875	0.2	650080	271	57	2	0	0	78	271	stimuli\Videos_short_600ms_vertflip\10.single_touch_with_knife_short_vertflip_short_600ms.mp4	10.single_touch_with_knife_short_vertflip_short_600ms.mp4	352.02706529188254	352.6353928800054	0.6083275881228474	n/a	n/a	n/a	n/a
318.2216796875	0.2	651718	272	57	2	0	1	79	365	stimuli\Targets_short_600ms\hand-stroke_short_short_600ms.mp4	hand-stroke_short_short_600ms.mp4	352.82705602525675	353.43538214714135	0.6083261218846019	n/a	n/a	n/a	n/a
319.021484375	0.2	653356	273	57	2	0	0	80	109	stimuli\Videos_short_600ms_horflip\27.single_push_with_a_plastic_whisk_short_horflip_short_600ms.mp4	27.single_push_with_a_plastic_whisk_short_horflip_short_600ms.mp4	353.62704587888857	354.2353714142773	0.608325535388758	n/a	n/a	n/a	n/a
319.82177734375	0.2	654995	274	57	2	0	0	81	224	stimuli\Videos_short_600ms_horvertflip\5.repeated_tap_with_finger_moving_from_top_to_bottom_short_horvertflip_short_600ms.mp4	5.repeated_tap_with_finger_moving_from_top_to_bottom_short_horvertflip_short_600ms.mp4	354.42703514602454	355.03536508012894	0.608329934104404	n/a	n/a	n/a	n/a
320.62158203125	0.2	656633	275	57	2	0	0	82	348	stimuli\Videos_short_600ms_vertflip\80.stroke_with_sharp_stick_all_over_the_hand_short_vertflip_short_600ms.mp4	80.stroke_with_sharp_stick_all_over_the_hand_short_vertflip_short_600ms.mp4	355.22702587939875	355.8353499485502	0.608324069151422	n/a	n/a	n/a	n/a
321.42138671875	0.2	658271	276	57	2	0	0	83	358	stimuli\Videos_short_600ms_vertflip\9.single_touch_with_hammer_short_vertflip_short_600ms.mp4	9.single_touch_with_hammer_short_vertflip_short_600ms.mp4	356.0269998976564	356.63537499189897	0.6083750942425468	n/a	n/a	n/a	n/a
322.2216796875	0.2	659910	277	57	2	0	0	84	249	stimuli\Videos_short_600ms_horvertflip\72.(short)stroke_with_finger_all_over_the_hand_short_horvertflip_short_600ms.mp4	72.(short)stroke_with_finger_all_over_the_hand_short_horvertflip_short_600ms.mp4	356.8269891647924	357.43533288153685	0.6083437167444572	n/a	n/a	n/a	n/a
323.021484375	0.2	661548	278	57	2	0	0	85	200	stimuli\Videos_short_600ms_horvertflip\28.single_injection_with_sharp_needle_short_horvertflip_short_600ms.mp4	28.single_injection_with_sharp_needle_short_horvertflip_short_600ms.mp4	357.6269705142422	358.2353212689295	0.6083507546873079	n/a	n/a	n/a	n/a
323.8212890625	0.2	663186	279	57	2	0	0	86	114	stimuli\Videos_short_600ms_horflip\31.hand_grabbing_wrist_short_horflip_short_600ms.mp4	31.hand_grabbing_wrist_short_horflip_short_600ms.mp4	358.42698851964815	359.0353122955512	0.6083237759030453	n/a	n/a	n/a	n/a
324.62158203125	0.2	664825	280	57	2	0	0	87	124	stimuli\Videos_short_600ms_horflip\40.repeated_push_with_finger_short_horflip_short_600ms.mp4	40.repeated_push_with_finger_short_horflip_short_600ms.mp4	359.2269739745643	359.8353030289254	0.6083290543610929	n/a	n/a	n/a	n/a
325.42138671875	0.2	666463	281	57	2	0	0	88	300	stimuli\Videos_short_600ms_vertflip\37.single_stab_with_nail_file_short_vertflip_short_600ms.mp4	37.single_stab_with_nail_file_short_vertflip_short_600ms.mp4	360.02696470793853	360.6352987475102	0.6083340395716732	n/a	n/a	n/a	n/a
326.22119140625	0.2	668101	282	57	2	0	1	89	381	stimuli\Targets_short_600ms_vertflip\finger-tap_short_horvertflip_short_600ms.mp4	finger-tap_short_horvertflip_short_600ms.mp4	360.82696511848553	361.4352578101379	0.608292691652423	n/a	n/a	n/a	n/a
327.021484375	0.2	669740	283	57	2	0	0	90	353	stimuli\Videos_short_600ms_vertflip\85.touch_top_to_bottom_with_fabric_short_vertflip_short_600ms.mp4	85.touch_top_to_bottom_with_fabric_short_vertflip_short_600ms.mp4	361.6269579045929	362.23524766376977	0.6082897591768415	n/a	n/a	n/a	n/a
327.8212890625	0.2	671378	284	57	2	0	0	91	254	stimuli\Videos_short_600ms_horvertflip\77.tapping_with_all_fingers_short_horvertflip_short_600ms.mp4	77.tapping_with_all_fingers_short_horvertflip_short_600ms.mp4	362.42693632156625	363.0352381038956	0.608301782329363	n/a	n/a	n/a	n/a
328.62109375	0.2	673016	285	57	2	0	0	92	180	stimuli\Videos_short_600ms_horvertflip\1.repeated_touch_with_finger_fast_short_horvertflip_short_600ms.mp4	1.repeated_touch_with_finger_fast_short_horvertflip_short_600ms.mp4	363.226926761693	363.83522971701314	0.6083029553201413	n/a	n/a	n/a	n/a
329.42138671875	0.2	674655	286	57	2	0	0	93	337	stimuli\Videos_short_600ms_vertflip\70.(long)stroke_with_finger_all_over_the_hand_short_vertflip_short_600ms.mp4	70.(long)stroke_with_finger_all_over_the_hand_short_vertflip_short_600ms.mp4	364.0269174950672	364.6352377519988	0.60832025693162	n/a	n/a	n/a	n/a
330.22119140625	0.2	676293	287	57	2	0	0	94	130	stimuli\Videos_short_600ms_horflip\46.scratching_top_to_bottom_with_finger_nails_short_horflip_short_600ms.mp4	46.scratching_top_to_bottom_with_finger_nails_short_horflip_short_600ms.mp4	364.8269064689557	365.43523904228823	0.6083325733325182	5.0	5.0	4.21603759669506	1.0
368.25341796875	0.2	754183	288	57	3	0	0	0	59	stimuli\Videos_short_600ms\63.stroke_top_to_bottom_with_screwdriver_short_short_600ms.mp4	63.stroke_top_to_bottom_with_screwdriver_short_short_600ms.mp4	402.8597721993601	403.4680921630443	0.6083199636841528	n/a	n/a	n/a	n/a
369.05322265625	0.2	755821	289	57	3	0	0	1	197	stimuli\Videos_short_600ms_horvertflip\25.single_touch_with_stanley_knife_short_horvertflip_short_600ms.mp4	25.single_touch_with_stanley_knife_short_horvertflip_short_600ms.mp4	403.65973800668417	404.2680972655535	0.6083592588693136	n/a	n/a	n/a	n/a
369.85302734375	0.2	757459	290	57	3	0	0	2	315	stimuli\Videos_short_600ms_vertflip\50.single_(long)hard_push_with_thumb_short_vertflip_short_600ms.mp4	50.single_(long)hard_push_with_thumb_short_vertflip_short_600ms.mp4	404.45974985388966	405.0680706973162	0.6083208434265543	n/a	n/a	n/a	n/a
370.6533203125	0.2	759098	291	57	3	0	0	3	155	stimuli\Videos_short_600ms_horflip\69.stroke_with_soft_sock_short_horflip_short_600ms.mp4	69.stroke_with_soft_sock_short_horflip_short_600ms.mp4	405.2597402940164	405.8680634834245	0.6083231894081109	n/a	n/a	n/a	n/a
371.453125	0.2	760736	292	57	3	0	0	4	330	stimuli\Videos_short_600ms_vertflip\64.repeated_touch_with_screwdriver_short_vertflip_short_600ms.mp4	64.repeated_touch_with_screwdriver_short_vertflip_short_600ms.mp4	406.0597301476473	406.6680527505605	0.6083226029131765	n/a	n/a	n/a	n/a
372.25341796875	0.2	762375	293	57	3	0	0	5	355	stimuli\Videos_short_600ms_vertflip\87.single_stroke_top_to_bottom_with_plastic_brush_short_vertflip_short_600ms.mp4	87.single_stroke_top_to_bottom_with_plastic_brush_short_vertflip_short_600ms.mp4	406.8597200012782	407.4680426041914	0.6083226029131765	n/a	n/a	n/a	n/a
373.05322265625	0.2	764013	294	57	3	0	0	6	307	stimuli\Videos_short_600ms_vertflip\43.touch_top_to_bottom_with_sharp_wooden_stick_short_vertflip_short_600ms.mp4	43.touch_top_to_bottom_with_sharp_wooden_stick_short_vertflip_short_600ms.mp4	407.6597139603773	408.2680324578232	0.6083184974459073	n/a	n/a	n/a	n/a
373.85302734375	0.2	765651	295	57	3	0	0	7	15	stimuli\Videos_short_600ms\23.single_push_with_a_spoon_short_short_600ms.mp4	23.single_push_with_a_spoon_short_short_600ms.mp4	408.4596739027483	409.0680228979499	0.6083489952015952	n/a	n/a	n/a	n/a
374.6533203125	0.2	767290	296	57	3	0	0	8	187	stimuli\Videos_short_600ms_horvertflip\16.repeated_touch_with_plastic_brush_short_horvertflip_short_600ms.mp4	16.repeated_touch_with_plastic_brush_short_horvertflip_short_600ms.mp4	409.2596872161912	409.8680139245717	0.6083267083804458	n/a	n/a	n/a	n/a
375.453125	0.2	768928	297	57	3	0	0	9	283	stimuli\Videos_short_600ms_vertflip\21.repeated_touch_with_metal_chopstick_short_vertflip_short_600ms.mp4	21.repeated_touch_with_metal_chopstick_short_vertflip_short_600ms.mp4	410.0596550762484	410.6680023119643	0.6083472357158826	n/a	n/a	n/a	n/a
376.2529296875	0.2	770566	298	57	3	0	0	10	350	stimuli\Videos_short_600ms_vertflip\82.repeated_touch_with_cotton_bud_short_vertflip_short_600ms.mp4	82.repeated_touch_with_cotton_bud_short_vertflip_short_600ms.mp4	410.8596716154161	411.4679915791002	0.6083199636841528	n/a	n/a	n/a	n/a
377.05322265625	0.2	772205	299	57	3	0	0	11	352	stimuli\Videos_short_600ms_vertflip\84.single_touch_with_cotton_bud_short_vertflip_short_600ms.mp4	84.single_touch_with_cotton_bud_short_vertflip_short_600ms.mp4	411.6596611757995	412.26796735684457	0.608306181045009	n/a	n/a	n/a	n/a
377.85302734375	0.2	773843	300	57	3	0	0	12	56	stimuli\Videos_short_600ms\60.single_push_with_tip_of_pencil_short_short_600ms.mp4	60.single_push_with_tip_of_pencil_short_short_600ms.mp4	412.45965102943137	413.0679577969713	0.6083067675399434	n/a	n/a	n/a	n/a
378.65283203125	0.2	775481	301	57	3	0	0	13	191	stimuli\Videos_short_600ms_horvertflip\2.single_touch_with_finger_short_horvertflip_short_600ms.mp4	2.single_touch_with_finger_short_horvertflip_short_600ms.mp4	413.2596405898148	413.86793973291606	0.6082991431012488	n/a	n/a	n/a	n/a
379.453125	0.2	777120	302	57	3	0	0	14	57	stimuli\Videos_short_600ms\61.single_hit_with_rolling_pin_short_short_600ms.mp4	61.single_hit_with_rolling_pin_short_short_600ms.mp4	414.0596316164365	414.6679301730428	0.6082985566063144	n/a	n/a	n/a	n/a
380.2529296875	0.2	778758	303	57	3	0	0	15	351	stimuli\Videos_short_600ms_vertflip\83.single_stroke_top_to_bottom_with_cotton_bud_short_vertflip_short_600ms.mp4	83.single_stroke_top_to_bottom_with_cotton_bud_short_vertflip_short_600ms.mp4	414.8596226430591	415.4679200266737	0.6082973836146266	n/a	n/a	n/a	n/a
381.052734375	0.2	780396	304	57	3	0	0	16	48	stimuli\Videos_short_600ms\53.touch_top_to_bottom_with_knife_short_short_600ms.mp4	53.touch_top_to_bottom_with_knife_short_short_600ms.mp4	415.65961103045174	416.2679356860981	0.6083246556463564	n/a	n/a	n/a	n/a
381.85302734375	0.2	782035	305	57	3	0	0	17	9	stimuli\Videos_short_600ms\18.single_stroke_from_top_to_bottom_with_rolling_pin_short_short_600ms.mp4	18.single_stroke_from_top_to_bottom_with_rolling_pin_short_short_600ms.mp4	416.4596002975877	417.0679264194723	0.6083261218846019	n/a	n/a	n/a	n/a
382.65283203125	0.2	783673	306	57	3	0	0	18	25	stimuli\Videos_short_600ms\32.single_(long)pinch_with_fingers_short_short_600ms.mp4	32.single_(long)pinch_with_fingers_short_short_600ms.mp4	417.25959103096193	417.8679250705336	0.6083340395716732	n/a	n/a	n/a	n/a
383.45263671875	0.2	785311	307	57	3	0	0	19	142	stimuli\Videos_short_600ms_horflip\57.single_touch_with_nail_file_short_horflip_short_600ms.mp4	57.single_touch_with_nail_file_short_horflip_short_600ms.mp4	418.059582350832	418.6679029010111	0.6083205501790871	n/a	n/a	n/a	n/a
384.2529296875	0.2	786950	308	57	3	0	0	20	211	stimuli\Videos_short_600ms_horvertflip\38.double_slap_with_pencil_short_horvertflip_short_600ms.mp4	38.double_slap_with_pencil_short_horvertflip_short_600ms.mp4	418.8595695652338	419.4679041913005	0.6083346260666076	n/a	n/a	n/a	n/a
385.052734375	0.2	788588	309	57	3	0	0	21	235	stimuli\Videos_short_600ms_horvertflip\6.single_touch_with_flat_hand_short_horvertflip_short_600ms.mp4	6.single_touch_with_flat_hand_short_horvertflip_short_600ms.mp4	419.65956176484633	420.267881435283	0.6083196704366856	n/a	n/a	n/a	n/a
385.8525390625	0.2	790226	310	57	3	0	0	22	246	stimuli\Videos_short_600ms_horvertflip\7.repeated_touch_with_hairbrush_short_horvertflip_short_600ms.mp4	7.repeated_touch_with_hairbrush_short_horvertflip_short_600ms.mp4	420.4595510319823	421.06787099566645	0.6083199636841528	n/a	n/a	n/a	n/a
386.65283203125	0.2	791865	311	57	3	0	0	23	50	stimuli\Videos_short_600ms\55.touch_top_to_bottom_with_nail_file_short_short_600ms.mp4	55.touch_top_to_bottom_with_nail_file_short_short_600ms.mp4	421.25954059236574	421.86786290203145	0.6083223096657093	n/a	n/a	n/a	n/a
387.45263671875	0.2	793503	312	57	3	0	0	24	156	stimuli\Videos_short_600ms_horflip\7.repeated_touch_with_hairbrush_short_horflip_short_600ms.mp4	7.repeated_touch_with_hairbrush_short_horflip_short_600ms.mp4	422.0595330852266	422.6678518759199	0.6083187906933745	n/a	n/a	n/a	n/a
388.25244140625	0.2	795141	313	57	3	0	1	25	369	stimuli\Targets_short_600ms_horflip\finger-tap_short_horflip_short_600ms.mp4	finger-tap_short_horflip_short_600ms.mp4	422.85955167712746	423.46784172955086	0.6082900524233992	n/a	n/a	n/a	n/a
389.052734375	0.2	796780	314	57	3	0	0	26	189	stimuli\Videos_short_600ms_horvertflip\18.single_stroke_from_top_to_bottom_with_rolling_pin_short_horvertflip_short_600ms.mp4	18.single_stroke_from_top_to_bottom_with_rolling_pin_short_horvertflip_short_600ms.mp4	423.6594843474668	424.2678321696776	0.608347822210817	n/a	n/a	n/a	n/a
389.8525390625	0.2	798418	315	57	3	0	0	27	294	stimuli\Videos_short_600ms_vertflip\31.hand_grabbing_wrist_short_vertflip_short_600ms.mp4	31.hand_grabbing_wrist_short_vertflip_short_600ms.mp4	424.459486224252	425.0678217300619	0.6083355058099187	n/a	n/a	n/a	n/a
390.65234375	0.2	800056	316	57	3	0	0	28	339	stimuli\Videos_short_600ms_vertflip\72.(short)stroke_with_finger_all_over_the_hand_short_vertflip_short_600ms.mp4	72.(short)stroke_with_finger_all_over_the_hand_short_vertflip_short_600ms.mp4	425.2594869280465	425.86781070394954	0.6083237759030453	n/a	n/a	n/a	n/a
391.45263671875	0.2	801695	317	57	3	0	0	29	341	stimuli\Videos_short_600ms_vertflip\74.fingers_walking_from_top_to_bottom_short_vertflip_short_600ms.mp4	74.fingers_walking_from_top_to_bottom_short_vertflip_short_600ms.mp4	426.05948206013545	426.66780173057214	0.6083196704366856	n/a	n/a	n/a	n/a
392.25244140625	0.2	803333	318	57	3	0	0	30	177	stimuli\Videos_short_600ms_horflip\89.single_touch_with_plastic_brush_short_horflip_short_600ms.mp4	89.single_touch_with_plastic_brush_short_horflip_short_600ms.mp4	426.8594716205189	427.4678003816325	0.6083287611136257	n/a	n/a	n/a	n/a
393.052734375	0.2	804972	319	57	3	0	0	31	83	stimuli\Videos_short_600ms\85.touch_top_to_bottom_with_fabric_short_short_600ms.mp4	85.touch_top_to_bottom_with_fabric_short_short_600ms.mp4	427.6594620606456	428.2677820243298	0.6083199636841528	n/a	n/a	n/a	n/a
393.8525390625	0.2	806610	320	57	3	0	0	32	217	stimuli\Videos_short_600ms_horvertflip\43.touch_top_to_bottom_with_sharp_wooden_stick_short_horvertflip_short_600ms.mp4	43.touch_top_to_bottom_with_sharp_wooden_stick_short_horvertflip_short_600ms.mp4	428.4594618846968	429.0677707049699	0.6083088202731233	n/a	n/a	n/a	n/a
394.65234375	0.2	808248	321	57	3	0	0	33	111	stimuli\Videos_short_600ms_horflip\29.single_pinch_with_tweezers_short_horflip_short_600ms.mp4	29.single_pinch_with_tweezers_short_horflip_short_600ms.mp4	429.25944147466	429.8677458962193	0.6083044215592963	n/a	n/a	n/a	n/a
395.45263671875	0.2	809887	322	57	3	0	0	34	241	stimuli\Videos_short_600ms_horvertflip\65.stroke_top_to_bottom_with_stanley_knife_short_horvertflip_short_600ms.mp4	65.stroke_top_to_bottom_with_stanley_knife_short_horvertflip_short_600ms.mp4	430.05943162153926	430.66773017814467	0.6082985566054049	n/a	n/a	n/a	n/a
396.25244140625	0.2	811525	323	57	3	0	0	35	334	stimuli\Videos_short_600ms_vertflip\68.stroke_top_to_bottom_with_shawl_short_vertflip_short_600ms.mp4	68.stroke_top_to_bottom_with_shawl_short_vertflip_short_600ms.mp4	430.8594211819227	431.4677039031558	0.6082827212330812	n/a	n/a	n/a	n/a
397.05224609375	0.2	813163	324	57	3	0	0	36	236	stimuli\Videos_short_600ms_horvertflip\60.single_push_with_tip_of_pencil_short_horvertflip_short_600ms.mp4	60.single_push_with_tip_of_pencil_short_horvertflip_short_600ms.mp4	431.65941074230705	432.2677409696589	0.6083302273518711	n/a	n/a	n/a	n/a
397.8525390625	0.2	814802	325	57	3	0	0	37	239	stimuli\Videos_short_600ms_horvertflip\63.stroke_top_to_bottom_with_screwdriver_short_horvertflip_short_600ms.mp4	63.stroke_top_to_bottom_with_screwdriver_short_horvertflip_short_600ms.mp4	432.4594020621762	433.06772671782255	0.6083246556463564	n/a	n/a	n/a	n/a
398.65234375	0.2	816440	326	57	3	0	0	38	65	stimuli\Videos_short_600ms\69.stroke_with_soft_sock_short_short_600ms.mp4	69.stroke_with_soft_sock_short_short_600ms.mp4	433.2593916225596	433.8677109997489	0.6083193771892184	n/a	n/a	n/a	n/a
399.4521484375	0.2	818078	327	57	3	0	0	39	12	stimuli\Videos_short_600ms\20.single_touch_with_screwdriver_short_short_600ms.mp4	20.single_touch_with_screwdriver_short_short_600ms.mp4	434.0593835289246	434.6677117035433	0.6083281746186913	n/a	n/a	n/a	n/a
400.25244140625	0.2	819717	328	57	3	0	0	40	129	stimuli\Videos_short_600ms_horflip\45.scratching_with_finger_nails_short_horflip_short_600ms.mp4	45.scratching_with_finger_nails_short_horflip_short_600ms.mp4	434.8593701568316	435.4676912935065	0.608321136674931	n/a	n/a	n/a	n/a
401.05224609375	0.2	821355	329	57	3	0	0	41	165	stimuli\Videos_short_600ms_horflip\78.single_stroke_top_to_bottom_with_soft_brush_short_horflip_short_600ms.mp4	78.single_stroke_top_to_bottom_with_soft_brush_short_horflip_short_600ms.mp4	435.65936030371086	436.2676849593572	0.6083246556463564	n/a	n/a	n/a	n/a
401.85205078125	0.2	822993	330	57	3	0	1	42	382	stimuli\Targets_short_600ms_vertflip\hand-pinch_short_horvertflip_short_600ms.mp4	hand-pinch_short_horvertflip_short_600ms.mp4	436.45935221007585	437.06767657247474	0.6083243623988892	n/a	n/a	n/a	n/a
402.65234375	0.2	824632	331	57	3	0	0	43	118	stimuli\Videos_short_600ms_horflip\35.single_punch_with_hand_short_horflip_short_600ms.mp4	35.single_punch_with_hand_short_horflip_short_600ms.mp4	437.2593370784971	437.8676658396107	0.6083287611136257	n/a	n/a	n/a	n/a
403.4521484375	0.2	826270	332	57	3	0	0	44	163	stimuli\Videos_short_600ms_horflip\76.tickle_with_fingers_from_top_to_bottom_short_horflip_short_600ms.mp4	76.tickle_with_fingers_from_top_to_bottom_short_horflip_short_600ms.mp4	438.05930669804	438.6676548134992	0.6083481154591937	n/a	n/a	n/a	n/a
404.251953125	0.2	827908	333	57	3	0	0	45	252	stimuli\Videos_short_600ms_horvertflip\75.(long)stroke_with_fingers_all_over_the_hand_short_horvertflip_short_600ms.mp4	75.(long)stroke_with_fingers_all_over_the_hand_short_horvertflip_short_600ms.mp4	438.8592962584244	439.4676399751679	0.6083437167435477	n/a	n/a	n/a	n/a
405.05224609375	0.2	829547	334	57	3	0	1	46	363	stimuli\Targets_short_600ms\finger-tap_short_short_600ms.mp4	finger-tap_short_short_600ms.mp4	439.65928552556034	440.2676327612753	0.6083472357149731	n/a	n/a	n/a	n/a
405.85205078125	0.2	831185	335	57	3	0	0	47	66	stimuli\Videos_short_600ms\7.repeated_touch_with_hairbrush_short_short_600ms.mp4	7.repeated_touch_with_hairbrush_short_short_600ms.mp4	440.4592759656862	441.06761968243063	0.6083437167444572	n/a	n/a	n/a	n/a
406.65185546875	0.2	832823	336	57	3	0	0	48	291	stimuli\Videos_short_600ms_vertflip\29.single_pinch_with_tweezers_short_vertflip_short_600ms.mp4	29.single_pinch_with_tweezers_short_vertflip_short_600ms.mp4	441.2592916251115	441.8676112955473	0.6083196704357761	n/a	n/a	n/a	n/a
407.4521484375	0.2	834462	337	57	3	0	0	49	340	stimuli\Videos_short_600ms_vertflip\73.single_stroke_with_flat_hand_short_vertflip_short_600ms.mp4	73.single_stroke_with_flat_hand_short_vertflip_short_600ms.mp4	442.05929320864834	442.66760320191224	0.6083099932639016	n/a	n/a	n/a	n/a
408.251953125	0.2	836100	338	57	3	0	0	50	240	stimuli\Videos_short_600ms_horvertflip\64.repeated_touch_with_screwdriver_short_horvertflip_short_600ms.mp4	64.repeated_touch_with_screwdriver_short_horvertflip_short_600ms.mp4	442.8592296912075	443.4675971610113	0.6083674698038521	n/a	n/a	n/a	n/a
409.0517578125	0.2	837738	339	57	3	0	0	51	175	stimuli\Videos_short_600ms_horflip\87.single_stroke_top_to_bottom_with_plastic_brush_short_horflip_short_600ms.mp4	87.single_stroke_top_to_bottom_with_plastic_brush_short_horflip_short_600ms.mp4	443.6592688104438	444.267588187633	0.6083193771892184	n/a	n/a	n/a	n/a
409.85205078125	0.2	839377	340	57	3	0	0	52	327	stimuli\Videos_short_600ms_vertflip\61.single_hit_with_rolling_pin_short_vertflip_short_600ms.mp4	61.single_hit_with_rolling_pin_short_vertflip_short_600ms.mp4	444.45925074638853	445.0675712965686	0.6083205501799966	n/a	n/a	n/a	n/a
410.65185546875	0.2	841015	341	57	3	0	0	53	311	stimuli\Videos_short_600ms_vertflip\47.(long)scratching_with_finger_nails_short_vertflip_short_600ms.mp4	47.(long)scratching_with_finger_nails_short_vertflip_short_600ms.mp4	445.25924060002035	445.8675403296166	0.6082997295961832	n/a	n/a	n/a	n/a
411.45166015625	0.2	842653	342	57	3	0	0	54	190	stimuli\Videos_short_600ms_horvertflip\19.single_touch_with_rolling_pin_short_horvertflip_short_600ms.mp4	19.single_touch_with_rolling_pin_short_horvertflip_short_600ms.mp4	446.0592310401462	446.66753868742944	0.6083076472832545	n/a	n/a	n/a	n/a
412.251953125	0.2	844292	343	57	3	0	0	55	310	stimuli\Videos_short_600ms_vertflip\46.scratching_top_to_bottom_with_finger_nails_short_vertflip_short_600ms.mp4	46.scratching_top_to_bottom_with_finger_nails_short_vertflip_short_600ms.mp4	446.8592188410439	447.4675443764336	0.6083255353896675	n/a	n/a	n/a	n/a
413.0517578125	0.2	845930	344	57	3	0	0	56	3	stimuli\Videos_short_600ms\12.repeated_touch_with_nail_file_short_short_600ms.mp4	12.repeated_touch_with_nail_file_short_short_600ms.mp4	447.6592125068946	448.2675406815133	0.6083281746186913	n/a	n/a	n/a	n/a
413.85205078125	0.2	847569	345	57	3	0	0	57	133	stimuli\Videos_short_600ms_horflip\49.repeated_slap_with_hand_short_horflip_short_600ms.mp4	49.repeated_slap_with_hand_short_horflip_short_600ms.mp4	448.4592000145449	449.06750003738944	0.6083000228445599	n/a	n/a	n/a	n/a
414.65185546875	0.2	849207	346	57	3	0	0	58	138	stimuli\Videos_short_600ms_horflip\53.touch_top_to_bottom_with_knife_short_horflip_short_600ms.mp4	53.touch_top_to_bottom_with_knife_short_horflip_short_600ms.mp4	449.2591966128721	449.8675165765562	0.6083199636841528	n/a	n/a	n/a	n/a
415.45166015625	0.2	850845	347	57	3	0	0	59	170	stimuli\Videos_short_600ms_horflip\82.repeated_touch_with_cotton_bud_short_horflip_short_600ms.mp4	82.repeated_touch_with_cotton_bud_short_horflip_short_600ms.mp4	450.0591808947984	450.66750173822584	0.6083208434274638	n/a	n/a	n/a	n/a
416.251953125	0.2	852484	348	57	3	0	0	60	290	stimuli\Videos_short_600ms_vertflip\28.single_injection_with_sharp_needle_short_vertflip_short_600ms.mp4	28.single_injection_with_sharp_needle_short_vertflip_short_600ms.mp4	450.8591707484293	451.46749071211343	0.6083199636841528	n/a	n/a	n/a	n/a
417.0517578125	0.2	854122	349	57	3	0	0	61	16	stimuli\Videos_short_600ms\24.single_stroke_top_to_bottom_with_a_spoon_short_short_600ms.mp4	24.single_stroke_top_to_bottom_with_a_spoon_short_short_600ms.mp4	451.659158549327	452.26748525770745	0.6083267083804458	n/a	n/a	n/a	n/a
417.8515625	0.2	855760	350	57	3	0	0	62	69	stimuli\Videos_short_600ms\72.(short)stroke_with_finger_all_over_the_hand_short_short_600ms.mp4	72.(short)stroke_with_finger_all_over_the_hand_short_short_600ms.mp4	452.459153094921	453.06749417243645	0.6083410775154334	n/a	n/a	n/a	n/a
418.65185546875	0.2	857399	351	57	3	0	0	63	284	stimuli\Videos_short_600ms_vertflip\22.single_touch_with_metal_chopstick_short_vertflip_short_600ms.mp4	22.single_touch_with_metal_chopstick_short_vertflip_short_600ms.mp4	453.2591467607717	453.8674652582176	0.6083184974459073	n/a	n/a	n/a	n/a
419.45166015625	0.2	859037	352	57	3	0	0	64	301	stimuli\Videos_short_600ms_vertflip\38.double_slap_with_pencil_short_vertflip_short_600ms.mp4	38.double_slap_with_pencil_short_vertflip_short_600ms.mp4	454.0591348549169	454.6674539388586	0.6083190839417512	n/a	n/a	n/a	n/a
420.25146484375	0.2	860675	353	57	3	0	0	65	214	stimuli\Videos_short_600ms_horvertflip\40.repeated_push_with_finger_short_horvertflip_short_600ms.mp4	40.repeated_push_with_finger_short_horvertflip_short_600ms.mp4	454.85911209889946	455.46744613847113	0.6083340395716732	n/a	n/a	n/a	n/a
421.0517578125	0.2	862314	354	57	3	0	0	66	216	stimuli\Videos_short_600ms_horvertflip\42.single_slap_with_plastic_whisk_short_horvertflip_short_600ms.mp4	42.single_slap_with_plastic_whisk_short_horvertflip_short_600ms.mp4	455.6591174946562	456.2674310068924	0.6083135122362364	n/a	n/a	n/a	n/a
421.8515625	0.2	863952	355	57	3	0	0	67	45	stimuli\Videos_short_600ms\50.single_(long)hard_push_with_thumb_short_short_600ms.mp4	50.single_(long)hard_push_with_thumb_short_short_600ms.mp4	456.4591683437993	457.0674211537717	0.6082528099723277	n/a	n/a	n/a	n/a
422.6513671875	0.2	865590	356	57	3	0	0	68	335	stimuli\Videos_short_600ms_vertflip\69.stroke_with_soft_sock_short_vertflip_short_600ms.mp4	69.stroke_with_soft_sock_short_vertflip_short_600ms.mp4	457.25909250995664	457.8674115938975	0.6083190839408417	n/a	n/a	n/a	n/a
423.45166015625	0.2	867229	357	57	3	0	0	69	203	stimuli\Videos_short_600ms_horvertflip\30.finger_pulling_back_another_finger_short_horvertflip_short_600ms.mp4	30.finger_pulling_back_another_finger_short_horvertflip_short_600ms.mp4	458.0590899880271	458.6673853189086	0.6082953308814467	n/a	n/a	n/a	n/a
424.25146484375	0.2	868867	358	57	3	0	0	70	184	stimuli\Videos_short_600ms_horvertflip\13.single_touch_with_pen_short_horvertflip_short_600ms.mp4	13.single_touch_with_pen_short_horvertflip_short_600ms.mp4	458.85907896191475	459.4673707738248	0.6082918119100214	n/a	n/a	n/a	n/a
