onset	duration	onsetsample	eventnumber	subjectnr	sequencenumber	blocksequencenumber	istarget	presentationnumber	stimnumber	stim	stimname	time_stimon	time_stimoff	stimdur	cresp	resp	rt	correct
48.13671875	0.2	98584	0	35	0	0	0	0	139	stimuli\Videos_short_600ms_horflip\54.repeated_touch_with_knife_short_horflip_short_600ms.mp4	54.repeated_touch_with_knife_short_horflip_short_600ms.mp4	439.0941600952697	439.7024896872736	0.6083295920038836	n/a	n/a	n/a	n/a
48.9365234375	0.2	100222	1	35	0	0	0	1	221	stimuli\Videos_short_600ms_horvertflip\47.(long)scratching_with_finger_nails_short_horvertflip_short_600ms.mp4	47.(long)scratching_with_finger_nails_short_horvertflip_short_600ms.mp4	439.89414027184466	440.50246135971656	0.6083210878719001	n/a	n/a	n/a	n/a
49.736328125	0.2	101860	2	35	0	0	1	2	362	stimuli\Targets_short_600ms\chopstickwood-tap_short_short_600ms.mp4	chopstickwood-tap_short_short_600ms.mp4	440.6941248471089	441.3024494539318	0.6083246068228618	n/a	n/a	n/a	n/a
50.53662109375	0.2	103499	3	35	0	0	0	3	218	stimuli\Videos_short_600ms_horvertflip\44.pushing_top_to_bottom_with_finger_short_horvertflip_short_600ms.mp4	44.pushing_top_to_bottom_with_finger_short_horvertflip_short_600ms.mp4	441.49411235483194	442.1024381346392	0.6083257798072736	n/a	n/a	n/a	n/a
51.3447265625	0.2	105154	4	35	0	0	1	4	374	stimuli\Targets_short_600ms_horvertflip\chopstickwood-tap_short_vertflip_short_600ms.mp4	chopstickwood-tap_short_vertflip_short_600ms.mp4	442.30245092016185	442.91075206731057	0.6083011471487225	n/a	n/a	n/a	n/a
52.14501953125	0.2	106793	5	35	0	0	0	5	175	stimuli\Videos_short_600ms_horflip\87.single_stroke_top_to_bottom_with_plastic_brush_short_horflip_short_600ms.mp4	87.single_stroke_top_to_bottom_with_plastic_brush_short_horflip_short_600ms.mp4	443.10245191719787	443.71073400336127	0.6082820861633991	n/a	n/a	n/a	n/a
52.94482421875	0.2	108431	6	35	0	0	0	6	327	stimuli\Videos_short_600ms_vertflip\61.single_hit_with_rolling_pin_short_vertflip_short_600ms.mp4	61.single_hit_with_rolling_pin_short_vertflip_short_600ms.mp4	443.90240922059047	444.51069746491794	0.6082882443274684	n/a	n/a	n/a	n/a
53.74462890625	0.2	110069	7	35	0	0	0	7	22	stimuli\Videos_short_600ms\3.single_push_with_finger_short_short_600ms.mp4	3.single_push_with_finger_short_short_600ms.mp4	444.70238499847665	445.31070462011894	0.6083196216422948	n/a	n/a	n/a	n/a
54.544921875	0.2	111708	8	35	0	0	0	8	357	stimuli\Videos_short_600ms_vertflip\89.single_touch_with_plastic_brush_short_vertflip_short_600ms.mp4	89.single_touch_with_plastic_brush_short_vertflip_short_600ms.mp4	445.502372212954	446.11069769951473	0.608325486560716	n/a	n/a	n/a	n/a
55.3447265625	0.2	113346	9	35	0	0	0	9	289	stimuli\Videos_short_600ms_vertflip\27.single_push_with_a_plastic_whisk_short_vertflip_short_600ms.mp4	27.single_push_with_a_plastic_whisk_short_vertflip_short_600ms.mp4	446.30235502874257	446.91068755320566	0.6083325244630942	n/a	n/a	n/a	n/a
56.14453125	0.2	114984	10	35	0	0	0	10	24	stimuli\Videos_short_600ms\31.hand_grabbing_wrist_short_short_600ms.mp4	31.hand_grabbing_wrist_short_short_600ms.mp4	447.1030689066356	447.71067623391264	0.6076073272770373	n/a	n/a	n/a	n/a
56.94482421875	0.2	116623	11	35	0	0	0	11	243	stimuli\Videos_short_600ms_horvertflip\67.single_touch_with_sponge_short_horvertflip_short_600ms.mp4	67.single_touch_with_sponge_short_horvertflip_short_600ms.mp4	447.90234499973167	448.5106490793396	0.6083040796079331	n/a	n/a	n/a	n/a
57.74462890625	0.2	118261	12	35	0	0	0	12	114	stimuli\Videos_short_600ms_horflip\31.hand_grabbing_wrist_short_horflip_short_600ms.mp4	31.hand_grabbing_wrist_short_horflip_short_600ms.mp4	448.70231080725625	449.31063512083347	0.6083243135772136	n/a	n/a	n/a	n/a
58.54443359375	0.2	119899	13	35	0	0	0	13	116	stimuli\Videos_short_600ms_horflip\33.scratch_top_to_bottom_with_scissors_short_horflip_short_600ms.mp4	33.scratch_top_to_bottom_with_scissors_short_horflip_short_600ms.mp4	449.5031246820113	450.1106194028516	0.60749472084035	n/a	n/a	n/a	n/a
59.3447265625	0.2	121538	14	35	0	0	0	14	217	stimuli\Videos_short_600ms_horvertflip\43.touch_top_to_bottom_with_sharp_wooden_stick_short_horvertflip_short_600ms.mp4	43.touch_top_to_bottom_with_sharp_wooden_stick_short_horvertflip_short_600ms.mp4	450.302323064936	450.9106051510994	0.6082820861633991	n/a	n/a	n/a	n/a
60.14453125	0.2	123176	15	35	0	0	0	15	227	stimuli\Videos_short_600ms_horvertflip\52.touch_top_to_bottom_with_hammer_short_horvertflip_short_600ms.mp4	52.touch_top_to_bottom_with_hammer_short_horvertflip_short_600ms.mp4	451.10226922498305	451.7105923655768	0.6083231405937113	n/a	n/a	n/a	n/a
60.9443359375	0.2	124814	16	35	0	0	0	16	178	stimuli\Videos_short_600ms_horflip\9.single_touch_with_hammer_short_horflip_short_600ms.mp4	9.single_touch_with_hammer_short_horflip_short_600ms.mp4	451.902255559723	452.51057694084056	0.6083213811175483	n/a	n/a	n/a	n/a
61.74462890625	0.2	126453	17	35	0	0	0	17	234	stimuli\Videos_short_600ms_horvertflip\59.single_push_with_long_side_pencil_short_horvertflip_short_600ms.mp4	59.single_push_with_long_side_pencil_short_horvertflip_short_600ms.mp4	452.70223778901936	453.3105612228587	0.6083234338393595	n/a	n/a	n/a	n/a
62.54443359375	0.2	128091	18	35	0	0	0	18	242	stimuli\Videos_short_600ms_horvertflip\66.stroke_top_to_bottom_with_sponge_short_horvertflip_short_600ms.mp4	66.stroke_top_to_bottom_with_sponge_short_horvertflip_short_600ms.mp4	453.5022229507754	454.1105460913691	0.6083231405937113	n/a	n/a	n/a	n/a
63.34423828125	0.2	129729	19	35	0	0	0	19	68	stimuli\Videos_short_600ms\71.single_stroke_with_finger_top_to_bottom_short_short_600ms.mp4	71.single_stroke_with_finger_top_to_bottom_short_short_600ms.mp4	454.3021987286615	454.91053125312465	0.6083325244630942	n/a	n/a	n/a	n/a
64.14453125	0.2	131368	20	35	0	0	0	20	105	stimuli\Videos_short_600ms_horflip\23.single_push_with_a_spoon_short_horflip_short_600ms.mp4	23.single_push_with_a_spoon_short_horflip_short_600ms.mp4	455.1021715740885	455.7105170013724	0.6083454272838935	n/a	n/a	n/a	n/a
64.9443359375	0.2	133006	21	35	0	0	0	21	326	stimuli\Videos_short_600ms_vertflip\60.single_push_with_tip_of_pencil_short_vertflip_short_600ms.mp4	60.single_push_with_tip_of_pencil_short_vertflip_short_600ms.mp4	455.9021816617483	456.5105077348012	0.6083260730529219	n/a	n/a	n/a	n/a
65.744140625	0.2	134644	22	35	0	0	0	22	237	stimuli\Videos_short_600ms_horvertflip\61.single_hit_with_rolling_pin_short_horvertflip_short_600ms.mp4	61.single_hit_with_rolling_pin_short_horvertflip_short_600ms.mp4	456.70217386140666	457.3104838059335	0.608309944526809	n/a	n/a	n/a	n/a
66.54443359375	0.2	136283	23	35	0	0	0	23	235	stimuli\Videos_short_600ms_horvertflip\6.single_touch_with_flat_hand_short_horvertflip_short_600ms.mp4	6.single_touch_with_flat_hand_short_horvertflip_short_600ms.mp4	457.502161075884	458.1104543053925	0.6082932295084902	n/a	n/a	n/a	n/a
67.34423828125	0.2	137921	24	35	0	0	0	24	45	stimuli\Videos_short_600ms\50.single_(long)hard_push_with_thumb_short_short_600ms.mp4	50.single_(long)hard_push_with_thumb_short_short_600ms.mp4	458.30213626727846	458.9104579416421	0.6083216743636513	n/a	n/a	n/a	n/a
68.14404296875	0.2	139559	25	35	0	0	0	25	110	stimuli\Videos_short_600ms_horflip\28.single_injection_with_sharp_needle_short_horflip_short_600ms.mp4	28.single_injection_with_sharp_needle_short_horflip_short_600ms.mp4	459.1021217222801	459.7104433966442	0.608321674364106	n/a	n/a	n/a	n/a
68.9443359375	0.2	141198	26	35	0	0	0	26	5	stimuli\Videos_short_600ms\14.repeated_touch_with_pencil_short_short_600ms.mp4	14.repeated_touch_with_pencil_short_short_600ms.mp4	459.90210835026573	460.5104247462027	0.6083163959369813	n/a	n/a	n/a	n/a
69.744140625	0.2	142836	27	35	0	0	0	27	279	stimuli\Videos_short_600ms_vertflip\18.single_stroke_from_top_to_bottom_with_rolling_pin_short_vertflip_short_600ms.mp4	18.single_stroke_from_top_to_bottom_with_rolling_pin_short_vertflip_short_600ms.mp4	460.7020926322839	461.310413133664	0.6083205013801489	n/a	n/a	n/a	n/a
70.5439453125	0.2	144474	28	35	0	0	0	28	228	stimuli\Videos_short_600ms_horvertflip\53.touch_top_to_bottom_with_knife_short_horvertflip_short_600ms.mp4	53.touch_top_to_bottom_with_knife_short_horvertflip_short_600ms.mp4	461.5020792602695	462.1104056265681	0.6083263662985701	n/a	n/a	n/a	n/a
71.34423828125	0.2	146113	29	35	0	0	0	29	253	stimuli\Videos_short_600ms_horvertflip\76.tickle_with_fingers_from_top_to_bottom_short_horvertflip_short_600ms.mp4	76.tickle_with_fingers_from_top_to_bottom_short_horvertflip_short_600ms.mp4	462.3020629557959	462.9103957735051	0.6083328177091971	n/a	n/a	n/a	n/a
72.14404296875	0.2	147751	30	35	0	0	0	30	285	stimuli\Videos_short_600ms_vertflip\23.single_push_with_a_spoon_short_vertflip_short_600ms.mp4	23.single_push_with_a_spoon_short_vertflip_short_600ms.mp4	463.1020478243058	463.7103689121777	0.6083210878719001	n/a	n/a	n/a	n/a
72.9443359375	0.2	149390	31	35	0	0	0	31	170	stimuli\Videos_short_600ms_horflip\82.repeated_touch_with_cotton_bud_short_horflip_short_600ms.mp4	82.repeated_touch_with_cotton_bud_short_horflip_short_600ms.mp4	463.9020315198318	464.5103675632463	0.6083360434145106	n/a	n/a	n/a	n/a
73.744140625	0.2	151028	32	35	0	0	0	32	92	stimuli\Videos_short_600ms_horflip\11.single_touch_with_lighter_short_horflip_short_600ms.mp4	11.single_touch_with_lighter_short_horflip_short_600ms.mp4	464.70201726807954	465.3103395289354	0.6083222608558572	n/a	n/a	n/a	n/a
74.5439453125	0.2	152666	33	35	0	0	0	33	336	stimuli\Videos_short_600ms_vertflip\7.repeated_touch_with_hairbrush_short_vertflip_short_600ms.mp4	7.repeated_touch_with_hairbrush_short_vertflip_short_600ms.mp4	465.5020024298355	466.110326156921	0.6083237270854625	n/a	n/a	n/a	n/a
75.34423828125	0.2	154305	34	35	0	0	0	34	280	stimuli\Videos_short_600ms_vertflip\19.single_touch_with_rolling_pin_short_vertflip_short_600ms.mp4	19.single_touch_with_rolling_pin_short_vertflip_short_600ms.mp4	466.3019884713294	466.9103095592013	0.6083210878719001	n/a	n/a	n/a	n/a
76.14404296875	0.2	155943	35	35	0	0	0	35	335	stimuli\Videos_short_600ms_vertflip\69.stroke_with_soft_sock_short_vertflip_short_600ms.mp4	69.stroke_with_soft_sock_short_vertflip_short_600ms.mp4	467.10193521786823	467.7102967736787	0.6083615558104611	n/a	n/a	n/a	n/a
76.94384765625	0.2	157581	36	35	0	0	0	36	313	stimuli\Videos_short_600ms_vertflip\49.repeated_slap_with_hand_short_vertflip_short_600ms.mp4	49.repeated_slap_with_hand_short_vertflip_short_600ms.mp4	467.90191891339464	468.5102810556969	0.6083621423022123	n/a	n/a	n/a	n/a
77.744140625	0.2	159220	37	35	0	0	0	37	149	stimuli\Videos_short_600ms_horflip\63.stroke_top_to_bottom_with_screwdriver_short_horflip_short_600ms.mp4	63.stroke_top_to_bottom_with_screwdriver_short_horflip_short_600ms.mp4	468.70196829600945	469.3102706161417	0.6083023201322248	n/a	n/a	n/a	n/a
78.5439453125	0.2	160858	38	35	0	0	0	38	300	stimuli\Videos_short_600ms_vertflip\37.single_stab_with_nail_file_short_vertflip_short_600ms.mp4	37.single_stab_with_nail_file_short_vertflip_short_600ms.mp4	469.5019273588773	470.110254018422	0.608326659544673	n/a	n/a	n/a	n/a
79.34375	0.2	162496	39	35	0	0	0	39	238	stimuli\Videos_short_600ms_horvertflip\62.touch_top_to_bottom_with_scissors_short_horvertflip_short_600ms.mp4	62.touch_top_to_bottom_with_scissors_short_horvertflip_short_600ms.mp4	470.30192747617593	470.91023888693235	0.6083114107564143	n/a	n/a	n/a	n/a
80.14404296875	0.2	164135	40	35	0	0	0	40	20	stimuli\Videos_short_600ms\28.single_injection_with_sharp_needle_short_short_600ms.mp4	28.single_injection_with_sharp_needle_short_short_600ms.mp4	471.10190061484855	471.71022522167186	0.6083246068233166	n/a	n/a	n/a	n/a
80.94384765625	0.2	165773	41	35	0	0	0	41	310	stimuli\Videos_short_600ms_vertflip\46.scratching_top_to_bottom_with_finger_nails_short_vertflip_short_600ms.mp4	46.scratching_top_to_bottom_with_finger_nails_short_vertflip_short_600ms.mp4	471.90190894303305	472.5102051050012	0.6082961619681555	n/a	n/a	n/a	n/a
81.74365234375	0.2	167411	42	35	0	0	0	42	314	stimuli\Videos_short_600ms_vertflip\5.repeated_tap_with_finger_moving_from_top_to_bottom_short_vertflip_short_600ms.mp4	5.repeated_tap_with_finger_moving_from_top_to_bottom_short_vertflip_short_600ms.mp4	472.7018729910819	473.310194665446	0.608321674364106	n/a	n/a	n/a	n/a
82.5439453125	0.2	169050	43	35	0	0	0	43	226	stimuli\Videos_short_600ms_horvertflip\51.repeated_touch_with_hammer_short_horvertflip_short_600ms.mp4	51.repeated_touch_with_hammer_short_horvertflip_short_600ms.mp4	473.5018297079828	474.1101745487749	0.6083448407921423	n/a	n/a	n/a	n/a
83.34375	0.2	170688	44	35	0	0	0	44	199	stimuli\Videos_short_600ms_horvertflip\27.single_push_with_a_plastic_whisk_short_horvertflip_short_600ms.mp4	27.single_push_with_a_plastic_whisk_short_horvertflip_short_600ms.mp4	474.3018485930206	474.9101503266611	0.6083017336404737	n/a	n/a	n/a	n/a
84.1435546875	0.2	172326	45	35	0	0	0	45	14	stimuli\Videos_short_600ms\22.single_touch_with_metal_chopstick_short_short_600ms.mp4	22.single_touch_with_metal_chopstick_short_short_600ms.mp4	475.10182935608736	475.7101469250083	0.6083175689209384	n/a	n/a	n/a	n/a
84.94384765625	0.2	173965	46	35	0	0	0	46	276	stimuli\Videos_short_600ms_vertflip\15.single_stroke_top_to_bottom_with_a_plastic_whisk_short_vertflip_short_600ms.mp4	15.single_stroke_top_to_bottom_with_a_plastic_whisk_short_vertflip_short_600ms.mp4	475.9018136381055	476.5101317935182	0.6083181554126895	n/a	n/a	n/a	n/a
85.74365234375	0.2	175603	47	35	0	0	0	47	124	stimuli\Videos_short_600ms_horflip\40.repeated_push_with_finger_short_horflip_short_600ms.mp4	40.repeated_push_with_finger_short_horflip_short_600ms.mp4	476.7018005593373	477.31012487291446	0.6083243135772136	n/a	n/a	n/a	n/a
86.54345703125	0.2	177241	48	35	0	0	0	48	117	stimuli\Videos_short_600ms_horflip\34.repeated_punch_with_hand_short_horflip_short_600ms.mp4	34.repeated_punch_with_hand_short_horflip_short_600ms.mp4	477.5017845481093	478.11011648608064	0.608331937971343	n/a	n/a	n/a	n/a
87.34375	0.2	178880	49	35	0	0	0	49	101	stimuli\Videos_short_600ms_horflip\2.single_touch_with_finger_short_horflip_short_600ms.mp4	2.single_touch_with_finger_short_horflip_short_600ms.mp4	478.3017697098653	478.9100946099343	0.6083249000689648	n/a	n/a	n/a	n/a
88.1435546875	0.2	180518	50	35	0	0	0	50	351	stimuli\Videos_short_600ms_vertflip\83.single_stroke_top_to_bottom_with_cotton_bud_short_vertflip_short_600ms.mp4	83.single_stroke_top_to_bottom_with_cotton_bud_short_vertflip_short_600ms.mp4	479.1017557513592	479.7100882758223	0.6083325244630942	n/a	n/a	n/a	n/a
88.943359375	0.2	182156	51	35	0	0	0	51	46	stimuli\Videos_short_600ms\51.repeated_touch_with_hammer_short_short_600ms.mp4	51.repeated_touch_with_hammer_short_short_600ms.mp4	479.9017417928526	480.5100646402002	0.6083228473476083	n/a	n/a	n/a	n/a
89.74365234375	0.2	183795	52	35	0	0	0	52	71	stimuli\Videos_short_600ms\74.fingers_walking_from_top_to_bottom_short_short_600ms.mp4	74.fingers_walking_from_top_to_bottom_short_short_600ms.mp4	480.70170496116407	481.3100536141533	0.608348652989207	n/a	n/a	n/a	n/a
90.54345703125	0.2	185433	53	35	0	0	0	53	194	stimuli\Videos_short_600ms_horvertflip\22.single_touch_with_metal_chopstick_short_horvertflip_short_600ms.mp4	22.single_touch_with_metal_chopstick_short_horvertflip_short_600ms.mp4	481.50171152987286	482.11003642994183	0.6083249000689648	n/a	n/a	n/a	n/a
91.34326171875	0.2	187071	54	35	0	0	1	54	370	stimuli\Targets_short_600ms_horflip\hand-pinch_short_horflip_short_600ms.mp4	hand-pinch_short_horflip_short_600ms.mp4	482.30169463890707	482.9100218849435	0.6083272460364242	n/a	n/a	n/a	n/a
92.1435546875	0.2	188710	55	35	0	0	0	55	44	stimuli\Videos_short_600ms\5.repeated_tap_with_finger_moving_from_top_to_bottom_short_short_600ms.mp4	5.repeated_tap_with_finger_moving_from_top_to_bottom_short_short_600ms.mp4	483.10166367213697	483.710005873716	0.6083422015790347	n/a	n/a	n/a	n/a
92.943359375	0.2	190348	56	35	0	0	0	56	75	stimuli\Videos_short_600ms\78.single_stroke_top_to_bottom_with_soft_brush_short_short_600ms.mp4	78.single_stroke_top_to_bottom_with_soft_brush_short_short_600ms.mp4	483.9016720003214	484.5099907422259	0.6083187419044407	n/a	n/a	n/a	n/a
93.74365234375	0.2	191987	57	35	0	0	0	57	245	stimuli\Videos_short_600ms_horvertflip\69.stroke_with_soft_sock_short_horvertflip_short_600ms.mp4	69.stroke_with_soft_sock_short_horvertflip_short_600ms.mp4	484.7016281307301	485.30998000942463	0.6083518786945206	n/a	n/a	n/a	n/a
94.54345703125	0.2	193625	58	35	0	0	0	58	87	stimuli\Videos_short_600ms\89.single_touch_with_plastic_brush_short_short_600ms.mp4	89.single_touch_with_plastic_brush_short_short_600ms.mp4	485.50164584278446	486.10996223872144	0.6083163959369813	n/a	n/a	n/a	n/a
95.34326171875	0.2	195263	59	35	0	0	0	59	81	stimuli\Videos_short_600ms\83.single_stroke_top_to_bottom_with_cotton_bud_short_short_600ms.mp4	83.single_stroke_top_to_bottom_with_cotton_bud_short_short_600ms.mp4	486.3017069552361	486.9099529721502	0.6082460169141086	n/a	n/a	n/a	n/a
96.1435546875	0.2	196902	60	35	0	0	0	60	148	stimuli\Videos_short_600ms_horflip\62.touch_top_to_bottom_with_scissors_short_horflip_short_600ms.mp4	62.touch_top_to_bottom_with_scissors_short_horflip_short_600ms.mp4	487.1016152865582	487.7099313892495	0.6083161026913331	n/a	n/a	n/a	n/a
96.943359375	0.2	198540	61	35	0	0	0	61	220	stimuli\Videos_short_600ms_horvertflip\46.scratching_top_to_bottom_with_finger_nails_short_horvertflip_short_600ms.mp4	46.scratching_top_to_bottom_with_finger_nails_short_horvertflip_short_600ms.mp4	487.9015725899508	488.5099021819551	0.6083295920043383	n/a	n/a	n/a	n/a
97.7431640625	0.2	200178	62	35	0	0	0	62	256	stimuli\Videos_short_600ms_horvertflip\79.long_with_soft_brush_all_over_the_hand_short_horvertflip_short_600ms.mp4	79.long_with_soft_brush_all_over_the_hand_short_horvertflip_short_600ms.mp4	488.7015885425294	489.3098805990544	0.6082920565249879	n/a	n/a	n/a	n/a
98.54345703125	0.2	201817	63	35	0	0	0	63	186	stimuli\Videos_short_600ms_horvertflip\15.single_stroke_top_to_bottom_with_a_plastic_whisk_short_horvertflip_short_600ms.mp4	15.single_stroke_top_to_bottom_with_a_plastic_whisk_short_horvertflip_short_600ms.mp4	489.5015684258587	490.1098645878265	0.6082961619677008	n/a	n/a	n/a	n/a
99.34326171875	0.2	203455	64	35	0	0	0	64	331	stimuli\Videos_short_600ms_vertflip\65.stroke_top_to_bottom_with_stanley_knife_short_vertflip_short_600ms.mp4	65.stroke_top_to_bottom_with_stanley_knife_short_vertflip_short_600ms.mp4	490.3015535876147	490.9098520955499	0.6082985079351602	n/a	n/a	n/a	n/a
100.14306640625	0.2	205093	65	35	0	0	0	65	321	stimuli\Videos_short_600ms_vertflip\56.repeated_touch_with_nail_file_short_vertflip_short_600ms.mp4	56.repeated_touch_with_nail_file_short_vertflip_short_600ms.mp4	491.10151880864714	491.70986775488245	0.60834894623531	n/a	n/a	n/a	n/a
100.943359375	0.2	206732	66	35	0	0	0	66	183	stimuli\Videos_short_600ms_horvertflip\12.repeated_touch_with_nail_file_short_horvertflip_short_600ms.mp4	12.repeated_touch_with_nail_file_short_horvertflip_short_600ms.mp4	491.9015247908642	492.5098549693603	0.6083301784960895	n/a	n/a	n/a	n/a
101.7431640625	0.2	208370	67	35	0	0	0	67	282	stimuli\Videos_short_600ms_vertflip\20.single_touch_with_screwdriver_short_vertflip_short_600ms.mp4	20.single_touch_with_screwdriver_short_vertflip_short_600ms.mp4	492.70151083235805	493.3098462892803	0.6083354569223047	n/a	n/a	n/a	n/a
102.54296875	0.2	210008	68	35	0	0	0	68	76	stimuli\Videos_short_600ms\79.long_with_soft_brush_all_over_the_hand_short_short_600ms.mp4	79.long_with_soft_brush_all_over_the_hand_short_short_600ms.mp4	493.5014971670976	494.1098185482156	0.608321381118003	n/a	n/a	n/a	n/a
103.34326171875	0.2	211647	69	35	0	0	0	69	239	stimuli\Videos_short_600ms_horvertflip\63.stroke_top_to_bottom_with_screwdriver_short_horvertflip_short_600ms.mp4	63.stroke_top_to_bottom_with_screwdriver_short_horvertflip_short_600ms.mp4	494.3014811558696	494.9098098681361	0.6083287122664842	n/a	n/a	n/a	n/a
104.14306640625	0.2	213285	70	35	0	0	0	70	69	stimuli\Videos_short_600ms\72.(short)stroke_with_finger_all_over_the_hand_short_short_600ms.mp4	72.(short)stroke_with_finger_all_over_the_hand_short_short_600ms.mp4	495.1014742352658	495.7097885784815	0.6083143432156248	n/a	n/a	n/a	n/a
104.94287109375	0.2	214923	71	35	0	0	0	71	223	stimuli\Videos_short_600ms_horvertflip\49.repeated_slap_with_hand_short_horvertflip_short_600ms.mp4	49.repeated_slap_with_hand_short_horvertflip_short_600ms.mp4	495.9014505996438	496.50977579295886	0.6083251933150677	n/a	n/a	n/a	n/a
105.7431640625	0.2	216562	72	35	0	0	0	72	333	stimuli\Videos_short_600ms_vertflip\67.single_touch_with_sponge_short_vertflip_short_600ms.mp4	67.single_touch_with_sponge_short_vertflip_short_600ms.mp4	496.70143810736727	497.3097609547149	0.6083228473476083	n/a	n/a	n/a	n/a
106.54296875	0.2	218200	73	35	0	0	0	73	103	stimuli\Videos_short_600ms_horflip\21.repeated_touch_with_metal_chopstick_short_horflip_short_600ms.mp4	21.repeated_touch_with_metal_chopstick_short_horflip_short_600ms.mp4	497.50142649482814	498.1097446502413	0.6083181554131443	n/a	n/a	n/a	n/a
107.3427734375	0.2	219838	74	35	0	0	0	74	338	stimuli\Videos_short_600ms_vertflip\71.single_stroke_with_finger_top_to_bottom_short_vertflip_short_600ms.mp4	71.single_stroke_with_finger_top_to_bottom_short_vertflip_short_600ms.mp4	498.3014122430763	498.9097312782265	0.6083190351500889	n/a	n/a	n/a	n/a
108.14306640625	0.2	221477	75	35	0	0	0	75	298	stimuli\Videos_short_600ms_vertflip\35.single_punch_with_hand_short_vertflip_short_600ms.mp4	35.single_punch_with_hand_short_vertflip_short_600ms.mp4	499.1016944629596	499.7097173197203	0.6080228567607264	n/a	n/a	n/a	n/a
108.94287109375	0.2	223115	76	35	0	0	0	76	214	stimuli\Videos_short_600ms_horvertflip\40.repeated_push_with_finger_short_horvertflip_short_600ms.mp4	40.repeated_push_with_finger_short_horvertflip_short_600ms.mp4	499.90139019098206	500.5097013084924	0.6083111175103113	n/a	n/a	n/a	n/a
109.74267578125	0.2	224753	77	35	0	0	0	77	73	stimuli\Videos_short_600ms\76.tickle_with_fingers_from_top_to_bottom_short_short_600ms.mp4	76.tickle_with_fingers_from_top_to_bottom_short_short_600ms.mp4	500.7013627431629	501.30964541581807	0.6082826726551502	n/a	n/a	n/a	n/a
110.54296875	0.2	226392	78	35	0	0	0	78	18	stimuli\Videos_short_600ms\26.single_touch_with_a_blunt_syringe_short_short_600ms.mp4	26.single_touch_with_a_blunt_syringe_short_short_600ms.mp4	501.50132796419575	502.1096484655759	0.6083205013801489	n/a	n/a	n/a	n/a
111.3427734375	0.2	228030	79	35	0	0	0	79	207	stimuli\Videos_short_600ms_horvertflip\34.repeated_punch_with_hand_short_horvertflip_short_600ms.mp4	34.repeated_punch_with_hand_short_horvertflip_short_600ms.mp4	502.3013401045773	502.90969872792857	0.6083586233512506	n/a	n/a	n/a	n/a
112.14306640625	0.2	229669	80	35	0	0	0	80	216	stimuli\Videos_short_600ms_horvertflip\42.single_slap_with_plastic_whisk_short_horvertflip_short_600ms.mp4	42.single_slap_with_plastic_whisk_short_horvertflip_short_600ms.mp4	503.10135136522103	503.7096463542052	0.6082949889841984	n/a	n/a	n/a	n/a
112.94287109375	0.2	231307	81	35	0	0	0	81	23	stimuli\Videos_short_600ms\30.finger_pulling_back_another_finger_short_short_600ms.mp4	30.finger_pulling_back_another_finger_short_short_600ms.mp4	503.90163651756393	504.50963268894475	0.6079961713808189	n/a	n/a	n/a	n/a
113.74267578125	0.2	232945	82	35	0	0	0	82	4	stimuli\Videos_short_600ms\13.single_touch_with_pen_short_short_600ms.mp4	13.single_touch_with_pen_short_short_600ms.mp4	504.701295883091	505.3096140385037	0.6083181554126895	n/a	n/a	n/a	n/a
114.54296875	0.2	234584	83	35	0	0	0	83	30	stimuli\Videos_short_600ms\37.single_stab_with_nail_file_short_short_600ms.mp4	37.single_stab_with_nail_file_short_short_600ms.mp4	505.501538514774	506.10957779330647	0.6080392785324875	n/a	n/a	n/a	n/a
115.3427734375	0.2	236222	84	35	0	0	1	84	366	stimuli\Targets_short_600ms_horflip\brush-stroke_short_horflip_short_600ms.mp4	brush-stroke_short_horflip_short_600ms.mp4	506.3013204570998	506.90958876070454	0.6082683036047456	n/a	n/a	n/a	n/a
116.142578125	0.2	237860	85	35	0	0	0	85	158	stimuli\Videos_short_600ms_horflip\71.single_stroke_with_finger_top_to_bottom_short_horflip_short_600ms.mp4	71.single_stroke_with_finger_top_to_bottom_short_horflip_short_600ms.mp4	507.1012537143261	507.7095742157062	0.6083205013801489	n/a	n/a	n/a	n/a
116.94287109375	0.2	239499	86	35	0	0	0	86	323	stimuli\Videos_short_600ms_vertflip\58.single_slap_with_pencil_short_vertflip_short_600ms.mp4	58.single_slap_with_pencil_short_vertflip_short_600ms.mp4	507.9012362368685	508.5095628964136	0.6083266595451278	n/a	n/a	n/a	n/a
117.74267578125	0.2	241137	87	35	0	0	0	87	302	stimuli\Videos_short_600ms_vertflip\39.single_stab_with_scissors_short_vertflip_short_600ms.mp4	39.single_stab_with_scissors_short_vertflip_short_600ms.mp4	508.7012038038688	509.3095548028259	0.6083509989571212	n/a	n/a	n/a	n/a
118.54248046875	0.2	242775	88	35	0	0	0	88	350	stimuli\Videos_short_600ms_vertflip\82.repeated_touch_with_cotton_bud_short_vertflip_short_600ms.mp4	82.repeated_touch_with_cotton_bud_short_vertflip_short_600ms.mp4	509.5012074401184	510.1095320469417	0.6083246068233166	n/a	n/a	n/a	n/a
119.3427734375	0.2	244414	89	35	0	0	0	89	107	stimuli\Videos_short_600ms_horflip\25.single_touch_with_stanley_knife_short_horflip_short_600ms.mp4	25.single_touch_with_stanley_knife_short_horflip_short_600ms.mp4	510.301194068104	510.9095180884351	0.6083240203311107	n/a	n/a	n/a	n/a
120.142578125	0.2	246052	90	35	0	0	0	90	102	stimuli\Videos_short_600ms_horflip\20.single_touch_with_screwdriver_short_horflip_short_600ms.mp4	20.single_touch_with_screwdriver_short_horflip_short_600ms.mp4	511.10118128258136	511.70950383668287	0.6083225541015054	n/a	n/a	n/a	n/a
120.9423828125	0.2	247690	91	35	0	0	0	91	128	stimuli\Videos_short_600ms_horflip\44.pushing_top_to_bottom_with_finger_short_horflip_short_600ms.mp4	44.pushing_top_to_bottom_with_finger_short_horflip_short_600ms.mp4	511.9011664443374	512.5094875322093	0.6083210878719001	n/a	n/a	n/a	n/a
121.74267578125	0.2	249329	92	35	0	0	0	92	8	stimuli\Videos_short_600ms\17.repeated_touch_with_rolling_pin_short_short_600ms.mp4	17.repeated_touch_with_rolling_pin_short_short_600ms.mp4	512.7011917807858	513.3094753331784	0.6082835523925496	n/a	n/a	n/a	n/a
122.54248046875	0.2	250967	93	35	0	0	0	93	259	stimuli\Videos_short_600ms_horvertflip\81.single_stroke_top_to_bottom_with_cotton_pad_short_horvertflip_short_600ms.mp4	81.single_stroke_top_to_bottom_with_cotton_pad_short_horvertflip_short_600ms.mp4	513.5011223987985	514.1094613746723	0.6083389758737212	4.0	4.0	2.432729530187771	1.0
158.599609375	0.2	324812	94	35	1	0	0	0	344	stimuli\Videos_short_600ms_vertflip\77.tapping_with_all_fingers_short_vertflip_short_600ms.mp4	77.tapping_with_all_fingers_short_vertflip_short_600ms.mp4	549.5588883281375	550.1671560452501	0.6082677171125397	n/a	n/a	n/a	n/a
159.3994140625	0.2	326450	95	35	1	0	0	1	330	stimuli\Videos_short_600ms_vertflip\64.repeated_touch_with_screwdriver_short_vertflip_short_600ms.mp4	64.repeated_touch_with_screwdriver_short_vertflip_short_600ms.mp4	550.3587922607708	550.9671397407765	0.6083474800057047	n/a	n/a	n/a	n/a
160.19970703125	0.2	328089	96	35	1	0	0	2	95	stimuli\Videos_short_600ms_horflip\14.repeated_touch_with_pencil_short_horflip_short_600ms.mp4	14.repeated_touch_with_pencil_short_horflip_short_600ms.mp4	551.1587835806909	551.7671243160403	0.6083407353494295	n/a	n/a	n/a	n/a
160.99951171875	0.2	329727	97	35	1	0	0	3	252	stimuli\Videos_short_600ms_horvertflip\75.(long)stroke_with_fingers_all_over_the_hand_short_horvertflip_short_600ms.mp4	75.(long)stroke_with_fingers_all_over_the_hand_short_horvertflip_short_600ms.mp4	551.9587719681522	552.5671094777963	0.6083375096441159	n/a	n/a	n/a	n/a
161.79931640625	0.2	331365	98	35	1	0	0	4	349	stimuli\Videos_short_600ms_vertflip\81.single_stroke_top_to_bottom_with_cotton_pad_short_vertflip_short_600ms.mp4	81.single_stroke_top_to_bottom_with_cotton_pad_short_vertflip_short_600ms.mp4	552.758770032729	553.3670975720115	0.6083275392825271	n/a	n/a	n/a	n/a
162.599609375	0.2	333004	99	35	1	0	0	5	246	stimuli\Videos_short_600ms_horvertflip\7.repeated_touch_with_hairbrush_short_horvertflip_short_600ms.mp4	7.repeated_touch_with_hairbrush_short_horvertflip_short_600ms.mp4	553.5587557809768	554.1670841999971	0.6083284190203813	n/a	n/a	n/a	n/a
163.3994140625	0.2	334642	100	35	1	0	1	6	365	stimuli\Targets_short_600ms\hand-stroke_short_short_600ms.mp4	hand-stroke_short_short_600ms.mp4	554.358752379324	554.9670637900804	0.6083114107564143	n/a	n/a	n/a	n/a
164.19970703125	0.2	336281	101	35	1	0	0	7	94	stimuli\Videos_short_600ms_horflip\13.single_touch_with_pen_short_horflip_short_600ms.mp4	13.single_touch_with_pen_short_horflip_short_600ms.mp4	555.1587307964237	555.7670354625234	0.6083046660996843	n/a	n/a	n/a	n/a
164.99951171875	0.2	337919	102	35	1	0	0	8	258	stimuli\Videos_short_600ms_horvertflip\80.stroke_with_sharp_stick_all_over_the_hand_short_horvertflip_short_600ms.mp4	80.stroke_with_sharp_stick_all_over_the_hand_short_horvertflip_short_600ms.mp4	555.9587834047434	556.5670370460516	0.608253641308238	n/a	n/a	n/a	n/a
165.79931640625	0.2	339557	103	35	1	0	0	9	224	stimuli\Videos_short_600ms_horvertflip\5.repeated_tap_with_finger_moving_from_top_to_bottom_short_horvertflip_short_600ms.mp4	5.repeated_tap_with_finger_moving_from_top_to_bottom_short_horvertflip_short_600ms.mp4	556.7587154889861	557.3670318849231	0.6083163959369813	n/a	n/a	n/a	n/a
166.599609375	0.2	341196	104	35	1	0	0	10	268	stimuli\Videos_short_600ms_horvertflip\9.single_touch_with_hammer_short_horvertflip_short_600ms.mp4	9.single_touch_with_hammer_short_horvertflip_short_600ms.mp4	557.5586883344126	558.167008249301	0.6083199148883978	n/a	n/a	n/a	n/a
167.3994140625	0.2	342834	105	35	1	0	1	11	381	stimuli\Targets_short_600ms_vertflip\finger-tap_short_horvertflip_short_600ms.mp4	finger-tap_short_horvertflip_short_600ms.mp4	558.3586576608886	558.966998102992	0.6083404421033265	n/a	n/a	n/a	n/a
168.19921875	0.2	344472	106	35	1	0	0	12	10	stimuli\Videos_short_600ms\19.single_touch_with_rolling_pin_short_short_600ms.mp4	19.single_touch_with_rolling_pin_short_short_600ms.mp4	559.1586604174004	559.7669817985184	0.608321381118003	n/a	n/a	n/a	n/a
168.99951171875	0.2	346111	107	35	1	0	0	13	140	stimuli\Videos_short_600ms_horflip\55.touch_top_to_bottom_with_nail_file_short_horflip_short_600ms.mp4	55.touch_top_to_bottom_with_nail_file_short_horflip_short_600ms.mp4	559.9586464588938	560.5669734116846	0.608326952790776	n/a	n/a	n/a	n/a
169.79931640625	0.2	347749	108	35	1	0	0	14	192	stimuli\Videos_short_600ms_horvertflip\20.single_touch_with_screwdriver_short_horvertflip_short_600ms.mp4	20.single_touch_with_screwdriver_short_horvertflip_short_600ms.mp4	560.7586363125847	561.3669521220299	0.6083158094452301	n/a	n/a	n/a	n/a
170.59912109375	0.2	349387	109	35	1	0	0	15	65	stimuli\Videos_short_600ms\69.stroke_with_soft_sock_short_short_600ms.mp4	69.stroke_with_soft_sock_short_short_600ms.mp4	561.5586191283733	562.1669361108025	0.6083169824291872	n/a	n/a	n/a	n/a
171.3994140625	0.2	351026	110	35	1	0	0	16	283	stimuli\Videos_short_600ms_vertflip\21.repeated_touch_with_metal_chopstick_short_vertflip_short_600ms.mp4	21.repeated_touch_with_metal_chopstick_short_vertflip_short_600ms.mp4	562.3586022374075	562.9669259644929	0.6083237270854625	n/a	n/a	n/a	n/a
172.19921875	0.2	352664	111	35	1	0	0	17	241	stimuli\Videos_short_600ms_horvertflip\65.stroke_top_to_bottom_with_stanley_knife_short_horvertflip_short_600ms.mp4	65.stroke_top_to_bottom_with_stanley_knife_short_horvertflip_short_600ms.mp4	563.1585920910984	563.766911419495	0.6083193283966466	n/a	n/a	n/a	n/a
172.9990234375	0.2	354302	112	35	1	0	0	18	174	stimuli\Videos_short_600ms_horflip\86.touch_top_to_bottom_with_hair_brush_short_horflip_short_600ms.mp4	86.touch_top_to_bottom_with_hair_brush_short_horflip_short_600ms.mp4	563.9585939678723	564.5669024461695	0.6083084782972037	n/a	n/a	n/a	n/a
173.79931640625	0.2	355941	113	35	1	0	0	19	115	stimuli\Videos_short_600ms_horflip\32.single_(long)pinch_with_fingers_short_horflip_short_600ms.mp4	32.single_(long)pinch_with_fingers_short_horflip_short_600ms.mp4	564.7585650538235	565.3668846754663	0.6083196216427496	n/a	n/a	n/a	n/a
174.59912109375	0.2	357579	114	35	1	0	0	20	25	stimuli\Videos_short_600ms\32.single_(long)pinch_with_fingers_short_short_600ms.mp4	32.single_(long)pinch_with_fingers_short_short_600ms.mp4	565.5585672238435	566.166870423714	0.6083031998705337	n/a	n/a	n/a	n/a
175.39892578125	0.2	359217	115	35	1	0	0	21	318	stimuli\Videos_short_600ms_vertflip\53.touch_top_to_bottom_with_knife_short_vertflip_short_600ms.mp4	53.touch_top_to_bottom_with_knife_short_vertflip_short_600ms.mp4	566.3585298056628	566.9668564652075	0.608326659544673	n/a	n/a	n/a	n/a
176.19921875	0.2	360856	116	35	1	0	0	22	212	stimuli\Videos_short_600ms_horvertflip\39.single_stab_with_scissors_short_horvertflip_short_600ms.mp4	39.single_stab_with_scissors_short_horvertflip_short_600ms.mp4	567.1585164336484	567.7668410404717	0.6083246068233166	n/a	n/a	n/a	n/a
176.9990234375	0.2	362494	117	35	1	0	0	23	59	stimuli\Videos_short_600ms\63.stroke_top_to_bottom_with_screwdriver_short_short_600ms.mp4	63.stroke_top_to_bottom_with_screwdriver_short_short_600ms.mp4	567.9585010089127	568.5668270819651	0.6083260730524671	n/a	n/a	n/a	n/a
177.798828125	0.2	364132	118	35	1	0	1	24	378	stimuli\Targets_short_600ms_vertflip\brush-stroke_short_horvertflip_short_600ms.mp4	brush-stroke_short_horvertflip_short_600ms.mp4	568.7585055248996	569.3668239735584	0.6083184486587925	n/a	n/a	n/a	n/a
178.59912109375	0.2	365771	119	35	1	0	0	25	352	stimuli\Videos_short_600ms_vertflip\84.single_touch_with_cotton_bud_short_vertflip_short_600ms.mp4	84.single_touch_with_cotton_bud_short_vertflip_short_600ms.mp4	569.5584789568184	570.1668012176742	0.6083222608558572	n/a	n/a	n/a	n/a
179.39892578125	0.2	367409	120	35	1	0	0	26	120	stimuli\Videos_short_600ms_horflip\37.single_stab_with_nail_file_short_horflip_short_600ms.mp4	37.single_stab_with_nail_file_short_horflip_short_600ms.mp4	570.3584383129328	570.9667887253977	0.6083504124649153	n/a	n/a	n/a	n/a
180.19873046875	0.2	369047	121	35	1	0	0	27	334	stimuli\Videos_short_600ms_vertflip\68.stroke_top_to_bottom_with_shawl_short_vertflip_short_600ms.mp4	68.stroke_top_to_bottom_with_shawl_short_vertflip_short_600ms.mp4	571.1584545587571	571.7667794588265	0.6083249000694195	n/a	n/a	n/a	n/a
180.9990234375	0.2	370686	122	35	1	0	0	28	288	stimuli\Videos_short_600ms_vertflip\26.single_touch_with_a_blunt_syringe_short_vertflip_short_600ms.mp4	26.single_touch_with_a_blunt_syringe_short_vertflip_short_600ms.mp4	571.9584370812995	572.566752304253	0.608315222953479	n/a	n/a	n/a	n/a
181.798828125	0.2	372324	123	35	1	0	0	29	3	stimuli\Videos_short_600ms\12.repeated_touch_with_nail_file_short_short_600ms.mp4	12.repeated_touch_with_nail_file_short_short_600ms.mp4	572.7584178443667	573.3667401052226	0.6083222608558572	n/a	n/a	n/a	n/a
182.5986328125	0.2	373962	124	35	1	0	0	30	153	stimuli\Videos_short_600ms_horflip\67.single_touch_with_sponge_short_horflip_short_600ms.mp4	67.single_touch_with_sponge_short_horflip_short_600ms.mp4	573.5584041791062	574.1667243872407	0.6083202081345007	n/a	n/a	n/a	n/a
183.39892578125	0.2	375601	125	35	1	0	0	31	190	stimuli\Videos_short_600ms_horvertflip\19.single_touch_with_rolling_pin_short_horvertflip_short_600ms.mp4	19.single_touch_with_rolling_pin_short_horvertflip_short_600ms.mp4	574.3583925665675	574.9667127747016	0.608320208134046	n/a	n/a	n/a	n/a
184.19873046875	0.2	377239	126	35	1	0	0	32	319	stimuli\Videos_short_600ms_vertflip\54.repeated_touch_with_knife_short_vertflip_short_600ms.mp4	54.repeated_touch_with_knife_short_vertflip_short_600ms.mp4	575.1583794877988	575.7666994026872	0.6083199148883978	n/a	n/a	n/a	n/a
184.9990234375	0.2	378878	127	35	1	0	0	33	1	stimuli\Videos_short_600ms\10.single_touch_with_knife_short_short_600ms.mp4	10.single_touch_with_knife_short_short_600ms.mp4	575.9583646495548	576.5666907226077	0.6083260730529219	n/a	n/a	n/a	n/a
185.798828125	0.2	380516	128	35	1	0	0	34	9	stimuli\Videos_short_600ms\18.single_stroke_from_top_to_bottom_with_rolling_pin_short_short_600ms.mp4	18.single_stroke_from_top_to_bottom_with_rolling_pin_short_short_600ms.mp4	576.758324592161	577.3666685532153	0.6083439610542882	n/a	n/a	n/a	n/a
186.5986328125	0.2	382154	129	35	1	0	0	35	254	stimuli\Videos_short_600ms_horvertflip\77.tapping_with_all_fingers_short_horvertflip_short_600ms.mp4	77.tapping_with_all_fingers_short_horvertflip_short_600ms.mp4	577.5583361460504	578.1666587001523	0.6083225541019601	n/a	n/a	n/a	n/a
187.39892578125	0.2	383793	130	35	1	0	0	36	83	stimuli\Videos_short_600ms\85.touch_top_to_bottom_with_fabric_short_short_600ms.mp4	85.touch_top_to_bottom_with_fabric_short_short_600ms.mp4	578.3583236537738	578.9666435686622	0.6083199148883978	n/a	n/a	n/a	n/a
188.19873046875	0.2	385431	131	35	1	0	1	37	363	stimuli\Targets_short_600ms\finger-tap_short_short_600ms.mp4	finger-tap_short_short_600ms.mp4	579.1583070560541	579.7666272641882	0.608320208134046	n/a	n/a	n/a	n/a
188.99853515625	0.2	387069	132	35	1	0	0	38	156	stimuli\Videos_short_600ms_horflip\7.repeated_touch_with_hairbrush_short_horflip_short_600ms.mp4	7.repeated_touch_with_hairbrush_short_horflip_short_600ms.mp4	579.9582916313184	580.5666209300762	0.6083292987577806	n/a	n/a	n/a	n/a
189.798828125	0.2	388708	133	35	1	0	0	39	150	stimuli\Videos_short_600ms_horflip\64.repeated_touch_with_screwdriver_short_horflip_short_600ms.mp4	64.repeated_touch_with_screwdriver_short_horflip_short_600ms.mp4	580.7583034784539	581.3666013998973	0.608297921443409	n/a	n/a	n/a	n/a
190.5986328125	0.2	390346	134	35	1	0	0	40	127	stimuli\Videos_short_600ms_horflip\43.touch_top_to_bottom_with_sharp_wooden_stick_short_horflip_short_600ms.mp4	43.touch_top_to_bottom_with_sharp_wooden_stick_short_horflip_short_600ms.mp4	581.5582469992878	582.1665886143746	0.6083416150868288	n/a	n/a	n/a	n/a
191.3984375	0.2	391984	135	35	1	0	0	41	189	stimuli\Videos_short_600ms_horvertflip\18.single_stroke_from_top_to_bottom_with_rolling_pin_short_horvertflip_short_600ms.mp4	18.single_stroke_from_top_to_bottom_with_rolling_pin_short_horvertflip_short_600ms.mp4	582.358264418096	582.9665737761306	0.6083093580346031	n/a	n/a	n/a	n/a
192.19873046875	0.2	393623	136	35	1	0	0	42	74	stimuli\Videos_short_600ms\77.tapping_with_all_fingers_short_short_600ms.mp4	77.tapping_with_all_fingers_short_short_600ms.mp4	583.1583055898245	583.7665592311323	0.6082536413077833	n/a	n/a	n/a	n/a
192.99853515625	0.2	395261	137	35	1	0	0	43	273	stimuli\Videos_short_600ms_vertflip\12.repeated_touch_with_nail_file_short_vertflip_short_600ms.mp4	12.repeated_touch_with_nail_file_short_vertflip_short_600ms.mp4	583.9582215455407	584.5665443928883	0.6083228473476083	n/a	n/a	n/a	n/a
193.79833984375	0.2	396899	138	35	1	0	0	44	146	stimuli\Videos_short_600ms_horflip\60.single_push_with_tip_of_pencil_short_horflip_short_600ms.mp4	60.single_push_with_tip_of_pencil_short_horflip_short_600ms.mp4	584.7582046545754	585.3665336600875	0.6083290055121324	n/a	n/a	n/a	n/a
194.5986328125	0.2	398538	139	35	1	0	0	45	345	stimuli\Videos_short_600ms_vertflip\78.single_stroke_top_to_bottom_with_soft_brush_short_vertflip_short_600ms.mp4	78.single_stroke_top_to_bottom_with_soft_brush_short_vertflip_short_600ms.mp4	585.5581989069551	586.1665170623678	0.6083181554126895	n/a	n/a	n/a	n/a
195.3984375	0.2	400176	140	35	1	0	0	46	320	stimuli\Videos_short_600ms_vertflip\55.touch_top_to_bottom_with_nail_file_short_vertflip_short_600ms.mp4	55.touch_top_to_bottom_with_nail_file_short_vertflip_short_600ms.mp4	586.3587737862772	586.9664772982196	0.6077035119424181	n/a	n/a	n/a	n/a
196.1982421875	0.2	401814	141	35	1	0	0	47	137	stimuli\Videos_short_600ms_horflip\52.touch_top_to_bottom_with_hammer_short_horflip_short_600ms.mp4	52.touch_top_to_bottom_with_hammer_short_horflip_short_600ms.mp4	587.1581674709914	587.7664838669284	0.6083163959369813	n/a	n/a	n/a	n/a
196.99853515625	0.2	403453	142	35	1	0	0	48	70	stimuli\Videos_short_600ms\73.single_stroke_with_flat_hand_short_short_600ms.mp4	73.single_stroke_with_flat_hand_short_short_600ms.mp4	587.9581505800256	588.5664487947151	0.608298214689512	n/a	n/a	n/a	n/a
197.79833984375	0.2	405091	143	35	1	0	0	49	77	stimuli\Videos_short_600ms\8.single_touch_with_hairbrush_short_short_600ms.mp4	8.single_touch_with_hairbrush_short_short_600ms.mp4	588.7581322228302	589.3664621080802	0.6083298852499865	n/a	n/a	n/a	n/a
198.59814453125	0.2	406729	144	35	1	0	0	50	43	stimuli\Videos_short_600ms\49.repeated_slap_with_hand_short_short_600ms.mp4	49.repeated_slap_with_hand_short_short_600ms.mp4	589.558119437308	590.1664466833445	0.6083272460364242	n/a	n/a	n/a	n/a
199.3984375	0.2	408368	145	35	1	0	0	51	152	stimuli\Videos_short_600ms_horflip\66.stroke_top_to_bottom_with_sponge_short_horflip_short_600ms.mp4	66.stroke_top_to_bottom_with_sponge_short_horflip_short_600ms.mp4	590.3581040125719	590.9664324315922	0.6083284190203813	n/a	n/a	n/a	n/a
200.1982421875	0.2	410006	146	35	1	0	0	52	104	stimuli\Videos_short_600ms_horflip\22.single_touch_with_metal_chopstick_short_horflip_short_600ms.mp4	22.single_touch_with_metal_chopstick_short_horflip_short_600ms.mp4	591.1580976784599	591.7664211122992	0.6083234338393595	n/a	n/a	n/a	n/a
200.998046875	0.2	411644	147	35	1	0	0	53	131	stimuli\Videos_short_600ms_horflip\47.(long)scratching_with_finger_nails_short_horflip_short_600ms.mp4	47.(long)scratching_with_finger_nails_short_horflip_short_600ms.mp4	591.9580804942484	592.5664051010717	0.6083246068233166	n/a	n/a	n/a	n/a
201.79833984375	0.2	413283	148	35	1	0	0	54	157	stimuli\Videos_short_600ms_horflip\70.(long)stroke_with_finger_all_over_the_hand_short_horflip_short_600ms.mp4	70.(long)stroke_with_finger_all_over_the_hand_short_horflip_short_600ms.mp4	592.7580641897744	593.3663887965977	0.6083246068233166	n/a	n/a	n/a	n/a
202.59814453125	0.2	414921	149	35	1	0	0	55	133	stimuli\Videos_short_600ms_horflip\49.repeated_slap_with_hand_short_horflip_short_600ms.mp4	49.repeated_slap_with_hand_short_horflip_short_600ms.mp4	593.55805081776	594.1663780637969	0.6083272460368789	n/a	n/a	n/a	n/a
203.3984375	0.2	416560	150	35	1	0	0	56	144	stimuli\Videos_short_600ms_horflip\59.single_push_with_long_side_pencil_short_horflip_short_600ms.mp4	59.single_push_with_long_side_pencil_short_horflip_short_600ms.mp4	594.3580427241723	594.9663605863393	0.6083178621670413	n/a	n/a	n/a	n/a
204.1982421875	0.2	418198	151	35	1	0	0	57	180	stimuli\Videos_short_600ms_horvertflip\1.repeated_touch_with_finger_fast_short_horvertflip_short_600ms.mp4	1.repeated_touch_with_finger_fast_short_horvertflip_short_600ms.mp4	595.1580665943911	595.7663489738006	0.608282379409502	n/a	n/a	n/a	n/a
204.998046875	0.2	419836	152	35	1	0	0	58	162	stimuli\Videos_short_600ms_horflip\75.(long)stroke_with_fingers_all_over_the_hand_short_horflip_short_600ms.mp4	75.(long)stroke_with_fingers_all_over_the_hand_short_horflip_short_600ms.mp4	595.9580373870967	596.5663329625727	0.6082955754759496	n/a	n/a	n/a	n/a
205.79833984375	0.2	421475	153	35	1	0	0	59	292	stimuli\Videos_short_600ms_vertflip\3.single_push_with_finger_short_vertflip_short_600ms.mp4	3.single_push_with_finger_short_vertflip_short_600ms.mp4	596.7579785619628	597.3663192973122	0.6083407353494295	n/a	n/a	n/a	n/a
206.59814453125	0.2	423113	154	35	1	0	0	60	260	stimuli\Videos_short_600ms_horvertflip\82.repeated_touch_with_cotton_bud_short_horvertflip_short_600ms.mp4	82.repeated_touch_with_cotton_bud_short_horvertflip_short_600ms.mp4	597.5579640169649	598.1663041658221	0.6083401488572235	n/a	n/a	n/a	n/a
207.39794921875	0.2	424751	155	35	1	0	0	61	64	stimuli\Videos_short_600ms\68.stroke_top_to_bottom_with_shawl_short_short_600ms.mp4	68.stroke_top_to_bottom_with_shawl_short_short_600ms.mp4	598.3579424340642	598.9662905005621	0.6083480664979106	n/a	n/a	n/a	n/a
208.1982421875	0.2	426390	156	35	1	0	0	62	50	stimuli\Videos_short_600ms\55.touch_top_to_bottom_with_nail_file_short_short_600ms.mp4	55.touch_top_to_bottom_with_nail_file_short_short_600ms.mp4	599.1579522284783	599.7662759555637	0.6083237270854625	n/a	n/a	n/a	n/a
208.998046875	0.2	428028	157	35	1	0	0	63	232	stimuli\Videos_short_600ms_horvertflip\57.single_touch_with_nail_file_short_horvertflip_short_600ms.mp4	57.single_touch_with_nail_file_short_horvertflip_short_600ms.mp4	599.9579282996106	600.5662614105654	0.6083331109548453	n/a	n/a	n/a	n/a
209.7978515625	0.2	429666	158	35	1	0	0	64	61	stimuli\Videos_short_600ms\65.stroke_top_to_bottom_with_stanley_knife_short_short_600ms.mp4	65.stroke_top_to_bottom_with_stanley_knife_short_short_600ms.mp4	600.7579292966466	601.3662500912728	0.6083207946262519	n/a	n/a	n/a	n/a
210.59814453125	0.2	431305	159	35	1	0	0	65	304	stimuli\Videos_short_600ms_vertflip\40.repeated_push_with_finger_short_vertflip_short_600ms.mp4	40.repeated_push_with_finger_short_vertflip_short_600ms.mp4	601.5580247188723	602.1662364260123	0.6082117071400717	n/a	n/a	n/a	n/a
211.39794921875	0.2	432943	160	35	1	0	0	66	213	stimuli\Videos_short_600ms_horvertflip\4.repeated_tap_with_finger_slow_short_horvertflip_short_600ms.mp4	4.repeated_tap_with_finger_slow_short_horvertflip_short_600ms.mp4	602.3580139860715	602.9662195350465	0.6082055489750928	n/a	n/a	n/a	n/a
212.19775390625	0.2	434581	161	35	1	0	0	67	204	stimuli\Videos_short_600ms_horvertflip\31.hand_grabbing_wrist_short_horvertflip_short_600ms.mp4	31.hand_grabbing_wrist_short_horvertflip_short_600ms.mp4	603.1578824359467	603.7662114414588	0.6083290055121324	n/a	n/a	n/a	n/a
212.998046875	0.2	436220	162	35	1	0	0	68	142	stimuli\Videos_short_600ms_horflip\57.single_touch_with_nail_file_short_horflip_short_600ms.mp4	57.single_touch_with_nail_file_short_horflip_short_600ms.mp4	603.9578637855057	604.566166398884	0.6083026133783278	n/a	n/a	n/a	n/a
213.7978515625	0.2	437858	163	35	1	0	0	69	355	stimuli\Videos_short_600ms_vertflip\87.single_stroke_top_to_bottom_with_plastic_brush_short_vertflip_short_600ms.mp4	87.single_stroke_top_to_bottom_with_plastic_brush_short_vertflip_short_600ms.mp4	604.757850999983	605.366177366282	0.6083263662990248	n/a	n/a	n/a	n/a
214.59765625	0.2	439496	164	35	1	0	0	70	229	stimuli\Videos_short_600ms_horvertflip\54.repeated_touch_with_knife_short_horvertflip_short_600ms.mp4	54.repeated_touch_with_knife_short_horvertflip_short_600ms.mp4	605.5578382144604	606.1661654604973	0.6083272460368789	n/a	n/a	n/a	n/a
215.39794921875	0.2	441135	165	35	1	0	0	71	290	stimuli\Videos_short_600ms_vertflip\28.single_injection_with_sharp_needle_short_vertflip_short_600ms.mp4	28.single_injection_with_sharp_needle_short_vertflip_short_600ms.mp4	606.3578236694625	606.9661585398931	0.6083348704305536	n/a	n/a	n/a	n/a
216.19775390625	0.2	442773	166	35	1	0	0	72	293	stimuli\Videos_short_600ms_vertflip\30.finger_pulling_back_another_finger_short_vertflip_short_600ms.mp4	30.finger_pulling_back_another_finger_short_vertflip_short_600ms.mp4	607.1578076582346	607.7661349042714	0.6083272460368789	n/a	n/a	n/a	n/a
216.99755859375	0.2	444411	167	35	1	0	0	73	299	stimuli\Videos_short_600ms_vertflip\36.single_slap_with_full_hand_short_vertflip_short_600ms.mp4	36.single_slap_with_full_hand_short_vertflip_short_600ms.mp4	607.9577934064823	608.5661273971755	0.6083339906931542	n/a	n/a	n/a	n/a
217.7978515625	0.2	446050	168	35	1	0	0	74	332	stimuli\Videos_short_600ms_vertflip\66.stroke_top_to_bottom_with_sponge_short_vertflip_short_600ms.mp4	66.stroke_top_to_bottom_with_sponge_short_vertflip_short_600ms.mp4	608.7577815006975	609.3661061075209	0.6083246068233166	n/a	n/a	n/a	n/a
218.59765625	0.2	447688	169	35	1	0	0	75	307	stimuli\Videos_short_600ms_vertflip\43.touch_top_to_bottom_with_sharp_wooden_stick_short_vertflip_short_600ms.mp4	43.touch_top_to_bottom_with_sharp_wooden_stick_short_vertflip_short_600ms.mp4	609.5577707678967	610.1660921490147	0.608321381118003	n/a	n/a	n/a	n/a
219.3974609375	0.2	449326	170	35	1	0	1	76	361	stimuli\Targets_short_600ms\chopstick-silver-tap_short_short_600ms.mp4	chopstick-silver-tap_short_short_600ms.mp4	610.3577532904392	610.966079070246	0.6083257798068189	n/a	n/a	n/a	n/a
220.19775390625	0.2	450965	171	35	1	0	0	77	85	stimuli\Videos_short_600ms\87.single_stroke_top_to_bottom_with_plastic_brush_short_short_600ms.mp4	87.single_stroke_top_to_bottom_with_plastic_brush_short_short_600ms.mp4	611.1577369859656	611.7660648184938	0.6083278325281753	n/a	n/a	n/a	n/a
220.99755859375	0.2	452603	172	35	1	0	0	78	265	stimuli\Videos_short_600ms_horvertflip\87.single_stroke_top_to_bottom_with_plastic_brush_short_horvertflip_short_600ms.mp4	87.single_stroke_top_to_bottom_with_plastic_brush_short_horvertflip_short_600ms.mp4	611.9577086584086	612.5660505667415	0.6083419083329318	n/a	n/a	n/a	n/a
221.79736328125	0.2	454241	173	35	1	0	0	79	211	stimuli\Videos_short_600ms_horvertflip\38.double_slap_with_pencil_short_horvertflip_short_600ms.mp4	38.double_slap_with_pencil_short_horvertflip_short_600ms.mp4	612.7577143473795	613.3660348487597	0.6083205013801489	n/a	n/a	n/a	n/a
222.59765625	0.2	455880	174	35	1	0	0	80	240	stimuli\Videos_short_600ms_horvertflip\64.repeated_touch_with_screwdriver_short_horvertflip_short_600ms.mp4	64.repeated_touch_with_screwdriver_short_horvertflip_short_600ms.mp4	613.5576737034935	614.1660203037618	0.6083466002683053	n/a	n/a	n/a	n/a
223.3974609375	0.2	457518	175	35	1	0	0	81	66	stimuli\Videos_short_600ms\7.repeated_touch_with_hairbrush_short_short_600ms.mp4	7.repeated_touch_with_hairbrush_short_short_600ms.mp4	614.3577160482059	614.9660060520096	0.6082900038036314	n/a	n/a	n/a	n/a
224.19775390625	0.2	459157	176	35	1	0	0	82	296	stimuli\Videos_short_600ms_vertflip\33.scratch_top_to_bottom_with_scissors_short_vertflip_short_600ms.mp4	33.scratch_top_to_bottom_with_scissors_short_vertflip_short_600ms.mp4	615.157714699275	615.7659932664869	0.6082785672119826	n/a	n/a	n/a	n/a
224.99755859375	0.2	460795	177	35	1	0	1	83	382	stimuli\Targets_short_600ms_vertflip\hand-pinch_short_horvertflip_short_600ms.mp4	hand-pinch_short_horvertflip_short_600ms.mp4	615.9576529416818	616.5659684578809	0.6083155161991272	n/a	n/a	n/a	n/a
225.79736328125	0.2	462433	178	35	1	0	0	84	233	stimuli\Videos_short_600ms_horvertflip\58.single_slap_with_pencil_short_horvertflip_short_600ms.mp4	58.single_slap_with_pencil_short_horvertflip_short_600ms.mp4	616.7576448480941	617.3659448222593	0.6082999741652202	n/a	n/a	n/a	n/a
226.59765625	0.2	464072	179	35	1	0	0	85	202	stimuli\Videos_short_600ms_horvertflip\3.single_push_with_finger_short_horvertflip_short_600ms.mp4	3.single_push_with_finger_short_horvertflip_short_600ms.mp4	617.5576253179152	618.1659252920804	0.6082999741652202	n/a	n/a	n/a	n/a
227.3974609375	0.2	465710	180	35	1	0	0	86	167	stimuli\Videos_short_600ms_horflip\8.single_touch_with_hairbrush_short_horflip_short_600ms.mp4	8.single_touch_with_hairbrush_short_horflip_short_600ms.mp4	618.3576101864251	618.9659101605903	0.6082999741652202	n/a	n/a	n/a	n/a
228.197265625	0.2	467348	181	35	1	0	0	87	129	stimuli\Videos_short_600ms_horflip\45.scratching_with_finger_nails_short_horflip_short_600ms.mp4	45.scratching_with_finger_nails_short_horflip_short_600ms.mp4	619.1576023860835	619.7659132103477	0.6083108242642083	n/a	n/a	n/a	n/a
228.99755859375	0.2	468987	182	35	1	0	0	88	27	stimuli\Videos_short_600ms\34.repeated_punch_with_hand_short_short_600ms.mp4	34.repeated_punch_with_hand_short_short_600ms.mp4	619.9575813896749	620.5659118614167	0.6083304717417377	n/a	n/a	n/a	n/a
229.79736328125	0.2	470625	183	35	1	0	0	89	294	stimuli\Videos_short_600ms_vertflip\31.hand_grabbing_wrist_short_vertflip_short_600ms.mp4	31.hand_grabbing_wrist_short_vertflip_short_600ms.mp4	620.7575665514305	621.3658993691397	0.6083328177091971	n/a	n/a	n/a	n/a
230.59716796875	0.2	472263	184	35	1	0	0	90	278	stimuli\Videos_short_600ms_vertflip\17.repeated_touch_with_rolling_pin_short_vertflip_short_600ms.mp4	17.repeated_touch_with_rolling_pin_short_vertflip_short_600ms.mp4	621.5575528861705	622.1658842376501	0.6083313514795918	n/a	n/a	n/a	n/a
231.3974609375	0.2	473902	185	35	1	0	0	91	340	stimuli\Videos_short_600ms_vertflip\73.single_stroke_with_flat_hand_short_vertflip_short_600ms.mp4	73.single_stroke_with_flat_hand_short_vertflip_short_600ms.mp4	622.3575421533692	622.9658635344872	0.608321381118003	n/a	n/a	n/a	n/a
232.197265625	0.2	475540	186	35	1	0	0	92	286	stimuli\Videos_short_600ms_vertflip\24.single_stroke_top_to_bottom_with_a_spoon_short_vertflip_short_600ms.mp4	24.single_stroke_top_to_bottom_with_a_spoon_short_vertflip_short_600ms.mp4	623.1575246759116	623.7658621855558	0.6083375096441159	n/a	n/a	n/a	n/a
232.9970703125	0.2	477178	187	35	1	0	0	93	172	stimuli\Videos_short_600ms_horflip\84.single_touch_with_cotton_bud_short_horflip_short_600ms.mp4	84.single_touch_with_cotton_bud_short_horflip_short_600ms.mp4	623.9575092511759	624.5658341512449	0.6083249000689648	n/a	n/a	n/a	n/a
233.79736328125	0.2	478817	188	35	1	0	0	94	197	stimuli\Videos_short_600ms_horvertflip\25.single_touch_with_stanley_knife_short_horvertflip_short_600ms.mp4	25.single_touch_with_stanley_knife_short_horvertflip_short_600ms.mp4	624.7574958791615	625.3658207792305	0.6083249000689648	n/a	n/a	n/a	n/a
234.59716796875	0.2	480455	189	35	1	0	0	95	109	stimuli\Videos_short_600ms_horflip\27.single_push_with_a_plastic_whisk_short_horflip_short_600ms.mp4	27.single_push_with_a_plastic_whisk_short_horflip_short_600ms.mp4	625.5574819206554	626.1658077004622	0.6083257798068189	6.0	6.0	2.4473490128020785	1.0
272.00439453125	0.2	557065	190	35	2	0	0	0	203	stimuli\Videos_short_600ms_horvertflip\30.finger_pulling_back_another_finger_short_horvertflip_short_600ms.mp4	30.finger_pulling_back_another_finger_short_horvertflip_short_600ms.mp4	662.9651632632053	663.5734755536996	0.6083122904942684	n/a	n/a	n/a	n/a
272.80419921875	0.2	558703	191	35	2	0	0	1	250	stimuli\Videos_short_600ms_horvertflip\73.single_stroke_with_flat_hand_short_horvertflip_short_600ms.mp4	73.single_stroke_with_flat_hand_short_horvertflip_short_600ms.mp4	663.7652003294911	664.3734604222095	0.6082600927184103	n/a	n/a	n/a	n/a
273.6044921875	0.2	560342	192	35	2	0	1	2	369	stimuli\Targets_short_600ms_horflip\finger-tap_short_horflip_short_600ms.mp4	finger-tap_short_horflip_short_600ms.mp4	664.5650989836977	665.1734491029165	0.6083501192188123	n/a	n/a	n/a	n/a
274.404296875	0.2	561980	193	35	2	0	0	3	236	stimuli\Videos_short_600ms_horvertflip\60.single_push_with_tip_of_pencil_short_horvertflip_short_600ms.mp4	60.single_push_with_tip_of_pencil_short_horvertflip_short_600ms.mp4	665.3650850251911	665.9734336781808	0.6083486529896618	n/a	n/a	n/a	n/a
275.2041015625	0.2	563618	194	35	2	0	1	4	383	stimuli\Targets_short_600ms_vertflip\hand-stroke_short_horvertflip_short_600ms.mp4	hand-stroke_short_horvertflip_short_600ms.mp4	666.1650734126524	666.7734185466907	0.6083451340382453	n/a	n/a	n/a	n/a
276.00439453125	0.2	565257	195	35	2	0	0	5	201	stimuli\Videos_short_600ms_horvertflip\29.single_pinch_with_tweezers_short_horvertflip_short_600ms.mp4	29.single_pinch_with_tweezers_short_horvertflip_short_600ms.mp4	666.965085553034	667.5734078138894	0.6083222608554024	n/a	n/a	n/a	n/a
276.80419921875	0.2	566895	196	35	2	0	0	6	39	stimuli\Videos_short_600ms\45.scratching_with_finger_nails_short_short_600ms.mp4	45.scratching_with_finger_nails_short_short_600ms.mp4	667.765082737873	668.3733659970198	0.6082832591469014	n/a	n/a	n/a	n/a
277.60400390625	0.2	568533	197	35	2	0	0	7	297	stimuli\Videos_short_600ms_vertflip\34.repeated_punch_with_hand_short_vertflip_short_600ms.mp4	34.repeated_punch_with_hand_short_vertflip_short_600ms.mp4	668.5650661401532	669.1733857617955	0.6083196216422948	n/a	n/a	n/a	n/a
278.404296875	0.2	570172	198	35	2	0	0	8	49	stimuli\Videos_short_600ms\54.repeated_touch_with_knife_short_short_600ms.mp4	54.repeated_touch_with_knife_short_short_600ms.mp4	669.3658882257946	669.9733591937143	0.607470967919653	n/a	n/a	n/a	n/a
279.2041015625	0.2	571810	199	35	2	0	0	9	267	stimuli\Videos_short_600ms_horvertflip\89.single_touch_with_plastic_brush_short_horvertflip_short_600ms.mp4	89.single_touch_with_plastic_brush_short_horvertflip_short_600ms.mp4	670.1650531786831	670.7733598975046	0.6083067188214955	n/a	n/a	n/a	n/a
280.00390625	0.2	573448	200	35	2	0	0	10	6	stimuli\Videos_short_600ms\15.single_stroke_top_to_bottom_with_a_plastic_whisk_short_short_600ms.mp4	15.single_stroke_top_to_bottom_with_a_plastic_whisk_short_short_600ms.mp4	670.9650125347971	671.5733292239802	0.6083166891830842	n/a	n/a	n/a	n/a
280.80419921875	0.2	575087	201	35	2	0	0	11	346	stimuli\Videos_short_600ms_vertflip\79.long_with_soft_brush_all_over_the_hand_short_vertflip_short_600ms.mp4	79.long_with_soft_brush_all_over_the_hand_short_vertflip_short_600ms.mp4	671.7649994560288	672.3733234763599	0.6083240203311107	n/a	n/a	n/a	n/a
281.60400390625	0.2	576725	202	35	2	0	0	12	329	stimuli\Videos_short_600ms_vertflip\63.stroke_top_to_bottom_with_screwdriver_short_vertflip_short_600ms.mp4	63.stroke_top_to_bottom_with_screwdriver_short_vertflip_short_600ms.mp4	672.5649822718174	673.1733077583781	0.608325486560716	n/a	n/a	n/a	n/a
282.40380859375	0.2	578363	203	35	2	0	0	13	98	stimuli\Videos_short_600ms_horflip\17.repeated_touch_with_rolling_pin_short_horflip_short_600ms.mp4	17.repeated_touch_with_rolling_pin_short_horflip_short_600ms.mp4	673.3649680200651	673.9732970255773	0.6083290055121324	n/a	n/a	n/a	n/a
283.2041015625	0.2	580002	204	35	2	0	1	14	368	stimuli\Targets_short_600ms_horflip\chopstickwood-tap_short_horflip_short_600ms.mp4	chopstickwood-tap_short_horflip_short_600ms.mp4	674.1649531818207	674.7732772021523	0.6083240203315654	n/a	n/a	n/a	n/a
284.00390625	0.2	581640	205	35	2	0	0	15	32	stimuli\Videos_short_600ms\39.single_stab_with_scissors_short_short_600ms.mp4	39.single_stab_with_scissors_short_short_600ms.mp4	674.9649403962985	675.5732626571539	0.6083222608554024	n/a	n/a	n/a	n/a
284.8037109375	0.2	583278	206	35	2	0	0	16	160	stimuli\Videos_short_600ms_horflip\73.single_stroke_with_flat_hand_short_horflip_short_600ms.mp4	73.single_stroke_with_flat_hand_short_horflip_short_600ms.mp4	675.7649305432351	676.373248112156	0.6083175689209384	n/a	n/a	n/a	n/a
285.60400390625	0.2	584917	207	35	2	0	0	17	337	stimuli\Videos_short_600ms_vertflip\70.(long)stroke_with_finger_all_over_the_hand_short_vertflip_short_600ms.mp4	70.(long)stroke_with_finger_all_over_the_hand_short_vertflip_short_600ms.mp4	676.5649365254521	677.1732086412535	0.6082721158013555	n/a	n/a	n/a	n/a
286.40380859375	0.2	586555	208	35	2	0	0	18	328	stimuli\Videos_short_600ms_vertflip\62.touch_top_to_bottom_with_scissors_short_vertflip_short_600ms.mp4	62.touch_top_to_bottom_with_scissors_short_vertflip_short_600ms.mp4	677.3649014532389	677.9732190221598	0.6083175689209384	n/a	n/a	n/a	n/a
287.20361328125	0.2	588193	209	35	2	0	0	19	34	stimuli\Videos_short_600ms\40.repeated_push_with_finger_short_short_600ms.mp4	40.repeated_push_with_finger_short_short_600ms.mp4	678.1648883744701	678.7732062366372	0.6083178621670413	n/a	n/a	n/a	n/a
288.00390625	0.2	589832	210	35	2	0	0	20	312	stimuli\Videos_short_600ms_vertflip\48.single_slap_with_hand_short_vertflip_short_600ms.mp4	48.single_slap_with_hand_short_vertflip_short_600ms.mp4	678.9648761754397	679.5731890524257	0.6083128769860195	n/a	n/a	n/a	n/a
288.8037109375	0.2	591470	211	35	2	0	0	21	222	stimuli\Videos_short_600ms_horvertflip\48.single_slap_with_hand_short_horvertflip_short_600ms.mp4	48.single_slap_with_hand_short_horvertflip_short_600ms.mp4	679.7648328923401	680.3731774398866	0.6083445475464941	n/a	n/a	n/a	n/a
289.603515625	0.2	593108	212	35	2	0	0	22	200	stimuli\Videos_short_600ms_horvertflip\28.single_injection_with_sharp_needle_short_horvertflip_short_600ms.mp4	28.single_injection_with_sharp_needle_short_horvertflip_short_600ms.mp4	680.5648171743583	681.1731605489213	0.6083433745629918	n/a	n/a	n/a	n/a
290.40380859375	0.2	594747	213	35	2	0	0	23	270	stimuli\Videos_short_600ms_vertflip\1.repeated_touch_with_finger_fast_short_vertflip_short_600ms.mp4	1.repeated_touch_with_finger_fast_short_vertflip_short_600ms.mp4	681.3648240363132	681.9731483498904	0.6083243135772136	n/a	n/a	n/a	n/a
291.20361328125	0.2	596385	214	35	2	0	0	24	161	stimuli\Videos_short_600ms_horflip\74.fingers_walking_from_top_to_bottom_short_horflip_short_600ms.mp4	74.fingers_walking_from_top_to_bottom_short_horflip_short_600ms.mp4	682.1649071422098	682.773133804892	0.6082266626822275	n/a	n/a	n/a	n/a
292.00390625	0.2	598024	215	35	2	0	0	25	193	stimuli\Videos_short_600ms_horvertflip\21.repeated_touch_with_metal_chopstick_short_horvertflip_short_600ms.mp4	21.repeated_touch_with_metal_chopstick_short_horvertflip_short_600ms.mp4	682.9648140073023	683.5731186734024	0.608304666100139	n/a	n/a	n/a	n/a
292.8037109375	0.2	599662	216	35	2	0	0	26	231	stimuli\Videos_short_600ms_horvertflip\56.repeated_touch_with_nail_file_short_horvertflip_short_600ms.mp4	56.repeated_touch_with_nail_file_short_horvertflip_short_600ms.mp4	683.7647809878104	684.3731138055196	0.6083328177091971	n/a	n/a	n/a	n/a
293.603515625	0.2	601300	217	35	2	0	0	27	15	stimuli\Videos_short_600ms\23.single_push_with_a_spoon_short_short_600ms.mp4	23.single_push_with_a_spoon_short_short_600ms.mp4	684.5647693752717	685.1730922226193	0.6083228473476083	n/a	n/a	n/a	n/a
294.40380859375	0.2	602939	218	35	2	0	0	28	79	stimuli\Videos_short_600ms\81.single_stroke_top_to_bottom_with_cotton_pad_short_short_600ms.mp4	81.single_stroke_top_to_bottom_with_cotton_pad_short_short_600ms.mp4	685.3647592289626	685.9730806100806	0.608321381118003	n/a	n/a	n/a	n/a
295.20361328125	0.2	604577	219	35	2	0	1	29	372	stimuli\Targets_short_600ms_horvertflip\brush-stroke_short_vertflip_short_600ms.mp4	brush-stroke_short_vertflip_short_600ms.mp4	686.1647391122915	686.7730596136716	0.6083205013801489	n/a	n/a	n/a	n/a
296.00341796875	0.2	606215	220	35	2	0	0	30	176	stimuli\Videos_short_600ms_horflip\88.repeated_stroke_with_plastic_brush_short_horflip_short_600ms.mp4	88.repeated_stroke_with_plastic_brush_short_horflip_short_600ms.mp4	686.9647260335232	687.5730526930679	0.608326659544673	n/a	n/a	n/a	n/a
296.8037109375	0.2	607854	221	35	2	0	1	31	377	stimuli\Targets_short_600ms_horvertflip\hand-stroke_short_vertflip_short_600ms.mp4	hand-stroke_short_vertflip_short_600ms.mp4	687.7647111952792	688.3730337493807	0.6083225541015054	n/a	n/a	n/a	n/a
297.603515625	0.2	609492	222	35	2	0	0	32	121	stimuli\Videos_short_600ms_horflip\38.double_slap_with_pencil_short_horflip_short_600ms.mp4	38.double_slap_with_pencil_short_horflip_short_600ms.mp4	688.5646987030023	689.1730200841203	0.608321381118003	n/a	n/a	n/a	n/a
298.4033203125	0.2	611130	223	35	2	0	0	33	151	stimuli\Videos_short_600ms_horflip\65.stroke_top_to_bottom_with_stanley_knife_short_horflip_short_600ms.mp4	65.stroke_top_to_bottom_with_stanley_knife_short_horflip_short_600ms.mp4	689.3646826917748	689.9730102310573	0.6083275392825271	n/a	n/a	n/a	n/a
299.20361328125	0.2	612769	224	35	2	0	0	34	177	stimuli\Videos_short_600ms_horflip\89.single_touch_with_plastic_brush_short_horflip_short_600ms.mp4	89.single_touch_with_plastic_brush_short_horflip_short_600ms.mp4	690.1646690265143	690.7729901143862	0.6083210878719001	n/a	n/a	n/a	n/a
300.00341796875	0.2	614407	225	35	2	0	1	35	360	stimuli\Targets_short_600ms\brush-stroke_short_short_600ms.mp4	brush-stroke_short_short_600ms.mp4	690.9646536017785	691.5729764491261	0.6083228473476083	n/a	n/a	n/a	n/a
300.80322265625	0.2	616045	226	35	2	0	0	36	28	stimuli\Videos_short_600ms\35.single_punch_with_hand_short_short_600ms.mp4	35.single_punch_with_hand_short_short_600ms.mp4	691.76463113914	692.3729624906196	0.6083313514795918	n/a	n/a	n/a	n/a
301.603515625	0.2	617684	227	35	2	0	0	37	262	stimuli\Videos_short_600ms_horvertflip\84.single_touch_with_cotton_bud_short_horvertflip_short_600ms.mp4	84.single_touch_with_cotton_bud_short_horvertflip_short_600ms.mp4	692.5646250982741	693.1729467726377	0.6083216743636513	n/a	n/a	n/a	n/a
302.4033203125	0.2	619322	228	35	2	0	1	38	364	stimuli\Targets_short_600ms\hand-pinch_short_short_600ms.mp4	hand-pinch_short_short_600ms.mp4	693.3646143654728	693.9729331073777	0.6083187419048954	n/a	n/a	n/a	n/a
303.203125	0.2	620960	229	35	2	0	0	39	210	stimuli\Videos_short_600ms_horvertflip\37.single_stab_with_nail_file_short_horvertflip_short_600ms.mp4	37.single_stab_with_nail_file_short_horvertflip_short_600ms.mp4	694.1645983542453	694.7729214948386	0.6083231405932565	n/a	n/a	n/a	n/a
304.00341796875	0.2	622599	230	35	2	0	0	40	54	stimuli\Videos_short_600ms\59.single_push_with_long_side_pencil_short_short_600ms.mp4	59.single_push_with_long_side_pencil_short_short_600ms.mp4	694.9645952458382	695.5729048971189	0.608309651280706	n/a	n/a	n/a	n/a
304.80322265625	0.2	624237	231	35	2	0	0	41	86	stimuli\Videos_short_600ms\88.repeated_stroke_with_plastic_brush_short_short_600ms.mp4	88.repeated_stroke_with_plastic_brush_short_short_600ms.mp4	695.764626447205	696.3728900588749	0.6082636116698268	n/a	n/a	n/a	n/a
305.60302734375	0.2	625875	232	35	2	0	0	42	317	stimuli\Videos_short_600ms_vertflip\52.touch_top_to_bottom_with_hammer_short_vertflip_short_600ms.mp4	52.touch_top_to_bottom_with_hammer_short_vertflip_short_600ms.mp4	696.564552959775	697.1728755138765	0.6083225541015054	n/a	n/a	n/a	n/a
306.4033203125	0.2	627514	233	35	2	0	0	43	281	stimuli\Videos_short_600ms_vertflip\2.single_touch_with_finger_short_vertflip_short_600ms.mp4	2.single_touch_with_finger_short_vertflip_short_600ms.mp4	697.364541640482	697.9728627283544	0.6083210878723548	n/a	n/a	n/a	n/a
307.203125	0.2	629152	234	35	2	0	0	44	132	stimuli\Videos_short_600ms_horflip\48.single_slap_with_hand_short_horflip_short_600ms.mp4	48.single_slap_with_hand_short_horflip_short_600ms.mp4	698.1645332536486	698.7728475968643	0.6083143432156248	n/a	n/a	n/a	n/a
308.0029296875	0.2	630790	235	35	2	0	0	45	185	stimuli\Videos_short_600ms_horvertflip\14.repeated_touch_with_pencil_short_horvertflip_short_600ms.mp4	14.repeated_touch_with_pencil_short_horvertflip_short_600ms.mp4	698.964515482945	699.5728095921918	0.608294109246799	n/a	n/a	n/a	n/a
308.80322265625	0.2	632429	236	35	2	0	0	46	308	stimuli\Videos_short_600ms_vertflip\44.pushing_top_to_bottom_with_finger_short_vertflip_short_600ms.mp4	44.pushing_top_to_bottom_with_finger_short_vertflip_short_600ms.mp4	699.7644994717175	700.37282554477	0.6083260730524671	n/a	n/a	n/a	n/a
309.60302734375	0.2	634067	237	35	2	0	1	47	380	stimuli\Targets_short_600ms_vertflip\chopstickwood-tap_short_horvertflip_short_600ms.mp4	chopstickwood-tap_short_horvertflip_short_600ms.mp4	700.5644828739978	701.172802202394	0.6083193283961918	n/a	n/a	n/a	n/a
310.40283203125	0.2	635705	238	35	2	0	0	48	269	stimuli\Videos_short_600ms_horvertflip\90.repeated_touch_with_sponge_short_horvertflip_short_600ms.mp4	90.repeated_touch_with_sponge_short_horvertflip_short_600ms.mp4	701.3644683289995	701.9727879506418	0.6083196216422948	n/a	n/a	n/a	n/a
311.203125	0.2	637344	239	35	2	0	0	49	112	stimuli\Videos_short_600ms_horflip\3.single_push_with_finger_short_horflip_short_600ms.mp4	3.single_push_with_finger_short_horflip_short_600ms.mp4	702.1644517312798	702.772755517642	0.6083037863622849	n/a	n/a	n/a	n/a
312.0029296875	0.2	638982	240	35	2	0	0	50	359	stimuli\Videos_short_600ms_vertflip\90.repeated_touch_with_sponge_short_vertflip_short_600ms.mp4	90.repeated_touch_with_sponge_short_vertflip_short_600ms.mp4	702.9644407052328	703.5727629660887	0.6083222608558572	n/a	n/a	n/a	n/a
312.80322265625	0.2	640621	241	35	2	0	0	51	215	stimuli\Videos_short_600ms_horvertflip\41.injection_with_blunt_syringe_short_horvertflip_short_600ms.mp4	41.injection_with_blunt_syringe_short_horvertflip_short_600ms.mp4	703.7644244007593	704.372758391452	0.6083339906926994	n/a	n/a	n/a	n/a
313.60302734375	0.2	642259	242	35	2	0	0	52	205	stimuli\Videos_short_600ms_horvertflip\32.single_(long)pinch_with_fingers_short_horvertflip_short_600ms.mp4	32.single_(long)pinch_with_fingers_short_horvertflip_short_600ms.mp4	704.5644086827774	705.1727335828464	0.6083249000689648	n/a	n/a	n/a	n/a
314.40283203125	0.2	643897	243	35	2	0	1	53	376	stimuli\Targets_short_600ms_horvertflip\hand-pinch_short_vertflip_short_600ms.mp4	hand-pinch_short_vertflip_short_600ms.mp4	705.3643967769926	705.9727313541775	0.6083345771849054	n/a	n/a	n/a	n/a
315.203125	0.2	645536	244	35	2	0	0	54	219	stimuli\Videos_short_600ms_horvertflip\45.scratching_with_finger_nails_short_horvertflip_short_600ms.mp4	45.scratching_with_finger_nails_short_horvertflip_short_600ms.mp4	706.1643816455025	706.7727047860963	0.6083231405937113	n/a	n/a	n/a	n/a
316.0029296875	0.2	647174	245	35	2	0	0	55	198	stimuli\Videos_short_600ms_horvertflip\26.single_touch_with_a_blunt_syringe_short_horvertflip_short_600ms.mp4	26.single_touch_with_a_blunt_syringe_short_horvertflip_short_600ms.mp4	706.964369153226	707.5726881883766	0.6083190351505436	n/a	n/a	n/a	n/a
316.802734375	0.2	648812	246	35	2	0	0	56	155	stimuli\Videos_short_600ms_horflip\69.stroke_with_soft_sock_short_horflip_short_600ms.mp4	69.stroke_with_soft_sock_short_horflip_short_600ms.mp4	707.7643557812116	708.3726751096078	0.6083193283961918	n/a	n/a	n/a	n/a
317.60302734375	0.2	650451	247	35	2	0	0	57	209	stimuli\Videos_short_600ms_horvertflip\36.single_slap_with_full_hand_short_horvertflip_short_600ms.mp4	36.single_slap_with_full_hand_short_horvertflip_short_600ms.mp4	708.5643403564754	709.1726637903148	0.6083234338393595	n/a	n/a	n/a	n/a
318.40283203125	0.2	652089	248	35	2	0	0	58	206	stimuli\Videos_short_600ms_horvertflip\33.scratch_top_to_bottom_with_scissors_short_horvertflip_short_600ms.mp4	33.scratch_top_to_bottom_with_scissors_short_horvertflip_short_600ms.mp4	709.3643299169203	709.9726463128577	0.608316395937436	n/a	n/a	n/a	n/a
319.20263671875	0.2	653727	249	35	2	0	0	59	188	stimuli\Videos_short_600ms_horvertflip\17.repeated_touch_with_rolling_pin_short_horvertflip_short_600ms.mp4	17.repeated_touch_with_rolling_pin_short_horvertflip_short_600ms.mp4	710.1642922054939	710.7726320611055	0.6083398556115753	n/a	n/a	n/a	n/a
320.0029296875	0.2	655366	250	35	2	0	0	60	343	stimuli\Videos_short_600ms_vertflip\76.tickle_with_fingers_from_top_to_bottom_short_vertflip_short_600ms.mp4	76.tickle_with_fingers_from_top_to_bottom_short_vertflip_short_600ms.mp4	710.9642932025299	711.5726189823367	0.6083257798068189	n/a	n/a	n/a	n/a
320.802734375	0.2	657004	251	35	2	0	0	61	257	stimuli\Videos_short_600ms_horvertflip\8.single_touch_with_hairbrush_short_horvertflip_short_600ms.mp4	8.single_touch_with_hairbrush_short_horvertflip_short_600ms.mp4	711.7642871616636	712.3726038508466	0.6083166891830842	n/a	n/a	n/a	n/a
321.6025390625	0.2	658642	252	35	2	0	0	62	263	stimuli\Videos_short_600ms_horvertflip\85.touch_top_to_bottom_with_fabric_short_horvertflip_short_600ms.mp4	85.touch_top_to_bottom_with_fabric_short_horvertflip_short_600ms.mp4	712.5642506232207	713.1725890126027	0.60833838938197	n/a	n/a	n/a	n/a
322.40283203125	0.2	660281	253	35	2	0	0	63	181	stimuli\Videos_short_600ms_horvertflip\10.single_touch_with_knife_short_horvertflip_short_600ms.mp4	10.single_touch_with_knife_short_horvertflip_short_600ms.mp4	713.364254845962	713.9725718283912	0.6083169824291872	n/a	n/a	n/a	n/a
323.20263671875	0.2	661919	254	35	2	0	0	64	88	stimuli\Videos_short_600ms\9.single_touch_with_hammer_short_short_600ms.mp4	9.single_touch_with_hammer_short_short_600ms.mp4	714.1643746076002	714.7725616820821	0.6081870744819753	n/a	n/a	n/a	n/a
324.00244140625	0.2	663557	255	35	2	0	0	65	141	stimuli\Videos_short_600ms_horflip\56.repeated_touch_with_nail_file_short_horflip_short_600ms.mp4	56.repeated_touch_with_nail_file_short_horflip_short_600ms.mp4	714.9642606522316	715.57252074495	0.6082600927184103	n/a	n/a	n/a	n/a
324.802734375	0.2	665196	256	35	2	0	0	66	261	stimuli\Videos_short_600ms_horvertflip\83.single_stroke_top_to_bottom_with_cotton_bud_short_horvertflip_short_600ms.mp4	83.single_stroke_top_to_bottom_with_cotton_bud_short_horvertflip_short_600ms.mp4	715.7642112109679	716.3725387502504	0.6083275392825271	n/a	n/a	n/a	n/a
325.6025390625	0.2	666834	257	35	2	0	0	67	125	stimuli\Videos_short_600ms_horflip\41.injection_with_blunt_syringe_short_horflip_short_600ms.mp4	41.injection_with_blunt_syringe_short_horflip_short_600ms.mp4	716.5641937335104	717.1725227390225	0.6083290055121324	n/a	n/a	n/a	n/a
326.40234375	0.2	668472	258	35	2	0	0	68	154	stimuli\Videos_short_600ms_horflip\68.stroke_top_to_bottom_with_shawl_short_horflip_short_600ms.mp4	68.stroke_top_to_bottom_with_shawl_short_horflip_short_600ms.mp4	717.3641832939552	717.9725040885814	0.6083207946262519	n/a	n/a	n/a	n/a
327.20263671875	0.2	670111	259	35	2	0	0	69	138	stimuli\Videos_short_600ms_horflip\53.touch_top_to_bottom_with_knife_short_horflip_short_600ms.mp4	53.touch_top_to_bottom_with_knife_short_horflip_short_600ms.mp4	718.1641658164976	718.7724959949937	0.6083301784960895	n/a	n/a	n/a	n/a
328.00244140625	0.2	671749	260	35	2	0	0	70	184	stimuli\Videos_short_600ms_horvertflip\13.single_touch_with_pen_short_horvertflip_short_600ms.mp4	13.single_touch_with_pen_short_horvertflip_short_600ms.mp4	718.9641527377294	719.5724855554386	0.6083328177091971	n/a	n/a	n/a	n/a
328.80224609375	0.2	673387	261	35	2	0	0	71	17	stimuli\Videos_short_600ms\25.single_touch_with_stanley_knife_short_short_600ms.mp4	25.single_touch_with_stanley_knife_short_short_600ms.mp4	719.7641387792228	720.3724686644728	0.6083298852499865	n/a	n/a	n/a	n/a
329.6025390625	0.2	675026	262	35	2	0	0	72	82	stimuli\Videos_short_600ms\84.single_touch_with_cotton_bud_short_short_600ms.mp4	84.single_touch_with_cotton_bud_short_short_600ms.mp4	720.5641309788812	721.1724497207856	0.6083187419044407	n/a	n/a	n/a	n/a
330.40234375	0.2	676664	263	35	2	0	0	73	244	stimuli\Videos_short_600ms_horvertflip\68.stroke_top_to_bottom_with_shawl_short_horvertflip_short_600ms.mp4	68.stroke_top_to_bottom_with_shawl_short_horvertflip_short_600ms.mp4	721.3640642361074	721.9724319500824	0.6083677139749852	n/a	n/a	n/a	n/a
331.20263671875	0.2	678303	264	35	2	0	0	74	354	stimuli\Videos_short_600ms_vertflip\86.touch_top_to_bottom_with_hair_brush_short_vertflip_short_600ms.mp4	86.touch_top_to_bottom_with_hair_brush_short_vertflip_short_600ms.mp4	722.164114205214	722.7724176983302	0.6083034931161819	n/a	n/a	n/a	n/a
332.00244140625	0.2	679941	265	35	2	0	0	75	274	stimuli\Videos_short_600ms_vertflip\13.single_touch_with_pen_short_vertflip_short_600ms.mp4	13.single_touch_with_pen_short_vertflip_short_600ms.mp4	722.9640820654599	723.5724046195619	0.6083225541019601	n/a	n/a	n/a	n/a
332.80224609375	0.2	681579	266	35	2	0	0	76	106	stimuli\Videos_short_600ms_horflip\24.single_stroke_top_to_bottom_with_a_spoon_short_horflip_short_600ms.mp4	24.single_stroke_top_to_bottom_with_a_spoon_short_horflip_short_600ms.mp4	723.7640654677402	724.3723889015796	0.6083234338393595	n/a	n/a	n/a	n/a
333.6025390625	0.2	683218	267	35	2	0	0	77	119	stimuli\Videos_short_600ms_horflip\36.single_slap_with_full_hand_short_horflip_short_600ms.mp4	36.single_slap_with_full_hand_short_horflip_short_600ms.mp4	724.5640570809069	725.1723740633356	0.6083169824287324	n/a	n/a	n/a	n/a
334.40234375	0.2	684856	268	35	2	0	0	78	348	stimuli\Videos_short_600ms_vertflip\80.stroke_with_sharp_stick_all_over_the_hand_short_vertflip_short_600ms.mp4	80.stroke_with_sharp_stick_all_over_the_hand_short_vertflip_short_600ms.mp4	725.3640419494168	725.972357758862	0.6083158094452301	n/a	n/a	n/a	n/a
335.2021484375	0.2	686494	269	35	2	0	0	79	57	stimuli\Videos_short_600ms\61.single_hit_with_rolling_pin_short_short_600ms.mp4	61.single_hit_with_rolling_pin_short_short_600ms.mp4	726.1639983730715	726.7723467328151	0.6083483597435588	n/a	n/a	n/a	n/a
336.00244140625	0.2	688133	270	35	2	0	0	80	89	stimuli\Videos_short_600ms\90.repeated_touch_with_sponge_short_short_600ms.mp4	90.repeated_touch_with_sponge_short_short_600ms.mp4	726.9640313339141	727.5723295486036	0.608298214689512	n/a	n/a	n/a	n/a
336.80224609375	0.2	689771	271	35	2	0	0	81	196	stimuli\Videos_short_600ms_horvertflip\24.single_stroke_top_to_bottom_with_a_spoon_short_horvertflip_short_600ms.mp4	24.single_stroke_top_to_bottom_with_a_spoon_short_horvertflip_short_600ms.mp4	727.7639971414387	728.3723185225567	0.608321381118003	n/a	n/a	n/a	n/a
337.60205078125	0.2	691409	272	35	2	0	0	82	55	stimuli\Videos_short_600ms\6.single_touch_with_flat_hand_short_short_600ms.mp4	6.single_touch_with_flat_hand_short_short_600ms.mp4	728.5639790774894	729.1723016315909	0.6083225541015054	n/a	n/a	n/a	n/a
338.40234375	0.2	693048	273	35	2	0	0	83	108	stimuli\Videos_short_600ms_horflip\26.single_touch_with_a_blunt_syringe_short_horflip_short_600ms.mp4	26.single_touch_with_a_blunt_syringe_short_horflip_short_600ms.mp4	729.3639665852124	729.9722920717736	0.6083254865611707	n/a	n/a	n/a	n/a
339.2021484375	0.2	694686	274	35	2	0	0	84	255	stimuli\Videos_short_600ms_horvertflip\78.single_stroke_top_to_bottom_with_soft_brush_short_horvertflip_short_600ms.mp4	78.single_stroke_top_to_bottom_with_soft_brush_short_horvertflip_short_600ms.mp4	730.163957905133	730.7722754740539	0.6083175689209384	n/a	n/a	n/a	n/a
340.001953125	0.2	696324	275	35	2	0	0	85	291	stimuli\Videos_short_600ms_vertflip\29.single_pinch_with_tweezers_short_vertflip_short_600ms.mp4	29.single_pinch_with_tweezers_short_vertflip_short_600ms.mp4	730.9639369087245	731.5722327774465	0.6082958687220525	n/a	n/a	n/a	n/a
340.80224609375	0.2	697963	276	35	2	0	0	86	179	stimuli\Videos_short_600ms_horflip\90.repeated_touch_with_sponge_short_horflip_short_600ms.mp4	90.repeated_touch_with_sponge_short_horflip_short_600ms.mp4	731.7639247096936	732.372241105631	0.608316395937436	n/a	n/a	n/a	n/a
341.60205078125	0.2	699601	277	35	2	0	0	87	60	stimuli\Videos_short_600ms\64.repeated_touch_with_screwdriver_short_short_600ms.mp4	64.repeated_touch_with_screwdriver_short_short_600ms.mp4	732.5639078187282	733.1722253876492	0.6083175689209384	n/a	n/a	n/a	n/a
342.40185546875	0.2	701239	278	35	2	0	0	88	51	stimuli\Videos_short_600ms\56.repeated_touch_with_nail_file_short_short_600ms.mp4	56.repeated_touch_with_nail_file_short_short_600ms.mp4	733.3638944467139	733.9722202265207	0.6083257798068189	n/a	n/a	n/a	n/a
343.2021484375	0.2	702878	279	35	2	0	0	89	311	stimuli\Videos_short_600ms_vertflip\47.(long)scratching_with_finger_nails_short_vertflip_short_600ms.mp4	47.(long)scratching_with_finger_nails_short_vertflip_short_600ms.mp4	734.1638799017155	734.7722050950306	0.6083251933150677	n/a	n/a	n/a	n/a
344.001953125	0.2	704516	280	35	2	0	0	90	111	stimuli\Videos_short_600ms_horflip\29.single_pinch_with_tweezers_short_horflip_short_600ms.mp4	29.single_pinch_with_tweezers_short_horflip_short_600ms.mp4	734.963867409439	735.5721981744268	0.6083307649878407	n/a	n/a	n/a	n/a
344.8017578125	0.2	706154	281	35	2	0	0	91	264	stimuli\Videos_short_600ms_horvertflip\86.touch_top_to_bottom_with_hair_brush_short_horvertflip_short_600ms.mp4	86.touch_top_to_bottom_with_hair_brush_short_horvertflip_short_600ms.mp4	735.7638502252275	736.372172779329	0.6083225541015054	n/a	n/a	n/a	n/a
345.60205078125	0.2	707793	282	35	2	0	0	92	37	stimuli\Videos_short_600ms\43.touch_top_to_bottom_with_sharp_wooden_stick_short_short_600ms.mp4	43.touch_top_to_bottom_with_sharp_wooden_stick_short_short_600ms.mp4	736.5638348004913	737.1721588208229	0.6083240203315654	n/a	n/a	n/a	n/a
346.40185546875	0.2	709431	283	35	2	0	0	93	29	stimuli\Videos_short_600ms\36.single_slap_with_full_hand_short_short_600ms.mp4	36.single_slap_with_full_hand_short_short_600ms.mp4	737.3638228947066	737.9721451555624	0.6083222608558572	n/a	n/a	n/a	n/a
347.20166015625	0.2	711069	284	35	2	0	0	94	159	stimuli\Videos_short_600ms_horflip\72.(short)stroke_with_finger_all_over_the_hand_short_horflip_short_600ms.mp4	72.(short)stroke_with_finger_all_over_the_hand_short_horflip_short_600ms.mp4	738.1638080564626	738.7721300240723	0.6083219676097542	n/a	n/a	n/a	n/a
348.001953125	0.2	712708	285	35	2	0	0	95	171	stimuli\Videos_short_600ms_horflip\83.single_stroke_top_to_bottom_with_cotton_bud_short_horflip_short_600ms.mp4	83.single_stroke_top_to_bottom_with_cotton_bud_short_horflip_short_600ms.mp4	738.9637943912021	739.5721145993366	0.6083202081345007	n/a	n/a	n/a	n/a
348.8017578125	0.2	714346	286	35	2	0	0	96	322	stimuli\Videos_short_600ms_vertflip\57.single_touch_with_nail_file_short_vertflip_short_600ms.mp4	57.single_touch_with_nail_file_short_vertflip_short_600ms.mp4	739.7637736880397	740.3721021070601	0.6083284190203813	n/a	n/a	n/a	n/a
349.6015625	0.2	715984	287	35	2	0	0	97	341	stimuli\Videos_short_600ms_vertflip\74.fingers_walking_from_top_to_bottom_short_vertflip_short_600ms.mp4	74.fingers_walking_from_top_to_bottom_short_vertflip_short_600ms.mp4	740.5637453604827	741.1720875620617	0.6083422015790347	n/a	n/a	n/a	n/a
350.40185546875	0.2	717623	288	35	2	0	0	98	164	stimuli\Videos_short_600ms_horflip\77.tapping_with_all_fingers_short_horflip_short_600ms.mp4	77.tapping_with_all_fingers_short_horflip_short_600ms.mp4	741.363725243812	741.9720724305716	0.6083471867596018	9.0	9.0	2.5599663001776207	1.0
386.34228515625	0.2	791229	289	35	3	0	0	0	123	stimuli\Videos_short_600ms_horflip\4.repeated_tap_with_finger_slow_short_horflip_short_600ms.mp4	4.repeated_tap_with_finger_slow_short_horflip_short_600ms.mp4	777.3047872104894	777.9130895306216	0.6083023201322248	n/a	n/a	n/a	n/a
387.150390625	0.2	792884	290	35	3	0	0	1	134	stimuli\Videos_short_600ms_horflip\5.repeated_tap_with_finger_moving_from_top_to_bottom_short_horflip_short_600ms.mp4	5.repeated_tap_with_finger_moving_from_top_to_bottom_short_horflip_short_600ms.mp4	778.113090586307	778.7214049295226	0.6083143432156248	n/a	n/a	n/a	n/a
387.95068359375	0.2	794523	291	35	3	0	0	2	91	stimuli\Videos_short_600ms_horflip\10.single_touch_with_knife_short_horflip_short_600ms.mp4	10.single_touch_with_knife_short_horflip_short_600ms.mp4	778.9130889441299	779.5213956629514	0.6083067188214955	n/a	n/a	n/a	n/a
388.75048828125	0.2	796161	292	35	3	0	0	3	13	stimuli\Videos_short_600ms\21.repeated_touch_with_metal_chopstick_short_short_600ms.mp4	21.repeated_touch_with_metal_chopstick_short_short_600ms.mp4	779.7130368636526	780.3213843436583	0.6083474800057047	n/a	n/a	n/a	n/a
389.55029296875	0.2	797799	293	35	3	0	0	4	126	stimuli\Videos_short_600ms_horflip\42.single_slap_with_plastic_whisk_short_horflip_short_600ms.mp4	42.single_slap_with_plastic_whisk_short_horflip_short_600ms.mp4	780.5130413796401	781.1213651067251	0.6083237270850077	n/a	n/a	n/a	n/a
390.3505859375	0.2	799438	294	35	3	0	0	5	272	stimuli\Videos_short_600ms_vertflip\11.single_touch_with_lighter_short_vertflip_short_600ms.mp4	11.single_touch_with_lighter_short_vertflip_short_600ms.mp4	781.3130291806092	781.9213523212029	0.6083231405937113	n/a	n/a	n/a	n/a
391.150390625	0.2	801076	295	35	3	0	0	6	356	stimuli\Videos_short_600ms_vertflip\88.repeated_stroke_with_plastic_brush_short_vertflip_short_600ms.mp4	88.repeated_stroke_with_plastic_brush_short_vertflip_short_600ms.mp4	782.1130131693812	782.7213433478773	0.6083301784960895	n/a	n/a	n/a	n/a
391.9501953125	0.2	802714	296	35	3	0	0	7	21	stimuli\Videos_short_600ms\29.single_pinch_with_tweezers_short_short_600ms.mp4	29.single_pinch_with_tweezers_short_short_600ms.mp4	782.9129974513994	783.5213223514688	0.6083249000694195	n/a	n/a	n/a	n/a
392.75048828125	0.2	804353	297	35	3	0	0	8	36	stimuli\Videos_short_600ms\42.single_slap_with_plastic_whisk_short_short_600ms.mp4	42.single_slap_with_plastic_whisk_short_short_600ms.mp4	783.7129831996472	784.3213072199787	0.6083240203315654	n/a	n/a	n/a	n/a
393.55029296875	0.2	805991	298	35	3	0	0	9	145	stimuli\Videos_short_600ms_horflip\6.single_touch_with_flat_hand_short_horflip_short_600ms.mp4	6.single_touch_with_flat_hand_short_horflip_short_600ms.mp4	784.5129704141245	785.121290622259	0.6083202081345007	n/a	n/a	n/a	n/a
394.3505859375	0.2	807630	299	35	3	0	0	10	166	stimuli\Videos_short_600ms_horflip\79.long_with_soft_brush_all_over_the_hand_short_horflip_short_600ms.mp4	79.long_with_soft_brush_all_over_the_hand_short_horflip_short_600ms.mp4	785.3129588015859	785.9212766637525	0.6083178621665866	n/a	n/a	n/a	n/a
395.150390625	0.2	809268	300	35	3	0	0	11	11	stimuli\Videos_short_600ms\2.single_touch_with_finger_short_short_600ms.mp4	2.single_touch_with_finger_short_short_600ms.mp4	786.1129568661627	786.7212635849842	0.6083067188214955	n/a	n/a	n/a	n/a
395.9501953125	0.2	810906	301	35	3	0	0	12	130	stimuli\Videos_short_600ms_horflip\46.scratching_top_to_bottom_with_finger_nails_short_horflip_short_600ms.mp4	46.scratching_top_to_bottom_with_finger_nails_short_horflip_short_600ms.mp4	786.9129056654233	787.5212490399858	0.6083433745625371	n/a	n/a	n/a	n/a
396.75048828125	0.2	812545	302	35	3	0	0	13	306	stimuli\Videos_short_600ms_vertflip\42.single_slap_with_plastic_whisk_short_vertflip_short_600ms.mp4	42.single_slap_with_plastic_whisk_short_vertflip_short_600ms.mp4	787.7128978650817	788.3212391869229	0.6083413218411806	n/a	n/a	n/a	n/a
397.55029296875	0.2	814183	303	35	3	0	0	14	309	stimuli\Videos_short_600ms_vertflip\45.scratching_with_finger_nails_short_vertflip_short_600ms.mp4	45.scratching_with_finger_nails_short_vertflip_short_600ms.mp4	788.51287276323	789.1212205364818	0.6083477732518077	n/a	n/a	n/a	n/a
398.35009765625	0.2	815821	304	35	3	0	0	15	96	stimuli\Videos_short_600ms_horflip\15.single_stroke_top_to_bottom_with_a_plastic_whisk_short_horflip_short_600ms.mp4	15.single_stroke_top_to_bottom_with_a_plastic_whisk_short_horflip_short_600ms.mp4	789.312883437382	789.9212059914835	0.6083225541015054	n/a	n/a	n/a	n/a
399.150390625	0.2	817460	305	35	3	0	0	16	301	stimuli\Videos_short_600ms_vertflip\38.double_slap_with_pencil_short_vertflip_short_600ms.mp4	38.double_slap_with_pencil_short_vertflip_short_600ms.mp4	790.1128765167778	790.7211911532395	0.6083146364617278	n/a	n/a	n/a	n/a
399.9501953125	0.2	819098	306	35	3	0	0	17	93	stimuli\Videos_short_600ms_horflip\12.repeated_touch_with_nail_file_short_horflip_short_600ms.mp4	12.repeated_touch_with_nail_file_short_horflip_short_600ms.mp4	790.9128549338775	791.5211528553209	0.608297921443409	n/a	n/a	n/a	n/a
400.75	0.2	820736	307	35	3	0	0	18	191	stimuli\Videos_short_600ms_horvertflip\2.single_touch_with_finger_short_horvertflip_short_600ms.mp4	2.single_touch_with_finger_short_horvertflip_short_600ms.mp4	791.7128503592407	792.3211647024564	0.6083143432156248	n/a	n/a	n/a	n/a
401.55029296875	0.2	822375	308	35	3	0	0	19	100	stimuli\Videos_short_600ms_horflip\19.single_touch_with_rolling_pin_short_horflip_short_600ms.mp4	19.single_touch_with_rolling_pin_short_horflip_short_600ms.mp4	792.5128255506352	793.1211225923407	0.6082970417055549	n/a	n/a	n/a	n/a
402.35009765625	0.2	824013	309	35	3	0	0	20	275	stimuli\Videos_short_600ms_vertflip\14.repeated_touch_with_pencil_short_vertflip_short_600ms.mp4	14.repeated_touch_with_pencil_short_vertflip_short_600ms.mp4	793.312810125899	793.9211297475417	0.6083196216427496	n/a	n/a	n/a	n/a
403.14990234375	0.2	825651	310	35	3	0	0	21	26	stimuli\Videos_short_600ms\33.scratch_top_to_bottom_with_scissors_short_short_600ms.mp4	33.scratch_top_to_bottom_with_scissors_short_short_600ms.mp4	794.1127935281793	794.7211172552647	0.6083237270854625	n/a	n/a	n/a	n/a
403.9501953125	0.2	827290	311	35	3	0	1	22	373	stimuli\Targets_short_600ms_horvertflip\chopstick-silver-tap_short_vertflip_short_600ms.mp4	chopstick-silver-tap_short_vertflip_short_600ms.mp4	794.9127813291489	795.5211047629882	0.6083234338393595	n/a	n/a	n/a	n/a
404.75	0.2	828928	312	35	3	0	0	23	287	stimuli\Videos_short_600ms_vertflip\25.single_touch_with_stanley_knife_short_vertflip_short_600ms.mp4	25.single_touch_with_stanley_knife_short_vertflip_short_600ms.mp4	795.7127670773966	796.3210957896626	0.6083287122660295	n/a	n/a	n/a	n/a
405.5498046875	0.2	830566	313	35	3	0	0	24	305	stimuli\Videos_short_600ms_vertflip\41.injection_with_blunt_syringe_short_vertflip_short_600ms.mp4	41.injection_with_blunt_syringe_short_vertflip_short_600ms.mp4	796.5127531188905	797.121075672992	0.6083225541015054	n/a	n/a	n/a	n/a
406.35009765625	0.2	832205	314	35	3	0	0	25	113	stimuli\Videos_short_600ms_horflip\30.finger_pulling_back_another_finger_short_horflip_short_600ms.mp4	30.finger_pulling_back_another_finger_short_horflip_short_600ms.mp4	797.3127385738921	797.921060834748	0.6083222608558572	n/a	n/a	n/a	n/a
407.14990234375	0.2	833843	315	35	3	0	0	26	122	stimuli\Videos_short_600ms_horflip\39.single_stab_with_scissors_short_horflip_short_600ms.mp4	39.single_stab_with_scissors_short_horflip_short_600ms.mp4	798.112724615386	798.7210465829958	0.6083219676097542	n/a	n/a	n/a	n/a
407.94970703125	0.2	835481	316	35	3	0	0	27	35	stimuli\Videos_short_600ms\41.injection_with_blunt_syringe_short_short_600ms.mp4	41.injection_with_blunt_syringe_short_short_600ms.mp4	798.912708310912	799.5210317447518	0.6083234338398142	n/a	n/a	n/a	n/a
408.75	0.2	837120	317	35	3	0	0	28	342	stimuli\Videos_short_600ms_vertflip\75.(long)stroke_with_fingers_all_over_the_hand_short_vertflip_short_600ms.mp4	75.(long)stroke_with_fingers_all_over_the_hand_short_vertflip_short_600ms.mp4	799.7126928861762	800.3210166132617	0.6083237270854625	n/a	n/a	n/a	n/a
409.5498046875	0.2	838758	318	35	3	0	0	29	90	stimuli\Videos_short_600ms_horflip\1.repeated_touch_with_finger_fast_short_horflip_short_600ms.mp4	1.repeated_touch_with_finger_fast_short_horflip_short_600ms.mp4	800.5126803938997	801.1210023615095	0.6083219676097542	n/a	n/a	n/a	n/a
410.349609375	0.2	840396	319	35	3	0	0	30	168	stimuli\Videos_short_600ms_horflip\80.stroke_with_sharp_stick_all_over_the_hand_short_horflip_short_600ms.mp4	80.stroke_with_sharp_stick_all_over_the_hand_short_horflip_short_600ms.mp4	801.3126564650315	801.9209892827407	0.6083328177091971	n/a	n/a	n/a	n/a
411.14990234375	0.2	842035	320	35	3	0	0	31	339	stimuli\Videos_short_600ms_vertflip\72.(short)stroke_with_finger_all_over_the_hand_short_vertflip_short_600ms.mp4	72.(short)stroke_with_finger_all_over_the_hand_short_vertflip_short_600ms.mp4	802.1126457322307	802.7209756174807	0.6083298852499865	n/a	n/a	n/a	n/a
411.94970703125	0.2	843673	321	35	3	0	0	32	52	stimuli\Videos_short_600ms\57.single_touch_with_nail_file_short_short_600ms.mp4	57.single_touch_with_nail_file_short_short_600ms.mp4	802.912632653462	803.5209593130066	0.608326659544673	n/a	n/a	n/a	n/a
412.74951171875	0.2	845311	322	35	3	0	0	33	78	stimuli\Videos_short_600ms\80.stroke_with_sharp_stick_all_over_the_hand_short_short_600ms.mp4	80.stroke_with_sharp_stick_all_over_the_hand_short_short_600ms.mp4	803.7126213341694	804.3209444747627	0.6083231405932565	n/a	n/a	n/a	n/a
413.5498046875	0.2	846950	323	35	3	0	0	34	316	stimuli\Videos_short_600ms_vertflip\51.repeated_touch_with_hammer_short_vertflip_short_600ms.mp4	51.repeated_touch_with_hammer_short_vertflip_short_600ms.mp4	804.5126041499575	805.1209290500269	0.6083249000694195	n/a	n/a	n/a	n/a
414.349609375	0.2	848588	324	35	3	0	0	35	67	stimuli\Videos_short_600ms\70.(long)stroke_with_finger_all_over_the_hand_short_short_600ms.mp4	70.(long)stroke_with_finger_all_over_the_hand_short_short_600ms.mp4	805.3125948833863	805.9209147982747	0.6083199148883978	n/a	n/a	n/a	n/a
415.14990234375	0.2	850227	325	35	3	0	1	36	371	stimuli\Targets_short_600ms_horflip\hand-stroke_short_horflip_short_600ms.mp4	hand-stroke_short_horflip_short_600ms.mp4	806.112563330124	806.7209002532763	0.6083369231523648	n/a	n/a	n/a	n/a
415.94970703125	0.2	851865	326	35	3	0	0	37	42	stimuli\Videos_short_600ms\48.single_slap_with_hand_short_short_600ms.mp4	48.single_slap_with_hand_short_short_600ms.mp4	806.9125784029648	807.5208643013252	0.6082858983604638	n/a	n/a	n/a	n/a
416.74951171875	0.2	853503	327	35	3	0	0	38	12	stimuli\Videos_short_600ms\20.single_touch_with_screwdriver_short_short_600ms.mp4	20.single_touch_with_screwdriver_short_short_600ms.mp4	807.7125556470805	808.320870870034	0.608315222953479	n/a	n/a	n/a	n/a
417.5498046875	0.2	855142	328	35	3	0	0	39	2	stimuli\Videos_short_600ms\11.single_touch_with_lighter_short_short_600ms.mp4	11.single_touch_with_lighter_short_short_600ms.mp4	808.5125361169016	809.1208507533634	0.6083146364617278	n/a	n/a	n/a	n/a
418.349609375	0.2	856780	329	35	3	0	1	40	379	stimuli\Targets_short_600ms_vertflip\chopstick-silver-tap_short_horvertflip_short_600ms.mp4	chopstick-silver-tap_short_horvertflip_short_600ms.mp4	809.3125221583955	809.9208391408247	0.6083169824291872	n/a	n/a	n/a	n/a
419.1494140625	0.2	858418	330	35	3	0	0	41	325	stimuli\Videos_short_600ms_vertflip\6.single_touch_with_flat_hand_short_vertflip_short_600ms.mp4	6.single_touch_with_flat_hand_short_vertflip_short_600ms.mp4	810.112504680938	810.7208562663868	0.6083515854488724	n/a	n/a	n/a	n/a
419.94970703125	0.2	860057	331	35	3	0	0	42	266	stimuli\Videos_short_600ms_horvertflip\88.repeated_stroke_with_plastic_brush_short_horvertflip_short_600ms.mp4	88.repeated_stroke_with_plastic_brush_short_horvertflip_short_600ms.mp4	810.9124895494479	811.5208162089925	0.608326659544673	n/a	n/a	n/a	n/a
420.74951171875	0.2	861695	332	35	3	0	0	43	99	stimuli\Videos_short_600ms_horflip\18.single_stroke_from_top_to_bottom_with_rolling_pin_short_horflip_short_600ms.mp4	18.single_stroke_from_top_to_bottom_with_rolling_pin_short_horflip_short_600ms.mp4	811.7124764706796	812.3208043032078	0.6083278325281753	n/a	n/a	n/a	n/a
421.54931640625	0.2	863333	333	35	3	0	0	44	19	stimuli\Videos_short_600ms\27.single_push_with_a_plastic_whisk_short_short_600ms.mp4	27.single_push_with_a_plastic_whisk_short_short_600ms.mp4	812.5124786406996	813.120785359521	0.6083067188214955	n/a	n/a	n/a	n/a
422.349609375	0.2	864972	334	35	3	0	0	45	135	stimuli\Videos_short_600ms_horflip\50.single_(long)hard_push_with_thumb_short_horflip_short_600ms.mp4	50.single_(long)hard_push_with_thumb_short_horflip_short_600ms.mp4	813.312448846913	813.920770228031	0.608321381118003	n/a	n/a	n/a	n/a
423.1494140625	0.2	866610	335	35	3	0	0	46	53	stimuli\Videos_short_600ms\58.single_slap_with_pencil_short_short_600ms.mp4	58.single_slap_with_pencil_short_short_600ms.mp4	814.1124319559472	814.7207559762787	0.6083240203315654	n/a	n/a	n/a	n/a
423.94921875	0.2	868248	336	35	3	0	0	47	16	stimuli\Videos_short_600ms\24.single_stroke_top_to_bottom_with_a_spoon_short_short_600ms.mp4	24.single_stroke_top_to_bottom_with_a_spoon_short_short_600ms.mp4	814.9124209299002	815.5207405515425	0.6083196216422948	n/a	n/a	n/a	n/a
424.74951171875	0.2	869887	337	35	3	0	0	48	40	stimuli\Videos_short_600ms\46.scratching_top_to_bottom_with_finger_nails_short_short_600ms.mp4	46.scratching_top_to_bottom_with_finger_nails_short_short_600ms.mp4	815.712403159197	816.3207268862825	0.6083237270854625	n/a	n/a	n/a	n/a
425.54931640625	0.2	871525	338	35	3	0	1	49	375	stimuli\Targets_short_600ms_horvertflip\finger-tap_short_vertflip_short_600ms.mp4	finger-tap_short_vertflip_short_600ms.mp4	816.5123859749856	817.1207102885628	0.6083243135772136	n/a	n/a	n/a	n/a
426.34912109375	0.2	873163	339	35	3	0	0	50	58	stimuli\Videos_short_600ms\62.touch_top_to_bottom_with_scissors_short_short_600ms.mp4	62.touch_top_to_bottom_with_scissors_short_short_600ms.mp4	817.3123995815968	817.9206972097941	0.608297628197306	n/a	n/a	n/a	n/a
427.1494140625	0.2	874802	340	35	3	0	0	51	324	stimuli\Videos_short_600ms_vertflip\59.single_push_with_long_side_pencil_short_vertflip_short_600ms.mp4	59.single_push_with_long_side_pencil_short_vertflip_short_600ms.mp4	818.1123351847905	818.720682078304	0.6083468935134988	n/a	n/a	n/a	n/a
427.94921875	0.2	876440	341	35	3	0	0	52	143	stimuli\Videos_short_600ms_horflip\58.single_slap_with_pencil_short_horflip_short_600ms.mp4	58.single_slap_with_pencil_short_horflip_short_600ms.mp4	818.9123291439241	819.5206669468143	0.6083378028902189	n/a	n/a	n/a	n/a
428.7490234375	0.2	878078	342	35	3	0	0	53	72	stimuli\Videos_short_600ms\75.(long)stroke_with_fingers_all_over_the_hand_short_short_600ms.mp4	75.(long)stroke_with_fingers_all_over_the_hand_short_short_600ms.mp4	819.7123327801737	820.3206538680456	0.6083210878719001	n/a	n/a	n/a	n/a
429.54931640625	0.2	879717	343	35	3	0	0	54	163	stimuli\Videos_short_600ms_horflip\76.tickle_with_fingers_from_top_to_bottom_short_horflip_short_600ms.mp4	76.tickle_with_fingers_from_top_to_bottom_short_horflip_short_600ms.mp4	820.5123226338646	821.1206404960312	0.6083178621665866	n/a	n/a	n/a	n/a
430.34912109375	0.2	881355	344	35	3	0	0	55	47	stimuli\Videos_short_600ms\52.touch_top_to_bottom_with_hammer_short_short_600ms.mp4	52.touch_top_to_bottom_with_hammer_short_short_600ms.mp4	821.3123033969314	821.9206001453913	0.6082967484599067	n/a	n/a	n/a	n/a
431.14892578125	0.2	882993	345	35	3	0	0	56	284	stimuli\Videos_short_600ms_vertflip\22.single_touch_with_metal_chopstick_short_vertflip_short_600ms.mp4	22.single_touch_with_metal_chopstick_short_vertflip_short_600ms.mp4	822.1122958898354	822.7205914653118	0.6082955754764043	n/a	n/a	n/a	n/a
431.94921875	0.2	884632	346	35	3	0	0	57	147	stimuli\Videos_short_600ms_horflip\61.single_hit_with_rolling_pin_short_horflip_short_600ms.mp4	61.single_hit_with_rolling_pin_short_horflip_short_600ms.mp4	822.9122983531015	823.5205786797892	0.6082803266876908	n/a	n/a	n/a	n/a
432.7490234375	0.2	886270	347	35	3	0	0	58	347	stimuli\Videos_short_600ms_vertflip\8.single_touch_with_hairbrush_short_vertflip_short_600ms.mp4	8.single_touch_with_hairbrush_short_vertflip_short_600ms.mp4	823.712267679577	824.320589060695	0.608321381118003	n/a	n/a	n/a	n/a
433.54931640625	0.2	887909	348	35	3	0	0	59	38	stimuli\Videos_short_600ms\44.pushing_top_to_bottom_with_finger_short_short_600ms.mp4	44.pushing_top_to_bottom_with_finger_short_short_600ms.mp4	824.5122437507093	825.1205422586445	0.6082985079351602	n/a	n/a	n/a	n/a
434.34912109375	0.2	889547	349	35	3	0	1	60	367	stimuli\Targets_short_600ms_horflip\chopstick-silver-tap_short_horflip_short_600ms.mp4	chopstick-silver-tap_short_horflip_short_600ms.mp4	825.3122365368595	825.920559090961	0.6083225541015054	n/a	n/a	n/a	n/a
435.14892578125	0.2	891185	350	35	3	0	0	61	63	stimuli\Videos_short_600ms\67.single_touch_with_sponge_short_short_600ms.mp4	67.single_touch_with_sponge_short_short_600ms.mp4	826.112217886418	826.7205395607821	0.608321674364106	n/a	n/a	n/a	n/a
435.94921875	0.2	892824	351	35	3	0	0	62	251	stimuli\Videos_short_600ms_horvertflip\74.fingers_walking_from_top_to_bottom_short_horvertflip_short_600ms.mp4	74.fingers_walking_from_top_to_bottom_short_horvertflip_short_600ms.mp4	826.912199529223	827.520532933424	0.6083334042009483	n/a	n/a	n/a	n/a
436.7490234375	0.2	894462	352	35	3	0	0	63	315	stimuli\Videos_short_600ms_vertflip\50.single_(long)hard_push_with_thumb_short_vertflip_short_600ms.mp4	50.single_(long)hard_push_with_thumb_short_vertflip_short_600ms.mp4	827.7121867437004	828.3205087113101	0.6083219676097542	n/a	n/a	n/a	n/a
437.548828125	0.2	896100	353	35	3	0	1	64	364	stimuli\Targets_short_600ms\hand-pinch_short_short_600ms.mp4	hand-pinch_short_short_600ms.mp4	828.5121695594889	829.1204932865744	0.6083237270854625	n/a	n/a	n/a	n/a
438.34912109375	0.2	897739	354	35	3	0	0	65	80	stimuli\Videos_short_600ms\82.repeated_touch_with_cotton_bud_short_short_600ms.mp4	82.repeated_touch_with_cotton_bud_short_short_600ms.mp4	829.3121567739663	829.9204787415761	0.6083219676097542	n/a	n/a	n/a	n/a
439.14892578125	0.2	899377	355	35	3	0	0	66	230	stimuli\Videos_short_600ms_horvertflip\55.touch_top_to_bottom_with_nail_file_short_horvertflip_short_600ms.mp4	55.touch_top_to_bottom_with_nail_file_short_horvertflip_short_600ms.mp4	830.1121395897549	830.7204630235942	0.6083234338393595	n/a	n/a	n/a	n/a
439.94873046875	0.2	901015	356	35	3	0	0	67	62	stimuli\Videos_short_600ms\66.stroke_top_to_bottom_with_sponge_short_short_600ms.mp4	66.stroke_top_to_bottom_with_sponge_short_short_600ms.mp4	830.912144692234	831.5204470123663	0.6083023201322248	n/a	n/a	n/a	n/a
440.7490234375	0.2	902654	357	35	3	0	0	68	7	stimuli\Videos_short_600ms\16.repeated_touch_with_plastic_brush_short_short_600ms.mp4	16.repeated_touch_with_plastic_brush_short_short_600ms.mp4	831.7121181241528	832.3204377457951	0.6083196216422948	n/a	n/a	n/a	n/a
441.548828125	0.2	904292	358	35	3	0	0	69	97	stimuli\Videos_short_600ms_horflip\16.repeated_touch_with_plastic_brush_short_horflip_short_600ms.mp4	16.repeated_touch_with_plastic_brush_short_horflip_short_600ms.mp4	832.512080705972	833.1204196818458	0.6083389758737212	n/a	n/a	n/a	n/a
442.3486328125	0.2	905930	359	35	3	0	0	70	41	stimuli\Videos_short_600ms\47.(long)scratching_with_finger_nails_short_short_600ms.mp4	47.(long)scratching_with_finger_nails_short_short_600ms.mp4	833.3120913801235	833.9204051368474	0.6083137567238737	n/a	n/a	n/a	n/a
443.14892578125	0.2	907569	360	35	3	0	1	71	370	stimuli\Targets_short_600ms_horflip\hand-pinch_short_horflip_short_600ms.mp4	hand-pinch_short_horflip_short_600ms.mp4	834.1120642255505	834.7203920580791	0.6083278325286301	n/a	n/a	n/a	n/a
