onset	duration	onsetsample	eventnumber	subjectnr	sequencenumber	blocksequencenumber	istarget	presentationnumber	stimnumber	stim	stimname	time_stimon	time_stimoff	stimdur	cresp	resp	rt	correct
48.2412109375	0.2	98798	0	10	0	0	0	0	148	stimuli\Videos_short_600ms_horflip\62.touch_top_to_bottom_with_scissors_short_horflip_short_600ms.mp4	62.touch_top_to_bottom_with_scissors_short_horflip_short_600ms.mp4	89.65332833640787	90.26167056245004	0.6083422260421685				
49.041015625	0.2	100436	1	10	0	0	0	1	123	stimuli\Videos_short_600ms_horflip\4.repeated_tap_with_finger_slow_short_horflip_short_600ms.mp4	4.repeated_tap_with_finger_slow_short_horflip_short_600ms.mp4	90.4533387173442	91.0616108574036	0.6082721400593982				
49.8408203125	0.2	102074	2	10	0	0	0	2	259	stimuli\Videos_short_600ms_horvertflip\81.single_stroke_top_to_bottom_with_cotton_pad_short_horvertflip_short_600ms.mp4	81.single_stroke_top_to_bottom_with_cotton_pad_short_horvertflip_short_600ms.mp4	91.25331977360156	91.86163941964104	0.6083196460394902				
50.64111328125	0.2	103713	3	10	0	0	0	3	331	stimuli\Videos_short_600ms_vertflip\65.stroke_top_to_bottom_with_stanley_knife_short_vertflip_short_600ms.mp4	65.stroke_top_to_bottom_with_stanley_knife_short_vertflip_short_600ms.mp4	92.05331314622435	92.66160581355872	0.6082926673343536				
51.44091796875	0.2	105351	4	10	0	0	0	4	24	stimuli\Videos_short_600ms\31.hand_grabbing_wrist_short_short_600ms.mp4	31.hand_grabbing_wrist_short_short_600ms.mp4	92.85329390923472	93.46159859968792	0.6083046904532239				
52.24072265625	0.2	106989	5	10	0	0	0	5	155	stimuli\Videos_short_600ms_horflip\69.stroke_with_soft_sock_short_horflip_short_600ms.mp4	69.stroke_with_soft_sock_short_horflip_short_600ms.mp4	93.65328171016836	94.26158669386814	0.6083049836997816				
53.041015625	0.2	108628	6	10	0	0	0	6	5	stimuli\Videos_short_600ms\14.repeated_touch_with_pencil_short_short_600ms.mp4	14.repeated_touch_with_pencil_short_short_600ms.mp4	94.45326452590643	95.0615964883109	0.6083319624044634				
53.8408203125	0.2	110266	7	10	0	0	0	7	165	stimuli\Videos_short_600ms_horflip\78.single_stroke_top_to_bottom_with_soft_brush_short_horflip_short_600ms.mp4	78.single_stroke_top_to_bottom_with_soft_brush_short_horflip_short_600ms.mp4	95.25325789852876	95.8615930866481	0.6083351881193266				
54.640625	0.2	111904	8	10	0	0	0	8	178	stimuli\Videos_short_600ms_horflip\9.single_touch_with_hammer_short_horflip_short_600ms.mp4	9.single_touch_with_hammer_short_horflip_short_600ms.mp4	96.05324716569612	96.66156710498262	0.6083199392865026				
55.44091796875	0.2	113543	9	10	0	0	0	9	221	stimuli\Videos_short_600ms_horvertflip\47.(long)scratching_with_finger_nails_short_horvertflip_short_600ms.mp4	47.(long)scratching_with_finger_nails_short_horvertflip_short_600ms.mp4	96.85323232740892	97.46154229630385	0.6083099688949005				
56.24072265625	0.2	115181	10	10	0	0	0	10	281	stimuli\Videos_short_600ms_vertflip\2.single_touch_with_finger_short_vertflip_short_600ms.mp4	2.single_touch_with_finger_short_vertflip_short_600ms.mp4	97.65322159457628	98.26154153386231	0.6083199392860479				
57.04052734375	0.2	116819	11	10	0	0	0	11	64	stimuli\Videos_short_600ms\68.stroke_top_to_bottom_with_shawl_short_short_600ms.mp4	68.stroke_top_to_bottom_with_shawl_short_short_600ms.mp4	98.4532088090159	99.06152992128956	0.6083211122736429				
57.8408203125	0.2	118458	12	10	0	0	0	12	116	stimuli\Videos_short_600ms_horflip\33.scratch_top_to_bottom_with_scissors_short_horflip_short_600ms.mp4	33.scratch_top_to_bottom_with_scissors_short_horflip_short_600ms.mp4	99.2531954369624	99.86151596274205	0.608320525779618				
58.640625	0.2	120096	13	10	0	0	0	13	335	stimuli\Videos_short_600ms_vertflip\69.stroke_with_soft_sock_short_vertflip_short_600ms.mp4	69.stroke_with_soft_sock_short_vertflip_short_600ms.mp4	100.05316476334838	100.6615055231564	0.6083407598080157				
59.4404296875	0.2	121734	14	10	0	0	0	14	157	stimuli\Videos_short_600ms_horflip\70.(long)stroke_with_finger_all_over_the_hand_short_horflip_short_600ms.mp4	70.(long)stroke_with_finger_all_over_the_hand_short_horflip_short_600ms.mp4	100.85312969103188	101.46149244434946	0.6083627533175786				
60.24072265625	0.2	123373	15	10	0	0	0	15	93	stimuli\Videos_short_600ms_horflip\12.repeated_touch_with_nail_file_short_horflip_short_600ms.mp4	12.repeated_touch_with_nail_file_short_horflip_short_600ms.mp4	101.65312277040766	102.2614787790494	0.6083560086417492				
61.04052734375	0.2	125011	16	10	0	0	0	16	50	stimuli\Videos_short_600ms\55.touch_top_to_bottom_with_nail_file_short_short_600ms.mp4	55.touch_top_to_bottom_with_nail_file_short_short_600ms.mp4	102.45310148069076	103.06146570024248	0.6083642195517314				
61.84033203125	0.2	126649	17	10	0	0	0	17	294	stimuli\Videos_short_600ms_vertflip\31.hand_grabbing_wrist_short_vertflip_short_600ms.mp4	31.hand_grabbing_wrist_short_vertflip_short_600ms.mp4	103.25308840188382	103.86145056870782	0.6083621668240085				
62.640625	0.2	128288	18	10	0	0	0	18	346	stimuli\Videos_short_600ms_vertflip\79.long_with_soft_brush_all_over_the_hand_short_vertflip_short_600ms.mp4	79.long_with_soft_brush_all_over_the_hand_short_vertflip_short_600ms.mp4	104.05310083554788	104.6614421818499	0.6083413463020406				
63.4404296875	0.2	129926	19	10	0	0	0	19	200	stimuli\Videos_short_600ms_horvertflip\28.single_injection_with_sharp_needle_short_horvertflip_short_600ms.mp4	28.single_injection_with_sharp_needle_short_horvertflip_short_600ms.mp4	104.85311062999062	105.46142968953654	0.60831905954592				
64.240234375	0.2	131564	20	10	0	0	0	20	326	stimuli\Videos_short_600ms_vertflip\60.single_push_with_tip_of_pencil_short_vertflip_short_600ms.mp4	60.single_push_with_tip_of_pencil_short_vertflip_short_600ms.mp4	105.6531063485877	106.26139842942848	0.6082920808407835				
65.04052734375	0.2	133203	21	10	0	0	0	21	87	stimuli\Videos_short_600ms\89.single_touch_with_plastic_brush_short_short_600ms.mp4	89.single_touch_with_plastic_brush_short_short_600ms.mp4	106.45304723003484	107.06136130438516	0.6083140743503463				
65.84033203125	0.2	134841	22	10	0	0	0	22	117	stimuli\Videos_short_600ms_horflip\34.repeated_punch_with_hand_short_horflip_short_600ms.mp4	34.repeated_punch_with_hand_short_horflip_short_600ms.mp4	107.25307256655742	107.86134734583766	0.6082747792802365				
66.64013671875	0.2	136479	23	10	0	0	0	23	299	stimuli\Videos_short_600ms_vertflip\36.single_slap_with_full_hand_short_vertflip_short_600ms.mp4	36.single_slap_with_full_hand_short_vertflip_short_600ms.mp4	108.05305626203562	108.661362418723	0.6083061566873766				
67.4404296875	0.2	138118	24	10	0	0	0	24	103	stimuli\Videos_short_600ms_horflip\21.repeated_touch_with_metal_chopstick_short_horflip_short_600ms.mp4	21.repeated_touch_with_metal_chopstick_short_horflip_short_600ms.mp4	108.85304464946284	109.46134963316264	0.6083049836997816				
68.240234375	0.2	139756	25	10	0	0	0	25	180	stimuli\Videos_short_600ms_horvertflip\1.repeated_touch_with_finger_fast_short_horvertflip_short_600ms.mp4	1.repeated_touch_with_finger_fast_short_horvertflip_short_600ms.mp4	109.6530339166302	110.26133978007056	0.6083058634403642				
69.04052734375	0.2	141395	26	10	0	0	0	26	62	stimuli\Videos_short_600ms\66.stroke_top_to_bottom_with_sponge_short_short_600ms.mp4	66.stroke_top_to_bottom_with_sponge_short_short_600ms.mp4	110.4530179053554	111.06135690568316	0.60833900032776				
69.84033203125	0.2	143033	27	10	0	0	0	27	256	stimuli\Videos_short_600ms_horvertflip\79.long_with_soft_brush_all_over_the_hand_short_horvertflip_short_600ms.mp4	79.long_with_soft_brush_all_over_the_hand_short_horvertflip_short_600ms.mp4	111.25300658602964	111.86133444297911	0.6083278569494723				
70.64013671875	0.2	144671	28	10	0	0	0	28	112	stimuli\Videos_short_600ms_horflip\3.single_push_with_finger_short_horflip_short_600ms.mp4	3.single_push_with_finger_short_horflip_short_600ms.mp4	112.05299878566484	112.66131784521076	0.60831905954592				
71.4404296875	0.2	146310	29	10	0	0	0	29	193	stimuli\Videos_short_600ms_horvertflip\21.repeated_touch_with_metal_chopstick_short_horvertflip_short_600ms.mp4	21.repeated_touch_with_metal_chopstick_short_horvertflip_short_600ms.mp4	112.8529842406242	113.46130417991026	0.6083199392860479				
72.240234375	0.2	147948	30	10	0	0	0	30	231	stimuli\Videos_short_600ms_horvertflip\56.repeated_touch_with_nail_file_short_horvertflip_short_600ms.mp4	56.repeated_touch_with_nail_file_short_horvertflip_short_600ms.mp4	113.65323273795411	114.26129198084392	0.6080592428897944				
73.0400390625	0.2	149586	31	10	0	0	0	31	234	stimuli\Videos_short_600ms_horvertflip\59.single_push_with_long_side_pencil_short_horvertflip_short_600ms.mp4	59.single_push_with_long_side_pencil_short_horvertflip_short_600ms.mp4	114.45296218846534	115.06128124801126	0.60831905954592				
73.84033203125	0.2	151225	32	10	0	0	1	32	368	stimuli\Targets_short_600ms_horflip\chopstickwood-tap_short_horflip_short_600ms.mp4	chopstickwood-tap_short_horflip_short_600ms.mp4	115.25294969615196	115.86126816920432	0.6083184730523499				
74.64013671875	0.2	152863	33	10	0	0	0	33	122	stimuli\Videos_short_600ms_horflip\39.single_stab_with_scissors_short_horflip_short_600ms.mp4	39.single_stab_with_scissors_short_horflip_short_600ms.mp4	116.05294805397034	116.66125655663154	0.6083085026612025				
75.43994140625	0.2	154501	34	10	0	0	0	34	125	stimuli\Videos_short_600ms_horflip\41.injection_with_blunt_syringe_short_horflip_short_600ms.mp4	41.injection_with_blunt_syringe_short_horflip_short_600ms.mp4	116.85290095853544	117.46124259808448	0.6083416395490531				
76.240234375	0.2	156140	35	10	0	0	0	35	107	stimuli\Videos_short_600ms_horflip\25.single_touch_with_stanley_knife_short_horflip_short_600ms.mp4	25.single_touch_with_stanley_knife_short_horflip_short_600ms.mp4	117.65289521089836	118.2612321584984	0.6083369476000371				
77.0400390625	0.2	157778	36	10	0	0	0	36	158	stimuli\Videos_short_600ms_horflip\71.single_stroke_with_finger_top_to_bottom_short_horflip_short_600ms.mp4	71.single_stroke_with_finger_top_to_bottom_short_horflip_short_600ms.mp4	118.452874507675	119.06121907969192	0.6083445720169038				
77.83984375	0.2	159416	37	10	0	0	0	37	223	stimuli\Videos_short_600ms_horvertflip\49.repeated_slap_with_hand_short_horvertflip_short_600ms.mp4	49.repeated_slap_with_hand_short_horvertflip_short_600ms.mp4	119.2529517488797	119.86121421179496	0.6082624629152633				
78.64013671875	0.2	161055	38	10	0	0	0	38	202	stimuli\Videos_short_600ms_horvertflip\3.single_push_with_finger_short_horvertflip_short_600ms.mp4	3.single_push_with_finger_short_horvertflip_short_600ms.mp4	120.05291872929092	120.66119409506518	0.6082753657742614				
79.43994140625	0.2	162693	39	10	0	0	0	39	115	stimuli\Videos_short_600ms_horflip\32.single_(long)pinch_with_fingers_short_horflip_short_600ms.mp4	32.single_(long)pinch_with_fingers_short_horflip_short_600ms.mp4	120.85284553489235	121.46115726326845	0.6083117283760657				
80.23974609375	0.2	164331	40	10	0	0	0	40	216	stimuli\Videos_short_600ms_horvertflip\42.single_slap_with_plastic_whisk_short_horvertflip_short_600ms.mp4	42.single_slap_with_plastic_whisk_short_horvertflip_short_600ms.mp4	121.65284271972314	122.26114477095508	0.6083020512319308				
81.0400390625	0.2	165970	41	10	0	0	0	41	225	stimuli\Videos_short_600ms_horvertflip\50.single_(long)hard_push_with_thumb_short_horvertflip_short_600ms.mp4	50.single_(long)hard_push_with_thumb_short_horvertflip_short_600ms.mp4	122.45283462611178	123.06113286513528	0.6082982390234974				
81.83984375	0.2	167608	42	10	0	0	0	42	118	stimuli\Videos_short_600ms_horflip\35.single_punch_with_hand_short_horflip_short_600ms.mp4	35.single_punch_with_hand_short_horflip_short_600ms.mp4	123.25282125405784	123.86115087048849	0.6083296164306375				
82.6396484375	0.2	169246	43	10	0	0	0	43	136	stimuli\Videos_short_600ms_horflip\51.repeated_touch_with_hammer_short_horflip_short_600ms.mp4	51.repeated_touch_with_hammer_short_horflip_short_600ms.mp4	124.05277533161052	124.66112107661456	0.6083457450040441				
83.43994140625	0.2	170885	44	10	0	0	0	44	41	stimuli\Videos_short_600ms\47.(long)scratching_with_finger_nails_short_short_600ms.mp4	47.(long)scratching_with_finger_nails_short_short_600ms.mp4	124.85279656267812	125.46110330585908	0.6083067431809468				
84.23974609375	0.2	172523	45	10	0	0	0	45	153	stimuli\Videos_short_600ms_horflip\67.single_touch_with_sponge_short_horflip_short_600ms.mp4	67.single_touch_with_sponge_short_horflip_short_600ms.mp4	125.65279052179449	126.26111016783398	0.6083196460394902				
85.03955078125	0.2	174161	46	10	0	0	0	46	285	stimuli\Videos_short_600ms_vertflip\23.single_push_with_a_spoon_short_vertflip_short_600ms.mp4	23.single_push_with_a_spoon_short_vertflip_short_600ms.mp4	126.45275544947845	127.06109532954632	0.6083398800678879				
85.83984375	0.2	175800	47	10	0	0	0	47	185	stimuli\Videos_short_600ms_horvertflip\14.repeated_touch_with_pencil_short_horvertflip_short_600ms.mp4	14.repeated_touch_with_pencil_short_horvertflip_short_600ms.mp4	127.25276641690834	127.86108283723296	0.608316420324627				
86.6396484375	0.2	177438	48	10	0	0	0	48	16	stimuli\Videos_short_600ms\24.single_stroke_top_to_bottom_with_a_spoon_short_short_600ms.mp4	24.single_stroke_top_to_bottom_with_a_spoon_short_short_600ms.mp4	128.05275069888012	128.66107063816662	0.6083199392865026				
87.439453125	0.2	179076	49	10	0	0	0	49	108	stimuli\Videos_short_600ms_horflip\26.single_touch_with_a_blunt_syringe_short_horflip_short_600ms.mp4	26.single_touch_with_a_blunt_syringe_short_horflip_short_600ms.mp4	128.85273586059247	129.4610575593597	0.6083216987672131				
88.23974609375	0.2	180715	50	10	0	0	0	50	160	stimuli\Videos_short_600ms_horflip\73.single_stroke_with_flat_hand_short_horflip_short_600ms.mp4	73.single_stroke_with_flat_hand_short_horflip_short_600ms.mp4	129.65272571425385	130.26104448055275	0.6083187662989076				
89.03955078125	0.2	182353	51	10	0	0	1	51	365	stimuli\Targets_short_600ms\hand-stroke_short_short_600ms.mp4	hand-stroke_short_short_600ms.mp4	130.45271967336976	131.06103462746069	0.608314954090929				
89.83984375	0.2	183992	52	10	0	0	0	52	288	stimuli\Videos_short_600ms_vertflip\26.single_touch_with_a_blunt_syringe_short_vertflip_short_600ms.mp4	26.single_touch_with_a_blunt_syringe_short_vertflip_short_600ms.mp4	131.25271275274554	131.86102213514732	0.6083093824017851				
90.6396484375	0.2	185630	53	10	0	0	0	53	146	stimuli\Videos_short_600ms_horflip\60.single_push_with_tip_of_pencil_short_horflip_short_600ms.mp4	60.single_push_with_tip_of_pencil_short_horflip_short_600ms.mp4	132.0526803196508	132.66101140231467	0.6083310826638808				
91.439453125	0.2	187268	54	10	0	0	0	54	240	stimuli\Videos_short_600ms_horvertflip\64.repeated_touch_with_screwdriver_short_horvertflip_short_600ms.mp4	64.repeated_touch_with_screwdriver_short_horvertflip_short_600ms.mp4	132.8526927533144	133.4609971505206	0.6083043972062114				
92.23974609375	0.2	188907	55	10	0	0	0	55	15	stimuli\Videos_short_600ms\23.single_push_with_a_spoon_short_short_600ms.mp4	23.single_push_with_a_spoon_short_short_600ms.mp4	133.65263686047638	134.2609864176884	0.6083495572120228				
93.03955078125	0.2	190545	56	10	0	0	0	56	246	stimuli\Videos_short_600ms_horvertflip\7.repeated_touch_with_hairbrush_short_horvertflip_short_600ms.mp4	7.repeated_touch_with_hairbrush_short_horvertflip_short_600ms.mp4	134.4526267141373	135.0609803768043	0.6083536626670139				
93.83935546875	0.2	192183	57	10	0	0	1	57	375	stimuli\Targets_short_600ms_horvertflip\finger-tap_short_vertflip_short_600ms.mp4	finger-tap_short_vertflip_short_600ms.mp4	135.25261774078535	135.860934747604	0.6083170068186519				
94.6396484375	0.2	193822	58	10	0	0	0	58	119	stimuli\Videos_short_600ms_horflip\36.single_slap_with_full_hand_short_horflip_short_600ms.mp4	36.single_slap_with_full_hand_short_horflip_short_600ms.mp4	136.05263398665784	136.66093251892835	0.6082985322705099				
95.439453125	0.2	195460	59	10	0	0	0	59	222	stimuli\Videos_short_600ms_horvertflip\48.single_slap_with_hand_short_horvertflip_short_600ms.mp4	48.single_slap_with_hand_short_horvertflip_short_600ms.mp4	136.85261592265533	137.46089070193602	0.6082747792806913				
96.2392578125	0.2	197098	60	10	0	0	0	60	19	stimuli\Videos_short_600ms\27.single_push_with_a_plastic_whisk_short_short_600ms.mp4	27.single_push_with_a_plastic_whisk_short_short_600ms.mp4	137.65266295944048	138.26090020313177	0.608237243691292				
97.03955078125	0.2	198737	61	10	0	0	0	61	278	stimuli\Videos_short_600ms_vertflip\17.repeated_touch_with_rolling_pin_short_vertflip_short_600ms.mp4	17.repeated_touch_with_rolling_pin_short_vertflip_short_600ms.mp4	138.4525938704969	139.06088536484413	0.6082914943472133				
97.83935546875	0.2	200375	62	10	0	0	0	62	71	stimuli\Videos_short_600ms\74.fingers_walking_from_top_to_bottom_short_short_600ms.mp4	74.fingers_walking_from_top_to_bottom_short_short_600ms.mp4	139.25257228753298	139.8608825496749	0.608310262141913				
98.63916015625	0.2	202013	63	10	0	0	0	63	20	stimuli\Videos_short_600ms\28.single_injection_with_sharp_needle_short_short_600ms.mp4	28.single_injection_with_sharp_needle_short_short_600ms.mp4	140.0525706453509	140.6608750425571	0.6083043972062114				
99.439453125	0.2	203652	64	10	0	0	0	64	190	stimuli\Videos_short_600ms_horvertflip\19.single_touch_with_rolling_pin_short_horvertflip_short_600ms.mp4	19.single_touch_with_rolling_pin_short_horvertflip_short_600ms.mp4	140.85254994212755	141.4608751598562	0.608325217728634				
100.2392578125	0.2	205290	65	10	0	0	0	65	320	stimuli\Videos_short_600ms_vertflip\55.touch_top_to_bottom_with_nail_file_short_vertflip_short_600ms.mp4	55.touch_top_to_bottom_with_nail_file_short_vertflip_short_600ms.mp4	141.65253539708692	142.2608606148151	0.6083252177281793				
101.0390625	0.2	206928	66	10	0	0	0	66	356	stimuli\Videos_short_600ms_vertflip\88.repeated_stroke_with_plastic_brush_short_vertflip_short_600ms.mp4	88.repeated_stroke_with_plastic_brush_short_vertflip_short_600ms.mp4	142.45252730347556	143.0608616118543	0.608334308378744				
101.83935546875	0.2	208567	67	10	0	0	0	67	318	stimuli\Videos_short_600ms_vertflip\53.touch_top_to_bottom_with_knife_short_vertflip_short_600ms.mp4	53.touch_top_to_bottom_with_knife_short_vertflip_short_600ms.mp4	143.25251363817506	143.86083709642253	0.6083234582474688				
102.63916015625	0.2	210205	68	10	0	0	0	68	55	stimuli\Videos_short_600ms\6.single_touch_with_flat_hand_short_short_600ms.mp4	6.single_touch_with_flat_hand_short_short_600ms.mp4	144.05250466482312	144.66082460410917	0.6083199392860479				
103.43896484375	0.2	211843	69	10	0	0	0	69	63	stimuli\Videos_short_600ms\67.single_touch_with_sponge_short_short_600ms.mp4	67.single_touch_with_sponge_short_short_600ms.mp4	144.85249275900333	145.4608150442641	0.6083222852607832				
104.2392578125	0.2	213482	70	10	0	0	0	70	203	stimuli\Videos_short_600ms_horvertflip\30.finger_pulling_back_another_finger_short_horvertflip_short_600ms.mp4	30.finger_pulling_back_another_finger_short_horvertflip_short_600ms.mp4	145.65248495863898	146.26080020597647	0.6083152473374867				
105.0390625	0.2	215120	71	10	0	0	0	71	300	stimuli\Videos_short_600ms_vertflip\37.single_stab_with_nail_file_short_vertflip_short_600ms.mp4	37.single_stab_with_nail_file_short_vertflip_short_600ms.mp4	146.45244372814022	147.06078683392298	0.6083431057827511				
105.8388671875	0.2	216758	72	10	0	0	1	72	382	stimuli\Targets_short_600ms_vertflip\hand-pinch_short_horvertflip_short_600ms.mp4	hand-pinch_short_horvertflip_short_600ms.mp4	147.2524154005	147.86074472368364	0.6083293231836251				
106.63916015625	0.2	218397	73	10	0	0	0	73	241	stimuli\Videos_short_600ms_horvertflip\65.stroke_top_to_bottom_with_stanley_knife_short_horvertflip_short_600ms.mp4	65.stroke_top_to_bottom_with_stanley_knife_short_horvertflip_short_600ms.mp4	148.0523958702638	148.66076566150468	0.6083697912408752				
107.43896484375	0.2	220035	74	10	0	0	0	74	242	stimuli\Videos_short_600ms_horvertflip\66.stroke_top_to_bottom_with_sponge_short_horvertflip_short_600ms.mp4	66.stroke_top_to_bottom_with_sponge_short_horvertflip_short_600ms.mp4	148.85240713094072	149.46075170295717	0.6083445720164491				
108.2392578125	0.2	221674	75	10	0	0	0	75	205	stimuli\Videos_short_600ms_horvertflip\32.single_(long)pinch_with_fingers_short_horvertflip_short_600ms.mp4	32.single_(long)pinch_with_fingers_short_horvertflip_short_600ms.mp4	149.65239287914665	150.26074272960568	0.6083498504590352				
109.0390625	0.2	223312	76	10	0	0	1	76	362	stimuli\Targets_short_600ms\chopstickwood-tap_short_short_600ms.mp4	chopstickwood-tap_short_short_600ms.mp4	150.4524240806054	151.06073053053888	0.6083064499334796				
109.8388671875	0.2	224950	77	10	0	0	0	77	224	stimuli\Videos_short_600ms_horvertflip\5.repeated_tap_with_finger_moving_from_top_to_bottom_short_horvertflip_short_600ms.mp4	5.repeated_tap_with_finger_moving_from_top_to_bottom_short_horvertflip_short_600ms.mp4	151.25240865582418	151.86071569225123	0.6083070364270498				
110.63916015625	0.2	226589	78	10	0	0	0	78	29	stimuli\Videos_short_600ms\36.single_slap_with_full_hand_short_short_600ms.mp4	36.single_slap_with_full_hand_short_short_600ms.mp4	152.05248912274328	152.66068003344162	0.6081909106983403				
111.43896484375	0.2	228227	79	10	0	0	0	79	306	stimuli\Videos_short_600ms_vertflip\42.single_slap_with_plastic_whisk_short_vertflip_short_600ms.mp4	42.single_slap_with_plastic_whisk_short_vertflip_short_600ms.mp4	152.85236812911762	153.46064760034687	0.6082794712292525				
112.23876953125	0.2	229865	80	10	0	0	0	80	92	stimuli\Videos_short_600ms_horflip\11.single_touch_with_lighter_short_horflip_short_600ms.mp4	11.single_touch_with_lighter_short_horflip_short_600ms.mp4	153.65235593005127	154.26065856777677	0.608302637725501				
113.0390625	0.2	231504	81	10	0	0	0	81	169	stimuli\Videos_short_600ms_horflip\81.single_stroke_top_to_bottom_with_cotton_pad_short_horflip_short_600ms.mp4	81.single_stroke_top_to_bottom_with_cotton_pad_short_horflip_short_600ms.mp4	154.45234431747804	155.06064812819113	0.608303810713096				
113.8388671875	0.2	233142	82	10	0	0	0	82	305	stimuli\Videos_short_600ms_vertflip\41.injection_with_blunt_syringe_short_vertflip_short_600ms.mp4	41.injection_with_blunt_syringe_short_vertflip_short_600ms.mp4	155.2523297724374	155.86063798185205	0.6083082094146448				
114.638671875	0.2	234780	83	10	0	0	0	83	1	stimuli\Videos_short_600ms\10.single_touch_with_knife_short_short_600ms.mp4	10.single_touch_with_knife_short_short_600ms.mp4	156.05231493414976	156.66065246824337	0.6083375340936072				
115.43896484375	0.2	236419	84	10	0	0	0	84	207	stimuli\Videos_short_600ms_horvertflip\34.repeated_punch_with_hand_short_horvertflip_short_600ms.mp4	34.repeated_punch_with_hand_short_horvertflip_short_600ms.mp4	156.8523027350834	157.46062941904574	0.608326683962332				
116.23876953125	0.2	238057	85	10	0	0	0	85	188	stimuli\Videos_short_600ms_horvertflip\17.repeated_touch_with_rolling_pin_short_horvertflip_short_600ms.mp4	17.repeated_touch_with_rolling_pin_short_horvertflip_short_600ms.mp4	157.65229024277005	158.26062513764236	0.6083348948723142				
117.03857421875	0.2	239695	86	10	0	0	0	86	36	stimuli\Videos_short_600ms\42.single_slap_with_plastic_whisk_short_short_600ms.mp4	42.single_slap_with_plastic_whisk_short_short_600ms.mp4	158.45227863019727	159.06060912636758	0.6083304961703107				
117.8388671875	0.2	241334	87	10	0	0	0	87	120	stimuli\Videos_short_600ms_horflip\37.single_stab_with_nail_file_short_horflip_short_600ms.mp4	37.single_stab_with_nail_file_short_horflip_short_600ms.mp4	159.25223622671135	159.8605942880804	0.6083580613690174				
118.638671875	0.2	242972	88	10	0	0	0	88	174	stimuli\Videos_short_600ms_horflip\86.touch_top_to_bottom_with_hair_brush_short_horflip_short_600ms.mp4	86.touch_top_to_bottom_with_hair_brush_short_horflip_short_600ms.mp4	160.05225775102554	160.66058120927346	0.6083234582479236				
119.4384765625	0.2	244610	89	10	0	0	0	89	359	stimuli\Videos_short_600ms_vertflip\90.repeated_touch_with_sponge_short_vertflip_short_600ms.mp4	90.repeated_touch_with_sponge_short_vertflip_short_600ms.mp4	160.85224027351703	161.46056754397296	0.6083272704559022				
120.23876953125	0.2	246249	90	10	0	0	0	90	289	stimuli\Videos_short_600ms_vertflip\27.single_push_with_a_plastic_whisk_short_vertflip_short_600ms.mp4	27.single_push_with_a_plastic_whisk_short_vertflip_short_600ms.mp4	161.6522295406844	162.26055827737446	0.6083287366900549				
121.03857421875	0.2	247887	91	10	0	0	0	91	91	stimuli\Videos_short_600ms_horflip\10.single_touch_with_knife_short_horflip_short_600ms.mp4	10.single_touch_with_knife_short_horflip_short_600ms.mp4	162.4521982805768	163.0605431458398	0.6083448652630068				
121.83837890625	0.2	249525	92	10	0	0	0	92	316	stimuli\Videos_short_600ms_vertflip\51.repeated_touch_with_hammer_short_vertflip_short_600ms.mp4	51.repeated_touch_with_hammer_short_vertflip_short_600ms.mp4	163.252186374757	163.86053006703332	0.6083436922763212				
122.638671875	0.2	251164	93	10	0	0	0	93	177	stimuli\Videos_short_600ms_horflip\89.single_touch_with_plastic_brush_short_horflip_short_600ms.mp4	89.single_touch_with_plastic_brush_short_horflip_short_600ms.mp4	164.05221523024102	164.66052109368138	0.6083058634403642				
123.4384765625	0.2	252802	94	10	0	0	0	94	17	stimuli\Videos_short_600ms\25.single_touch_with_stanley_knife_short_short_600ms.mp4	25.single_touch_with_stanley_knife_short_short_600ms.mp4	164.85223763429576	165.46051300007002	0.6082753657742614	5.0	5.0	11.283044734504529	1.0
168.287109375	0.2	344652	95	10	1	0	0	0	291	stimuli\Videos_short_600ms_vertflip\29.single_pinch_with_tweezers_short_vertflip_short_600ms.mp4	29.single_pinch_with_tweezers_short_vertflip_short_600ms.mp4	209.70157564432884	210.30982696386627	0.6082513195374304				
169.0869140625	0.2	346290	96	10	1	0	0	1	11	stimuli\Videos_short_600ms\2.single_touch_with_finger_short_short_600ms.mp4	2.single_touch_with_finger_short_short_600ms.mp4	210.50150508915112	211.10981241882564	0.608307329674517				
169.88720703125	0.2	347929	97	10	1	0	0	2	100	stimuli\Videos_short_600ms_horflip\19.single_touch_with_rolling_pin_short_horflip_short_600ms.mp4	19.single_touch_with_rolling_pin_short_horflip_short_600ms.mp4	211.3014659113801	211.90979992651228	0.6083340151321863				
170.68701171875	0.2	349567	98	10	1	0	0	3	164	stimuli\Videos_short_600ms_horflip\77.tapping_with_all_fingers_short_horflip_short_600ms.mp4	77.tapping_with_all_fingers_short_horflip_short_600ms.mp4	212.1014481406246	212.7097645609492	0.608316420324627				
171.48681640625	0.2	351205	99	10	1	0	0	4	126	stimuli\Videos_short_600ms_horflip\42.single_slap_with_plastic_whisk_short_horflip_short_600ms.mp4	42.single_slap_with_plastic_whisk_short_horflip_short_600ms.mp4	212.9014277306478	213.5097599862993	0.6083322556514759				
172.287109375	0.2	352844	100	10	1	0	0	5	94	stimuli\Videos_short_600ms_horflip\13.single_touch_with_pen_short_horflip_short_600ms.mp4	13.single_touch_with_pen_short_horflip_short_600ms.mp4	213.70144045755887	214.30974016281652	0.6082997052576502				
173.0869140625	0.2	354482	101	10	1	0	0	6	194	stimuli\Videos_short_600ms_horvertflip\22.single_touch_with_metal_chopstick_short_horvertflip_short_600ms.mp4	22.single_touch_with_metal_chopstick_short_horvertflip_short_600ms.mp4	214.5014320707005	215.10970714322775	0.608275072527249				
173.88671875	0.2	356120	102	10	1	0	0	7	161	stimuli\Videos_short_600ms_horflip\74.fingers_walking_from_top_to_bottom_short_horflip_short_600ms.mp4	74.fingers_walking_from_top_to_bottom_short_horflip_short_600ms.mp4	215.3014172324129	215.9097236823468	0.6083064499339343				
174.68701171875	0.2	357759	103	10	1	0	0	8	149	stimuli\Videos_short_600ms_horflip\63.stroke_top_to_bottom_with_screwdriver_short_horflip_short_600ms.mp4	63.stroke_top_to_bottom_with_screwdriver_short_horflip_short_600ms.mp4	216.10140532659307	216.70973318354257	0.6083278569494723				
175.48681640625	0.2	359397	104	10	1	0	0	9	104	stimuli\Videos_short_600ms_horflip\22.single_touch_with_metal_chopstick_short_horflip_short_600ms.mp4	22.single_touch_with_metal_chopstick_short_horflip_short_600ms.mp4	216.90137465297903	217.50972157096976	0.6083469179907297				
176.28662109375	0.2	361035	105	10	1	0	0	10	298	stimuli\Videos_short_600ms_vertflip\35.single_punch_with_hand_short_vertflip_short_600ms.mp4	35.single_punch_with_hand_short_vertflip_short_600ms.mp4	217.70138092846037	218.30971054489055	0.6083296164301828				
177.0869140625	0.2	362674	106	10	1	0	0	11	213	stimuli\Videos_short_600ms_horvertflip\4.repeated_tap_with_finger_slow_short_horvertflip_short_600ms.mp4	4.repeated_tap_with_finger_slow_short_horvertflip_short_600ms.mp4	218.50134937510575	219.1096939471222	0.6083445720164491				
177.88671875	0.2	364312	107	10	1	0	1	12	371	stimuli\Targets_short_600ms_horflip\hand-stroke_short_horflip_short_600ms.mp4	hand-stroke_short_horflip_short_600ms.mp4	219.3013500788979	219.90969259818712	0.6083425192891809				
178.6865234375	0.2	365950	108	10	1	0	0	13	219	stimuli\Videos_short_600ms_horvertflip\45.scratching_with_finger_nails_short_horvertflip_short_600ms.mp4	45.scratching_with_finger_nails_short_horvertflip_short_600ms.mp4	220.10130943489276	220.70966778950833	0.6083583546155751				
179.48681640625	0.2	367589	109	10	1	0	0	14	283	stimuli\Videos_short_600ms_vertflip\21.repeated_touch_with_metal_chopstick_short_vertflip_short_600ms.mp4	21.repeated_touch_with_metal_chopstick_short_vertflip_short_600ms.mp4	220.90128755868227	221.5096532444677	0.6083656857854294				
180.28662109375	0.2	369227	110	10	1	0	0	15	2	stimuli\Videos_short_600ms\11.single_touch_with_lighter_short_short_600ms.mp4	11.single_touch_with_lighter_short_short_600ms.mp4	221.7012689081862	222.3096413386479	0.6083724304617135				
181.08642578125	0.2	370865	111	10	1	0	0	16	183	stimuli\Videos_short_600ms_horvertflip\12.repeated_touch_with_nail_file_short_horvertflip_short_600ms.mp4	12.repeated_touch_with_nail_file_short_horvertflip_short_600ms.mp4	222.50128104860323	223.1096303125687	0.6083492639654651				
181.88671875	0.2	372504	112	10	1	0	1	17	380	stimuli\Targets_short_600ms_vertflip\chopstickwood-tap_short_horvertflip_short_600ms.mp4	chopstickwood-tap_short_horvertflip_short_600ms.mp4	223.3012069744641	223.90962163246377	0.6084146579996741				
182.6865234375	0.2	374142	113	10	1	0	0	18	0	stimuli\Videos_short_600ms\1.repeated_touch_with_finger_fast_short_short_600ms.mp4	1.repeated_touch_with_finger_fast_short_short_600ms.mp4	224.1012062120226	224.7096059144355	0.608399702412953				
183.486328125	0.2	375780	114	10	1	0	0	19	135	stimuli\Videos_short_600ms_horflip\50.single_(long)hard_push_with_thumb_short_horflip_short_600ms.mp4	50.single_(long)hard_push_with_thumb_short_horflip_short_600ms.mp4	224.90118638853937	225.50959195588848	0.6084055673491093				
184.28662109375	0.2	377419	115	10	1	0	1	20	370	stimuli\Targets_short_600ms_horflip\hand-pinch_short_horflip_short_600ms.mp4	hand-pinch_short_horflip_short_600ms.mp4	225.7011680312903	226.3095821027964	0.6084140715061039				
185.08642578125	0.2	379057	116	10	1	0	0	21	293	stimuli\Videos_short_600ms_vertflip\30.finger_pulling_back_another_finger_short_vertflip_short_600ms.mp4	30.finger_pulling_back_another_finger_short_vertflip_short_600ms.mp4	226.50116932157653	227.1095666780152	0.6083973564386724				
185.88671875	0.2	380696	117	10	1	0	0	22	355	stimuli\Videos_short_600ms_vertflip\87.single_stroke_top_to_bottom_with_plastic_brush_short_vertflip_short_600ms.mp4	87.single_stroke_top_to_bottom_with_plastic_brush_short_vertflip_short_600ms.mp4	227.30115594952255	227.90954362881757	0.6083876792949923				
186.6865234375	0.2	382334	118	10	1	0	0	23	265	stimuli\Videos_short_600ms_horvertflip\87.single_stroke_top_to_bottom_with_plastic_brush_short_horvertflip_short_600ms.mp4	87.single_stroke_top_to_bottom_with_plastic_brush_short_horvertflip_short_600ms.mp4	228.10117630085008	228.70950005234457	0.6083237514944813				
187.486328125	0.2	383972	119	10	1	0	0	24	254	stimuli\Videos_short_600ms_horvertflip\77.tapping_with_all_fingers_short_horvertflip_short_600ms.mp4	77.tapping_with_all_fingers_short_horvertflip_short_600ms.mp4	228.90115735710745	229.5094972371753	0.6083398800678879				
188.28662109375	0.2	385611	120	10	1	0	0	25	334	stimuli\Videos_short_600ms_vertflip\68.stroke_top_to_bottom_with_shawl_short_vertflip_short_600ms.mp4	68.stroke_top_to_bottom_with_shawl_short_vertflip_short_600ms.mp4	229.7018172796843	230.3094750677178	0.6076577880335208				
189.08642578125	0.2	387249	121	10	1	0	0	26	80	stimuli\Videos_short_600ms\82.repeated_touch_with_cotton_bud_short_short_600ms.mp4	82.repeated_touch_with_cotton_bud_short_short_600ms.mp4	230.501147621314	231.10948662164128	0.6083390003273053				
189.88623046875	0.2	388887	122	10	1	0	0	27	186	stimuli\Videos_short_600ms_horvertflip\15.single_stroke_top_to_bottom_with_a_plastic_whisk_short_horvertflip_short_600ms.mp4	15.single_stroke_top_to_bottom_with_a_plastic_whisk_short_horvertflip_short_600ms.mp4	231.30112105315447	231.9094852727062	0.6083642195517314				
190.6865234375	0.2	390526	123	10	1	0	0	28	284	stimuli\Videos_short_600ms_vertflip\22.single_touch_with_metal_chopstick_short_vertflip_short_600ms.mp4	22.single_touch_with_metal_chopstick_short_vertflip_short_600ms.mp4	232.10108891330628	232.70948363052412	0.6083947172178341				
191.486328125	0.2	392164	124	10	1	0	0	29	68	stimuli\Videos_short_600ms\71.single_stroke_with_finger_top_to_bottom_short_short_600ms.mp4	71.single_stroke_with_finger_top_to_bottom_short_short_600ms.mp4	232.90109870774904	233.50947905587415	0.608380348125138				
192.2861328125	0.2	393802	125	10	1	0	0	30	296	stimuli\Videos_short_600ms_vertflip\33.scratch_top_to_bottom_with_scissors_short_vertflip_short_600ms.mp4	33.scratch_top_to_bottom_with_scissors_short_vertflip_short_600ms.mp4	233.70131054923056	234.30946069862512	0.6081501493945325				
193.08642578125	0.2	395441	126	10	1	0	0	31	275	stimuli\Videos_short_600ms_vertflip\14.repeated_touch_with_pencil_short_vertflip_short_600ms.mp4	14.repeated_touch_with_pencil_short_vertflip_short_600ms.mp4	234.50107548260348	235.1094578834559	0.6083824008524061				
193.88623046875	0.2	397079	127	10	1	0	0	32	336	stimuli\Videos_short_600ms_vertflip\7.repeated_touch_with_hairbrush_short_vertflip_short_600ms.mp4	7.repeated_touch_with_hairbrush_short_vertflip_short_600ms.mp4	235.3010395305469	235.90943366127112	0.608394130724264				
194.68603515625	0.2	398717	128	10	1	0	0	33	308	stimuli\Videos_short_600ms_vertflip\44.pushing_top_to_bottom_with_finger_short_vertflip_short_600ms.mp4	44.pushing_top_to_bottom_with_finger_short_vertflip_short_600ms.mp4	236.10105079122377	236.70942439467265	0.6083736034488538				
195.486328125	0.2	400356	129	10	1	0	0	34	52	stimuli\Videos_short_600ms\57.single_touch_with_nail_file_short_short_600ms.mp4	57.single_touch_with_nail_file_short_short_600ms.mp4	236.901034779949	237.5094119023593	0.6083771224102748				
196.2861328125	0.2	401994	130	10	1	0	0	35	263	stimuli\Videos_short_600ms_horvertflip\85.touch_top_to_bottom_with_fabric_short_horvertflip_short_600ms.mp4	85.touch_top_to_bottom_with_fabric_short_horvertflip_short_600ms.mp4	237.70102668633763	238.3093994100459	0.6083727237082712				
197.0859375	0.2	403632	131	10	1	0	0	36	261	stimuli\Videos_short_600ms_horvertflip\83.single_stroke_top_to_bottom_with_cotton_bud_short_horvertflip_short_600ms.mp4	83.single_stroke_top_to_bottom_with_cotton_bud_short_horvertflip_short_600ms.mp4	238.50099220051516	239.1093860379924	0.6083938374772515				
197.88623046875	0.2	405271	132	10	1	0	0	37	131	stimuli\Videos_short_600ms_horflip\47.(long)scratching_with_finger_nails_short_horflip_short_600ms.mp4	47.(long)scratching_with_finger_nails_short_horflip_short_600ms.mp4	239.3009794149548	239.9093738389261	0.6083944239712764				
198.68603515625	0.2	406909	133	10	1	0	0	38	182	stimuli\Videos_short_600ms_horvertflip\11.single_touch_with_lighter_short_horvertflip_short_600ms.mp4	11.single_touch_with_lighter_short_horvertflip_short_600ms.mp4	240.1009689753691	240.70936251959984	0.6083935442306938				
199.48583984375	0.2	408547	134	10	1	0	0	39	144	stimuli\Videos_short_600ms_horflip\59.single_push_with_long_side_pencil_short_horflip_short_600ms.mp4	59.single_push_with_long_side_pencil_short_horflip_short_600ms.mp4	240.9009541370815	241.50934973403943	0.608395596957962				
200.2861328125	0.2	410186	135	10	1	0	1	40	364	stimuli\Targets_short_600ms\hand-pinch_short_short_600ms.mp4	hand-pinch_short_short_600ms.mp4	241.7009439907424	242.30934046744096	0.6083964766985446				
201.0859375	0.2	411824	136	10	1	0	0	41	349	stimuli\Videos_short_600ms_vertflip\81.single_stroke_top_to_bottom_with_cotton_pad_short_vertflip_short_600ms.mp4	81.single_stroke_top_to_bottom_with_cotton_pad_short_vertflip_short_600ms.mp4	242.50095378518563	243.1093045153848	0.6083507301991631				
201.8857421875	0.2	413462	137	10	1	0	0	42	344	stimuli\Videos_short_600ms_vertflip\77.tapping_with_all_fingers_short_vertflip_short_600ms.mp4	77.tapping_with_all_fingers_short_vertflip_short_600ms.mp4	243.3009448118337	243.9093096178785	0.6083648060448468				
202.68603515625	0.2	415101	138	10	1	0	1	43	377	stimuli\Targets_short_600ms_horvertflip\hand-stroke_short_vertflip_short_600ms.mp4	hand-stroke_short_vertflip_short_600ms.mp4	244.1009244018569	244.7092560710148	0.6083316691579057				
203.48583984375	0.2	416739	139	10	1	0	0	44	113	stimuli\Videos_short_600ms_horflip\30.finger_pulling_back_another_finger_short_horflip_short_600ms.mp4	30.finger_pulling_back_another_finger_short_horflip_short_600ms.mp4	244.9009151352584	245.5092432854549	0.6083281501964848				
204.28564453125	0.2	418377	140	10	1	0	0	45	97	stimuli\Videos_short_600ms_horflip\16.repeated_touch_with_plastic_brush_short_horflip_short_600ms.mp4	16.repeated_touch_with_plastic_brush_short_horflip_short_600ms.mp4	245.7009014699579	246.30925542587192	0.6083539559140263				
205.0859375	0.2	420016	141	10	1	0	0	46	4	stimuli\Videos_short_600ms\13.single_touch_with_pen_short_short_600ms.mp4	13.single_touch_with_pen_short_short_600ms.mp4	246.50093472414392	247.10924381329912	0.6083090891552274				
205.8857421875	0.2	421654	142	10	1	0	0	47	142	stimuli\Videos_short_600ms_horflip\57.single_touch_with_nail_file_short_horflip_short_600ms.mp4	57.single_touch_with_nail_file_short_horflip_short_600ms.mp4	247.30087795156533	247.9092330804665	0.6083551289011666				
206.68603515625	0.2	423293	143	10	1	0	1	48	376	stimuli\Targets_short_600ms_horvertflip\hand-pinch_short_vertflip_short_600ms.mp4	hand-pinch_short_vertflip_short_600ms.mp4	248.10084551847055	248.70925108581923	0.6084055673486546				
207.48583984375	0.2	424931	144	10	1	0	0	49	229	stimuli\Videos_short_600ms_horvertflip\54.repeated_touch_with_knife_short_horvertflip_short_600ms.mp4	54.repeated_touch_with_knife_short_horvertflip_short_600ms.mp4	248.9008327329102	249.50922774337505	0.6083950104648466				
208.28564453125	0.2	426569	145	10	1	0	0	50	176	stimuli\Videos_short_600ms_horflip\88.repeated_stroke_with_plastic_brush_short_horflip_short_600ms.mp4	88.repeated_stroke_with_plastic_brush_short_horflip_short_600ms.mp4	249.70085777618624	250.30922375521868	0.6083659790324418				
209.0859375	0.2	428208	146	10	1	0	0	51	78	stimuli\Videos_short_600ms\80.stroke_with_sharp_stick_all_over_the_hand_short_short_600ms.mp4	80.stroke_with_sharp_stick_all_over_the_hand_short_short_600ms.mp4	250.50088516543656	251.1092018790082	0.6083167135716394				
209.8857421875	0.2	429846	147	10	1	0	0	52	7	stimuli\Videos_short_600ms\16.repeated_touch_with_plastic_brush_short_short_600ms.mp4	16.repeated_touch_with_plastic_brush_short_short_600ms.mp4	251.3008454011715	251.90919114617552	0.6083457450040441				
210.685546875	0.2	431484	148	10	1	0	0	53	309	stimuli\Videos_short_600ms_vertflip\45.scratching_with_finger_nails_short_vertflip_short_600ms.mp4	45.scratching_with_finger_nails_short_vertflip_short_600ms.mp4	252.1008695647074	252.70917953360276	0.6083099688953553				
211.48583984375	0.2	433123	149	10	1	0	0	54	310	stimuli\Videos_short_600ms_vertflip\46.scratching_top_to_bottom_with_finger_nails_short_vertflip_short_600ms.mp4	46.scratching_top_to_bottom_with_finger_nails_short_vertflip_short_600ms.mp4	252.90081425836252	253.50916938726368	0.6083551289011666				
212.28564453125	0.2	434761	150	10	1	0	0	55	18	stimuli\Videos_short_600ms\26.single_touch_with_a_blunt_syringe_short_short_600ms.mp4	26.single_touch_with_a_blunt_syringe_short_short_600ms.mp4	253.7007683359152	254.30915366923543	0.6083853333202569				
213.08544921875	0.2	436399	151	10	1	0	0	56	140	stimuli\Videos_short_600ms_horflip\55.touch_top_to_bottom_with_nail_file_short_horflip_short_600ms.mp4	55.touch_top_to_bottom_with_nail_file_short_horflip_short_600ms.mp4	254.50076640048655	255.10914264315625	0.6083762426696921				
213.8857421875	0.2	438038	152	10	1	0	0	57	250	stimuli\Videos_short_600ms_horvertflip\73.single_stroke_with_flat_hand_short_horvertflip_short_600ms.mp4	73.single_stroke_with_flat_hand_short_horvertflip_short_600ms.mp4	255.3007292754428	255.90912897785577	0.608399702412953				
214.685546875	0.2	439676	153	10	1	0	0	58	345	stimuli\Videos_short_600ms_vertflip\78.single_stroke_top_to_bottom_with_soft_brush_short_vertflip_short_600ms.mp4	78.single_stroke_top_to_bottom_with_soft_brush_short_vertflip_short_600ms.mp4	256.1007481605361	256.70911765853	0.6083694979938628				
215.4853515625	0.2	441314	154	10	1	0	0	59	172	stimuli\Videos_short_600ms_horflip\84.single_touch_with_cotton_bud_short_horflip_short_600ms.mp4	84.single_touch_with_cotton_bud_short_horflip_short_600ms.mp4	256.90076440640814	257.5091089784246	0.6083445720164491				
216.28564453125	0.2	442953	155	10	1	0	1	60	363	stimuli\Targets_short_600ms\finger-tap_short_short_600ms.mp4	finger-tap_short_short_600ms.mp4	257.70075338032893	258.30909296715026	0.6083395868213302				
217.08544921875	0.2	444591	156	10	1	0	0	61	88	stimuli\Videos_short_600ms\9.single_touch_with_hammer_short_short_600ms.mp4	9.single_touch_with_hammer_short_short_600ms.mp4	258.5007666937331	259.1090652260036	0.6082985322705099				
217.88525390625	0.2	446229	157	10	1	0	0	62	333	stimuli\Videos_short_600ms_vertflip\67.single_touch_with_sponge_short_vertflip_short_600ms.mp4	67.single_touch_with_sponge_short_vertflip_short_600ms.mp4	259.30074687025035	259.9090242887519	0.6082774185015296				
218.685546875	0.2	447868	158	10	1	0	0	63	173	stimuli\Videos_short_600ms_horflip\85.touch_top_to_bottom_with_fabric_short_horflip_short_600ms.mp4	85.touch_top_to_bottom_with_fabric_short_horflip_short_600ms.mp4	260.1007267535201	260.7090323237139	0.6083055701938065				
219.4853515625	0.2	449506	159	10	1	0	0	64	27	stimuli\Videos_short_600ms\34.repeated_punch_with_hand_short_short_600ms.mp4	34.repeated_punch_with_hand_short_short_600ms.mp4	260.9007160206879	261.50902423010257	0.6083082094146448				
220.28515625	0.2	451144	160	10	1	0	0	65	230	stimuli\Videos_short_600ms_horvertflip\55.touch_top_to_bottom_with_nail_file_short_horvertflip_short_600ms.mp4	55.touch_top_to_bottom_with_nail_file_short_horvertflip_short_600ms.mp4	261.70070352837456	262.3090369570132	0.6083334286386162				
221.08544921875	0.2	452783	161	10	1	0	0	66	189	stimuli\Videos_short_600ms_horvertflip\18.single_stroke_from_top_to_bottom_with_rolling_pin_short_horvertflip_short_600ms.mp4	18.single_stroke_from_top_to_bottom_with_rolling_pin_short_horvertflip_short_600ms.mp4	262.5006309204691	263.10902211872553	0.6083911982564132				
221.88525390625	0.2	454421	162	10	1	0	0	67	332	stimuli\Videos_short_600ms_vertflip\66.stroke_top_to_bottom_with_sponge_short_vertflip_short_600ms.mp4	66.stroke_top_to_bottom_with_sponge_short_vertflip_short_600ms.mp4	263.300679716735	263.90901871706274	0.60833900032776				
222.68505859375	0.2	456059	163	10	1	0	0	68	132	stimuli\Videos_short_600ms_horflip\48.single_slap_with_hand_short_horflip_short_600ms.mp4	48.single_slap_with_hand_short_horflip_short_600ms.mp4	264.1006487498739	264.70899449487797	0.6083457450040441				
223.4853515625	0.2	457698	164	10	1	0	0	69	311	stimuli\Videos_short_600ms_vertflip\47.(long)scratching_with_finger_nails_short_vertflip_short_600ms.mp4	47.(long)scratching_with_finger_nails_short_vertflip_short_600ms.mp4	264.90063889678186	265.50898405529233	0.608345158510474				
224.28515625	0.2	459336	165	10	1	0	0	70	22	stimuli\Videos_short_600ms\3.single_push_with_finger_short_short_600ms.mp4	3.single_push_with_finger_short_short_600ms.mp4	265.7006222990135	266.30896951025125	0.6083472112377422				
225.08544921875	0.2	460975	166	10	1	0	0	71	270	stimuli\Videos_short_600ms_vertflip\1.repeated_touch_with_finger_fast_short_vertflip_short_600ms.mp4	1.repeated_touch_with_finger_fast_short_vertflip_short_600ms.mp4	266.5006191905977	267.10895995040573	0.6083407598080157				
225.88525390625	0.2	462613	167	10	1	0	0	72	90	stimuli\Videos_short_600ms_horflip\1.repeated_touch_with_finger_fast_short_horflip_short_600ms.mp4	1.repeated_touch_with_finger_fast_short_horflip_short_600ms.mp4	267.3006028860759	267.9089436458844	0.6083407598084705				
226.68505859375	0.2	464251	168	10	1	0	0	73	329	stimuli\Videos_short_600ms_vertflip\63.stroke_top_to_bottom_with_screwdriver_short_vertflip_short_600ms.mp4	63.stroke_top_to_bottom_with_screwdriver_short_vertflip_short_600ms.mp4	268.1006596000052	268.7089340860389	0.6082744860336788				
227.4853515625	0.2	465890	169	10	1	0	0	74	297	stimuli\Videos_short_600ms_vertflip\34.repeated_punch_with_hand_short_vertflip_short_600ms.mp4	34.repeated_punch_with_hand_short_vertflip_short_600ms.mp4	268.90059227054235	269.508921593726	0.6083293231836251				
228.28515625	0.2	467528	170	10	1	0	0	75	38	stimuli\Videos_short_600ms\44.pushing_top_to_bottom_with_finger_short_short_600ms.mp4	44.pushing_top_to_bottom_with_finger_short_short_600ms.mp4	269.7005730335527	270.3089091014126	0.6083360678599092				
229.0849609375	0.2	469166	171	10	1	0	0	76	303	stimuli\Videos_short_600ms_vertflip\4.repeated_tap_with_finger_slow_short_vertflip_short_600ms.mp4	4.repeated_tap_with_finger_slow_short_vertflip_short_600ms.mp4	270.5005499843551	271.10889484961854	0.6083448652634615				
229.88525390625	0.2	470805	172	10	1	0	0	77	321	stimuli\Videos_short_600ms_vertflip\56.repeated_touch_with_nail_file_short_vertflip_short_600ms.mp4	56.repeated_touch_with_nail_file_short_vertflip_short_600ms.mp4	271.3005172580133	271.9088844100329	0.6083671520195821				
230.68505859375	0.2	472443	173	10	1	0	1	78	383	stimuli\Targets_short_600ms_vertflip\hand-stroke_short_horvertflip_short_600ms.mp4	hand-stroke_short_horvertflip_short_600ms.mp4	272.10053379713236	272.7088739704468	0.6083401733144456				
231.48486328125	0.2	474081	174	10	1	0	0	79	248	stimuli\Videos_short_600ms_horvertflip\71.single_stroke_with_finger_top_to_bottom_short_horvertflip_short_600ms.mp4	71.single_stroke_with_finger_top_to_bottom_short_horvertflip_short_600ms.mp4	272.900516906117	273.5088655835889	0.6083486774718949				
232.28515625	0.2	475720	175	10	1	0	0	80	77	stimuli\Videos_short_600ms\8.single_touch_with_hairbrush_short_short_600ms.mp4	8.single_touch_with_hairbrush_short_short_600ms.mp4	273.7005223018582	274.30885690348396	0.6083346016257565				
233.0849609375	0.2	477358	176	10	1	0	0	81	339	stimuli\Videos_short_600ms_vertflip\72.(short)stroke_with_finger_all_over_the_hand_short_vertflip_short_600ms.mp4	72.(short)stroke_with_finger_all_over_the_hand_short_vertflip_short_600ms.mp4	274.5005203664291	275.1087910402548	0.6082706738257002				
233.884765625	0.2	478996	177	10	1	0	0	82	279	stimuli\Videos_short_600ms_vertflip\18.single_stroke_from_top_to_bottom_with_rolling_pin_short_vertflip_short_600ms.mp4	18.single_stroke_from_top_to_bottom_with_rolling_pin_short_vertflip_short_600ms.mp4	275.3005008361929	275.90877884118845	0.6082780049955545				
234.68505859375	0.2	480635	178	10	1	0	0	83	121	stimuli\Videos_short_600ms_horflip\38.double_slap_with_pencil_short_horflip_short_600ms.mp4	38.double_slap_with_pencil_short_horflip_short_600ms.mp4	276.1004857046587	276.7087675218622	0.6082818172035331				
235.48486328125	0.2	482273	179	10	1	0	0	84	51	stimuli\Videos_short_600ms\56.repeated_touch_with_nail_file_short_short_600ms.mp4	56.repeated_touch_with_nail_file_short_short_600ms.mp4	276.9004705731245	277.50878611370854	0.6083155405840444				
236.28466796875	0.2	483911	180	10	1	0	0	85	39	stimuli\Videos_short_600ms\45.scratching_with_finger_nails_short_short_600ms.mp4	45.scratching_with_finger_nails_short_short_600ms.mp4	277.7004662917211	278.3087677564595	0.6083014647383607				
237.0849609375	0.2	485550	181	10	1	0	0	86	267	stimuli\Videos_short_600ms_horvertflip\89.single_touch_with_plastic_brush_short_horvertflip_short_600ms.mp4	89.single_touch_with_plastic_brush_short_horvertflip_short_600ms.mp4	278.50044646823835	279.10878458882553	0.6083381205871774				
237.884765625	0.2	487188	182	10	1	0	0	87	14	stimuli\Videos_short_600ms\22.single_touch_with_metal_chopstick_short_short_600ms.mp4	22.single_touch_with_metal_chopstick_short_short_600ms.mp4	279.3004451193028	279.9087712167716	0.6083260974687619				
238.6845703125	0.2	488826	183	10	1	0	1	88	360	stimuli\Targets_short_600ms\brush-stroke_short_short_600ms.mp4	brush-stroke_short_short_600ms.mp4	280.1004027158169	280.708705940036	0.6083032242190711				
239.48486328125	0.2	490465	184	10	1	0	0	89	206	stimuli\Videos_short_600ms_horvertflip\33.scratch_top_to_bottom_with_scissors_short_horvertflip_short_600ms.mp4	33.scratch_top_to_bottom_with_scissors_short_horvertflip_short_600ms.mp4	280.90039315597187	281.5087295170779	0.6083363611060122				
240.28466796875	0.2	492103	185	10	1	0	0	90	302	stimuli\Videos_short_600ms_vertflip\39.single_stab_with_scissors_short_vertflip_short_600ms.mp4	39.single_stab_with_scissors_short_vertflip_short_600ms.mp4	281.70040383015476	282.3087366722998	0.608332842145046				
241.08447265625	0.2	493741	186	10	1	0	0	91	353	stimuli\Videos_short_600ms_vertflip\85.touch_top_to_bottom_with_fabric_short_vertflip_short_600ms.mp4	85.touch_top_to_bottom_with_fabric_short_vertflip_short_600ms.mp4	282.50037022407287	283.1087189015443	0.6083486774714402				
241.884765625	0.2	495380	187	10	1	0	0	92	69	stimuli\Videos_short_600ms\72.(short)stroke_with_finger_all_over_the_hand_short_short_600ms.mp4	72.(short)stroke_with_finger_all_over_the_hand_short_short_600ms.mp4	283.30038089825575	283.9086990780611	0.6083181798053374				
242.6845703125	0.2	497018	188	10	1	0	0	93	128	stimuli\Videos_short_600ms_horflip\44.pushing_top_to_bottom_with_finger_short_horflip_short_600ms.mp4	44.pushing_top_to_bottom_with_finger_short_horflip_short_600ms.mp4	284.1003575558111	284.7086877587353	0.6083302029242077				
243.484375	0.2	498656	189	10	1	0	0	94	114	stimuli\Videos_short_600ms_horflip\31.hand_grabbing_wrist_short_horflip_short_600ms.mp4	31.hand_grabbing_wrist_short_horflip_short_600ms.mp4	284.90030870089595	285.50867497317495	0.6083662722789995				
244.28466796875	0.2	500295	190	10	1	0	0	95	102	stimuli\Videos_short_600ms_horflip\20.single_touch_with_screwdriver_short_horflip_short_600ms.mp4	20.single_touch_with_screwdriver_short_horflip_short_600ms.mp4	285.70032406702785	286.3086651200829	0.6083410530550282				
245.08447265625	0.2	501933	191	10	1	0	0	96	317	stimuli\Videos_short_600ms_vertflip\52.touch_top_to_bottom_with_hammer_short_vertflip_short_600ms.mp4	52.touch_top_to_bottom_with_hammer_short_vertflip_short_600ms.mp4	286.5003388466662	287.10865204127595	0.6083131946097637				
245.884765625	0.2	503572	192	10	1	0	0	97	357	stimuli\Videos_short_600ms_vertflip\89.single_touch_with_plastic_brush_short_vertflip_short_600ms.mp4	89.single_touch_with_plastic_brush_short_vertflip_short_600ms.mp4	287.30031931643	287.908639255716	0.6083199392860479				
246.6845703125	0.2	505210	193	10	1	0	0	98	348	stimuli\Videos_short_600ms_vertflip\80.stroke_with_sharp_stick_all_over_the_hand_short_vertflip_short_600ms.mp4	80.stroke_with_sharp_stick_all_over_the_hand_short_vertflip_short_600ms.mp4	288.1002865900882	288.70862676340266	0.6083401733144456	9.0	7.0	3.226117614836312	0.0
284.4248046875	0.2	582502	194	10	2	0	0	0	325	stimuli\Videos_short_600ms_vertflip\6.single_touch_with_flat_hand_short_vertflip_short_600ms.mp4	6.single_touch_with_flat_hand_short_vertflip_short_600ms.mp4	325.8414405807225	326.4497147735092	0.6082741927866664				
285.22509765625	0.2	584141	195	10	2	0	0	1	175	stimuli\Videos_short_600ms_horflip\87.single_stroke_top_to_bottom_with_plastic_brush_short_horflip_short_600ms.mp4	87.single_stroke_top_to_bottom_with_plastic_brush_short_horflip_short_600ms.mp4	326.6413621078814	327.24970022846855	0.6083381205871774				
286.02490234375	0.2	585779	196	10	2	0	0	2	233	stimuli\Videos_short_600ms_horvertflip\58.single_slap_with_pencil_short_horvertflip_short_600ms.mp4	58.single_slap_with_pencil_short_horvertflip_short_600ms.mp4	327.4413282085525	328.04968832264876	0.6083601140962855				
286.82470703125	0.2	587417	197	10	2	0	0	3	340	stimuli\Videos_short_600ms_vertflip\73.single_stroke_with_flat_hand_short_vertflip_short_600ms.mp4	73.single_stroke_with_flat_hand_short_vertflip_short_600ms.mp4	328.24133565702095	328.8496775898161	0.608341932795156				
287.63330078125	0.2	589073	198	10	2	0	0	4	251	stimuli\Videos_short_600ms_horvertflip\74.fingers_walking_from_top_to_bottom_short_horvertflip_short_600ms.mp4	74.fingers_walking_from_top_to_bottom_short_horvertflip_short_600ms.mp4	329.0496886158953	329.65800386323326	0.6083152473379414				
288.43310546875	0.2	590711	199	10	2	0	0	5	277	stimuli\Videos_short_600ms_vertflip\16.repeated_touch_with_plastic_brush_short_vertflip_short_600ms.mp4	16.repeated_touch_with_plastic_brush_short_vertflip_short_600ms.mp4	329.84965676929414	330.4579843329966	0.6083275637024599				
289.23291015625	0.2	592349	200	10	2	0	1	6	372	stimuli\Targets_short_600ms_horvertflip\brush-stroke_short_vertflip_short_600ms.mp4	brush-stroke_short_vertflip_short_600ms.mp4	330.6496583528269	331.2579750663981	0.6083167135711847				
290.033203125	0.2	593988	201	10	2	0	0	7	54	stimuli\Videos_short_600ms\59.single_push_with_long_side_pencil_short_short_600ms.mp4	59.single_push_with_long_side_pencil_short_short_600ms.mp4	331.44961331011973	332.05795670914904	0.6083433990293088				
290.8330078125	0.2	595626	202	10	2	0	0	8	143	stimuli\Videos_short_600ms_horflip\58.single_slap_with_pencil_short_horflip_short_600ms.mp4	58.single_slap_with_pencil_short_horflip_short_600ms.mp4	332.24958029053096	332.85795008177183	0.6083697912408752				
291.6328125	0.2	597264	203	10	2	0	0	9	40	stimuli\Videos_short_600ms\46.scratching_top_to_bottom_with_finger_nails_short_short_600ms.mp4	46.scratching_top_to_bottom_with_finger_nails_short_short_600ms.mp4	333.04958891198703	333.6579387624456	0.6083498504585805				
292.44140625	0.2	598920	204	10	2	0	0	10	268	stimuli\Videos_short_600ms_horvertflip\9.single_touch_with_hammer_short_horvertflip_short_600ms.mp4	9.single_touch_with_hammer_short_horvertflip_short_600ms.mp4	333.8579380586534	334.4662568249523	0.6083187662989076				
293.2412109375	0.2	600558	205	10	2	0	0	11	79	stimuli\Videos_short_600ms\81.single_stroke_top_to_bottom_with_cotton_pad_short_short_600ms.mp4	81.single_stroke_top_to_bottom_with_cotton_pad_short_short_600ms.mp4	334.65792732582076	335.266244625886	0.6083173000652096				
294.04150390625	0.2	602197	206	10	2	0	1	12	381	stimuli\Targets_short_600ms_vertflip\finger-tap_short_horvertflip_short_600ms.mp4	finger-tap_short_horvertflip_short_600ms.mp4	335.4579256836387	336.0662300808449	0.6083043972062114				
294.84130859375	0.2	603835	207	10	2	0	0	13	286	stimuli\Videos_short_600ms_vertflip\24.single_stroke_top_to_bottom_with_a_spoon_short_vertflip_short_600ms.mp4	24.single_stroke_top_to_bottom_with_a_spoon_short_vertflip_short_600ms.mp4	336.25787389625566	336.8661571796929	0.6082832834372311				
295.64111328125	0.2	605473	208	10	2	0	0	14	98	stimuli\Videos_short_600ms_horflip\17.repeated_touch_with_rolling_pin_short_horflip_short_600ms.mp4	17.repeated_touch_with_rolling_pin_short_horflip_short_600ms.mp4	337.05786844186514	337.6662071489459	0.6083387070807476				
296.44140625	0.2	607112	209	10	2	0	0	15	217	stimuli\Videos_short_600ms_horvertflip\43.touch_top_to_bottom_with_sharp_wooden_stick_short_horvertflip_short_600ms.mp4	43.touch_top_to_bottom_with_sharp_wooden_stick_short_horvertflip_short_600ms.mp4	337.8578497913695	338.46619494987954	0.6083451585100192				
297.2412109375	0.2	608750	210	10	2	0	0	16	127	stimuli\Videos_short_600ms_horflip\43.touch_top_to_bottom_with_sharp_wooden_stick_short_horflip_short_600ms.mp4	43.touch_top_to_bottom_with_sharp_wooden_stick_short_horflip_short_600ms.mp4	338.65783993827745	339.2661839238003	0.6083439855228789				
298.041015625	0.2	610388	211	10	2	0	0	17	322	stimuli\Videos_short_600ms_vertflip\57.single_touch_with_nail_file_short_vertflip_short_600ms.mp4	57.single_touch_with_nail_file_short_vertflip_short_600ms.mp4	339.45783624336764	340.0661752436954	0.60833900032776				
298.84130859375	0.2	612027	212	10	2	0	0	18	208	stimuli\Videos_short_600ms_horvertflip\35.single_punch_with_hand_short_horvertflip_short_600ms.mp4	35.single_punch_with_hand_short_horvertflip_short_600ms.mp4	340.2578410526153	340.8661639243692	0.6083228717538987				
299.64111328125	0.2	613665	213	10	2	0	0	19	31	stimuli\Videos_short_600ms\38.double_slap_with_pencil_short_short_600ms.mp4	38.double_slap_with_pencil_short_short_600ms.mp4	341.05782768056133	341.6661558307578	0.6083281501964848				
300.44091796875	0.2	615303	214	10	2	0	0	20	304	stimuli\Videos_short_600ms_vertflip\40.repeated_push_with_finger_short_vertflip_short_600ms.mp4	40.repeated_push_with_finger_short_vertflip_short_600ms.mp4	341.8578122557801	342.4660893810351	0.6082771252549719				
301.2412109375	0.2	616942	215	10	2	0	0	21	82	stimuli\Videos_short_600ms\84.single_touch_with_cotton_bud_short_short_600ms.mp4	84.single_touch_with_cotton_bud_short_short_600ms.mp4	342.65779829723306	343.2660894983337	0.6082912011006556				
302.041015625	0.2	618580	216	10	2	0	0	22	151	stimuli\Videos_short_600ms_horflip\65.stroke_top_to_bottom_with_stanley_knife_short_horflip_short_600ms.mp4	65.stroke_top_to_bottom_with_stanley_knife_short_horflip_short_600ms.mp4	343.4577860981667	344.0660910818665	0.6083049836997816				
302.8408203125	0.2	620218	217	10	2	0	0	23	226	stimuli\Videos_short_600ms_horvertflip\51.repeated_touch_with_hammer_short_horvertflip_short_600ms.mp4	51.repeated_touch_with_hammer_short_horvertflip_short_600ms.mp4	344.2577747788405	344.866077416566	0.608302637725501				
303.64111328125	0.2	621857	218	10	2	0	0	24	129	stimuli\Videos_short_600ms_horflip\45.scratching_with_finger_nails_short_horflip_short_600ms.mp4	45.scratching_with_finger_nails_short_horflip_short_600ms.mp4	345.05776170003355	345.666093662438	0.6083319624044634				
304.44091796875	0.2	623495	219	10	2	0	0	25	239	stimuli\Videos_short_600ms_horvertflip\63.stroke_top_to_bottom_with_screwdriver_short_horvertflip_short_600ms.mp4	63.stroke_top_to_bottom_with_screwdriver_short_horvertflip_short_600ms.mp4	345.8577486212266	346.46607178622753	0.6083231650009111				
305.24072265625	0.2	625133	220	10	2	0	0	26	191	stimuli\Videos_short_600ms_horvertflip\2.single_touch_with_finger_short_horvertflip_short_600ms.mp4	2.single_touch_with_finger_short_horvertflip_short_600ms.mp4	346.65773906138156	347.26606427910974	0.6083252177281793				
306.041015625	0.2	626772	221	10	2	0	0	27	30	stimuli\Videos_short_600ms\37.single_stab_with_nail_file_short_short_600ms.mp4	37.single_stab_with_nail_file_short_short_600ms.mp4	347.45772363660035	348.0660479745884	0.6083243379880514				
306.8408203125	0.2	628410	222	10	2	0	0	28	83	stimuli\Videos_short_600ms\85.touch_top_to_bottom_with_fabric_short_short_600ms.mp4	85.touch_top_to_bottom_with_fabric_short_short_600ms.mp4	348.257711144287	348.86603694850874	0.6083258042217494				
307.640625	0.2	630048	223	10	2	0	0	29	96	stimuli\Videos_short_600ms_horflip\15.single_stroke_top_to_bottom_with_a_plastic_whisk_short_horflip_short_600ms.mp4	15.single_stroke_top_to_bottom_with_a_plastic_whisk_short_horflip_short_600ms.mp4	349.05769982496076	349.6660224034681	0.608322578507341				
308.44091796875	0.2	631687	224	10	2	0	0	30	152	stimuli\Videos_short_600ms_horflip\66.stroke_top_to_bottom_with_sponge_short_horflip_short_600ms.mp4	66.stroke_top_to_bottom_with_sponge_short_horflip_short_600ms.mp4	349.8576858664137	350.4660110841419	0.6083252177281793				
309.24072265625	0.2	633325	225	10	2	0	0	31	358	stimuli\Videos_short_600ms_vertflip\9.single_touch_with_hammer_short_vertflip_short_600ms.mp4	9.single_touch_with_hammer_short_vertflip_short_600ms.mp4	350.65769712709016	351.2659997648161	0.6083026377259557				
310.041015625	0.2	634964	226	10	2	0	0	32	253	stimuli\Videos_short_600ms_horvertflip\76.tickle_with_fingers_from_top_to_bottom_short_horvertflip_short_600ms.mp4	76.tickle_with_fingers_from_top_to_bottom_short_horvertflip_short_600ms.mp4	351.4576462194477	352.0659843400349	0.6083381205871774				
310.8408203125	0.2	636602	227	10	2	0	0	33	218	stimuli\Videos_short_600ms_horvertflip\44.pushing_top_to_bottom_with_finger_short_horvertflip_short_600ms.mp4	44.pushing_top_to_bottom_with_finger_short_horvertflip_short_600ms.mp4	352.25764633674635	352.8659741936958	0.6083278569494723				
311.640625	0.2	638240	228	10	2	0	0	34	81	stimuli\Videos_short_600ms\83.single_stroke_top_to_bottom_with_cotton_bud_short_short_600ms.mp4	83.single_stroke_top_to_bottom_with_cotton_bud_short_short_600ms.mp4	353.0576147833917	353.6659649270973	0.6083501437055929				
312.44091796875	0.2	639879	229	10	2	0	0	35	76	stimuli\Videos_short_600ms\79.long_with_soft_brush_all_over_the_hand_short_short_600ms.mp4	79.long_with_soft_brush_all_over_the_hand_short_short_600ms.mp4	353.8576096222482	354.4659594727068	0.6083498504585805				
313.24072265625	0.2	641517	230	10	2	0	0	36	145	stimuli\Videos_short_600ms_horflip\6.single_touch_with_flat_hand_short_horflip_short_600ms.mp4	6.single_touch_with_flat_hand_short_horflip_short_600ms.mp4	354.65759888941557	355.2659176557145	0.6083187662989076				
314.04052734375	0.2	643155	231	10	2	0	0	37	141	stimuli\Videos_short_600ms_horflip\56.repeated_touch_with_nail_file_short_horflip_short_600ms.mp4	56.repeated_touch_with_nail_file_short_horflip_short_600ms.mp4	355.4576054581439	356.06587847794344	0.6082730197995261				
314.8408203125	0.2	644794	232	10	2	0	0	38	12	stimuli\Videos_short_600ms\20.single_touch_with_screwdriver_short_short_600ms.mp4	20.single_touch_with_screwdriver_short_short_600ms.mp4	356.2575950185578	356.8658759560212	0.6082809374634053				
315.640625	0.2	646432	233	10	2	0	0	39	264	stimuli\Videos_short_600ms_horvertflip\86.touch_top_to_bottom_with_hair_brush_short_horvertflip_short_600ms.mp4	86.touch_top_to_bottom_with_hair_brush_short_horvertflip_short_600ms.mp4	357.05757578156863	357.66585378656373	0.6082780049950998				
316.4404296875	0.2	648070	234	10	2	0	0	40	351	stimuli\Videos_short_600ms_vertflip\83.single_stroke_top_to_bottom_with_cotton_bud_short_vertflip_short_600ms.mp4	83.single_stroke_top_to_bottom_with_cotton_bud_short_vertflip_short_600ms.mp4	357.8575644622424	358.4658591823045	0.6082947200620765				
317.24072265625	0.2	649709	235	10	2	0	0	41	249	stimuli\Videos_short_600ms_horvertflip\72.(short)stroke_with_finger_all_over_the_hand_short_horvertflip_short_600ms.mp4	72.(short)stroke_with_finger_all_over_the_hand_short_horvertflip_short_600ms.mp4	358.6575513834355	359.2658575401224	0.6083061566869219				
318.04052734375	0.2	651347	236	10	2	0	0	42	295	stimuli\Videos_short_600ms_vertflip\32.single_(long)pinch_with_fingers_short_vertflip_short_600ms.mp4	32.single_(long)pinch_with_fingers_short_vertflip_short_600ms.mp4	359.4575371316414	360.0658447545625	0.6083076229210747				
318.84033203125	0.2	652985	237	10	2	0	1	43	367	stimuli\Targets_short_600ms_horflip\chopstick-silver-tap_short_horflip_short_600ms.mp4	chopstick-silver-tap_short_horflip_short_600ms.mp4	360.25752493257505	360.8658574814731	0.6083325488980336				
319.640625	0.2	654624	238	10	2	0	0	44	138	stimuli\Videos_short_600ms_horflip\53.touch_top_to_bottom_with_knife_short_horflip_short_600ms.mp4	53.touch_top_to_bottom_with_knife_short_horflip_short_600ms.mp4	361.05751126727455	361.6658358985096	0.6083246312350639				
320.4404296875	0.2	656262	239	10	2	0	1	45	374	stimuli\Targets_short_600ms_horvertflip\chopstickwood-tap_short_vertflip_short_600ms.mp4	chopstickwood-tap_short_vertflip_short_600ms.mp4	361.8575008276889	362.4658239926898	0.6083231650009111				
321.240234375	0.2	657900	240	10	2	0	0	46	196	stimuli\Videos_short_600ms_horvertflip\24.single_stroke_top_to_bottom_with_a_spoon_short_horvertflip_short_600ms.mp4	24.single_stroke_top_to_bottom_with_a_spoon_short_horvertflip_short_600ms.mp4	362.6574892151162	363.26580974089575	0.608320525779618				
322.04052734375	0.2	659539	241	10	2	0	0	47	162	stimuli\Videos_short_600ms_horflip\75.(long)stroke_with_fingers_all_over_the_hand_short_horflip_short_600ms.mp4	75.(long)stroke_with_fingers_all_over_the_hand_short_horflip_short_600ms.mp4	363.4574758430622	364.0657972485824	0.6083214055202006				
322.84033203125	0.2	661177	242	10	2	0	0	48	252	stimuli\Videos_short_600ms_horvertflip\75.(long)stroke_with_fingers_all_over_the_hand_short_horvertflip_short_600ms.mp4	75.(long)stroke_with_fingers_all_over_the_hand_short_horvertflip_short_600ms.mp4	364.2574642304894	364.86574604769294	0.6082818172035331				
323.64013671875	0.2	662815	243	10	2	0	0	49	130	stimuli\Videos_short_600ms_horflip\46.scratching_top_to_bottom_with_finger_nails_short_horflip_short_600ms.mp4	46.scratching_top_to_bottom_with_finger_nails_short_horflip_short_600ms.mp4	365.05745027194234	365.6657746099304	0.6083243379880514				
324.4404296875	0.2	664454	244	10	2	0	0	50	209	stimuli\Videos_short_600ms_horvertflip\36.single_slap_with_full_hand_short_horvertflip_short_600ms.mp4	36.single_slap_with_full_hand_short_horvertflip_short_600ms.mp4	365.85744247157754	366.4657612378765	0.6083187662989076				
325.240234375	0.2	666092	245	10	2	0	0	51	23	stimuli\Videos_short_600ms\30.finger_pulling_back_another_finger_short_short_600ms.mp4	30.finger_pulling_back_another_finger_short_short_600ms.mp4	366.65743672394046	367.2657510915378	0.6083143675973588				
326.0400390625	0.2	667730	246	10	2	0	0	52	53	stimuli\Videos_short_600ms\58.single_slap_with_pencil_short_short_600ms.mp4	58.single_slap_with_pencil_short_short_600ms.mp4	367.45738053785544	368.0657377194839	0.6083571816284348				
326.84033203125	0.2	669369	247	10	2	0	0	53	95	stimuli\Videos_short_600ms_horflip\14.repeated_touch_with_pencil_short_horflip_short_600ms.mp4	14.repeated_touch_with_pencil_short_horflip_short_600ms.mp4	368.2573824146348	368.86572669340467	0.6083442787698914				
327.64013671875	0.2	671007	248	10	2	0	0	54	134	stimuli\Videos_short_600ms_horflip\5.repeated_tap_with_finger_moving_from_top_to_bottom_short_horflip_short_600ms.mp4	5.repeated_tap_with_finger_moving_from_top_to_bottom_short_horflip_short_600ms.mp4	369.057391622584	369.6657153740785	0.6083237514944813				
328.43994140625	0.2	672645	249	10	2	0	0	55	45	stimuli\Videos_short_600ms\50.single_(long)hard_push_with_thumb_short_short_600ms.mp4	50.single_(long)hard_push_with_thumb_short_short_600ms.mp4	369.8573603624763	370.4656861666981	0.6083258042217494				
329.240234375	0.2	674284	250	10	2	0	0	56	58	stimuli\Videos_short_600ms\62.touch_top_to_bottom_with_scissors_short_short_600ms.mp4	62.touch_top_to_bottom_with_scissors_short_short_600ms.mp4	370.6573678109448	371.26567660685305	0.608308795908215				
330.0400390625	0.2	675922	251	10	2	0	0	57	276	stimuli\Videos_short_600ms_vertflip\15.single_stroke_top_to_bottom_with_a_plastic_whisk_short_vertflip_short_600ms.mp4	15.single_stroke_top_to_bottom_with_a_plastic_whisk_short_vertflip_short_600ms.mp4	371.45736177006074	372.0656292181716	0.608267448110837				
330.84033203125	0.2	677561	252	10	2	0	0	58	243	stimuli\Videos_short_600ms_horvertflip\67.single_touch_with_sponge_short_horvertflip_short_600ms.mp4	67.single_touch_with_sponge_short_horvertflip_short_600ms.mp4	372.2573803619075	372.8656413585886	0.6082609966811106				
331.64013671875	0.2	679199	253	10	2	0	0	59	272	stimuli\Videos_short_600ms_vertflip\11.single_touch_with_lighter_short_vertflip_short_600ms.mp4	11.single_touch_with_lighter_short_vertflip_short_600ms.mp4	373.0573274015369	373.6656274000416	0.6082999985046627				
332.43994140625	0.2	680837	254	10	2	0	0	60	13	stimuli\Videos_short_600ms\21.repeated_touch_with_metal_chopstick_short_short_600ms.mp4	21.repeated_touch_with_metal_chopstick_short_short_600ms.mp4	373.8573137362369	374.46562487811934	0.6083111418824956				
333.240234375	0.2	682476	255	10	2	0	0	61	181	stimuli\Videos_short_600ms_horvertflip\10.single_touch_with_knife_short_horvertflip_short_600ms.mp4	10.single_touch_with_knife_short_horvertflip_short_600ms.mp4	374.6573021236636	375.26560857359755	0.6083064499339343				
334.0400390625	0.2	684114	256	10	2	0	0	62	105	stimuli\Videos_short_600ms_horflip\23.single_push_with_a_spoon_short_horflip_short_600ms.mp4	23.single_push_with_a_spoon_short_horflip_short_600ms.mp4	375.4572905110908	376.06562540596315	0.6083348948723142				
334.83984375	0.2	685752	257	10	2	0	0	63	199	stimuli\Videos_short_600ms_horvertflip\27.single_push_with_a_plastic_whisk_short_horvertflip_short_600ms.mp4	27.single_push_with_a_plastic_whisk_short_horvertflip_short_600ms.mp4	376.2572806579987	376.86561027442895	0.6083296164301828				
335.64013671875	0.2	687391	258	10	2	0	0	64	195	stimuli\Videos_short_600ms_horvertflip\23.single_push_with_a_spoon_short_horvertflip_short_600ms.mp4	23.single_push_with_a_spoon_short_horvertflip_short_600ms.mp4	377.05726699269826	377.6655919171799	0.6083249244816216				
336.43994140625	0.2	689029	259	10	2	0	0	65	110	stimuli\Videos_short_600ms_horflip\28.single_injection_with_sharp_needle_short_horflip_short_600ms.mp4	28.single_injection_with_sharp_needle_short_horflip_short_600ms.mp4	377.8572536206448	378.46557649239867	0.6083228717538987				
337.23974609375	0.2	690667	260	10	2	0	0	66	257	stimuli\Videos_short_600ms_horvertflip\8.single_touch_with_hairbrush_short_horvertflip_short_600ms.mp4	8.single_touch_with_hairbrush_short_horvertflip_short_600ms.mp4	378.6572490459948	379.26556136086447	0.6083123148696359				
338.0400390625	0.2	692306	261	10	2	0	0	67	8	stimuli\Videos_short_600ms\17.repeated_touch_with_rolling_pin_short_short_600ms.mp4	17.repeated_touch_with_rolling_pin_short_short_600ms.mp4	379.4572292225116	380.0655550267338	0.6083258042222042				
338.83984375	0.2	693944	262	10	2	0	0	68	33	stimuli\Videos_short_600ms\4.repeated_tap_with_finger_slow_short_short_600ms.mp4	4.repeated_tap_with_finger_slow_short_short_600ms.mp4	380.2571941501956	380.8655360829912	0.6083419327956108				
339.6396484375	0.2	695582	263	10	2	0	0	69	312	stimuli\Videos_short_600ms_vertflip\48.single_slap_with_hand_short_vertflip_short_600ms.mp4	48.single_slap_with_hand_short_vertflip_short_600ms.mp4	381.0571617171004	381.6655256434051	0.6083639263047189				
340.43994140625	0.2	697221	264	10	2	0	0	70	315	stimuli\Videos_short_600ms_vertflip\50.single_(long)hard_push_with_thumb_short_vertflip_short_600ms.mp4	50.single_(long)hard_push_with_thumb_short_vertflip_short_600ms.mp4	381.85714658556617	382.46551373758575	0.6083671520195821				
341.23974609375	0.2	698859	265	10	2	0	0	71	228	stimuli\Videos_short_600ms_horvertflip\53.touch_top_to_bottom_with_knife_short_horvertflip_short_600ms.mp4	53.touch_top_to_bottom_with_knife_short_horvertflip_short_600ms.mp4	382.6571443568905	383.2655009520254	0.6083565951348646				
342.03955078125	0.2	700497	266	10	2	0	0	72	258	stimuli\Videos_short_600ms_horvertflip\80.stroke_with_sharp_stick_all_over_the_hand_short_horvertflip_short_600ms.mp4	80.stroke_with_sharp_stick_all_over_the_hand_short_horvertflip_short_600ms.mp4	383.45727203654315	384.06548845971247	0.6082164231693241				
342.83984375	0.2	702136	267	10	2	0	0	73	61	stimuli\Videos_short_600ms\65.stroke_top_to_bottom_with_stanley_knife_short_short_600ms.mp4	65.stroke_top_to_bottom_with_stanley_knife_short_short_600ms.mp4	384.2571407792798	384.8654739146714	0.6083331353916037				
343.6396484375	0.2	703774	268	10	2	0	0	74	273	stimuli\Videos_short_600ms_vertflip\12.repeated_touch_with_nail_file_short_vertflip_short_600ms.mp4	12.repeated_touch_with_nail_file_short_vertflip_short_600ms.mp4	385.05713620462984	385.6654596628773	0.6083234582474688				
344.439453125	0.2	705412	269	10	2	0	0	75	170	stimuli\Videos_short_600ms_horflip\82.repeated_touch_with_cotton_bud_short_horflip_short_600ms.mp4	82.repeated_touch_with_cotton_bud_short_horflip_short_600ms.mp4	385.8571313367329	386.46544159887526	0.6083102621423677				
345.23974609375	0.2	707051	270	10	2	0	0	76	327	stimuli\Videos_short_600ms_vertflip\61.single_hit_with_rolling_pin_short_vertflip_short_600ms.mp4	61.single_hit_with_rolling_pin_short_vertflip_short_600ms.mp4	386.65712500260224	387.26544259591446	0.608317593312222				
346.03955078125	0.2	708689	271	10	2	0	0	77	34	stimuli\Videos_short_600ms\40.repeated_push_with_finger_short_short_600ms.mp4	40.repeated_push_with_finger_short_short_600ms.mp4	387.4571045926259	388.06540488437713	0.6083002917512204				
346.83935546875	0.2	710327	272	10	2	0	0	78	109	stimuli\Videos_short_600ms_horflip\27.single_push_with_a_plastic_whisk_short_horflip_short_600ms.mp4	27.single_push_with_a_plastic_whisk_short_horflip_short_600ms.mp4	388.257091513819	388.8653918055702	0.6083002917512204				
347.6396484375	0.2	711966	273	10	2	0	0	79	166	stimuli\Videos_short_600ms_horflip\79.long_with_soft_brush_all_over_the_hand_short_horflip_short_600ms.mp4	79.long_with_soft_brush_all_over_the_hand_short_horflip_short_600ms.mp4	389.05707872825906	389.66538136598456	0.608302637725501				
348.439453125	0.2	713604	274	10	2	0	0	80	44	stimuli\Videos_short_600ms\5.repeated_tap_with_finger_moving_from_top_to_bottom_short_short_600ms.mp4	5.repeated_tap_with_finger_moving_from_top_to_bottom_short_short_600ms.mp4	389.8570747401027	390.4653671141905	0.6082923740877959				
349.2392578125	0.2	715242	275	10	2	0	0	81	9	stimuli\Videos_short_600ms\18.single_stroke_from_top_to_bottom_with_rolling_pin_short_short_600ms.mp4	18.single_stroke_from_top_to_bottom_with_rolling_pin_short_short_600ms.mp4	390.65705374363233	391.2653839465561	0.608330202923753				
350.03955078125	0.2	716881	276	10	2	0	0	82	210	stimuli\Videos_short_600ms_horvertflip\37.single_stab_with_nail_file_short_horvertflip_short_600ms.mp4	37.single_stab_with_nail_file_short_horvertflip_short_600ms.mp4	391.45704007833183	392.06536529606046	0.608325217728634				
350.83935546875	0.2	718519	277	10	2	0	0	83	59	stimuli\Videos_short_600ms\63.stroke_top_to_bottom_with_screwdriver_short_short_600ms.mp4	63.stroke_top_to_bottom_with_screwdriver_short_short_600ms.mp4	392.25702670627834	392.8653507510194	0.608324044741039				
351.6396484375	0.2	720158	278	10	2	0	0	84	301	stimuli\Videos_short_600ms_vertflip\38.double_slap_with_pencil_short_vertflip_short_600ms.mp4	38.double_slap_with_pencil_short_vertflip_short_600ms.mp4	393.0570171464328	393.6653373789659	0.6083202325330603				
352.439453125	0.2	721796	279	10	2	0	0	85	220	stimuli\Videos_short_600ms_horvertflip\46.scratching_top_to_bottom_with_finger_nails_short_horvertflip_short_600ms.mp4	46.scratching_top_to_bottom_with_finger_nails_short_horvertflip_short_600ms.mp4	393.8570049473665	394.4653240069124	0.60831905954592				
353.2392578125	0.2	723434	280	10	2	0	0	86	37	stimuli\Videos_short_600ms\43.touch_top_to_bottom_with_sharp_wooden_stick_short_short_600ms.mp4	43.touch_top_to_bottom_with_sharp_wooden_stick_short_short_600ms.mp4	394.6569906955724	395.2653135673263	0.6083228717538987				
354.03955078125	0.2	725073	281	10	2	0	0	87	342	stimuli\Videos_short_600ms_vertflip\75.(long)stroke_with_fingers_all_over_the_hand_short_vertflip_short_600ms.mp4	75.(long)stroke_with_fingers_all_over_the_hand_short_vertflip_short_600ms.mp4	395.45697673702534	396.0653019547535	0.6083252177281793				
354.83935546875	0.2	726711	282	10	2	0	0	88	32	stimuli\Videos_short_600ms\39.single_stab_with_scissors_short_short_600ms.mp4	39.single_stab_with_scissors_short_short_600ms.mp4	396.2569633649714	396.865288289453	0.6083249244816216				
355.63916015625	0.2	728349	283	10	2	0	0	89	73	stimuli\Videos_short_600ms\76.tickle_with_fingers_from_top_to_bottom_short_short_600ms.mp4	76.tickle_with_fingers_from_top_to_bottom_short_short_600ms.mp4	397.0569458874629	397.6652778498674	0.6083319624044634				
356.439453125	0.2	729988	284	10	2	0	0	90	227	stimuli\Videos_short_600ms_horvertflip\52.touch_top_to_bottom_with_hammer_short_horvertflip_short_600ms.mp4	52.touch_top_to_bottom_with_hammer_short_horvertflip_short_600ms.mp4	397.8569184395633	398.4652638913203	0.6083454517570317				
357.2392578125	0.2	731626	285	10	2	0	0	91	323	stimuli\Videos_short_600ms_vertflip\58.single_slap_with_pencil_short_vertflip_short_600ms.mp4	58.single_slap_with_pencil_short_vertflip_short_600ms.mp4	398.6569100527049	399.2652511057604	0.6083410530554829				
358.0390625	0.2	733264	286	10	2	0	0	92	43	stimuli\Videos_short_600ms\49.repeated_slap_with_hand_short_short_600ms.mp4	49.repeated_slap_with_hand_short_short_600ms.mp4	399.4568969738984	400.06523802695347	0.6083410530550282				
358.83935546875	0.2	734903	287	10	2	0	0	93	330	stimuli\Videos_short_600ms_vertflip\64.repeated_touch_with_screwdriver_short_vertflip_short_600ms.mp4	64.repeated_touch_with_screwdriver_short_vertflip_short_600ms.mp4	400.2568932789886	400.8652299333421	0.6083366543534794	4.0	4.0	2.3248194992693243	1.0
401.6708984375	0.2	822622	288	10	3	0	0	0	74	stimuli\Videos_short_600ms\77.tapping_with_all_fingers_short_short_600ms.mp4	77.tapping_with_all_fingers_short_short_600ms.mp4	443.0895232598955	443.6978907051616	0.6083674452661398				
402.47119140625	0.2	824261	289	10	3	0	0	1	89	stimuli\Videos_short_600ms\90.repeated_touch_with_sponge_short_short_600ms.mp4	90.repeated_touch_with_sponge_short_short_600ms.mp4	443.889530708364	444.4978746938869	0.6083439855228789				
403.27099609375	0.2	825899	290	10	3	0	0	2	137	stimuli\Videos_short_600ms_horflip\52.touch_top_to_bottom_with_hammer_short_horflip_short_600ms.mp4	52.touch_top_to_bottom_with_hammer_short_horflip_short_600ms.mp4	444.6895199755313	445.2978668935221	0.6083469179907297				
404.07080078125	0.2	827537	291	10	3	0	0	3	139	stimuli\Videos_short_600ms_horflip\54.repeated_touch_with_knife_short_horflip_short_600ms.mp4	54.repeated_touch_with_knife_short_horflip_short_600ms.mp4	445.48948959516383	446.09785176198784	0.6083621668240085				
404.87109375	0.2	829176	292	10	3	0	0	4	244	stimuli\Videos_short_600ms_horvertflip\68.stroke_top_to_bottom_with_shawl_short_horvertflip_short_600ms.mp4	68.stroke_top_to_bottom_with_shawl_short_horvertflip_short_600ms.mp4	446.2894914719432	446.89783809668734	0.608346624744172				
405.6708984375	0.2	830814	293	10	3	0	0	5	84	stimuli\Videos_short_600ms\86.touch_top_to_bottom_with_hair_brush_short_short_600ms.mp4	86.touch_top_to_bottom_with_hair_brush_short_short_600ms.mp4	447.0895162219722	447.69782619086754	0.6083099688953553				
406.47119140625	0.2	832453	294	10	3	0	0	6	3	stimuli\Videos_short_600ms\12.repeated_touch_with_nail_file_short_short_600ms.mp4	12.repeated_touch_with_nail_file_short_short_600ms.mp4	447.8894700062783	448.4978236689454	0.6083536626670139				
407.27099609375	0.2	834091	295	10	3	0	0	7	313	stimuli\Videos_short_600ms_vertflip\49.repeated_slap_with_hand_short_vertflip_short_600ms.mp4	49.repeated_slap_with_hand_short_vertflip_short_600ms.mp4	448.6894542882501	449.2978012062413	0.6083469179911845				
408.07080078125	0.2	835729	296	10	3	0	0	8	236	stimuli\Videos_short_600ms_horvertflip\60.single_push_with_tip_of_pencil_short_horvertflip_short_600ms.mp4	60.single_push_with_tip_of_pencil_short_horvertflip_short_600ms.mp4	449.4894450216516	450.0977887139279	0.6083436922763212				
408.87109375	0.2	837368	297	10	3	0	0	9	271	stimuli\Videos_short_600ms_vertflip\10.single_touch_with_knife_short_vertflip_short_600ms.mp4	10.single_touch_with_knife_short_vertflip_short_600ms.mp4	450.2894339955724	450.8977747553809	0.6083407598084705				
409.6708984375	0.2	839006	298	10	3	0	0	10	347	stimuli\Videos_short_600ms_vertflip\8.single_touch_with_hairbrush_short_vertflip_short_600ms.mp4	8.single_touch_with_hairbrush_short_vertflip_short_600ms.mp4	451.08943206014374	451.6977517061828	0.6083196460390354				
410.470703125	0.2	840644	299	10	3	0	0	11	65	stimuli\Videos_short_600ms\69.stroke_with_soft_sock_short_short_600ms.mp4	69.stroke_with_soft_sock_short_short_600ms.mp4	451.88942953822107	452.4977462517927	0.6083167135716394				
411.27099609375	0.2	842283	300	10	3	0	0	12	46	stimuli\Videos_short_600ms\51.repeated_touch_with_hammer_short_short_600ms.mp4	51.repeated_touch_with_hammer_short_short_600ms.mp4	452.68942613655827	453.29773962441504	0.6083134878567762				
412.07080078125	0.2	843921	301	10	3	0	0	13	75	stimuli\Videos_short_600ms\78.single_stroke_top_to_bottom_with_soft_brush_short_short_600ms.mp4	78.single_stroke_top_to_bottom_with_soft_brush_short_short_600ms.mp4	453.4894039671012	454.0977124697624	0.6083085026612025				
412.87060546875	0.2	845559	302	10	3	0	0	14	57	stimuli\Videos_short_600ms\61.single_hit_with_rolling_pin_short_short_600ms.mp4	61.single_hit_with_rolling_pin_short_short_600ms.mp4	454.28938766257943	454.89768795433065	0.6083002917512204				
413.6708984375	0.2	847198	303	10	3	0	0	15	101	stimuli\Videos_short_600ms_horflip\2.single_touch_with_finger_short_horflip_short_600ms.mp4	2.single_touch_with_finger_short_horflip_short_600ms.mp4	455.0893739972789	455.6976798607193	0.6083058634403642				
414.470703125	0.2	848836	304	10	3	0	0	16	343	stimuli\Videos_short_600ms_vertflip\76.tickle_with_fingers_from_top_to_bottom_short_vertflip_short_600ms.mp4	76.tickle_with_fingers_from_top_to_bottom_short_vertflip_short_600ms.mp4	455.8893609184725	456.4976705941208	0.6083096756483428				
415.2705078125	0.2	850474	305	10	3	0	0	17	237	stimuli\Videos_short_600ms_horvertflip\61.single_hit_with_rolling_pin_short_horvertflip_short_600ms.mp4	61.single_hit_with_rolling_pin_short_horvertflip_short_600ms.mp4	456.68934901265266	457.2976786290829	0.6083296164301828				
416.07080078125	0.2	852113	306	10	3	0	0	18	159	stimuli\Videos_short_600ms_horflip\72.(short)stroke_with_finger_all_over_the_hand_short_horflip_short_600ms.mp4	72.(short)stroke_with_finger_all_over_the_hand_short_horflip_short_600ms.mp4	457.48935822060184	458.0976720017052	0.6083137811033339				
416.87060546875	0.2	853751	307	10	3	0	0	19	341	stimuli\Videos_short_600ms_vertflip\74.fingers_walking_from_top_to_bottom_short_vertflip_short_600ms.mp4	74.fingers_walking_from_top_to_bottom_short_vertflip_short_600ms.mp4	458.28930731295895	458.89765129848183	0.6083439855228789				
417.67041015625	0.2	855389	308	10	3	0	0	20	314	stimuli\Videos_short_600ms_vertflip\5.repeated_tap_with_finger_moving_from_top_to_bottom_short_vertflip_short_600ms.mp4	5.repeated_tap_with_finger_moving_from_top_to_bottom_short_vertflip_short_600ms.mp4	459.08931593441457	459.69763704668776	0.6083211122731882				
418.470703125	0.2	857028	309	10	3	0	0	21	307	stimuli\Videos_short_600ms_vertflip\43.touch_top_to_bottom_with_sharp_wooden_stick_short_vertflip_short_600ms.mp4	43.touch_top_to_bottom_with_sharp_wooden_stick_short_vertflip_short_600ms.mp4	459.8892837945664	460.4976230881407	0.6083392935743177				
419.2705078125	0.2	858666	310	10	3	0	0	22	187	stimuli\Videos_short_600ms_horvertflip\16.repeated_touch_with_plastic_brush_short_horvertflip_short_600ms.mp4	16.repeated_touch_with_plastic_brush_short_horvertflip_short_600ms.mp4	460.68927247524016	461.29761323504863	0.6083407598084705				
420.0703125	0.2	860304	311	10	3	0	0	23	262	stimuli\Videos_short_600ms_horvertflip\84.single_touch_with_cotton_bud_short_horvertflip_short_600ms.mp4	84.single_touch_with_cotton_bud_short_horvertflip_short_600ms.mp4	461.48925968968024	462.09759898325456	0.6083392935743177				
420.87060546875	0.2	861943	312	10	3	0	0	24	147	stimuli\Videos_short_600ms_horflip\61.single_hit_with_rolling_pin_short_horflip_short_600ms.mp4	61.single_hit_with_rolling_pin_short_horflip_short_600ms.mp4	462.28926860438287	462.89758619769464	0.6083175933117673				
421.67041015625	0.2	863581	313	10	3	0	0	25	215	stimuli\Videos_short_600ms_horvertflip\41.injection_with_blunt_syringe_short_horvertflip_short_600ms.mp4	41.injection_with_blunt_syringe_short_horvertflip_short_600ms.mp4	463.0892086060894	463.6975731188877	0.6083645127982891				
422.47021484375	0.2	865219	314	10	3	0	1	26	378	stimuli\Targets_short_600ms_vertflip\brush-stroke_short_horvertflip_short_600ms.mp4	brush-stroke_short_horvertflip_short_600ms.mp4	463.8892222127406	464.4975620928085	0.6083398800678879				
423.2705078125	0.2	866858	315	10	3	0	0	27	352	stimuli\Videos_short_600ms_vertflip\84.single_touch_with_cotton_bud_short_vertflip_short_600ms.mp4	84.single_touch_with_cotton_bud_short_vertflip_short_600ms.mp4	464.689203268998	465.29754960049513	0.6083463314971596				
424.0703125	0.2	868496	316	10	3	0	0	28	214	stimuli\Videos_short_600ms_horvertflip\40.repeated_push_with_finger_short_horvertflip_short_600ms.mp4	40.repeated_push_with_finger_short_horvertflip_short_600ms.mp4	465.489194002399	466.0975394541561	0.6083454517570317				
424.8701171875	0.2	870134	317	10	3	0	0	29	163	stimuli\Videos_short_600ms_horflip\76.tickle_with_fingers_from_top_to_bottom_short_horflip_short_600ms.mp4	76.tickle_with_fingers_from_top_to_bottom_short_horflip_short_600ms.mp4	466.2891920669704	466.8975208036604	0.6083287366900549				
425.67041015625	0.2	871773	318	10	3	0	0	30	238	stimuli\Videos_short_600ms_horvertflip\62.touch_top_to_bottom_with_scissors_short_horvertflip_short_600ms.mp4	62.touch_top_to_bottom_with_scissors_short_horvertflip_short_600ms.mp4	467.08915699465433	467.69751271004907	0.6083557153947368				
426.47021484375	0.2	873411	319	10	3	0	0	31	67	stimuli\Videos_short_600ms\70.(long)stroke_with_finger_all_over_the_hand_short_short_600ms.mp4	70.(long)stroke_with_finger_all_over_the_hand_short_short_600ms.mp4	467.8891849703982	468.4974840891623	0.60829911876408				
427.2705078125	0.2	875050	320	10	3	0	0	32	42	stimuli\Videos_short_600ms\48.single_slap_with_hand_short_short_600ms.mp4	48.single_slap_with_hand_short_short_600ms.mp4	468.6891628009407	469.29746309269194	0.6083002917512204				
428.0703125	0.2	876688	321	10	3	0	0	33	328	stimuli\Videos_short_600ms_vertflip\62.touch_top_to_bottom_with_scissors_short_vertflip_short_600ms.mp4	62.touch_top_to_bottom_with_scissors_short_vertflip_short_600ms.mp4	469.4891623317458	470.0974517733657	0.6082894416199451				
428.8701171875	0.2	878326	322	10	3	0	0	34	111	stimuli\Videos_short_600ms_horflip\29.single_pinch_with_tweezers_short_horflip_short_600ms.mp4	29.single_pinch_with_tweezers_short_horflip_short_600ms.mp4	470.28914074878185	470.8974483717029	0.6083076229210747				
429.67041015625	0.2	879965	323	10	3	0	1	35	366	stimuli\Targets_short_600ms_horflip\brush-stroke_short_horflip_short_600ms.mp4	brush-stroke_short_horflip_short_600ms.mp4	471.08912327127337	471.6974288414667	0.6083055701933517				
430.47021484375	0.2	881603	324	10	3	0	0	36	133	stimuli\Videos_short_600ms_horflip\49.repeated_slap_with_hand_short_horflip_short_600ms.mp4	49.repeated_slap_with_hand_short_horflip_short_600ms.mp4	471.8891125384407	472.4974403953902	0.6083278569494723				
431.27001953125	0.2	883241	325	10	3	0	1	37	373	stimuli\Targets_short_600ms_horvertflip\chopstick-silver-tap_short_vertflip_short_600ms.mp4	chopstick-silver-tap_short_vertflip_short_600ms.mp4	472.6890959406723	473.29743611398726	0.6083401733149003				
432.0703125	0.2	884880	326	10	3	0	0	38	167	stimuli\Videos_short_600ms_horflip\8.single_touch_with_hairbrush_short_horflip_short_600ms.mp4	8.single_touch_with_hairbrush_short_horflip_short_600ms.mp4	473.48908843355457	474.09741071881535	0.6083222852607832				
432.8701171875	0.2	886518	327	10	3	0	0	39	156	stimuli\Videos_short_600ms_horflip\7.repeated_touch_with_hairbrush_short_horflip_short_600ms.mp4	7.repeated_touch_with_hairbrush_short_horflip_short_600ms.mp4	474.2890753547477	474.89739939948913	0.6083240447414937				
433.669921875	0.2	888156	328	10	3	0	0	40	192	stimuli\Videos_short_600ms_horvertflip\20.single_touch_with_screwdriver_short_horvertflip_short_600ms.mp4	20.single_touch_with_screwdriver_short_horvertflip_short_600ms.mp4	475.0890622759411	475.69738749366934	0.6083252177281793				
434.47021484375	0.2	889795	329	10	3	0	0	41	28	stimuli\Videos_short_600ms\35.single_punch_with_hand_short_short_600ms.mp4	35.single_punch_with_hand_short_short_600ms.mp4	475.88903805375594	476.4973744148624	0.6083363611064669				
435.27001953125	0.2	891433	330	10	3	0	0	42	154	stimuli\Videos_short_600ms_horflip\68.stroke_top_to_bottom_with_shawl_short_horflip_short_600ms.mp4	68.stroke_top_to_bottom_with_shawl_short_horflip_short_600ms.mp4	476.68902057624746	477.2973607495619	0.6083401733144456				
436.06982421875	0.2	893071	331	10	3	0	0	43	245	stimuli\Videos_short_600ms_horvertflip\69.stroke_with_soft_sock_short_horvertflip_short_600ms.mp4	69.stroke_with_soft_sock_short_horvertflip_short_600ms.mp4	477.4890060312064	478.0973476707554	0.6083416395490531				
436.8701171875	0.2	894710	332	10	3	0	0	44	337	stimuli\Videos_short_600ms_vertflip\70.(long)stroke_with_finger_all_over_the_hand_short_vertflip_short_600ms.mp4	70.(long)stroke_with_finger_all_over_the_hand_short_vertflip_short_600ms.mp4	478.2890049755183	478.89733664467576	0.608331669157451				
437.669921875	0.2	896348	333	10	3	0	0	45	260	stimuli\Videos_short_600ms_horvertflip\82.repeated_touch_with_cotton_bud_short_horvertflip_short_600ms.mp4	82.repeated_touch_with_cotton_bud_short_horvertflip_short_600ms.mp4	479.0889787006058	479.6973247388564	0.6083460382506019				
438.4697265625	0.2	897986	334	10	3	0	0	46	280	stimuli\Videos_short_600ms_vertflip\19.single_touch_with_rolling_pin_short_vertflip_short_600ms.mp4	19.single_touch_with_rolling_pin_short_vertflip_short_600ms.mp4	479.8889653285519	480.49731283303663	0.6083475044847546				
439.27001953125	0.2	899625	335	10	3	0	0	47	204	stimuli\Videos_short_600ms_horvertflip\31.hand_grabbing_wrist_short_horvertflip_short_600ms.mp4	31.hand_grabbing_wrist_short_horvertflip_short_600ms.mp4	480.6889604606554	481.29729946098314	0.60833900032776				
440.06982421875	0.2	901263	336	10	3	0	0	48	70	stimuli\Videos_short_600ms\73.single_stroke_with_flat_hand_short_short_600ms.mp4	73.single_stroke_with_flat_hand_short_short_600ms.mp4	481.4889503143163	482.09728520918907	0.6083348948727689				
440.86962890625	0.2	902901	337	10	3	0	0	49	266	stimuli\Videos_short_600ms_horvertflip\88.repeated_stroke_with_plastic_brush_short_horvertflip_short_600ms.mp4	88.repeated_stroke_with_plastic_brush_short_horvertflip_short_600ms.mp4	482.2889457396664	482.89726391947215	0.6083181798057922				
441.669921875	0.2	904540	338	10	3	0	0	50	72	stimuli\Videos_short_600ms\75.(long)stroke_with_fingers_all_over_the_hand_short_short_600ms.mp4	75.(long)stroke_with_fingers_all_over_the_hand_short_short_600ms.mp4	483.0889511354076	483.69723999053394	0.608288855126375				
442.4697265625	0.2	906178	339	10	3	0	0	51	179	stimuli\Videos_short_600ms_horflip\90.repeated_touch_with_sponge_short_horflip_short_600ms.mp4	90.repeated_touch_with_sponge_short_horflip_short_600ms.mp4	483.8889248604951	484.4972292577013	0.6083043972062114				
443.26953125	0.2	907816	340	10	3	0	0	52	150	stimuli\Videos_short_600ms_horflip\64.repeated_touch_with_screwdriver_short_horflip_short_600ms.mp4	64.repeated_touch_with_screwdriver_short_horflip_short_600ms.mp4	484.688910901948	485.29721031395866	0.6082994120106378				
444.06982421875	0.2	909455	341	10	3	0	0	53	60	stimuli\Videos_short_600ms\64.repeated_touch_with_screwdriver_short_short_600ms.mp4	64.repeated_touch_with_screwdriver_short_short_600ms.mp4	485.4888989961282	486.09720749878943	0.6083085026612025				
444.86962890625	0.2	911093	342	10	3	0	0	54	49	stimuli\Videos_short_600ms\54.repeated_touch_with_knife_short_short_600ms.mp4	54.repeated_touch_with_knife_short_short_600ms.mp4	486.28888650381487	486.8972011646588	0.6083146608439165				
445.66943359375	0.2	912731	343	10	3	0	0	55	6	stimuli\Videos_short_600ms\15.single_stroke_top_to_bottom_with_a_plastic_whisk_short_short_600ms.mp4	15.single_stroke_top_to_bottom_with_a_plastic_whisk_short_short_600ms.mp4	487.0888728385144	487.6971910183197	0.6083181798053374				
446.4697265625	0.2	914370	344	10	3	0	0	56	197	stimuli\Videos_short_600ms_horvertflip\25.single_touch_with_stanley_knife_short_horvertflip_short_600ms.mp4	25.single_touch_with_stanley_knife_short_horvertflip_short_600ms.mp4	487.8888638651624	488.49719582756734	0.6083319624049182				
447.26953125	0.2	916008	345	10	3	0	0	57	247	stimuli\Videos_short_600ms_horvertflip\70.(long)stroke_with_finger_all_over_the_hand_short_horvertflip_short_600ms.mp4	70.(long)stroke_with_finger_all_over_the_hand_short_horvertflip_short_600ms.mp4	488.68886075674664	489.29717189862913	0.6083111418824956				
448.06982421875	0.2	917647	346	10	3	0	0	58	86	stimuli\Videos_short_600ms\88.repeated_stroke_with_plastic_brush_short_short_600ms.mp4	88.repeated_stroke_with_plastic_brush_short_short_600ms.mp4	489.4888356548213	490.09715999280934	0.6083243379880514				
448.86962890625	0.2	919285	347	10	3	0	0	59	211	stimuli\Videos_short_600ms_horvertflip\38.double_slap_with_pencil_short_horvertflip_short_600ms.mp4	38.double_slap_with_pencil_short_horvertflip_short_600ms.mp4	490.28882286926137	490.897147500496	0.6083246312346091				
449.66943359375	0.2	920923	348	10	3	0	0	60	212	stimuli\Videos_short_600ms_horvertflip\39.single_stab_with_scissors_short_horvertflip_short_600ms.mp4	39.single_stab_with_scissors_short_horvertflip_short_600ms.mp4	491.0887901429196	491.6971341284425	0.6083439855228789				
450.4697265625	0.2	922562	349	10	3	0	1	61	379	stimuli\Targets_short_600ms_vertflip\chopstick-silver-tap_short_horvertflip_short_600ms.mp4	chopstick-silver-tap_short_horvertflip_short_600ms.mp4	491.8888087347659	492.4971210496355	0.6083123148696359				
451.26953125	0.2	924200	350	10	3	0	0	62	168	stimuli\Videos_short_600ms_horflip\80.stroke_with_sharp_stick_all_over_the_hand_short_horflip_short_600ms.mp4	80.stroke_with_sharp_stick_all_over_the_hand_short_horflip_short_600ms.mp4	492.688774835437	493.2971070910885	0.6083322556514759				
452.0693359375	0.2	925838	351	10	3	0	0	63	106	stimuli\Videos_short_600ms_horflip\24.single_stroke_top_to_bottom_with_a_spoon_short_horflip_short_600ms.mp4	24.single_stroke_top_to_bottom_with_a_spoon_short_horflip_short_600ms.mp4	493.4887614633835	494.0970960650093	0.6083346016257565				
452.86962890625	0.2	927477	352	10	3	0	0	64	292	stimuli\Videos_short_600ms_vertflip\3.single_push_with_finger_short_vertflip_short_600ms.mp4	3.single_push_with_finger_short_vertflip_short_600ms.mp4	494.28873958717304	494.8970850389296	0.608345451756577				
453.66943359375	0.2	929115	353	10	3	0	0	65	269	stimuli\Videos_short_600ms_horvertflip\90.repeated_touch_with_sponge_short_horvertflip_short_600ms.mp4	90.repeated_touch_with_sponge_short_horvertflip_short_600ms.mp4	495.0887294408339	495.697074599344	0.6083451585100192				
454.46923828125	0.2	930753	354	10	3	0	0	66	287	stimuli\Videos_short_600ms_vertflip\25.single_touch_with_stanley_knife_short_vertflip_short_600ms.mp4	25.single_touch_with_stanley_knife_short_vertflip_short_600ms.mp4	495.88871401605275	496.4970580015756	0.6083439855228789				
455.26953125	0.2	932392	355	10	3	0	0	67	56	stimuli\Videos_short_600ms\60.single_push_with_tip_of_pencil_short_short_600ms.mp4	60.single_push_with_tip_of_pencil_short_short_600ms.mp4	496.6887138401048	497.29704844173057	0.6083346016257565				
456.0693359375	0.2	934030	356	10	3	0	0	68	354	stimuli\Videos_short_600ms_vertflip\86.touch_top_to_bottom_with_hair_brush_short_vertflip_short_600ms.mp4	86.touch_top_to_bottom_with_hair_brush_short_vertflip_short_600ms.mp4	497.48870955870143	498.0970391751316	0.6083296164301828				
456.869140625	0.2	935668	357	10	3	0	0	69	99	stimuli\Videos_short_600ms_horflip\18.single_stroke_from_top_to_bottom_with_rolling_pin_short_horflip_short_600ms.mp4	18.single_stroke_from_top_to_bottom_with_rolling_pin_short_horflip_short_600ms.mp4	498.28870791651934	498.8969973581393	0.6082894416199451				
457.66943359375	0.2	937307	358	10	3	0	0	70	10	stimuli\Videos_short_600ms\19.single_touch_with_rolling_pin_short_short_600ms.mp4	19.single_touch_with_rolling_pin_short_short_600ms.mp4	499.0886848673217	499.69696257907026	0.6082777117485421				
458.46923828125	0.2	938945	359	10	3	0	0	71	124	stimuli\Videos_short_600ms_horflip\40.repeated_push_with_finger_short_horflip_short_600ms.mp4	40.repeated_push_with_finger_short_horflip_short_600ms.mp4	499.8886838116332	500.4969714937724	0.6082876821392347				
459.26904296875	0.2	940583	360	10	3	0	1	72	361	stimuli\Targets_short_600ms\chopstick-silver-tap_short_short_600ms.mp4	chopstick-silver-tap_short_short_600ms.mp4	500.688660469189	501.2969686786032	0.6083082094141901				
460.0693359375	0.2	942222	361	10	3	0	0	73	324	stimuli\Videos_short_600ms_vertflip\59.single_push_with_long_side_pencil_short_vertflip_short_600ms.mp4	59.single_push_with_long_side_pencil_short_vertflip_short_600ms.mp4	501.48863331453595	502.0969506146011	0.6083173000652096				
460.869140625	0.2	943860	362	10	3	0	0	74	274	stimuli\Videos_short_600ms_vertflip\13.single_touch_with_pen_short_vertflip_short_600ms.mp4	13.single_touch_with_pen_short_vertflip_short_600ms.mp4	502.2886343115751	502.89696774021377	0.6083334286386162				
461.6689453125	0.2	945498	363	10	3	0	0	75	232	stimuli\Videos_short_600ms_horvertflip\57.single_touch_with_nail_file_short_horvertflip_short_600ms.mp4	57.single_touch_with_nail_file_short_horvertflip_short_600ms.mp4	503.08862093952166	503.69695202218554	0.6083310826638808				
462.46923828125	0.2	947137	364	10	3	0	0	76	25	stimuli\Videos_short_600ms\32.single_(long)pinch_with_fingers_short_short_600ms.mp4	32.single_(long)pinch_with_fingers_short_short_600ms.mp4	503.8886084472083	504.4969333716899	0.6083249244816216				
463.26904296875	0.2	948775	365	10	3	0	0	77	198	stimuli\Videos_short_600ms_horvertflip\26.single_touch_with_a_blunt_syringe_short_horvertflip_short_600ms.mp4	26.single_touch_with_a_blunt_syringe_short_horvertflip_short_600ms.mp4	504.6885950751548	505.29692263885727	0.6083275637024599				
464.06884765625	0.2	950413	366	10	3	0	0	78	201	stimuli\Videos_short_600ms_horvertflip\29.single_pinch_with_tweezers_short_horvertflip_short_600ms.mp4	29.single_pinch_with_tweezers_short_horvertflip_short_600ms.mp4	505.4885855153093	506.09690721407605	0.6083216987667583				
464.869140625	0.2	952052	367	10	3	0	0	79	184	stimuli\Videos_short_600ms_horvertflip\13.single_touch_with_pen_short_horvertflip_short_600ms.mp4	13.single_touch_with_pen_short_horvertflip_short_600ms.mp4	506.2885721432558	506.89689384202256	0.6083216987667583				
465.6689453125	0.2	953690	368	10	3	0	1	80	369	stimuli\Targets_short_600ms_horflip\finger-tap_short_horflip_short_600ms.mp4	finger-tap_short_horflip_short_600ms.mp4	507.0885836971793	507.69688105646264	0.6082973592833696				
466.46875	0.2	955328	369	10	3	0	0	81	171	stimuli\Videos_short_600ms_horflip\83.single_stroke_top_to_bottom_with_cotton_bud_short_horflip_short_600ms.mp4	83.single_stroke_top_to_bottom_with_cotton_bud_short_horflip_short_600ms.mp4	507.8885242853794	508.496870030383	0.6083457450035894				
467.26904296875	0.2	956967	370	10	3	0	0	82	235	stimuli\Videos_short_600ms_horvertflip\6.single_touch_with_flat_hand_short_horvertflip_short_600ms.mp4	6.single_touch_with_flat_hand_short_horvertflip_short_600ms.mp4	508.68851384579375	509.2968557785889	0.608341932795156				
468.06884765625	0.2	958605	371	10	3	0	0	83	47	stimuli\Videos_short_600ms\52.touch_top_to_bottom_with_hammer_short_short_600ms.mp4	52.touch_top_to_bottom_with_hammer_short_short_600ms.mp4	509.48850223322097	510.0968438727696	0.6083416395485983				
468.869140625	0.2	960244	372	10	3	0	0	84	85	stimuli\Videos_short_600ms\87.single_stroke_top_to_bottom_with_plastic_brush_short_short_600ms.mp4	87.single_stroke_top_to_bottom_with_plastic_brush_short_short_600ms.mp4	510.28848651519274	510.8968305007156	0.6083439855228789				
469.6689453125	0.2	961882	373	10	3	0	0	85	282	stimuli\Videos_short_600ms_vertflip\20.single_touch_with_screwdriver_short_vertflip_short_600ms.mp4	20.single_touch_with_screwdriver_short_vertflip_short_600ms.mp4	511.08848340677696	511.6968188881429	0.6083354813658843				
470.46875	0.2	963520	374	10	3	0	0	86	26	stimuli\Videos_short_600ms\33.scratch_top_to_bottom_with_scissors_short_short_600ms.mp4	33.scratch_top_to_bottom_with_scissors_short_short_600ms.mp4	511.888470034723	512.4967917334902	0.6083216987672131				
