onset	duration	onsetsample	eventnumber	subjectnr	sequencenumber	blocksequencenumber	istarget	presentationnumber	stimnumber	stim	stimname	time_stimon	time_stimoff	stimdur	cresp	resp	rt	correct
38.951171875	0.2	79772	0	45	0	0	0	0	138	stimuli\Videos_short_600ms_horflip\53.touch_top_to_bottom_with_knife_short_horflip_short_600ms.mp4	53.touch_top_to_bottom_with_knife_short_horflip_short_600ms.mp4	1820.810756639728	1821.4189419307315	0.6081852910033376				
39.75146484375	0.2	81411	1	45	0	0	0	1	272	stimuli\Videos_short_600ms_vertflip\11.single_touch_with_lighter_short_vertflip_short_600ms.mp4	11.single_touch_with_lighter_short_vertflip_short_600ms.mp4	1821.610609254756	1822.218927385776	0.6083181310200416				
40.55126953125	0.2	83049	2	45	0	0	0	2	95	stimuli\Videos_short_600ms_horflip\14.repeated_touch_with_pencil_short_horflip_short_600ms.mp4	14.repeated_touch_with_pencil_short_horflip_short_600ms.mp4	1822.4105888448987	1823.018910201615	0.6083213567162602				
41.35107421875	0.2	84687	3	45	0	0	0	3	229	stimuli\Videos_short_600ms_horvertflip\54.repeated_touch_with_knife_short_horvertflip_short_600ms.mp4	54.repeated_touch_with_knife_short_horvertflip_short_600ms.mp4	1823.2105836837857	1823.818890964738	0.608307280952431				
42.1513671875	0.2	86326	4	45	0	0	0	4	353	stimuli\Videos_short_600ms_vertflip\85.touch_top_to_bottom_with_fabric_short_vertflip_short_600ms.mp4	85.touch_top_to_bottom_with_fabric_short_vertflip_short_600ms.mp4	1824.0104911356416	1824.618873487332	0.6083823516905795				
42.951171875	0.2	87964	5	45	0	0	0	5	328	stimuli\Videos_short_600ms_vertflip\62.touch_top_to_bottom_with_scissors_short_vertflip_short_600ms.mp4	62.touch_top_to_bottom_with_scissors_short_vertflip_short_600ms.mp4	1824.8105194044665	1825.4188580626412	0.6083386581749437				
43.7509765625	0.2	89602	6	45	0	0	0	6	1	stimuli\Videos_short_600ms\10.single_touch_with_knife_short_short_600ms.mp4	10.single_touch_with_knife_short_short_600ms.mp4	1825.610498994609	1826.2188004106604	0.6083014160512903				
44.55126953125	0.2	91241	7	45	0	0	0	7	311	stimuli\Videos_short_600ms_vertflip\47.(long)scratching_with_finger_nails_short_vertflip_short_600ms.mp4	47.(long)scratching_with_finger_nails_short_vertflip_short_600ms.mp4	1826.410485915879	1827.018823401074	0.6083374851950794				
45.35107421875	0.2	92879	8	45	0	0	0	8	20	stimuli\Videos_short_600ms\28.single_injection_with_sharp_needle_short_short_600ms.mp4	28.single_injection_with_sharp_needle_short_short_600ms.mp4	1827.210459934366	1827.8188161872451	0.6083562528792754				
46.15087890625	0.2	94517	9	45	0	0	0	9	238	stimuli\Videos_short_600ms_horvertflip\62.touch_top_to_bottom_with_scissors_short_horvertflip_short_600ms.mp4	62.touch_top_to_bottom_with_scissors_short_horvertflip_short_600ms.mp4	1828.0104424569597	1828.6187884462613	0.608345989301597				
46.951171875	0.2	96156	10	45	0	0	0	10	171	stimuli\Videos_short_600ms_horflip\83.single_stroke_top_to_bottom_with_cotton_bud_short_horflip_short_600ms.mp4	83.single_stroke_top_to_bottom_with_cotton_bud_short_horflip_short_600ms.mp4	1828.8104669135985	1829.4187504417	0.6082835281017651				
47.7509765625	0.2	97794	11	45	0	0	0	11	57	stimuli\Videos_short_600ms\61.single_hit_with_rolling_pin_short_short_600ms.mp4	61.single_hit_with_rolling_pin_short_short_600ms.mp4	1829.610435360429	1830.218731204824	0.6082958443948883				
48.55078125	0.2	99432	12	45	0	0	0	12	93	stimuli\Videos_short_600ms_horflip\12.repeated_touch_with_nail_file_short_horflip_short_600ms.mp4	12.repeated_touch_with_nail_file_short_horflip_short_600ms.mp4	1830.4104170032876	1831.0187140206629	0.6082970173752074				
49.35107421875	0.2	101071	13	45	0	0	1	13	364	stimuli\Targets_short_600ms\hand-pinch_short_short_600ms.mp4	hand-pinch_short_short_600ms.mp4	1831.2104021650869	1831.8187015284227	0.6082993633358456				
50.15087890625	0.2	102709	14	45	0	0	0	14	333	stimuli\Videos_short_600ms_vertflip\67.single_touch_with_sponge_short_vertflip_short_600ms.mp4	67.single_touch_with_sponge_short_vertflip_short_600ms.mp4	1832.0104154784133	1832.618705751152	0.6082902727384862				
50.951171875	0.2	104348	15	45	0	0	0	15	132	stimuli\Videos_short_600ms_horflip\48.single_slap_with_hand_short_horflip_short_600ms.mp4	48.single_slap_with_hand_short_horflip_short_600ms.mp4	1832.810373075176	1833.4186777169227	0.6083046417465994				
51.7509765625	0.2	105986	16	45	0	0	0	16	123	stimuli\Videos_short_600ms_horflip\4.repeated_tap_with_finger_slow_short_horflip_short_600ms.mp4	4.repeated_tap_with_finger_slow_short_horflip_short_600ms.mp4	1833.6103330178996	1834.21867431528	0.6083412973803206				
52.55078125	0.2	107624	17	45	0	0	0	17	267	stimuli\Videos_short_600ms_horvertflip\89.single_touch_with_plastic_brush_short_horvertflip_short_600ms.mp4	89.single_touch_with_plastic_brush_short_horvertflip_short_600ms.mp4	1834.4103337216875	1835.0186556648937	0.6083219432057376				
53.35107421875	0.2	109263	18	45	0	0	0	18	285	stimuli\Videos_short_600ms_vertflip\23.single_push_with_a_spoon_short_vertflip_short_600ms.mp4	23.single_push_with_a_spoon_short_vertflip_short_600ms.mp4	1835.2103203497124	1835.8186378942423	0.6083175445301094				
54.15087890625	0.2	110901	19	45	0	0	0	19	253	stimuli\Videos_short_600ms_horvertflip\76.tickle_with_fingers_from_top_to_bottom_short_horvertflip_short_600ms.mp4	76.tickle_with_fingers_from_top_to_bottom_short_horvertflip_short_600ms.mp4	1836.010326625157	1836.6186227627968	0.608296137639627				
54.95068359375	0.2	112539	20	45	0	0	0	20	75	stimuli\Videos_short_600ms\78.single_stroke_top_to_bottom_with_soft_brush_short_short_600ms.mp4	78.single_stroke_top_to_bottom_with_soft_brush_short_short_600ms.mp4	1836.8102877408603	1837.4186061651255	0.6083184242652351				
55.7509765625	0.2	114178	21	45	0	0	0	21	256	stimuli\Videos_short_600ms_horvertflip\79.long_with_soft_brush_all_over_the_hand_short_horvertflip_short_600ms.mp4	79.long_with_soft_brush_all_over_the_hand_short_horvertflip_short_600ms.mp4	1837.610226569939	1838.2185898606997	0.6083632907607353				
56.55078125	0.2	115816	22	45	0	0	0	22	28	stimuli\Videos_short_600ms\35.single_punch_with_hand_short_short_600ms.mp4	35.single_punch_with_hand_short_short_600ms.mp4	1838.4102530792932	1839.0185732630289	0.6083201837354864				
57.3505859375	0.2	117454	23	45	0	0	0	23	96	stimuli\Videos_short_600ms_horflip\15.single_stroke_top_to_bottom_with_a_plastic_whisk_short_horflip_short_600ms.mp4	15.single_stroke_top_to_bottom_with_a_plastic_whisk_short_horflip_short_600ms.mp4	1839.210219473408	1839.8185554923775	0.6083360189695668				
58.15087890625	0.2	119093	24	45	0	0	0	24	278	stimuli\Videos_short_600ms_vertflip\17.repeated_touch_with_rolling_pin_short_vertflip_short_600ms.mp4	17.repeated_touch_with_rolling_pin_short_vertflip_short_600ms.mp4	1840.0102022892468	1840.618540360932	0.6083380716850115				
58.95068359375	0.2	120731	25	45	0	0	0	25	46	stimuli\Videos_short_600ms\51.repeated_touch_with_hammer_short_short_600ms.mp4	51.repeated_touch_with_hammer_short_short_600ms.mp4	1840.8101824658804	1841.4185217105453	0.6083392446648759				
59.75048828125	0.2	122369	26	45	0	0	1	26	383	stimuli\Targets_short_600ms_vertflip\hand-stroke_short_horvertflip_short_600ms.mp4	hand-stroke_short_horvertflip_short_600ms.mp4	1841.6101620560232	1842.218507458835	0.6083454028116648				
60.55078125	0.2	124008	27	45	0	0	0	27	206	stimuli\Videos_short_600ms_horvertflip\33.scratch_top_to_bottom_with_scissors_short_horvertflip_short_600ms.mp4	33.scratch_top_to_bottom_with_scissors_short_horvertflip_short_600ms.mp4	1842.410155428685	1843.0184923273896	0.6083368987046924				
61.3505859375	0.2	125646	28	45	0	0	0	28	197	stimuli\Videos_short_600ms_horvertflip\25.single_touch_with_stanley_knife_short_horvertflip_short_600ms.mp4	25.single_touch_with_stanley_knife_short_horvertflip_short_600ms.mp4	1843.2101382445237	1843.818471037797	0.6083327932733482				
62.150390625	0.2	127284	29	45	0	0	0	29	87	stimuli\Videos_short_600ms\89.single_touch_with_plastic_brush_short_short_600ms.mp4	89.single_touch_with_plastic_brush_short_short_600ms.mp4	1844.0101395348015	1844.6184476954895	0.6083081606880114				
62.95068359375	0.2	128923	30	45	0	0	0	30	212	stimuli\Videos_short_600ms_horvertflip\39.single_stab_with_scissors_short_horvertflip_short_600ms.mp4	39.single_stab_with_scissors_short_horvertflip_short_600ms.mp4	1844.810119124945	1845.4184140896048	0.6082949646597626				
63.75048828125	0.2	130561	31	45	0	0	0	31	13	stimuli\Videos_short_600ms\21.repeated_touch_with_metal_chopstick_short_short_600ms.mp4	21.repeated_touch_with_metal_chopstick_short_short_600ms.mp4	1845.6101242274092	1846.2183760850432	0.608251857634059				
64.55029296875	0.2	132199	32	45	0	0	0	32	334	stimuli\Videos_short_600ms_vertflip\68.stroke_top_to_bottom_with_shawl_short_vertflip_short_600ms.mp4	68.stroke_top_to_bottom_with_shawl_short_vertflip_short_600ms.mp4	1846.4100829971524	1847.0183521562456	0.6082691590931972				
65.3505859375	0.2	133838	33	45	0	0	0	33	59	stimuli\Videos_short_600ms\63.stroke_top_to_bottom_with_screwdriver_short_short_600ms.mp4	63.stroke_top_to_bottom_with_screwdriver_short_short_600ms.mp4	1847.210053203453	1847.8183675222872	0.6083143188343456				
66.150390625	0.2	135476	34	45	0	0	0	34	0	stimuli\Videos_short_600ms\1.repeated_touch_with_finger_fast_short_short_600ms.mp4	1.repeated_touch_with_finger_fast_short_short_600ms.mp4	1848.0100536139964	1848.618374970712	0.6083213567158055				
66.9501953125	0.2	137114	35	45	0	0	0	35	201	stimuli\Videos_short_600ms_horvertflip\29.single_pinch_with_tweezers_short_horvertflip_short_600ms.mp4	29.single_pinch_with_tweezers_short_horvertflip_short_600ms.mp4	1848.8100343771196	1849.4183583730412	0.6083239959216371				
67.75048828125	0.2	138753	36	45	0	0	0	36	301	stimuli\Videos_short_600ms_vertflip\38.double_slap_with_pencil_short_vertflip_short_600ms.mp4	38.double_slap_with_pencil_short_vertflip_short_600ms.mp4	1849.6100168997136	1850.2183400159	0.6083231161865115				
68.55029296875	0.2	140391	37	45	0	0	0	37	158	stimuli\Videos_short_600ms_horflip\71.single_stroke_with_finger_top_to_bottom_short_horflip_short_600ms.mp4	71.single_stroke_with_finger_top_to_bottom_short_horflip_short_600ms.mp4	1850.410001475023	1851.018327816905	0.6083263418822753				
69.3505859375	0.2	142030	38	45	0	0	0	38	346	stimuli\Videos_short_600ms_vertflip\79.long_with_soft_brush_all_over_the_hand_short_vertflip_short_600ms.mp4	79.long_with_soft_brush_all_over_the_hand_short_vertflip_short_600ms.mp4	1851.2099625907265	1851.8183047678424	0.608342177115901				
70.150390625	0.2	143668	39	45	0	0	0	39	4	stimuli\Videos_short_600ms\13.single_touch_with_pen_short_short_600ms.mp4	13.single_touch_with_pen_short_short_600ms.mp4	1852.009948045771	1852.618290516132	0.6083424703610945				
70.9501953125	0.2	145306	40	45	0	0	0	40	99	stimuli\Videos_short_600ms_horflip\18.single_stroke_from_top_to_bottom_with_rolling_pin_short_horflip_short_600ms.mp4	18.single_stroke_from_top_to_bottom_with_rolling_pin_short_horflip_short_600ms.mp4	1852.809961065852	1853.4182733319703	0.6083122661184461				
71.75048828125	0.2	146945	41	45	0	0	0	41	252	stimuli\Videos_short_600ms_horvertflip\75.(long)stroke_with_fingers_all_over_the_hand_short_horvertflip_short_600ms.mp4	75.(long)stroke_with_fingers_all_over_the_hand_short_horvertflip_short_600ms.mp4	1853.6099380167896	1854.2182584937705	0.6083204769806798				
72.55029296875	0.2	148583	42	45	0	0	0	42	89	stimuli\Videos_short_600ms\90.repeated_touch_with_sponge_short_short_600ms.mp4	90.repeated_touch_with_sponge_short_short_600ms.mp4	1854.40990705011	1855.018241602854	0.6083345527440542				
73.3583984375	0.2	150238	43	45	0	0	0	43	6	stimuli\Videos_short_600ms\15.single_stroke_top_to_bottom_with_a_plastic_whisk_short_short_600ms.mp4	15.single_stroke_top_to_bottom_with_a_plastic_whisk_short_short_600ms.mp4	1855.218323887421	1855.8265552179	0.6082313304791569				
74.15869140625	0.2	151877	44	45	0	0	0	44	136	stimuli\Videos_short_600ms_horflip\51.repeated_touch_with_hammer_short_horflip_short_600ms.mp4	51.repeated_touch_with_hammer_short_horflip_short_600ms.mp4	1856.0182269406007	1856.6265397932095	0.608312852608833				
74.95849609375	0.2	153515	45	45	0	0	0	45	187	stimuli\Videos_short_600ms_horvertflip\16.repeated_touch_with_plastic_brush_short_horvertflip_short_600ms.mp4	16.repeated_touch_with_plastic_brush_short_horvertflip_short_600ms.mp4	1856.8182065307435	1857.426520849578	0.6083143188343456				
75.75830078125	0.2	155153	46	45	0	0	0	46	324	stimuli\Videos_short_600ms_vertflip\59.single_push_with_long_side_pencil_short_vertflip_short_600ms.mp4	59.single_push_with_long_side_pencil_short_vertflip_short_600ms.mp4	1857.6181893465823	1858.226504545152	0.6083151985694712				
76.55859375	0.2	156792	47	45	0	0	0	47	355	stimuli\Videos_short_600ms_vertflip\87.single_stroke_top_to_bottom_with_plastic_brush_short_vertflip_short_600ms.mp4	87.single_stroke_top_to_bottom_with_plastic_brush_short_vertflip_short_600ms.mp4	1858.418169816461	1859.026492052912	0.6083222364509311				
77.3583984375	0.2	158430	48	45	0	0	0	48	335	stimuli\Videos_short_600ms_vertflip\69.stroke_with_soft_sock_short_vertflip_short_600ms.mp4	69.stroke_with_soft_sock_short_vertflip_short_600ms.mp4	1859.2181514593196	1859.82647076332	0.6083193040003607				
78.158203125	0.2	160068	49	45	0	0	0	49	105	stimuli\Videos_short_600ms_horflip\23.single_push_with_a_spoon_short_horflip_short_600ms.mp4	23.single_push_with_a_spoon_short_horflip_short_600ms.mp4	1860.0181143344937	1860.6264568048543	0.6083424703606397				
78.95849609375	0.2	161707	50	45	0	0	0	50	302	stimuli\Videos_short_600ms_vertflip\39.single_stab_with_scissors_short_vertflip_short_600ms.mp4	39.single_stab_with_scissors_short_vertflip_short_600ms.mp4	1860.8180962705972	1861.426401205589	0.6083049349917928				
79.75830078125	0.2	163345	51	45	0	0	0	51	26	stimuli\Videos_short_600ms\33.scratch_top_to_bottom_with_scissors_short_short_600ms.mp4	33.scratch_top_to_bottom_with_scissors_short_short_600ms.mp4	1861.6180802594165	1862.2264221432872	0.6083418838707075				
80.55810546875	0.2	164983	52	45	0	0	0	52	195	stimuli\Videos_short_600ms_horvertflip\23.single_push_with_a_spoon_short_horvertflip_short_600ms.mp4	23.single_push_with_a_spoon_short_horvertflip_short_600ms.mp4	1862.4180642482352	1863.026408184822	0.608343936586607				
81.3583984375	0.2	166622	53	45	0	0	0	53	245	stimuli\Videos_short_600ms_horvertflip\69.stroke_with_soft_sock_short_horvertflip_short_600ms.mp4	69.stroke_with_soft_sock_short_horvertflip_short_600ms.mp4	1863.2180514627505	1863.8263895344355	0.6083380716850115				
82.158203125	0.2	168260	54	45	0	0	0	54	27	stimuli\Videos_short_600ms\34.repeated_punch_with_hand_short_short_600ms.mp4	34.repeated_punch_with_hand_short_short_600ms.mp4	1864.0180392637556	1864.6263802678911	0.6083410041355819				
82.9580078125	0.2	169898	55	45	0	0	0	55	338	stimuli\Videos_short_600ms_vertflip\71.single_stroke_with_finger_top_to_bottom_short_vertflip_short_600ms.mp4	71.single_stroke_with_finger_top_to_bottom_short_vertflip_short_600ms.mp4	1864.8180428999945	1865.4263317065077	0.6082888065134284				
83.75830078125	0.2	171537	56	45	0	0	0	56	43	stimuli\Videos_short_600ms\49.repeated_slap_with_hand_short_short_600ms.mp4	49.repeated_slap_with_hand_short_short_600ms.mp4	1865.618006361659	1866.226314229101	0.6083078674423632				
84.55810546875	0.2	173175	57	45	0	0	0	57	60	stimuli\Videos_short_600ms\64.repeated_touch_with_screwdriver_short_short_600ms.mp4	64.repeated_touch_with_screwdriver_short_short_600ms.mp4	1866.4180064789564	1867.0262988044103	0.608292325453931				
85.3583984375	0.2	174814	58	45	0	0	0	58	97	stimuli\Videos_short_600ms_horflip\16.repeated_touch_with_plastic_brush_short_horflip_short_600ms.mp4	16.repeated_touch_with_plastic_brush_short_horflip_short_600ms.mp4	1867.21798782857	1867.826292177072	0.6083043485018607				
86.158203125	0.2	176452	59	45	0	0	0	59	166	stimuli\Videos_short_600ms_horflip\79.long_with_soft_brush_all_over_the_hand_short_horflip_short_600ms.mp4	79.long_with_soft_brush_all_over_the_hand_short_horflip_short_600ms.mp4	1868.017970937654	1868.626258864432	0.608287926777848				
86.9580078125	0.2	178090	60	45	0	0	0	60	56	stimuli\Videos_short_600ms\60.single_push_with_tip_of_pencil_short_short_600ms.mp4	60.single_push_with_tip_of_pencil_short_short_600ms.mp4	1868.817956099453	1869.4262774561696	0.6083213567162602				
87.75830078125	0.2	179729	61	45	0	0	0	61	186	stimuli\Videos_short_600ms_horvertflip\15.single_stroke_top_to_bottom_with_a_plastic_whisk_short_horvertflip_short_600ms.mp4	15.single_stroke_top_to_bottom_with_a_plastic_whisk_short_horvertflip_short_600ms.mp4	1869.6194256678	1870.2262687761151	0.6068431083153882				
88.55810546875	0.2	181367	62	45	0	0	0	62	296	stimuli\Videos_short_600ms_vertflip\33.scratch_top_to_bottom_with_scissors_short_vertflip_short_600ms.mp4	33.scratch_top_to_bottom_with_scissors_short_vertflip_short_600ms.mp4	1870.4188800560216	1871.0262425013568	0.607362445335184				
89.35791015625	0.2	183005	63	45	0	0	0	63	260	stimuli\Videos_short_600ms_horvertflip\82.repeated_touch_with_cotton_bud_short_horvertflip_short_600ms.mp4	82.repeated_touch_with_cotton_bud_short_horvertflip_short_600ms.mp4	1871.2179763920124	1871.8262220915	0.6082456994877248				
90.158203125	0.2	184644	64	45	0	0	0	64	215	stimuli\Videos_short_600ms_horvertflip\41.injection_with_blunt_syringe_short_horvertflip_short_600ms.mp4	41.injection_with_blunt_syringe_short_horvertflip_short_600ms.mp4	1872.0178902952596	1872.6262084262796	0.6083181310200416				
90.9580078125	0.2	186282	65	45	0	0	0	65	247	stimuli\Videos_short_600ms_horvertflip\70.(long)stroke_with_finger_all_over_the_hand_short_horvertflip_short_600ms.mp4	70.(long)stroke_with_finger_all_over_the_hand_short_horvertflip_short_600ms.mp4	1872.817875750304	1873.426193294834	0.6083175445301094				
91.7578125	0.2	187920	66	45	0	0	0	66	110	stimuli\Videos_short_600ms_horflip\28.single_injection_with_sharp_needle_short_horflip_short_600ms.mp4	28.single_injection_with_sharp_needle_short_horflip_short_600ms.mp4	1873.6178565134276	1874.2261734714673	0.6083169580397225				
92.55810546875	0.2	189559	67	45	0	0	0	67	82	stimuli\Videos_short_600ms\84.single_touch_with_cotton_bud_short_short_600ms.mp4	84.single_touch_with_cotton_bud_short_short_600ms.mp4	1874.41785340503	1875.0261589265117	0.608305521481725				
93.35791015625	0.2	191197	68	45	0	0	0	68	161	stimuli\Videos_short_600ms_horflip\74.fingers_walking_from_top_to_bottom_short_horflip_short_600ms.mp4	74.fingers_walking_from_top_to_bottom_short_horflip_short_600ms.mp4	1875.217807482852	1875.8261440883111	0.608336605459499				
94.15771484375	0.2	192835	69	45	0	0	0	69	122	stimuli\Videos_short_600ms_horflip\39.single_stab_with_scissors_short_horflip_short_600ms.mp4	39.single_stab_with_scissors_short_horflip_short_600ms.mp4	1876.0177800351132	1876.6261242649448	0.6083442298313457				
94.9580078125	0.2	194474	70	45	0	0	0	70	25	stimuli\Videos_short_600ms\32.single_(long)pinch_with_fingers_short_short_600ms.mp4	32.single_(long)pinch_with_fingers_short_short_600ms.mp4	1876.8177690090984	1877.4261073740283	0.6083383649297502				
95.7578125	0.2	196112	71	45	0	0	0	71	49	stimuli\Videos_short_600ms\54.repeated_touch_with_knife_short_short_600ms.mp4	54.repeated_touch_with_knife_short_short_600ms.mp4	1877.6177521181824	1878.226092535828	0.6083404176456497				
96.5576171875	0.2	197750	72	45	0	0	0	72	85	stimuli\Videos_short_600ms\87.single_stroke_top_to_bottom_with_plastic_brush_short_short_600ms.mp4	87.single_stroke_top_to_bottom_with_plastic_brush_short_short_600ms.mp4	1878.4177431448832	1879.0260785773628	0.6083354324796346				
97.35791015625	0.2	199389	73	45	0	0	0	73	116	stimuli\Videos_short_600ms_horflip\33.scratch_top_to_bottom_with_scissors_short_horflip_short_600ms.mp4	33.scratch_top_to_bottom_with_scissors_short_horflip_short_600ms.mp4	1879.217724494497	1879.826066378368	0.6083418838711623				
98.15771484375	0.2	201027	74	45	0	0	0	74	15	stimuli\Videos_short_600ms\23.single_push_with_a_spoon_short_short_600ms.mp4	23.single_push_with_a_spoon_short_short_600ms.mp4	1880.0177386875584	1880.6260272008265	0.608288513268235				
98.95751953125	0.2	202665	75	45	0	0	0	75	307	stimuli\Videos_short_600ms_vertflip\43.touch_top_to_bottom_with_sharp_wooden_stick_short_vertflip_short_600ms.mp4	43.touch_top_to_bottom_with_sharp_wooden_stick_short_vertflip_short_600ms.mp4	1880.8177068411435	1881.425980105668	0.6082732645245414				
99.7578125	0.2	204304	76	45	0	0	0	76	232	stimuli\Videos_short_600ms_horvertflip\57.single_touch_with_nail_file_short_horvertflip_short_600ms.mp4	57.single_touch_with_nail_file_short_horvertflip_short_600ms.mp4	1881.6176920029432	1882.2259646809773	0.6082726780341545				
100.5576171875	0.2	205942	77	45	0	0	0	77	124	stimuli\Videos_short_600ms_horflip\40.repeated_push_with_finger_short_horflip_short_600ms.mp4	40.repeated_push_with_finger_short_horflip_short_600ms.mp4	1882.4176727660663	1883.0259700766867	0.6082973106204008				
101.357421875	0.2	207580	78	45	0	0	0	78	236	stimuli\Videos_short_600ms_horvertflip\60.single_push_with_tip_of_pencil_short_horvertflip_short_600ms.mp4	60.single_push_with_tip_of_pencil_short_horvertflip_short_600ms.mp4	1883.2176573413756	1883.825959637162	0.6083022957864159				
102.15771484375	0.2	209219	79	45	0	0	0	79	228	stimuli\Videos_short_600ms_horvertflip\53.touch_top_to_bottom_with_knife_short_horvertflip_short_600ms.mp4	53.touch_top_to_bottom_with_knife_short_horvertflip_short_600ms.mp4	1884.0176495410567	1884.6259656193613	0.6083160783045969				
102.95751953125	0.2	210857	80	45	0	0	0	80	191	stimuli\Videos_short_600ms_horvertflip\2.single_touch_with_finger_short_horvertflip_short_600ms.mp4	2.single_touch_with_finger_short_horvertflip_short_600ms.mp4	1884.8176229730536	1885.4259554730825	0.6083325000286095				
103.7578125	0.2	212496	81	45	0	0	0	81	19	stimuli\Videos_short_600ms\27.single_push_with_a_plastic_whisk_short_short_600ms.mp4	27.single_push_with_a_plastic_whisk_short_short_600ms.mp4	1885.6176069618723	1886.225926559118	0.6083195972455542				
104.5576171875	0.2	214134	82	45	0	0	0	82	173	stimuli\Videos_short_600ms_horflip\85.touch_top_to_bottom_with_fabric_short_horflip_short_600ms.mp4	85.touch_top_to_bottom_with_fabric_short_horflip_short_600ms.mp4	1886.4175880182408	1887.0259234507205	0.6083354324796346				
105.357421875	0.2	215772	83	45	0	0	0	83	198	stimuli\Videos_short_600ms_horvertflip\26.single_touch_with_a_blunt_syringe_short_horvertflip_short_600ms.mp4	26.single_touch_with_a_blunt_syringe_short_horvertflip_short_600ms.mp4	1887.217574646266	1887.8258960029816	0.6083213567158055				
106.15771484375	0.2	217411	84	45	0	0	0	84	163	stimuli\Videos_short_600ms_horflip\76.tickle_with_fingers_from_top_to_bottom_short_horflip_short_600ms.mp4	76.tickle_with_fingers_from_top_to_bottom_short_horflip_short_600ms.mp4	1888.017556875615	1888.625876766105	0.6083198904902929				
106.95751953125	0.2	219049	85	45	0	0	0	85	189	stimuli\Videos_short_600ms_horvertflip\18.single_stroke_from_top_to_bottom_with_rolling_pin_short_horvertflip_short_600ms.mp4	18.single_stroke_from_top_to_bottom_with_rolling_pin_short_horvertflip_short_600ms.mp4	1888.817549955031	1889.4258619279049	0.6083119728737074				
107.75732421875	0.2	220687	86	45	0	0	0	86	32	stimuli\Videos_short_600ms\39.single_stab_with_scissors_short_short_600ms.mp4	39.single_stab_with_scissors_short_short_600ms.mp4	1889.61753277087	1890.2258444504985	0.608311679628514				
108.5576171875	0.2	222326	87	45	0	0	0	87	129	stimuli\Videos_short_600ms_horflip\45.scratching_with_finger_nails_short_horflip_short_600ms.mp4	45.scratching_with_finger_nails_short_horflip_short_600ms.mp4	1890.4174889014073	1891.025829025808	0.6083401244004563				
109.357421875	0.2	223964	88	45	0	0	0	88	108	stimuli\Videos_short_600ms_horflip\26.single_touch_with_a_blunt_syringe_short_horflip_short_600ms.mp4	26.single_touch_with_a_blunt_syringe_short_horflip_short_600ms.mp4	1891.2175101323503	1891.825812721382	0.6083025890316094				
110.1572265625	0.2	225602	89	45	0	0	0	89	208	stimuli\Videos_short_600ms_horvertflip\35.single_punch_with_hand_short_horvertflip_short_600ms.mp4	35.single_punch_with_hand_short_horvertflip_short_600ms.mp4	1892.0174325397045	1892.6257993494064	0.6083668097021473				
110.95751953125	0.2	227241	90	45	0	0	0	90	170	stimuli\Videos_short_600ms_horflip\82.repeated_touch_with_cotton_bud_short_horflip_short_600ms.mp4	82.repeated_touch_with_cotton_bud_short_horflip_short_600ms.mp4	1892.8174367624335	1893.42578069902	0.608343936586607				
111.75732421875	0.2	228879	91	45	0	0	0	91	155	stimuli\Videos_short_600ms_horflip\69.stroke_with_soft_sock_short_horflip_short_600ms.mp4	69.stroke_with_soft_sock_short_horflip_short_600ms.mp4	1893.6174228039683	1894.2257623418784	0.6083395379100693	2.0	2.0	3.355041483914192	1.0
149.39794921875	0.2	305967	92	45	1	0	0	0	304	stimuli\Videos_short_600ms_vertflip\40.repeated_push_with_finger_short_vertflip_short_600ms.mp4	40.repeated_push_with_finger_short_vertflip_short_600ms.mp4	1931.258447437434	1931.866657654268	0.6082102168338679				
150.19775390625	0.2	307605	93	45	1	0	0	1	36	stimuli\Videos_short_600ms\42.single_slap_with_plastic_whisk_short_short_600ms.mp4	42.single_slap_with_plastic_whisk_short_short_600ms.mp4	1932.058284217228	1932.6665944306308	0.6083102134030014				
150.99755859375	0.2	309243	94	45	1	0	0	2	291	stimuli\Videos_short_600ms_vertflip\29.single_pinch_with_tweezers_short_vertflip_short_600ms.mp4	29.single_pinch_with_tweezers_short_vertflip_short_600ms.mp4	1932.8582570627343	1933.466632376543	0.6083753138086649				
151.7978515625	0.2	310882	95	45	1	0	0	3	268	stimuli\Videos_short_600ms_horvertflip\9.single_touch_with_hammer_short_horvertflip_short_600ms.mp4	9.single_touch_with_hammer_short_horvertflip_short_600ms.mp4	1933.6582422245335	1934.2666084477453	0.6083662232117604				
152.59765625	0.2	312520	96	45	1	0	0	4	35	stimuli\Videos_short_600ms\41.injection_with_blunt_syringe_short_short_600ms.mp4	41.injection_with_blunt_syringe_short_short_600ms.mp4	1934.4582250403728	1935.0665941960349	0.6083691556623307				
153.3974609375	0.2	314158	97	45	1	0	0	5	52	stimuli\Videos_short_600ms\57.single_touch_with_nail_file_short_short_600ms.mp4	57.single_touch_with_nail_file_short_short_600ms.mp4	1935.258310198741	1935.8665638158457	0.608253617104765				
154.19775390625	0.2	315797	98	45	1	0	0	6	51	stimuli\Videos_short_600ms\56.repeated_touch_with_nail_file_short_short_600ms.mp4	56.repeated_touch_with_nail_file_short_short_600ms.mp4	1936.0582158911263	1936.6665173071776	0.6083014160512903				
154.99755859375	0.2	317435	99	45	1	0	0	7	146	stimuli\Videos_short_600ms_horflip\60.single_push_with_tip_of_pencil_short_horflip_short_600ms.mp4	60.single_push_with_tip_of_pencil_short_horflip_short_600ms.mp4	1936.858231257168	1937.4665021757316	0.6082709185634485				
155.79736328125	0.2	319073	100	45	1	0	0	8	270	stimuli\Videos_short_600ms_vertflip\1.repeated_touch_with_finger_fast_short_vertflip_short_600ms.mp4	1.repeated_touch_with_finger_fast_short_vertflip_short_600ms.mp4	1937.6581838687648	1938.2664794199145	0.6082955511496948				
156.59765625	0.2	320712	101	45	1	0	0	9	42	stimuli\Videos_short_600ms\48.single_slap_with_hand_short_short_600ms.mp4	48.single_slap_with_hand_short_short_600ms.mp4	1938.458164338643	1939.0664642884688	0.6082999498257777				
157.3974609375	0.2	322350	102	45	1	0	1	10	382	stimuli\Targets_short_600ms_vertflip\hand-pinch_short_horvertflip_short_600ms.mp4	hand-pinch_short_horvertflip_short_600ms.mp4	1939.2581536058735	1939.866447984043	0.6082943781693757				
158.197265625	0.2	323988	103	45	1	0	0	11	282	stimuli\Videos_short_600ms_vertflip\20.single_touch_with_screwdriver_short_vertflip_short_600ms.mp4	20.single_touch_with_screwdriver_short_vertflip_short_600ms.mp4	1940.0581241054192	1940.6664654028	0.6083412973803206				
158.99755859375	0.2	325627	104	45	1	0	0	12	287	stimuli\Videos_short_600ms_vertflip\25.single_touch_with_stanley_knife_short_vertflip_short_600ms.mp4	25.single_touch_with_stanley_knife_short_vertflip_short_600ms.mp4	1940.8581186510607	1941.466444992943	0.6083263418822753				
159.79736328125	0.2	327265	105	45	1	0	0	13	283	stimuli\Videos_short_600ms_vertflip\21.repeated_touch_with_metal_chopstick_short_vertflip_short_600ms.mp4	21.repeated_touch_with_metal_chopstick_short_vertflip_short_600ms.mp4	1941.6581014669	1942.2664565467987	0.6083550798989563				
160.59765625	0.2	328904	106	45	1	0	0	14	21	stimuli\Videos_short_600ms\29.single_pinch_with_tweezers_short_short_600ms.mp4	29.single_pinch_with_tweezers_short_short_600ms.mp4	1942.4580913206205	1943.0664267531	0.6083354324796346				
161.3974609375	0.2	330542	107	45	1	0	1	15	379	stimuli\Targets_short_600ms_vertflip\chopstick-silver-tap_short_horvertflip_short_600ms.mp4	chopstick-silver-tap_short_horvertflip_short_600ms.mp4	1943.2580923176536	1943.8664101554289	0.6083178377753029				
162.197265625	0.2	332180	108	45	1	0	0	16	118	stimuli\Videos_short_600ms_horflip\35.single_punch_with_hand_short_horflip_short_600ms.mp4	35.single_punch_with_hand_short_horflip_short_600ms.mp4	1944.058036425143	1944.666395023983	0.6083585988399136				
162.99755859375	0.2	333819	109	45	1	0	0	17	64	stimuli\Videos_short_600ms\68.stroke_top_to_bottom_with_shawl_short_short_600ms.mp4	68.stroke_top_to_bottom_with_shawl_short_short_600ms.mp4	1944.8580661601936	1945.4663793060472	0.6083131458540265				
163.79736328125	0.2	335457	110	45	1	0	0	18	22	stimuli\Videos_short_600ms\3.single_push_with_finger_short_short_600ms.mp4	3.single_push_with_finger_short_short_600ms.mp4	1945.6580454570917	1946.2663632948663	0.6083178377748482				
164.59716796875	0.2	337095	111	45	1	0	0	19	351	stimuli\Videos_short_600ms_vertflip\83.single_stroke_top_to_bottom_with_cotton_bud_short_vertflip_short_600ms.mp4	83.single_stroke_top_to_bottom_with_cotton_bud_short_vertflip_short_600ms.mp4	1946.458030325646	1947.0663475769309	0.608317251284916				
165.3974609375	0.2	338734	112	45	1	0	0	20	154	stimuli\Videos_short_600ms_horflip\68.stroke_top_to_bottom_with_shawl_short_horflip_short_600ms.mp4	68.stroke_top_to_bottom_with_shawl_short_horflip_short_600ms.mp4	1947.257985869693	1947.8663271670737	0.6083412973807754				
166.197265625	0.2	340372	113	45	1	0	0	21	29	stimuli\Videos_short_600ms\36.single_slap_with_full_hand_short_short_600ms.mp4	36.single_slap_with_full_hand_short_short_600ms.mp4	1948.0579595949343	1948.6663114491375	0.6083518542031925				
166.9970703125	0.2	342010	114	45	1	0	1	22	360	stimuli\Targets_short_600ms\brush-stroke_short_short_600ms.mp4	brush-stroke_short_short_600ms.mp4	1948.8579312674608	1949.466296024447	0.6083647569862478				
167.79736328125	0.2	343649	115	45	1	0	0	23	317	stimuli\Videos_short_600ms_vertflip\52.touch_top_to_bottom_with_hammer_short_vertflip_short_600ms.mp4	52.touch_top_to_bottom_with_hammer_short_vertflip_short_600ms.mp4	1949.65791525628	1950.2662820659816	0.6083668097016925				
168.59716796875	0.2	345287	116	45	1	0	0	24	181	stimuli\Videos_short_600ms_horvertflip\10.single_touch_with_knife_short_horvertflip_short_600ms.mp4	10.single_touch_with_knife_short_horvertflip_short_600ms.mp4	1950.4579306223216	1951.066262242615	0.6083316202934839				
169.39697265625	0.2	346925	117	45	1	0	1	25	377	stimuli\Targets_short_600ms_horvertflip\hand-stroke_short_vertflip_short_600ms.mp4	hand-stroke_short_vertflip_short_600ms.mp4	1951.2579084529943	1951.866253269316	0.6083448163212779				
170.197265625	0.2	348564	118	45	1	0	0	26	157	stimuli\Videos_short_600ms_horflip\70.(long)stroke_with_finger_all_over_the_hand_short_horflip_short_600ms.mp4	70.(long)stroke_with_finger_all_over_the_hand_short_horflip_short_600ms.mp4	1952.0579123824784	1952.6662387243607	0.6083263418822753				
170.9970703125	0.2	350202	119	45	1	0	0	27	9	stimuli\Videos_short_600ms\18.single_stroke_from_top_to_bottom_with_rolling_pin_short_short_600ms.mp4	18.single_stroke_from_top_to_bottom_with_rolling_pin_short_short_600ms.mp4	1952.857900476729	1953.4662209537096	0.6083204769806798				
171.796875	0.2	351840	120	45	1	0	0	28	277	stimuli\Videos_short_600ms_vertflip\16.repeated_touch_with_plastic_brush_short_vertflip_short_600ms.mp4	16.repeated_touch_with_plastic_brush_short_vertflip_short_600ms.mp4	1953.6578786006464	1954.2661882275595	0.6083096269130692				
172.59716796875	0.2	353479	121	45	1	0	0	29	313	stimuli\Videos_short_600ms_vertflip\49.repeated_slap_with_hand_short_vertflip_short_600ms.mp4	49.repeated_slap_with_hand_short_vertflip_short_600ms.mp4	1954.4578655219163	1955.066161073066	0.6082955511496948				
173.39697265625	0.2	355117	122	45	1	0	0	30	8	stimuli\Videos_short_600ms\17.repeated_touch_with_rolling_pin_short_short_600ms.mp4	17.repeated_touch_with_rolling_pin_short_short_600ms.mp4	1955.2578471647744	1955.866150340296	0.6083031755215416				
174.19677734375	0.2	356755	123	45	1	0	0	31	66	stimuli\Videos_short_600ms\7.repeated_touch_with_hairbrush_short_short_600ms.mp4	7.repeated_touch_with_hairbrush_short_short_600ms.mp4	1956.0578141453796	1956.6661469386536	0.608332793273803				
174.9970703125	0.2	358394	124	45	1	0	0	32	294	stimuli\Videos_short_600ms_vertflip\31.hand_grabbing_wrist_short_vertflip_short_600ms.mp4	31.hand_grabbing_wrist_short_vertflip_short_600ms.mp4	1956.8578130896976	1957.4661403113148	0.6083272216174009				
175.796875	0.2	360032	125	45	1	0	0	33	48	stimuli\Videos_short_600ms\53.touch_top_to_bottom_with_knife_short_short_600ms.mp4	53.touch_top_to_bottom_with_knife_short_short_600ms.mp4	1957.6577950258013	1958.266116089272	0.608321063470612				
176.5966796875	0.2	361670	126	45	1	0	0	34	183	stimuli\Videos_short_600ms_horvertflip\12.repeated_touch_with_nail_file_short_horvertflip_short_600ms.mp4	12.repeated_touch_with_nail_file_short_horvertflip_short_600ms.mp4	1958.4577825335612	1959.066106822728	0.6083242891668306				
177.39697265625	0.2	363309	127	45	1	0	0	35	184	stimuli\Videos_short_600ms_horvertflip\13.single_touch_with_pen_short_horvertflip_short_600ms.mp4	13.single_touch_with_pen_short_horvertflip_short_600ms.mp4	1959.2577665223805	1959.8660820141947	0.60831549181421				
178.19677734375	0.2	364947	128	45	1	0	0	36	168	stimuli\Videos_short_600ms_horflip\80.stroke_with_sharp_stick_all_over_the_hand_short_horflip_short_600ms.mp4	80.stroke_with_sharp_stick_all_over_the_hand_short_horflip_short_600ms.mp4	1960.057751977425	1960.666066589504	0.6083146120790843				
178.9970703125	0.2	366586	129	45	1	0	0	37	44	stimuli\Videos_short_600ms\5.repeated_tap_with_finger_moving_from_top_to_bottom_short_short_600ms.mp4	5.repeated_tap_with_finger_moving_from_top_to_bottom_short_short_600ms.mp4	1960.8577280486272	1961.466049991833	0.6083219432057376				
179.796875	0.2	368224	130	45	1	0	0	38	322	stimuli\Videos_short_600ms_vertflip\57.single_touch_with_nail_file_short_vertflip_short_600ms.mp4	57.single_touch_with_nail_file_short_vertflip_short_600ms.mp4	1961.6577193685728	1962.266032221182	0.6083128526092878				
180.5966796875	0.2	369862	131	45	1	0	0	39	194	stimuli\Videos_short_600ms_horvertflip\22.single_touch_with_metal_chopstick_short_horvertflip_short_600ms.mp4	22.single_touch_with_metal_chopstick_short_horvertflip_short_600ms.mp4	1962.457677551826	1963.0660209019225	0.6083433500962201				
181.39697265625	0.2	371501	132	45	1	0	0	40	5	stimuli\Videos_short_600ms\14.repeated_touch_with_pencil_short_short_600ms.mp4	14.repeated_touch_with_pencil_short_short_600ms.mp4	1963.257636028324	1963.8660001988203	0.6083641704963156				
182.19677734375	0.2	373139	133	45	1	0	0	41	112	stimuli\Videos_short_600ms_horflip\3.single_push_with_finger_short_horflip_short_600ms.mp4	3.single_push_with_finger_short_horflip_short_600ms.mp4	1964.0576206036333	1964.6659431333296	0.6083225296961245				
182.99658203125	0.2	374777	134	45	1	0	0	42	200	stimuli\Videos_short_600ms_horvertflip\28.single_injection_with_sharp_needle_short_horvertflip_short_600ms.mp4	28.single_injection_with_sharp_needle_short_horvertflip_short_600ms.mp4	1964.8576016600016	1965.4659687629485	0.608367102946886				
183.796875	0.2	376416	135	45	1	0	0	43	192	stimuli\Videos_short_600ms_horvertflip\20.single_touch_with_screwdriver_short_horvertflip_short_600ms.mp4	20.single_touch_with_screwdriver_short_horvertflip_short_600ms.mp4	1965.6575868218013	1966.2659504058072	0.6083635840059287				
184.5966796875	0.2	378054	136	45	1	0	0	44	230	stimuli\Videos_short_600ms_horvertflip\55.touch_top_to_bottom_with_nail_file_short_horvertflip_short_600ms.mp4	55.touch_top_to_bottom_with_nail_file_short_horvertflip_short_600ms.mp4	1966.457604240558	1967.065933514891	0.6083292743328457				
185.396484375	0.2	379692	137	45	1	0	0	45	196	stimuli\Videos_short_600ms_horvertflip\24.single_stroke_top_to_bottom_with_a_spoon_short_horvertflip_short_600ms.mp4	24.single_stroke_top_to_bottom_with_a_spoon_short_horvertflip_short_600ms.mp4	1967.2577342654224	1967.8659192631808	0.6081849977581442				
186.19677734375	0.2	381331	138	45	1	0	0	46	237	stimuli\Videos_short_600ms_horvertflip\61.single_hit_with_rolling_pin_short_horvertflip_short_600ms.mp4	61.single_hit_with_rolling_pin_short_horvertflip_short_600ms.mp4	1968.0575857074696	1968.6658853640504	0.6082996565805843				
186.99658203125	0.2	382969	139	45	1	0	0	47	165	stimuli\Videos_short_600ms_horflip\78.single_stroke_top_to_bottom_with_soft_brush_short_horflip_short_600ms.mp4	78.single_stroke_top_to_bottom_with_soft_brush_short_horflip_short_600ms.mp4	1968.8575664705936	1969.465862608233	0.608296137639627				
187.79638671875	0.2	384607	140	45	1	0	0	48	352	stimuli\Videos_short_600ms_vertflip\84.single_touch_with_cotton_bud_short_vertflip_short_600ms.mp4	84.single_touch_with_cotton_bud_short_vertflip_short_600ms.mp4	1969.657552805373	1970.2658483565224	0.6082955511496948				
188.5966796875	0.2	386246	141	45	1	0	0	49	176	stimuli\Videos_short_600ms_horflip\88.repeated_stroke_with_plastic_brush_short_horflip_short_600ms.mp4	88.repeated_stroke_with_plastic_brush_short_horflip_short_600ms.mp4	1970.4575353279668	1971.0658364507728	0.6083011228060968				
189.396484375	0.2	387884	142	45	1	0	0	50	175	stimuli\Videos_short_600ms_horflip\87.single_stroke_top_to_bottom_with_plastic_brush_short_horflip_short_600ms.mp4	87.single_stroke_top_to_bottom_with_plastic_brush_short_horflip_short_600ms.mp4	1971.2575184370503	1971.865817213896	0.6082987768454586				
190.1962890625	0.2	389522	143	45	1	0	0	51	40	stimuli\Videos_short_600ms\46.scratching_top_to_bottom_with_finger_nails_short_short_600ms.mp4	46.scratching_top_to_bottom_with_finger_nails_short_short_600ms.mp4	1972.0575009596444	1972.665820850135	0.6083198904907476				
190.99658203125	0.2	391161	144	45	1	0	0	52	315	stimuli\Videos_short_600ms_vertflip\50.single_(long)hard_push_with_thumb_short_vertflip_short_600ms.mp4	50.single_(long)hard_push_with_thumb_short_vertflip_short_600ms.mp4	1972.8574837754832	1973.4658027862383	0.6083190107551673				
191.79638671875	0.2	392799	145	45	1	0	0	53	71	stimuli\Videos_short_600ms\74.fingers_walking_from_top_to_bottom_short_short_600ms.mp4	74.fingers_walking_from_top_to_bottom_short_short_600ms.mp4	1973.6574662980772	1974.2657861885675	0.6083198904902929				
192.59619140625	0.2	394437	146	45	1	0	0	54	18	stimuli\Videos_short_600ms\26.single_touch_with_a_blunt_syringe_short_short_600ms.mp4	26.single_touch_with_a_blunt_syringe_short_short_600ms.mp4	1974.4574517531216	1975.0657698841417	0.6083181310200416				
193.396484375	0.2	396076	147	45	1	0	0	55	65	stimuli\Videos_short_600ms\69.stroke_with_soft_sock_short_short_600ms.mp4	69.stroke_with_soft_sock_short_short_600ms.mp4	1975.257435741941	1975.8657518202456	0.6083160783045969				
194.1962890625	0.2	397714	148	45	1	0	0	56	203	stimuli\Videos_short_600ms_horvertflip\30.finger_pulling_back_another_finger_short_horvertflip_short_600ms.mp4	30.finger_pulling_back_another_finger_short_horvertflip_short_600ms.mp4	1976.0574253024165	1976.6657402077408	0.6083149053242778				
194.99609375	0.2	399352	149	45	1	0	0	57	104	stimuli\Videos_short_600ms_horflip\22.single_touch_with_metal_chopstick_short_horflip_short_600ms.mp4	22.single_touch_with_metal_chopstick_short_horflip_short_600ms.mp4	1976.8574019601083	1977.465721264109	0.6083193040008155				
195.79638671875	0.2	400991	150	45	1	0	0	58	274	stimuli\Videos_short_600ms_vertflip\13.single_touch_with_pen_short_vertflip_short_600ms.mp4	13.single_touch_with_pen_short_vertflip_short_600ms.mp4	1977.6573724596544	1978.2657023204777	0.6083298608232326				
196.59619140625	0.2	402629	151	45	1	0	0	59	246	stimuli\Videos_short_600ms_horvertflip\7.repeated_touch_with_hairbrush_short_horvertflip_short_600ms.mp4	7.repeated_touch_with_hairbrush_short_horvertflip_short_600ms.mp4	1978.457321259065	1979.0656476009472	0.6083263418822753				
197.396484375	0.2	404268	152	45	1	0	1	60	365	stimuli\Targets_short_600ms\hand-stroke_short_short_600ms.mp4	hand-stroke_short_short_600ms.mp4	1979.2573178574223	1979.8656735238117	0.6083556663893432				
198.1962890625	0.2	405906	153	45	1	0	0	61	330	stimuli\Videos_short_600ms_vertflip\64.repeated_touch_with_screwdriver_short_vertflip_short_600ms.mp4	64.repeated_touch_with_screwdriver_short_vertflip_short_600ms.mp4	1980.057355510089	1980.66565458018	0.6082990700906521				
198.99609375	0.2	407544	154	45	1	0	0	62	214	stimuli\Videos_short_600ms_horvertflip\40.repeated_push_with_finger_short_horvertflip_short_600ms.mp4	40.repeated_push_with_finger_short_horvertflip_short_600ms.mp4	1980.8572758647283	1981.465637689264	0.6083618245356774				
199.79638671875	0.2	409183	155	45	1	0	0	63	78	stimuli\Videos_short_600ms\80.stroke_with_sharp_stick_all_over_the_hand_short_short_600ms.mp4	80.stroke_with_sharp_stick_all_over_the_hand_short_short_600ms.mp4	1981.6572800874576	1982.2656240240435	0.6083439365861523				
200.59619140625	0.2	410821	156	45	1	0	0	64	133	stimuli\Videos_short_600ms_horflip\49.repeated_slap_with_hand_short_horflip_short_600ms.mp4	49.repeated_slap_with_hand_short_horflip_short_600ms.mp4	1982.457274633099	1983.0656009749812	0.6083263418822753				
201.39599609375	0.2	412459	157	45	1	0	0	65	135	stimuli\Videos_short_600ms_horflip\50.single_(long)hard_push_with_thumb_short_horflip_short_600ms.mp4	50.single_(long)hard_push_with_thumb_short_horflip_short_600ms.mp4	1983.257253929997	1983.86558437731	0.6083304473131648				
202.1962890625	0.2	414098	158	45	1	0	0	66	47	stimuli\Videos_short_600ms\52.touch_top_to_bottom_with_hammer_short_short_600ms.mp4	52.touch_top_to_bottom_with_hammer_short_short_600ms.mp4	1984.0572593257064	1984.6655525308952	0.6082932051890566				
202.99609375	0.2	415736	159	45	1	0	1	67	368	stimuli\Targets_short_600ms_horflip\chopstickwood-tap_short_horflip_short_600ms.mp4	chopstickwood-tap_short_horflip_short_600ms.mp4	1984.8572392090948	1985.4655356399796	0.6082964308848204				
203.7958984375	0.2	417374	160	45	1	0	0	68	141	stimuli\Videos_short_600ms_horflip\56.repeated_touch_with_nail_file_short_horflip_short_600ms.mp4	56.repeated_touch_with_nail_file_short_horflip_short_600ms.mp4	1985.6572240776488	1986.26552432072	0.6083002430709712				
204.59619140625	0.2	419013	161	45	1	0	0	69	172	stimuli\Videos_short_600ms_horflip\84.single_touch_with_cotton_bud_short_horflip_short_600ms.mp4	84.single_touch_with_cotton_bud_short_horflip_short_600ms.mp4	1986.457206600243	1987.065503910863	0.6082973106204008				
205.39599609375	0.2	420651	162	45	1	0	0	70	239	stimuli\Videos_short_600ms_horvertflip\63.stroke_top_to_bottom_with_screwdriver_short_horvertflip_short_600ms.mp4	63.stroke_top_to_bottom_with_screwdriver_short_horvertflip_short_600ms.mp4	1987.2571885363463	1987.8655110660427	0.6083225296961245				
206.19580078125	0.2	422289	163	45	1	0	0	71	77	stimuli\Videos_short_600ms\8.single_touch_with_hairbrush_short_short_600ms.mp4	8.single_touch_with_hairbrush_short_short_600ms.mp4	1988.0571769238416	1988.665499160293	0.6083222364513858				
206.99609375	0.2	423928	164	45	1	0	0	72	79	stimuli\Videos_short_600ms\81.single_stroke_top_to_bottom_with_cotton_pad_short_short_600ms.mp4	81.single_stroke_top_to_bottom_with_cotton_pad_short_short_600ms.mp4	1988.8571553410045	1989.4654734720243	0.6083181310200416				
207.7958984375	0.2	425566	165	45	1	0	0	73	16	stimuli\Videos_short_600ms\24.single_stroke_top_to_bottom_with_a_spoon_short_short_600ms.mp4	24.single_stroke_top_to_bottom_with_a_spoon_short_short_600ms.mp4	1989.657140796049	1990.2654557013732	0.6083149053242778				
208.595703125	0.2	427204	166	45	1	0	0	74	357	stimuli\Videos_short_600ms_vertflip\89.single_touch_with_plastic_brush_short_vertflip_short_600ms.mp4	89.single_touch_with_plastic_brush_short_vertflip_short_600ms.mp4	1990.4571253713584	1991.0654405699277	0.6083151985694712				
209.39599609375	0.2	428843	167	45	1	0	0	75	209	stimuli\Videos_short_600ms_horvertflip\36.single_slap_with_full_hand_short_horvertflip_short_600ms.mp4	36.single_slap_with_full_hand_short_horvertflip_short_600ms.mp4	1991.2571064277265	1991.8654233857667	0.6083169580401773				
210.19580078125	0.2	430481	168	45	1	0	0	76	31	stimuli\Videos_short_600ms\38.double_slap_with_pencil_short_short_600ms.mp4	38.double_slap_with_pencil_short_short_600ms.mp4	1992.0570930557517	1992.6654064948505	0.6083134390987652				
210.99560546875	0.2	432119	169	45	1	0	0	77	39	stimuli\Videos_short_600ms\45.scratching_with_finger_nails_short_short_600ms.mp4	45.scratching_with_finger_nails_short_short_600ms.mp4	1992.8570934662944	1993.4653937093656	0.6083002430709712				
211.7958984375	0.2	433758	170	45	1	0	0	78	221	stimuli\Videos_short_600ms_horvertflip\47.(long)scratching_with_finger_nails_short_horvertflip_short_600ms.mp4	47.(long)scratching_with_finger_nails_short_horvertflip_short_600ms.mp4	1993.6570091290123	1994.2653741792435	0.6083650502309865				
212.595703125	0.2	435396	171	45	1	0	0	79	264	stimuli\Videos_short_600ms_horvertflip\86.touch_top_to_bottom_with_hair_brush_short_horvertflip_short_600ms.mp4	86.touch_top_to_bottom_with_hair_brush_short_horvertflip_short_600ms.mp4	1994.4569948773017	1995.0653578748177	0.6083629975159965				
213.3955078125	0.2	437034	172	45	1	0	0	80	235	stimuli\Videos_short_600ms_horvertflip\6.single_touch_with_flat_hand_short_horvertflip_short_600ms.mp4	6.single_touch_with_flat_hand_short_horvertflip_short_600ms.mp4	1995.2569985135408	1995.865340983902	0.6083424703610945				
214.19580078125	0.2	438673	173	45	1	0	0	81	12	stimuli\Videos_short_600ms\20.single_touch_with_screwdriver_short_short_600ms.mp4	20.single_touch_with_screwdriver_short_short_600ms.mp4	1996.0569619752048	1996.6653249727208	0.6083629975159965				
214.99560546875	0.2	440311	174	45	1	0	0	82	33	stimuli\Videos_short_600ms\4.repeated_tap_with_finger_slow_short_short_600ms.mp4	4.repeated_tap_with_finger_slow_short_short_600ms.mp4	1996.8569738223057	1997.465308668295	0.6083348459892477				
215.7958984375	0.2	441950	175	45	1	0	1	83	367	stimuli\Targets_short_600ms_horflip\chopstick-silver-tap_short_horflip_short_600ms.mp4	chopstick-silver-tap_short_horflip_short_600ms.mp4	1997.656953119204	1998.2652955895649	0.6083424703610945				
216.595703125	0.2	443588	176	45	1	0	0	84	204	stimuli\Videos_short_600ms_horvertflip\31.hand_grabbing_wrist_short_horvertflip_short_600ms.mp4	31.hand_grabbing_wrist_short_horvertflip_short_600ms.mp4	1998.456962620344	1999.0652819243444	0.6083193040003607				
217.3955078125	0.2	445226	177	45	1	0	0	85	347	stimuli\Videos_short_600ms_vertflip\8.single_touch_with_hairbrush_short_vertflip_short_600ms.mp4	8.single_touch_with_hairbrush_short_vertflip_short_600ms.mp4	1999.2569427969772	1999.8652406940876	0.608297897110333				
218.19580078125	0.2	446865	178	45	1	0	0	86	262	stimuli\Videos_short_600ms_horvertflip\84.single_touch_with_cotton_bud_short_horvertflip_short_600ms.mp4	84.single_touch_with_cotton_bud_short_horvertflip_short_600ms.mp4	2000.056924439836	2000.6652282018472	0.6083037620114737				
218.99560546875	0.2	448503	179	45	1	0	0	87	134	stimuli\Videos_short_600ms_horflip\5.repeated_tap_with_finger_moving_from_top_to_bottom_short_horflip_short_600ms.mp4	5.repeated_tap_with_finger_moving_from_top_to_bottom_short_horflip_short_600ms.mp4	2000.8569096016356	2001.4652031000696	0.6082934984337953				
219.79541015625	0.2	450141	180	45	1	0	0	88	34	stimuli\Videos_short_600ms\40.repeated_push_with_finger_short_short_600ms.mp4	40.repeated_push_with_finger_short_short_600ms.mp4	2001.6568909512491	2002.2652146539256	0.6083237026764436				
220.595703125	0.2	451780	181	45	1	0	0	89	54	stimuli\Videos_short_600ms\59.single_push_with_long_side_pencil_short_short_600ms.mp4	59.single_push_with_long_side_pencil_short_short_600ms.mp4	2002.4568764062935	2003.065175769629	0.6082993633353908				
221.3955078125	0.2	453418	182	45	1	0	0	90	273	stimuli\Videos_short_600ms_vertflip\12.repeated_touch_with_nail_file_short_vertflip_short_600ms.mp4	12.repeated_touch_with_nail_file_short_vertflip_short_600ms.mp4	2003.2568586356424	2003.8651820450737	0.6083234094312502				
222.1953125	0.2	455056	183	45	1	0	0	91	145	stimuli\Videos_short_600ms_horflip\6.single_touch_with_flat_hand_short_horflip_short_600ms.mp4	6.single_touch_with_flat_hand_short_horflip_short_600ms.mp4	2004.056844677177	2004.6651610487263	0.6083163715493356				
222.99560546875	0.2	456695	184	45	1	0	0	92	314	stimuli\Videos_short_600ms_vertflip\5.repeated_tap_with_finger_moving_from_top_to_bottom_short_vertflip_short_600ms.mp4	5.repeated_tap_with_finger_moving_from_top_to_bottom_short_vertflip_short_600ms.mp4	2004.8568257335453	2005.465154421388	0.6083286878424587				
223.79541015625	0.2	458333	185	45	1	0	0	93	162	stimuli\Videos_short_600ms_horflip\75.(long)stroke_with_fingers_all_over_the_hand_short_horflip_short_600ms.mp4	75.(long)stroke_with_fingers_all_over_the_hand_short_horflip_short_600ms.mp4	2005.6568120683248	2006.2651272668943	0.6083151985694712				
224.59521484375	0.2	459971	186	45	1	0	0	94	217	stimuli\Videos_short_600ms_horvertflip\43.touch_top_to_bottom_with_sharp_wooden_stick_short_horvertflip_short_600ms.mp4	43.touch_top_to_bottom_with_sharp_wooden_stick_short_horvertflip_short_600ms.mp4	2006.456795763899	2007.065109789488	0.6083140255891522				
225.3955078125	0.2	461610	187	45	1	0	0	95	289	stimuli\Videos_short_600ms_vertflip\27.single_push_with_a_plastic_whisk_short_vertflip_short_600ms.mp4	27.single_push_with_a_plastic_whisk_short_vertflip_short_600ms.mp4	2007.2567765270223	2007.8650964175129	0.6083198904902929				
226.1953125	0.2	463248	188	45	1	0	0	96	297	stimuli\Videos_short_600ms_vertflip\34.repeated_punch_with_hand_short_vertflip_short_600ms.mp4	34.repeated_punch_with_hand_short_vertflip_short_600ms.mp4	2008.0567613955768	2008.6650771806364	0.6083157850598582	7.0	7.0	1.978332708232756	1.0
260.427734375	0.2	533356	189	45	2	0	0	0	225	stimuli\Videos_short_600ms_horvertflip\50.single_(long)hard_push_with_thumb_short_horvertflip_short_600ms.mp4	50.single_(long)hard_push_with_thumb_short_horvertflip_short_600ms.mp4	2042.2893859653495	2042.897709961271	0.6083239959211824				
261.2275390625	0.2	534994	190	45	2	0	0	1	251	stimuli\Videos_short_600ms_horvertflip\74.fingers_walking_from_top_to_bottom_short_horvertflip_short_600ms.mp4	74.fingers_walking_from_top_to_bottom_short_horvertflip_short_600ms.mp4	2043.0893371107209	2043.6976880851887	0.6083509744680669				
262.02734375	0.2	536632	191	45	2	0	1	2	374	stimuli\Targets_short_600ms_horvertflip\chopstickwood-tap_short_vertflip_short_600ms.mp4	chopstickwood-tap_short_vertflip_short_600ms.mp4	2043.889354529478	2044.497671194273	0.6083166647949838				
262.82763671875	0.2	538271	192	45	2	0	0	3	259	stimuli\Videos_short_600ms_horvertflip\81.single_stroke_top_to_bottom_with_cotton_pad_short_horvertflip_short_600ms.mp4	81.single_stroke_top_to_bottom_with_cotton_pad_short_horvertflip_short_600ms.mp4	2044.6893341196212	2045.2976352424273	0.6083011228060968				
263.62744140625	0.2	539909	193	45	2	0	0	4	359	stimuli\Videos_short_600ms_vertflip\90.repeated_touch_with_sponge_short_vertflip_short_600ms.mp4	90.repeated_touch_with_sponge_short_vertflip_short_600ms.mp4	2045.489299340756	2046.0976371191955	0.6083377784398181				
264.42724609375	0.2	541547	194	45	2	0	0	5	323	stimuli\Videos_short_600ms_vertflip\58.single_slap_with_pencil_short_vertflip_short_600ms.mp4	58.single_slap_with_pencil_short_vertflip_short_600ms.mp4	2046.2892563510284	2046.89762140126	0.6083650502314413				
265.2275390625	0.2	543186	195	45	2	0	0	6	94	stimuli\Videos_short_600ms_horflip\13.single_touch_with_pen_short_horflip_short_600ms.mp4	13.single_touch_with_pen_short_horflip_short_600ms.mp4	2047.0892717170705	2047.69758808862	0.6083163715497903				
266.02734375	0.2	544824	196	45	2	0	0	7	156	stimuli\Videos_short_600ms_horflip\7.repeated_touch_with_hairbrush_short_horflip_short_600ms.mp4	7.repeated_touch_with_hairbrush_short_horflip_short_600ms.mp4	2047.8892448558215	2048.497587032937	0.6083421771156736				
266.8271484375	0.2	546462	197	45	2	0	0	8	279	stimuli\Videos_short_600ms_vertflip\18.single_stroke_from_top_to_bottom_with_rolling_pin_short_vertflip_short_600ms.mp4	18.single_stroke_from_top_to_bottom_with_rolling_pin_short_vertflip_short_600ms.mp4	2048.6892308973565	2049.297571021757	0.6083401244004563				
267.62744140625	0.2	548101	198	45	2	0	0	9	62	stimuli\Videos_short_600ms\66.stroke_top_to_bottom_with_sponge_short_short_600ms.mp4	66.stroke_top_to_bottom_with_sponge_short_short_600ms.mp4	2049.489217232136	2050.097535949646	0.6083187175099738				
268.42724609375	0.2	549739	199	45	2	0	0	10	147	stimuli\Videos_short_600ms_horflip\61.single_hit_with_rolling_pin_short_horflip_short_600ms.mp4	61.single_hit_with_rolling_pin_short_horflip_short_600ms.mp4	2050.2894328845605	2050.897526683102	0.6080937985416313				
269.22705078125	0.2	551377	200	45	2	0	0	11	244	stimuli\Videos_short_600ms_horvertflip\68.stroke_top_to_bottom_with_shawl_short_horvertflip_short_600ms.mp4	68.stroke_top_to_bottom_with_shawl_short_horvertflip_short_600ms.mp4	2051.089203684214	2051.697503634039	0.6082999498248682				
270.02734375	0.2	553016	201	45	2	0	1	12	381	stimuli\Targets_short_600ms_vertflip\finger-tap_short_horvertflip_short_600ms.mp4	finger-tap_short_horvertflip_short_600ms.mp4	2051.8891985231003	2052.4974829309376	0.6082844078373455				
270.8271484375	0.2	554654	202	45	2	0	0	13	92	stimuli\Videos_short_600ms_horflip\11.single_touch_with_lighter_short_horflip_short_600ms.mp4	11.single_touch_with_lighter_short_horflip_short_600ms.mp4	2052.6891684361563	2053.2974719049225	0.6083034687662803				
271.62744140625	0.2	556293	203	45	2	0	0	14	180	stimuli\Videos_short_600ms_horvertflip\1.repeated_touch_with_finger_fast_short_horvertflip_short_600ms.mp4	1.repeated_touch_with_finger_fast_short_horvertflip_short_600ms.mp4	2053.4891530114655	2054.097455014007	0.6083020025416772				
272.42724609375	0.2	557931	204	45	2	0	0	15	121	stimuli\Videos_short_600ms_horflip\38.double_slap_with_pencil_short_horflip_short_600ms.mp4	38.double_slap_with_pencil_short_horflip_short_600ms.mp4	2054.2891370002844	2054.8974425217666	0.6083055214821798				
273.22705078125	0.2	559569	205	45	2	0	0	16	101	stimuli\Videos_short_600ms_horflip\2.single_touch_with_finger_short_horflip_short_600ms.mp4	2.single_touch_with_finger_short_horflip_short_600ms.mp4	2055.089120989104	2055.697448797211	0.6083278081068784				
274.02734375	0.2	561208	206	45	2	0	0	17	255	stimuli\Videos_short_600ms_horvertflip\78.single_stroke_top_to_bottom_with_soft_brush_short_horvertflip_short_600ms.mp4	78.single_stroke_top_to_bottom_with_soft_brush_short_horvertflip_short_600ms.mp4	2055.889120813157	2056.4974234021884	0.6083025890311546				
274.8271484375	0.2	562846	207	45	2	0	0	18	207	stimuli\Videos_short_600ms_horvertflip\34.repeated_punch_with_hand_short_horvertflip_short_600ms.mp4	34.repeated_punch_with_hand_short_horvertflip_short_600ms.mp4	2056.689327961475	2057.297388623323	0.6080606618479578				
275.626953125	0.2	564484	208	45	2	0	0	19	271	stimuli\Videos_short_600ms_vertflip\10.single_touch_with_knife_short_vertflip_short_600ms.mp4	10.single_touch_with_knife_short_vertflip_short_600ms.mp4	2057.4890773542375	2058.097369679691	0.6082923254534762				
276.42724609375	0.2	566123	209	45	2	0	0	20	343	stimuli\Videos_short_600ms_vertflip\76.tickle_with_fingers_from_top_to_bottom_short_vertflip_short_600ms.mp4	76.tickle_with_fingers_from_top_to_bottom_short_vertflip_short_600ms.mp4	2058.2890513727243	2058.8973536685107	0.6083022957864159				
277.22705078125	0.2	567761	210	45	2	0	0	21	222	stimuli\Videos_short_600ms_horvertflip\48.single_slap_with_hand_short_horvertflip_short_600ms.mp4	48.single_slap_with_hand_short_horvertflip_short_600ms.mp4	2059.089034481808	2059.69733824382	0.6083037620119285				
278.02685546875	0.2	569399	211	45	2	0	0	22	345	stimuli\Videos_short_600ms_vertflip\78.single_stroke_top_to_bottom_with_soft_brush_short_vertflip_short_600ms.mp4	78.single_stroke_top_to_bottom_with_soft_brush_short_vertflip_short_600ms.mp4	2059.8890246287738	2060.4973424665486	0.6083178377748482				
278.8271484375	0.2	571038	212	45	2	0	0	23	169	stimuli\Videos_short_600ms_horflip\81.single_stroke_top_to_bottom_with_cotton_pad_short_horflip_short_600ms.mp4	81.single_stroke_top_to_bottom_with_cotton_pad_short_horflip_short_600ms.mp4	2060.6889748944095	2061.2973044619876	0.6083295675780391				
279.626953125	0.2	572676	213	45	2	0	0	24	150	stimuli\Videos_short_600ms_horflip\64.repeated_touch_with_screwdriver_short_horflip_short_600ms.mp4	64.repeated_touch_with_screwdriver_short_horflip_short_600ms.mp4	2061.4889448074655	2062.0972863980915	0.6083415906259688				
280.4267578125	0.2	574314	214	45	2	0	0	25	128	stimuli\Videos_short_600ms_horflip\44.pushing_top_to_bottom_with_finger_short_horflip_short_600ms.mp4	44.pushing_top_to_bottom_with_finger_short_horflip_short_600ms.mp4	2062.2889827533772	2062.8972932600263	0.6083105066491044				
281.22705078125	0.2	575953	215	45	2	0	0	26	231	stimuli\Videos_short_600ms_horvertflip\56.repeated_touch_with_nail_file_short_horvertflip_short_600ms.mp4	56.repeated_touch_with_nail_file_short_horvertflip_short_600ms.mp4	2063.088928913583	2063.697217720096	0.6082888065129737				
282.02685546875	0.2	577591	216	45	2	0	0	27	325	stimuli\Videos_short_600ms_vertflip\6.single_touch_with_flat_hand_short_vertflip_short_600ms.mp4	6.single_touch_with_flat_hand_short_vertflip_short_600ms.mp4	2063.8889205267733	2064.497248334881	0.6083278081077879				
282.82666015625	0.2	579229	217	45	2	0	0	28	210	stimuli\Videos_short_600ms_horvertflip\37.single_stab_with_nail_file_short_horvertflip_short_600ms.mp4	37.single_stab_with_nail_file_short_horvertflip_short_600ms.mp4	2064.6889080345336	2065.297241121052	0.6083330865185417				
283.626953125	0.2	580868	218	45	2	0	0	29	303	stimuli\Videos_short_600ms_vertflip\4.repeated_tap_with_finger_slow_short_vertflip_short_600ms.mp4	4.repeated_tap_with_finger_slow_short_vertflip_short_600ms.mp4	2065.488911377527	2066.0971784839057	0.608267106378662				
284.4267578125	0.2	582506	219	45	2	0	0	30	269	stimuli\Videos_short_600ms_horvertflip\90.repeated_touch_with_sponge_short_horvertflip_short_600ms.mp4	90.repeated_touch_with_sponge_short_horvertflip_short_600ms.mp4	2066.2888886217097	2066.8971876918004	0.6082990700906521				
285.2265625	0.2	584144	220	45	2	0	0	31	331	stimuli\Videos_short_600ms_vertflip\65.stroke_top_to_bottom_with_stanley_knife_short_vertflip_short_600ms.mp4	65.stroke_top_to_bottom_with_stanley_knife_short_vertflip_short_600ms.mp4	2067.0888717307944	2067.6971464615435	0.6082747307491445				
286.02685546875	0.2	585783	221	45	2	0	0	32	3	stimuli\Videos_short_600ms\12.repeated_touch_with_nail_file_short_short_600ms.mp4	12.repeated_touch_with_nail_file_short_short_600ms.mp4	2067.888856012858	2068.497153616723	0.6082976038651395				
286.82666015625	0.2	587421	222	45	2	0	0	33	219	stimuli\Videos_short_600ms_horvertflip\45.scratching_with_finger_nails_short_horvertflip_short_600ms.mp4	45.scratching_with_finger_nails_short_horvertflip_short_600ms.mp4	2068.6888364827364	2069.2971601854133	0.6083237026768984				
287.62646484375	0.2	589059	223	45	2	0	0	34	312	stimuli\Videos_short_600ms_vertflip\48.single_slap_with_hand_short_vertflip_short_600ms.mp4	48.single_slap_with_hand_short_vertflip_short_600ms.mp4	2069.4888234040063	2070.0971259930375	0.6083025890311546				
288.4267578125	0.2	590698	224	45	2	0	0	35	11	stimuli\Videos_short_600ms\2.single_touch_with_finger_short_short_600ms.mp4	2.single_touch_with_finger_short_short_600ms.mp4	2070.2888041671295	2070.897148103716	0.608343936586607				
289.2265625	0.2	592336	225	45	2	0	0	36	233	stimuli\Videos_short_600ms_horvertflip\58.single_slap_with_pencil_short_horvertflip_short_600ms.mp4	58.single_slap_with_pencil_short_horvertflip_short_600ms.mp4	2071.0887866897237	2071.6971083396847	0.6083216499609989				
290.02685546875	0.2	593975	226	45	2	0	0	37	70	stimuli\Videos_short_600ms\73.single_stroke_with_flat_hand_short_short_600ms.mp4	73.single_stroke_with_flat_hand_short_short_600ms.mp4	2071.888775077219	2072.497105817777	0.6083307405579035				
290.82666015625	0.2	595613	227	45	2	0	0	38	329	stimuli\Videos_short_600ms_vertflip\63.stroke_top_to_bottom_with_screwdriver_short_vertflip_short_600ms.mp4	63.stroke_top_to_bottom_with_screwdriver_short_vertflip_short_600ms.mp4	2072.6887537876264	2073.297063707785	0.6083099201587174				
291.62646484375	0.2	597251	228	45	2	0	0	39	286	stimuli\Videos_short_600ms_vertflip\24.single_stroke_top_to_bottom_with_a_spoon_short_vertflip_short_600ms.mp4	24.single_stroke_top_to_bottom_with_a_spoon_short_vertflip_short_600ms.mp4	2073.488737776446	2074.097059426407	0.6083216499609989				
292.4267578125	0.2	598890	229	45	2	0	0	40	159	stimuli\Videos_short_600ms_horflip\72.(short)stroke_with_finger_all_over_the_hand_short_horflip_short_600ms.mp4	72.(short)stroke_with_finger_all_over_the_hand_short_horflip_short_600ms.mp4	2074.2887211787747	2074.8970542652933	0.6083330865185417				
293.2265625	0.2	600528	230	45	2	0	0	41	188	stimuli\Videos_short_600ms_horvertflip\17.repeated_touch_with_rolling_pin_short_horvertflip_short_600ms.mp4	17.repeated_touch_with_rolling_pin_short_horvertflip_short_600ms.mp4	2075.0887054608393	2075.6970018917236	0.6082964308843657				
294.0263671875	0.2	602166	231	45	2	0	0	42	344	stimuli\Videos_short_600ms_vertflip\77.tapping_with_all_fingers_short_vertflip_short_600ms.mp4	77.tapping_with_all_fingers_short_vertflip_short_600ms.mp4	2075.888663644092	2076.4970665229375	0.6084028788454816				
294.82666015625	0.2	603805	232	45	2	0	0	43	261	stimuli\Videos_short_600ms_horvertflip\83.single_stroke_top_to_bottom_with_cotton_bud_short_horvertflip_short_600ms.mp4	83.single_stroke_top_to_bottom_with_cotton_bud_short_horvertflip_short_600ms.mp4	2076.688659655959	2077.297010043937	0.6083503879781347				
295.62646484375	0.2	605443	233	45	2	0	1	44	361	stimuli\Targets_short_600ms\chopstick-silver-tap_short_short_600ms.mp4	chopstick-silver-tap_short_short_600ms.mp4	2077.4886319149755	2078.097034793821	0.6084028788454816				
296.42626953125	0.2	607081	234	45	2	0	0	45	142	stimuli\Videos_short_600ms_horflip\57.single_touch_with_nail_file_short_horflip_short_600ms.mp4	57.single_touch_with_nail_file_short_horflip_short_600ms.mp4	2078.2886147308145	2078.8969572011756	0.6083424703610945				
297.2265625	0.2	608720	235	45	2	0	0	46	327	stimuli\Videos_short_600ms_vertflip\61.single_hit_with_rolling_pin_short_vertflip_short_600ms.mp4	61.single_hit_with_rolling_pin_short_vertflip_short_600ms.mp4	2079.0886286306304	2079.6969502805914	0.6083216499609989				
298.0263671875	0.2	610358	236	45	2	0	0	47	265	stimuli\Videos_short_600ms_horvertflip\87.single_stroke_top_to_bottom_with_plastic_brush_short_horvertflip_short_600ms.mp4	87.single_stroke_top_to_bottom_with_plastic_brush_short_horvertflip_short_600ms.mp4	2079.888592092295	2080.4969319234506	0.6083398311557175				
298.826171875	0.2	611996	237	45	2	0	0	48	318	stimuli\Videos_short_600ms_vertflip\53.touch_top_to_bottom_with_knife_short_vertflip_short_600ms.mp4	53.touch_top_to_bottom_with_knife_short_vertflip_short_600ms.mp4	2080.6885881041617	2081.2968842418013	0.608296137639627				
299.62646484375	0.2	613635	238	45	2	0	0	49	226	stimuli\Videos_short_600ms_horvertflip\51.repeated_touch_with_hammer_short_horvertflip_short_600ms.mp4	51.repeated_touch_with_hammer_short_horvertflip_short_600ms.mp4	2081.4885559645018	2082.0968720428064	0.6083160783045969				
300.42626953125	0.2	615273	239	45	2	0	0	50	240	stimuli\Videos_short_600ms_horvertflip\64.repeated_touch_with_screwdriver_short_horvertflip_short_600ms.mp4	64.repeated_touch_with_screwdriver_short_horvertflip_short_600ms.mp4	2082.28855314935	2082.89683022606	0.6082770767106922				
301.22607421875	0.2	616911	240	45	2	0	0	51	342	stimuli\Videos_short_600ms_vertflip\75.(long)stroke_with_fingers_all_over_the_hand_short_vertflip_short_600ms.mp4	75.(long)stroke_with_fingers_all_over_the_hand_short_vertflip_short_600ms.mp4	2083.088537138168	2083.696835328524	0.6082981903555265				
302.0263671875	0.2	618550	241	45	2	0	0	52	227	stimuli\Videos_short_600ms_horvertflip\52.touch_top_to_bottom_with_hammer_short_horvertflip_short_600ms.mp4	52.touch_top_to_bottom_with_hammer_short_horvertflip_short_600ms.mp4	2083.888520247253	2084.496845709399	0.6083254621462402				
302.826171875	0.2	620188	242	45	2	0	0	53	151	stimuli\Videos_short_600ms_horflip\65.stroke_top_to_bottom_with_stanley_knife_short_horflip_short_600ms.mp4	65.stroke_top_to_bottom_with_stanley_knife_short_horflip_short_600ms.mp4	2084.6885065820325	2085.2968311644436	0.6083245824111145				
303.6259765625	0.2	621826	243	45	2	0	0	54	10	stimuli\Videos_short_600ms\19.single_touch_with_rolling_pin_short_short_600ms.mp4	19.single_touch_with_rolling_pin_short_short_600ms.mp4	2085.488448930051	2086.096797558559	0.6083486285078834				
304.42626953125	0.2	623465	244	45	2	0	0	55	37	stimuli\Videos_short_600ms\43.touch_top_to_bottom_with_sharp_wooden_stick_short_short_600ms.mp4	43.touch_top_to_bottom_with_sharp_wooden_stick_short_short_600ms.mp4	2086.288470747485	2086.89679151771	0.6083207702249638				
305.22607421875	0.2	625103	245	45	2	0	0	56	111	stimuli\Videos_short_600ms_horflip\29.single_pinch_with_tweezers_short_horflip_short_600ms.mp4	29.single_pinch_with_tweezers_short_horflip_short_600ms.mp4	2087.0884603079603	2087.696779318715	0.6083190107547125				
306.02587890625	0.2	626741	246	45	2	0	0	57	80	stimuli\Videos_short_600ms\82.repeated_touch_with_cotton_bud_short_short_600ms.mp4	82.repeated_touch_with_cotton_bud_short_short_600ms.mp4	2087.888419370948	2088.496758322369	0.6083389514205919				
306.826171875	0.2	628380	247	45	2	0	0	58	308	stimuli\Videos_short_600ms_vertflip\44.pushing_top_to_bottom_with_finger_short_vertflip_short_600ms.mp4	44.pushing_top_to_bottom_with_finger_short_vertflip_short_600ms.mp4	2088.6884338572545	2089.2967772073507	0.6083433500962201				
307.6259765625	0.2	630018	248	45	2	0	0	59	320	stimuli\Videos_short_600ms_vertflip\55.touch_top_to_bottom_with_nail_file_short_vertflip_short_600ms.mp4	55.touch_top_to_bottom_with_nail_file_short_vertflip_short_600ms.mp4	2089.4884049432912	2090.0967075323224	0.6083025890311546				
308.42626953125	0.2	631657	249	45	2	0	0	60	224	stimuli\Videos_short_600ms_horvertflip\5.repeated_tap_with_finger_moving_from_top_to_bottom_short_horvertflip_short_600ms.mp4	5.repeated_tap_with_finger_moving_from_top_to_bottom_short_horvertflip_short_600ms.mp4	2090.2883906915804	2090.896708822601	0.6083181310204964				
309.22607421875	0.2	633295	250	45	2	0	0	61	113	stimuli\Videos_short_600ms_horflip\30.finger_pulling_back_another_finger_short_horflip_short_600ms.mp4	30.finger_pulling_back_another_finger_short_horflip_short_600ms.mp4	2091.088368815498	2091.696695450625	0.608326635127014				
310.02587890625	0.2	634933	251	45	2	0	0	62	114	stimuli\Videos_short_600ms_horflip\31.hand_grabbing_wrist_short_horflip_short_600ms.mp4	31.hand_grabbing_wrist_short_horflip_short_600ms.mp4	2091.8883413677595	2092.4966750407684	0.6083336730089286				
310.826171875	0.2	636572	252	45	2	0	0	63	102	stimuli\Videos_short_600ms_horflip\20.single_touch_with_screwdriver_short_horflip_short_600ms.mp4	20.single_touch_with_screwdriver_short_horflip_short_600ms.mp4	2092.6882951523367	2093.2966417281286	0.6083465757919839				
311.6259765625	0.2	638210	253	45	2	0	0	64	109	stimuli\Videos_short_600ms_horflip\27.single_push_with_a_plastic_whisk_short_horflip_short_600ms.mp4	27.single_push_with_a_plastic_whisk_short_horflip_short_600ms.mp4	2093.488301721026	2094.096648296818	0.6083465757919839				
312.42578125	0.2	639848	254	45	2	0	0	65	120	stimuli\Videos_short_600ms_horflip\37.single_stab_with_nail_file_short_horflip_short_600ms.mp4	37.single_stab_with_nail_file_short_horflip_short_600ms.mp4	2094.2883068234905	2094.8966284734515	0.6083216499609989				
313.22607421875	0.2	641487	255	45	2	0	0	66	164	stimuli\Videos_short_600ms_horflip\77.tapping_with_all_fingers_short_horflip_short_600ms.mp4	77.tapping_with_all_fingers_short_horflip_short_600ms.mp4	2095.0882738040955	2095.6966086500843	0.608334845988793				
314.02587890625	0.2	643125	256	45	2	0	0	67	127	stimuli\Videos_short_600ms_horflip\43.touch_top_to_bottom_with_sharp_wooden_stick_short_horflip_short_600ms.mp4	43.touch_top_to_bottom_with_sharp_wooden_stick_short_horflip_short_600ms.mp4	2095.888248995562	2096.496570938768	0.6083219432057376				
314.82568359375	0.2	644763	257	45	2	0	0	68	356	stimuli\Videos_short_600ms_vertflip\88.repeated_stroke_with_plastic_brush_short_vertflip_short_600ms.mp4	88.repeated_stroke_with_plastic_brush_short_vertflip_short_600ms.mp4	2096.6882447141843	2097.2965563938133	0.6083116796289687				
315.6259765625	0.2	646402	258	45	2	0	0	69	248	stimuli\Videos_short_600ms_horvertflip\71.single_stroke_with_finger_top_to_bottom_short_horvertflip_short_600ms.mp4	71.single_stroke_with_finger_top_to_bottom_short_horvertflip_short_600ms.mp4	2097.488239846316	2098.096511644615	0.6082717982990289				
316.42578125	0.2	648040	259	45	2	0	0	70	152	stimuli\Videos_short_600ms_horflip\66.stroke_top_to_bottom_with_sponge_short_horflip_short_600ms.mp4	66.stroke_top_to_bottom_with_sponge_short_horflip_short_600ms.mp4	2098.2882209026848	2098.8965220254904	0.6083011228056421				
317.2255859375	0.2	649678	260	45	2	0	0	71	220	stimuli\Videos_short_600ms_horvertflip\46.scratching_top_to_bottom_with_finger_nails_short_horvertflip_short_600ms.mp4	46.scratching_top_to_bottom_with_finger_nails_short_horvertflip_short_600ms.mp4	2099.0882031320334	2099.696509240006	0.6083061079725667				
318.02587890625	0.2	651317	261	45	2	0	0	72	193	stimuli\Videos_short_600ms_horvertflip\21.repeated_touch_with_metal_chopstick_short_horvertflip_short_600ms.mp4	21.repeated_touch_with_metal_chopstick_short_horvertflip_short_600ms.mp4	2099.8881850681373	2100.496489123394	0.6083040552566672				
318.82568359375	0.2	652955	262	45	2	0	0	73	17	stimuli\Videos_short_600ms\25.single_touch_with_stanley_knife_short_short_600ms.mp4	25.single_touch_with_stanley_knife_short_short_600ms.mp4	2100.6881708164265	2101.296493639368	0.6083228229417728				
319.62548828125	0.2	654593	263	45	2	0	0	74	144	stimuli\Videos_short_600ms_horflip\59.single_push_with_long_side_pencil_short_horflip_short_600ms.mp4	59.single_push_with_long_side_pencil_short_horflip_short_600ms.mp4	2101.4881568579613	2102.096454755071	0.6082978971098782				
320.42578125	0.2	656232	264	45	2	0	0	75	140	stimuli\Videos_short_600ms_horflip\55.touch_top_to_bottom_with_nail_file_short_horflip_short_600ms.mp4	55.touch_top_to_bottom_with_nail_file_short_horflip_short_600ms.mp4	2102.288137034594	2102.8965126416488	0.6083756070547679				
321.2255859375	0.2	657870	265	45	2	0	0	76	63	stimuli\Videos_short_600ms\67.single_touch_with_sponge_short_short_600ms.mp4	67.single_touch_with_sponge_short_short_600ms.mp4	2103.088130700501	2103.6964212664843	0.608290565983225				
322.025390625	0.2	659508	266	45	2	0	0	77	223	stimuli\Videos_short_600ms_horvertflip\49.repeated_slap_with_hand_short_horvertflip_short_600ms.mp4	49.repeated_slap_with_hand_short_horvertflip_short_600ms.mp4	2103.8881032527624	2104.496428421664	0.6083251689015015				
322.82568359375	0.2	661147	267	45	2	0	0	78	88	stimuli\Videos_short_600ms\9.single_touch_with_hammer_short_short_600ms.mp4	9.single_touch_with_hammer_short_short_600ms.mp4	2104.6880869483366	2105.296413290219	0.6083263418822753				
323.62548828125	0.2	662785	268	45	2	0	0	79	199	stimuli\Videos_short_600ms_horvertflip\27.single_push_with_a_plastic_whisk_short_horvertflip_short_600ms.mp4	27.single_push_with_a_plastic_whisk_short_horvertflip_short_600ms.mp4	2105.4880489437755	2106.0963708869813	0.6083219432057376				
324.42529296875	0.2	664423	269	45	2	0	0	80	295	stimuli\Videos_short_600ms_vertflip\32.single_(long)pinch_with_fingers_short_vertflip_short_600ms.mp4	32.single_(long)pinch_with_fingers_short_vertflip_short_600ms.mp4	2106.2880458353775	2106.896355169046	0.6083093336683305				
325.2255859375	0.2	666062	270	45	2	0	0	81	280	stimuli\Videos_short_600ms_vertflip\19.single_touch_with_rolling_pin_short_vertflip_short_600ms.mp4	19.single_touch_with_rolling_pin_short_vertflip_short_600ms.mp4	2107.088013402473	2107.696337984885	0.608324582412024				
326.025390625	0.2	667700	271	45	2	0	0	82	326	stimuli\Videos_short_600ms_vertflip\60.single_push_with_tip_of_pencil_short_vertflip_short_600ms.mp4	60.single_push_with_tip_of_pencil_short_vertflip_short_600ms.mp4	2107.888000910233	2108.4963243196644	0.6083234094312502				
326.82568359375	0.2	669339	272	45	2	0	0	83	74	stimuli\Videos_short_600ms\77.tapping_with_all_fingers_short_short_600ms.mp4	77.tapping_with_all_fingers_short_short_600ms.mp4	2108.687978154415	2109.2963100679535	0.6083319135386773				
327.62548828125	0.2	670977	273	45	2	0	0	84	288	stimuli\Videos_short_600ms_vertflip\26.single_touch_with_a_blunt_syringe_short_vertflip_short_600ms.mp4	26.single_touch_with_a_blunt_syringe_short_vertflip_short_600ms.mp4	2109.48796478244	2110.096312237967	0.6083474555271096				
328.42529296875	0.2	672615	274	45	2	0	0	85	336	stimuli\Videos_short_600ms_vertflip\7.repeated_touch_with_hairbrush_short_vertflip_short_600ms.mp4	7.repeated_touch_with_hairbrush_short_vertflip_short_600ms.mp4	2110.2879423198674	2110.896294467316	0.608352147448386				
329.2255859375	0.2	674254	275	45	2	0	1	86	369	stimuli\Targets_short_600ms_horflip\finger-tap_short_horflip_short_600ms.mp4	finger-tap_short_horflip_short_600ms.mp4	2111.087956219684	2111.6962608614313	0.6083046417470541				
330.025390625	0.2	675892	276	45	2	0	0	87	234	stimuli\Videos_short_600ms_horvertflip\59.single_push_with_long_side_pencil_short_horvertflip_short_600ms.mp4	59.single_push_with_long_side_pencil_short_horvertflip_short_600ms.mp4	2111.887933170621	2112.496237225878	0.6083040552566672				
330.8251953125	0.2	677530	277	45	2	0	0	88	243	stimuli\Videos_short_600ms_horvertflip\67.single_touch_with_sponge_short_horvertflip_short_600ms.mp4	67.single_touch_with_sponge_short_horvertflip_short_600ms.mp4	2112.687961146201	2113.2962185754914	0.608257429290461				
331.62548828125	0.2	679169	278	45	2	0	0	89	91	stimuli\Videos_short_600ms_horflip\10.single_touch_with_knife_short_horflip_short_600ms.mp4	10.single_touch_with_knife_short_horflip_short_600ms.mp4	2113.4879345781974	2114.0962031508006	0.6082685726032651				
332.42529296875	0.2	680807	279	45	2	0	0	90	316	stimuli\Videos_short_600ms_vertflip\51.repeated_touch_with_hammer_short_vertflip_short_600ms.mp4	51.repeated_touch_with_hammer_short_vertflip_short_600ms.mp4	2114.2879053709885	2114.896207666775	0.6083022957864159				
333.22509765625	0.2	682445	280	45	2	0	0	91	350	stimuli\Videos_short_600ms_vertflip\82.repeated_touch_with_cotton_bud_short_vertflip_short_600ms.mp4	82.repeated_touch_with_cotton_bud_short_vertflip_short_600ms.mp4	2115.0878761637796	2115.69617464738	0.6082984836002652				
334.025390625	0.2	684084	281	45	2	0	0	92	58	stimuli\Videos_short_600ms\62.touch_top_to_bottom_with_scissors_short_short_600ms.mp4	62.touch_top_to_bottom_with_scissors_short_short_600ms.mp4	2115.8878589796186	2116.4962014499797	0.6083424703610945				
334.8251953125	0.2	685722	282	45	2	0	0	93	299	stimuli\Videos_short_600ms_vertflip\36.single_slap_with_full_hand_short_vertflip_short_600ms.mp4	36.single_slap_with_full_hand_short_vertflip_short_600ms.mp4	2116.6878412089673	2117.2961376398525	0.6082964308852752	4.0	4.0	2.497948017619819	1.0
369.5576171875	0.2	756854	283	45	3	0	0	0	69	stimuli\Videos_short_600ms\72.(short)stroke_with_finger_all_over_the_hand_short_short_600ms.mp4	72.(short)stroke_with_finger_all_over_the_hand_short_short_600ms.mp4	2151.420399945222	2152.0287561981013	0.6083562528792754				
370.357421875	0.2	758492	284	45	3	0	0	1	321	stimuli\Videos_short_600ms_vertflip\56.repeated_touch_with_nail_file_short_vertflip_short_600ms.mp4	56.repeated_touch_with_nail_file_short_vertflip_short_600ms.mp4	2152.2203953705985	2152.8287539694384	0.6083585988399136				
371.1572265625	0.2	760130	285	45	3	0	0	2	190	stimuli\Videos_short_600ms_horvertflip\19.single_touch_with_rolling_pin_short_horvertflip_short_600ms.mp4	19.single_touch_with_rolling_pin_short_horvertflip_short_600ms.mp4	2153.020367629615	2153.6287279879252	0.6083603583101649				
371.95751953125	0.2	761769	286	45	3	0	0	3	337	stimuli\Videos_short_600ms_vertflip\70.(long)stroke_with_finger_all_over_the_hand_short_vertflip_short_600ms.mp4	70.(long)stroke_with_finger_all_over_the_hand_short_vertflip_short_600ms.mp4	2153.8203868078426	2154.428730157939	0.6083433500962201				
372.75732421875	0.2	763407	287	45	3	0	0	4	241	stimuli\Videos_short_600ms_horvertflip\65.stroke_top_to_bottom_with_stanley_knife_short_horvertflip_short_600ms.mp4	65.stroke_top_to_bottom_with_stanley_knife_short_horvertflip_short_600ms.mp4	2154.6203749020924	2155.228698898014	0.6083239959216371				
373.55712890625	0.2	765045	288	45	3	0	0	5	319	stimuli\Videos_short_600ms_vertflip\54.repeated_touch_with_knife_short_vertflip_short_600ms.mp4	54.repeated_touch_with_knife_short_vertflip_short_600ms.mp4	2155.4203568381963	2156.0286802476276	0.6083234094312502				
374.357421875	0.2	766684	289	45	3	0	0	6	83	stimuli\Videos_short_600ms\85.touch_top_to_bottom_with_fabric_short_short_600ms.mp4	85.touch_top_to_bottom_with_fabric_short_short_600ms.mp4	2156.220346985162	2156.828662476976	0.60831549181421				
375.1572265625	0.2	768322	290	45	3	0	0	7	202	stimuli\Videos_short_600ms_horvertflip\3.single_push_with_finger_short_horvertflip_short_600ms.mp4	3.single_push_with_finger_short_horvertflip_short_600ms.mp4	2157.0203224698744	2157.628650571227	0.6083281013525266				
375.95703125	0.2	769960	291	45	3	0	0	8	349	stimuli\Videos_short_600ms_vertflip\81.single_stroke_top_to_bottom_with_cotton_pad_short_vertflip_short_600ms.mp4	81.single_stroke_top_to_bottom_with_cotton_pad_short_vertflip_short_600ms.mp4	2157.8203023532624	2158.428629281635	0.6083269283726622				
376.75732421875	0.2	771599	292	45	3	0	0	9	23	stimuli\Videos_short_600ms\30.finger_pulling_back_another_finger_short_short_600ms.mp4	30.finger_pulling_back_another_finger_short_short_600ms.mp4	2158.6202699203577	2159.2286129772083	0.6083430568505719				
377.55712890625	0.2	773237	293	45	3	0	0	10	107	stimuli\Videos_short_600ms_horflip\25.single_touch_with_stanley_knife_short_horflip_short_600ms.mp4	25.single_touch_with_stanley_knife_short_horflip_short_600ms.mp4	2159.420250390236	2160.0285963795377	0.608345989301597				
378.35693359375	0.2	774875	294	45	3	0	0	11	257	stimuli\Videos_short_600ms_horvertflip\8.single_touch_with_hairbrush_short_horvertflip_short_600ms.mp4	8.single_touch_with_hairbrush_short_horvertflip_short_600ms.mp4	2160.2202326195847	2160.828576849416	0.6083442298313457				
379.1572265625	0.2	776514	295	45	3	0	0	12	249	stimuli\Videos_short_600ms_horvertflip\72.(short)stroke_with_finger_all_over_the_hand_short_horvertflip_short_600ms.mp4	72.(short)stroke_with_finger_all_over_the_hand_short_horvertflip_short_600ms.mp4	2161.020241534234	2161.62856171797	0.6083201837354864				
379.95703125	0.2	778152	296	45	3	0	0	13	340	stimuli\Videos_short_600ms_vertflip\73.single_stroke_with_flat_hand_short_vertflip_short_600ms.mp4	73.single_stroke_with_flat_hand_short_vertflip_short_600ms.mp4	2161.8202038229183	2162.428540721623	0.6083368987046924				
380.7568359375	0.2	779790	297	45	3	0	0	14	332	stimuli\Videos_short_600ms_vertflip\66.stroke_top_to_bottom_with_sponge_short_vertflip_short_600ms.mp4	66.stroke_top_to_bottom_with_sponge_short_vertflip_short_600ms.mp4	2162.6201992482956	2163.228530575344	0.6083313270482904				
381.55712890625	0.2	781429	298	45	3	0	0	15	266	stimuli\Videos_short_600ms_horvertflip\88.repeated_stroke_with_plastic_brush_short_horvertflip_short_600ms.mp4	88.repeated_stroke_with_plastic_brush_short_horvertflip_short_600ms.mp4	2163.42020552374	2164.02852248178	0.6083169580397225				
382.35693359375	0.2	783067	299	45	3	0	0	16	218	stimuli\Videos_short_600ms_horvertflip\44.pushing_top_to_bottom_with_finger_short_horvertflip_short_600ms.mp4	44.pushing_top_to_bottom_with_finger_short_horvertflip_short_600ms.mp4	2164.220178662492	2164.8284718676805	0.6082932051886019				
383.15673828125	0.2	784705	300	45	3	0	0	17	354	stimuli\Videos_short_600ms_vertflip\86.touch_top_to_bottom_with_hair_brush_short_vertflip_short_600ms.mp4	86.touch_top_to_bottom_with_hair_brush_short_vertflip_short_600ms.mp4	2165.0203072211307	2165.6284558565003	0.6081486353696164				
383.95703125	0.2	786344	301	45	3	0	1	18	378	stimuli\Targets_short_600ms_vertflip\brush-stroke_short_horvertflip_short_600ms.mp4	brush-stroke_short_horvertflip_short_600ms.mp4	2165.820138429268	2166.4284533345926	0.6083149053247325				
384.7568359375	0.2	787982	302	45	3	0	0	19	177	stimuli\Videos_short_600ms_horflip\89.single_touch_with_plastic_brush_short_horflip_short_600ms.mp4	89.single_touch_with_plastic_brush_short_horflip_short_600ms.mp4	2166.6201227113324	2167.2284253003636	0.6083025890311546				
385.556640625	0.2	789620	303	45	3	0	1	20	376	stimuli\Targets_short_600ms_horvertflip\hand-pinch_short_vertflip_short_600ms.mp4	hand-pinch_short_vertflip_short_600ms.mp4	2167.420104940681	2168.028432455543	0.6083275148621397				
386.35693359375	0.2	791259	304	45	3	0	0	21	276	stimuli\Videos_short_600ms_vertflip\15.single_stroke_top_to_bottom_with_a_plastic_whisk_short_vertflip_short_600ms.mp4	15.single_stroke_top_to_bottom_with_a_plastic_whisk_short_vertflip_short_600ms.mp4	2168.2200991930777	2168.8284123389312	0.6083131458535718				
387.15673828125	0.2	792897	305	45	3	0	0	22	139	stimuli\Videos_short_600ms_horflip\54.repeated_touch_with_knife_short_horflip_short_600ms.mp4	54.repeated_touch_with_knife_short_horflip_short_600ms.mp4	2169.0200371424207	2169.628395448015	0.6083583055942654				
387.95703125	0.2	794536	306	45	3	0	0	23	84	stimuli\Videos_short_600ms\86.touch_top_to_bottom_with_hair_brush_short_short_600ms.mp4	86.touch_top_to_bottom_with_hair_brush_short_short_600ms.mp4	2169.8200542679324	2170.4283797300795	0.6083254621471497				
388.7568359375	0.2	796174	307	45	3	0	0	24	30	stimuli\Videos_short_600ms\37.single_stab_with_nail_file_short_short_600ms.mp4	37.single_stab_with_nail_file_short_short_600ms.mp4	2170.620038549997	2171.228361666183	0.6083231161865115				
389.556640625	0.2	797812	308	45	3	0	0	25	45	stimuli\Videos_short_600ms\50.single_(long)hard_push_with_thumb_short_short_600ms.mp4	50.single_(long)hard_push_with_thumb_short_short_600ms.mp4	2171.4200240050413	2172.0283424293066	0.6083184242652351				
390.35693359375	0.2	799451	309	45	3	0	0	26	341	stimuli\Videos_short_600ms_vertflip\74.fingers_walking_from_top_to_bottom_short_vertflip_short_600ms.mp4	74.fingers_walking_from_top_to_bottom_short_vertflip_short_600ms.mp4	2172.2200074073708	2172.828328764086	0.6083213567153507				
391.15673828125	0.2	801089	310	45	3	0	0	27	131	stimuli\Videos_short_600ms_horflip\47.(long)scratching_with_finger_nails_short_horflip_short_600ms.mp4	47.(long)scratching_with_finger_nails_short_horflip_short_600ms.mp4	2173.019984065063	2173.6283109934348	0.6083269283717527				
391.95654296875	0.2	802727	311	45	3	0	0	28	174	stimuli\Videos_short_600ms_horflip\86.touch_top_to_bottom_with_hair_brush_short_horflip_short_600ms.mp4	86.touch_top_to_bottom_with_hair_brush_short_horflip_short_600ms.mp4	2173.8199645349414	2174.428293516029	0.6083289810876522				
392.7568359375	0.2	804366	312	45	3	0	0	29	72	stimuli\Videos_short_600ms\75.(long)stroke_with_fingers_all_over_the_hand_short_short_600ms.mp4	75.(long)stroke_with_fingers_all_over_the_hand_short_short_600ms.mp4	2174.6199294628304	2175.2282757453777	0.6083462825472452				
393.556640625	0.2	806004	313	45	3	0	0	30	167	stimuli\Videos_short_600ms_horflip\8.single_touch_with_hairbrush_short_horflip_short_600ms.mp4	8.single_touch_with_hairbrush_short_horflip_short_600ms.mp4	2175.4199134516502	2176.0282579747263	0.6083445230760844				
394.3564453125	0.2	807642	314	45	3	0	0	31	125	stimuli\Videos_short_600ms_horflip\41.injection_with_blunt_syringe_short_horflip_short_600ms.mp4	41.injection_with_blunt_syringe_short_horflip_short_600ms.mp4	2176.2198851241765	2176.8282425500356	0.6083574258591398				
395.15673828125	0.2	809281	315	45	3	0	0	32	98	stimuli\Videos_short_600ms_horflip\17.repeated_touch_with_rolling_pin_short_horflip_short_600ms.mp4	17.repeated_touch_with_rolling_pin_short_horflip_short_600ms.mp4	2177.0198861212093	2177.628231230776	0.6083451095664714				
395.95654296875	0.2	810919	316	45	3	0	0	33	55	stimuli\Videos_short_600ms\6.single_touch_with_flat_hand_short_short_600ms.mp4	6.single_touch_with_flat_hand_short_short_600ms.mp4	2177.8198698167835	2178.4282055425074	0.6083357257239186				
396.75634765625	0.2	812557	317	45	3	0	0	34	211	stimuli\Videos_short_600ms_horvertflip\38.double_slap_with_pencil_short_horvertflip_short_600ms.mp4	38.double_slap_with_pencil_short_horvertflip_short_600ms.mp4	2178.619880197659	2179.2281725231132	0.6082923254543857				
397.556640625	0.2	814196	318	45	3	0	0	35	86	stimuli\Videos_short_600ms\88.repeated_stroke_with_plastic_brush_short_short_600ms.mp4	88.repeated_stroke_with_plastic_brush_short_short_600ms.mp4	2179.41982665111	2180.0281509402757	0.6083242891663758				
398.3564453125	0.2	815834	319	45	3	0	0	36	149	stimuli\Videos_short_600ms_horflip\63.stroke_top_to_bottom_with_screwdriver_short_horflip_short_600ms.mp4	63.stroke_top_to_bottom_with_screwdriver_short_horflip_short_600ms.mp4	2180.2198382049646	2180.828138741281	0.6083005363161647				
399.15625	0.2	817472	320	45	3	0	0	37	81	stimuli\Videos_short_600ms\83.single_stroke_top_to_bottom_with_cotton_bud_short_short_600ms.mp4	83.single_stroke_top_to_bottom_with_cotton_bud_short_short_600ms.mp4	2181.0198204343133	2181.628143257255	0.6083228229417728				
399.95654296875	0.2	819111	321	45	3	0	0	38	216	stimuli\Videos_short_600ms_horvertflip\42.single_slap_with_plastic_whisk_short_horvertflip_short_600ms.mp4	42.single_slap_with_plastic_whisk_short_horvertflip_short_600ms.mp4	2181.819806475848	2182.428136336671	0.6083298608227778				
400.75634765625	0.2	820749	322	45	3	0	0	39	117	stimuli\Videos_short_600ms_horflip\34.repeated_punch_with_hand_short_horflip_short_600ms.mp4	34.repeated_punch_with_hand_short_horflip_short_600ms.mp4	2182.6197848930115	2183.228107129462	0.6083222364504763				
401.55615234375	0.2	822387	323	45	3	0	0	40	119	stimuli\Videos_short_600ms_horflip\36.single_slap_with_full_hand_short_horflip_short_600ms.mp4	36.single_slap_with_full_hand_short_horflip_short_600ms.mp4	2183.419772107526	2184.0280993291435	0.6083272216174009				
402.3564453125	0.2	824026	324	45	3	0	0	41	309	stimuli\Videos_short_600ms_vertflip\45.scratching_with_finger_nails_short_vertflip_short_600ms.mp4	45.scratching_with_finger_nails_short_vertflip_short_600ms.mp4	2184.2197514044237	2184.8280742273655	0.6083228229417728				
403.15625	0.2	825664	325	45	3	0	0	42	242	stimuli\Videos_short_600ms_horvertflip\66.stroke_top_to_bottom_with_sponge_short_horvertflip_short_600ms.mp4	66.stroke_top_to_bottom_with_sponge_short_horvertflip_short_600ms.mp4	2185.0197345135075	2185.6280570432045	0.608322529697034				
403.9560546875	0.2	827302	326	45	3	0	0	43	38	stimuli\Videos_short_600ms\44.pushing_top_to_bottom_with_finger_short_short_600ms.mp4	44.pushing_top_to_bottom_with_finger_short_short_600ms.mp4	2185.819719968553	2186.428041325268	0.6083213567153507				
404.75634765625	0.2	828941	327	45	3	0	0	44	73	stimuli\Videos_short_600ms\76.tickle_with_fingers_from_top_to_bottom_short_short_600ms.mp4	76.tickle_with_fingers_from_top_to_bottom_short_short_600ms.mp4	2186.6197063033324	2187.2280250208423	0.6083187175099738				
405.55615234375	0.2	830579	328	45	3	0	0	45	250	stimuli\Videos_short_600ms_horvertflip\73.single_stroke_with_flat_hand_short_horvertflip_short_600ms.mp4	73.single_stroke_with_flat_hand_short_horvertflip_short_600ms.mp4	2187.4196952773173	2188.0280054907207	0.6083102134034561				
406.3564453125	0.2	832218	329	45	3	0	0	46	90	stimuli\Videos_short_600ms_horflip\1.repeated_touch_with_finger_fast_short_horflip_short_600ms.mp4	1.repeated_touch_with_finger_fast_short_horflip_short_600ms.mp4	2188.219665483618	2188.8279883065597	0.6083228229417728				
407.15625	0.2	833856	330	45	3	0	0	47	254	stimuli\Videos_short_600ms_horvertflip\77.tapping_with_all_fingers_short_horvertflip_short_600ms.mp4	77.tapping_with_all_fingers_short_horvertflip_short_600ms.mp4	2189.019659149525	2189.627974054849	0.608314905323823				
407.9560546875	0.2	835494	331	45	3	0	0	48	293	stimuli\Videos_short_600ms_vertflip\30.finger_pulling_back_another_finger_short_vertflip_short_600ms.mp4	30.finger_pulling_back_another_finger_short_vertflip_short_600ms.mp4	2189.8196199719832	2190.4279551112177	0.6083351392344412				
408.75634765625	0.2	837133	332	45	3	0	0	49	143	stimuli\Videos_short_600ms_horflip\58.single_slap_with_pencil_short_horflip_short_600ms.mp4	58.single_slap_with_pencil_short_horflip_short_600ms.mp4	2190.6195737565604	2191.227940566262	0.6083668097016925				
409.55615234375	0.2	838771	333	45	3	0	0	50	290	stimuli\Videos_short_600ms_vertflip\28.single_injection_with_sharp_needle_short_vertflip_short_600ms.mp4	28.single_injection_with_sharp_needle_short_vertflip_short_600ms.mp4	2191.419558038625	2192.02791927667	0.6083612380452905				
410.35595703125	0.2	840409	334	45	3	0	0	51	126	stimuli\Videos_short_600ms_horflip\42.single_slap_with_plastic_whisk_short_horflip_short_600ms.mp4	42.single_slap_with_plastic_whisk_short_horflip_short_600ms.mp4	2192.21956959248	2192.827881272109	0.6083116796289687				
411.15625	0.2	842048	335	45	3	0	0	52	179	stimuli\Videos_short_600ms_horflip\90.repeated_touch_with_sponge_short_horflip_short_600ms.mp4	90.repeated_touch_with_sponge_short_horflip_short_600ms.mp4	2193.0195483028883	2193.6278429743024	0.6082946714141144				
411.9560546875	0.2	843686	336	45	3	0	0	53	275	stimuli\Videos_short_600ms_vertflip\14.repeated_touch_with_pencil_short_vertflip_short_600ms.mp4	14.repeated_touch_with_pencil_short_vertflip_short_600ms.mp4	2193.8195636689297	2194.4278266698766	0.608263000946863				
412.755859375	0.2	845324	337	45	3	0	0	54	281	stimuli\Videos_short_600ms_vertflip\2.single_touch_with_finger_short_vertflip_short_600ms.mp4	2.single_touch_with_finger_short_vertflip_short_600ms.mp4	2194.619532409005	2195.2278097789604	0.6082773699554309				
413.55615234375	0.2	846963	338	45	3	0	0	55	284	stimuli\Videos_short_600ms_vertflip\22.single_touch_with_metal_chopstick_short_vertflip_short_600ms.mp4	22.single_touch_with_metal_chopstick_short_vertflip_short_600ms.mp4	2195.419528127627	2196.0277925947994	0.6082644671723756				
414.35595703125	0.2	848601	339	45	3	0	1	56	375	stimuli\Targets_short_600ms_horvertflip\finger-tap_short_vertflip_short_600ms.mp4	finger-tap_short_vertflip_short_600ms.mp4	2196.2194983339277	2196.827802975675	0.6083046417470541				
415.15576171875	0.2	850239	340	45	3	0	0	57	100	stimuli\Videos_short_600ms_horflip\19.single_touch_with_rolling_pin_short_horflip_short_600ms.mp4	19.single_touch_with_rolling_pin_short_horflip_short_600ms.mp4	2197.019480856522	2197.627793415886	0.6083125593640943				
415.9560546875	0.2	851878	341	45	3	0	0	58	2	stimuli\Videos_short_600ms\11.single_touch_with_lighter_short_short_600ms.mp4	11.single_touch_with_lighter_short_short_600ms.mp4	2197.8194651385866	2198.4277779911954	0.608312852608833				
416.755859375	0.2	853516	342	45	3	0	0	59	348	stimuli\Videos_short_600ms_vertflip\80.stroke_with_sharp_stick_all_over_the_hand_short_vertflip_short_600ms.mp4	80.stroke_with_sharp_stick_all_over_the_hand_short_vertflip_short_600ms.mp4	2198.6194482476703	2199.227778988228	0.6083307405579035				
417.5556640625	0.2	855154	343	45	3	0	0	60	292	stimuli\Videos_short_600ms_vertflip\3.single_push_with_finger_short_vertflip_short_600ms.mp4	3.single_push_with_finger_short_vertflip_short_600ms.mp4	2199.419432529734	2200.0277535932055	0.6083210634715215				
418.35595703125	0.2	856793	344	45	3	0	0	61	106	stimuli\Videos_short_600ms_horflip\24.single_stroke_top_to_bottom_with_a_spoon_short_horflip_short_600ms.mp4	24.single_stroke_top_to_bottom_with_a_spoon_short_horflip_short_600ms.mp4	2200.2194171050432	2200.8277355293085	0.6083184242652351				
419.15576171875	0.2	858431	345	45	3	0	0	62	298	stimuli\Videos_short_600ms_vertflip\35.single_punch_with_hand_short_vertflip_short_600ms.mp4	35.single_punch_with_hand_short_vertflip_short_600ms.mp4	2201.0193878978343	2201.627718638393	0.608330740558813				
419.95556640625	0.2	860069	346	45	3	0	0	63	305	stimuli\Videos_short_600ms_vertflip\41.injection_with_blunt_syringe_short_vertflip_short_600ms.mp4	41.injection_with_blunt_syringe_short_vertflip_short_600ms.mp4	2201.8193803907607	2202.427701747477	0.6083213567162602				
420.755859375	0.2	861708	347	45	3	0	0	64	358	stimuli\Videos_short_600ms_vertflip\9.single_touch_with_hammer_short_vertflip_short_600ms.mp4	9.single_touch_with_hammer_short_vertflip_short_600ms.mp4	2202.6193632065997	2203.2276839768256	0.6083207702258733				
421.5556640625	0.2	863346	348	45	3	0	0	65	76	stimuli\Videos_short_600ms\79.long_with_soft_brush_all_over_the_hand_short_short_600ms.mp4	79.long_with_soft_brush_all_over_the_hand_short_short_600ms.mp4	2203.419348954889	2204.027668258889	0.6083193040003607				
422.35546875	0.2	864984	349	45	3	0	0	66	178	stimuli\Videos_short_600ms_horflip\9.single_touch_with_hammer_short_horflip_short_600ms.mp4	9.single_touch_with_hammer_short_horflip_short_600ms.mp4	2204.219341741061	2204.8276528341994	0.6083110931385818				
423.15576171875	0.2	866623	350	45	3	0	0	67	41	stimuli\Videos_short_600ms\47.(long)scratching_with_finger_nails_short_short_600ms.mp4	47.(long)scratching_with_finger_nails_short_short_600ms.mp4	2205.019291713452	2205.627635356793	0.6083436433409588				
423.95556640625	0.2	868261	351	45	3	0	0	68	258	stimuli\Videos_short_600ms_horvertflip\80.stroke_with_sharp_stick_all_over_the_hand_short_horvertflip_short_600ms.mp4	80.stroke_with_sharp_stick_all_over_the_hand_short_horvertflip_short_600ms.mp4	2205.8192786347217	2206.427619052367	0.608340417645195				
424.755859375	0.2	869900	352	45	3	0	0	69	185	stimuli\Videos_short_600ms_horvertflip\14.repeated_touch_with_pencil_short_horvertflip_short_600ms.mp4	14.repeated_touch_with_pencil_short_horvertflip_short_600ms.mp4	2206.6192608640704	2207.2275995222453	0.6083386581749437				
425.5556640625	0.2	871538	353	45	3	0	0	70	148	stimuli\Videos_short_600ms_horflip\62.touch_top_to_bottom_with_scissors_short_horflip_short_600ms.mp4	62.touch_top_to_bottom_with_scissors_short_horflip_short_600ms.mp4	2207.419242213684	2208.0275849772897	0.6083427636058332				
426.35546875	0.2	873176	354	45	3	0	0	71	61	stimuli\Videos_short_600ms\65.stroke_top_to_bottom_with_stanley_knife_short_short_600ms.mp4	65.stroke_top_to_bottom_with_stanley_knife_short_short_600ms.mp4	2208.219228548463	2208.827563687698	0.6083351392344412				
427.15576171875	0.2	874815	355	45	3	0	0	72	306	stimuli\Videos_short_600ms_vertflip\42.single_slap_with_plastic_whisk_short_vertflip_short_600ms.mp4	42.single_slap_with_plastic_whisk_short_vertflip_short_600ms.mp4	2209.019237756359	2209.6275447440657	0.6083069877067828				
427.95556640625	0.2	876453	356	45	3	0	0	73	182	stimuli\Videos_short_600ms_horvertflip\11.single_touch_with_lighter_short_horvertflip_short_600ms.mp4	11.single_touch_with_lighter_short_horvertflip_short_600ms.mp4	2209.819214414051	2210.427511431426	0.6082970173747526				
428.75537109375	0.2	878091	357	45	3	0	1	74	371	stimuli\Targets_short_600ms_horflip\hand-stroke_short_horflip_short_600ms.mp4	hand-stroke_short_horflip_short_600ms.mp4	2210.619201335321	2211.227491314814	0.608289979492838				
429.5556640625	0.2	879730	358	45	3	0	0	75	24	stimuli\Videos_short_600ms\31.hand_grabbing_wrist_short_short_600ms.mp4	31.hand_grabbing_wrist_short_short_600ms.mp4	2211.419157465858	2212.027475303633	0.6083178377748482				
430.35546875	0.2	881368	359	45	3	0	0	76	14	stimuli\Videos_short_600ms\22.single_touch_with_metal_chopstick_short_short_600ms.mp4	22.single_touch_with_metal_chopstick_short_short_600ms.mp4	2212.219162568322	2212.827463104639	0.6083005363161647				
431.1552734375	0.2	883006	360	45	3	0	0	77	50	stimuli\Videos_short_600ms\55.touch_top_to_bottom_with_nail_file_short_short_600ms.mp4	55.touch_top_to_bottom_with_nail_file_short_short_600ms.mp4	2213.0191445044265	2213.6274682071025	0.6083237026759889				
431.95556640625	0.2	884645	361	45	3	0	0	78	67	stimuli\Videos_short_600ms\70.(long)stroke_with_finger_all_over_the_hand_short_short_600ms.mp4	70.(long)stroke_with_finger_all_over_the_hand_short_short_600ms.mp4	2213.8191302527157	2214.4274680311555	0.6083377784398181				
432.75537109375	0.2	886283	362	45	3	0	0	79	137	stimuli\Videos_short_600ms_horflip\52.touch_top_to_bottom_with_hammer_short_horflip_short_600ms.mp4	52.touch_top_to_bottom_with_hammer_short_horflip_short_600ms.mp4	2214.619091075174	2215.2274311995743	0.6083401244004563				
433.55517578125	0.2	887921	363	45	3	0	0	80	130	stimuli\Videos_short_600ms_horflip\46.scratching_top_to_bottom_with_finger_nails_short_horflip_short_600ms.mp4	46.scratching_top_to_bottom_with_finger_nails_short_horflip_short_600ms.mp4	2215.4190979371087	2216.027412549188	0.6083146120790843				
434.35546875	0.2	889560	364	45	3	0	0	81	213	stimuli\Videos_short_600ms_horvertflip\4.repeated_tap_with_finger_slow_short_horvertflip_short_600ms.mp4	4.repeated_tap_with_finger_slow_short_horvertflip_short_600ms.mp4	2216.2190789934775	2216.8273956582725	0.6083166647949838				
435.1552734375	0.2	891198	365	45	3	0	1	82	363	stimuli\Targets_short_600ms\finger-tap_short_short_600ms.mp4	finger-tap_short_short_600ms.mp4	2217.019060343091	2217.6273808200713	0.6083204769802251				
435.955078125	0.2	892836	366	45	3	0	0	83	300	stimuli\Videos_short_600ms_vertflip\37.single_stab_with_nail_file_short_vertflip_short_600ms.mp4	37.single_stab_with_nail_file_short_vertflip_short_600ms.mp4	2217.819042279195	2218.427366861606	0.6083245824111145				
436.75537109375	0.2	894475	367	45	3	0	0	84	153	stimuli\Videos_short_600ms_horflip\67.single_touch_with_sponge_short_horflip_short_600ms.mp4	67.single_touch_with_sponge_short_horflip_short_600ms.mp4	2218.618996357017	2219.22734879771	0.6083524406931247				
437.55517578125	0.2	896113	368	45	3	0	0	85	68	stimuli\Videos_short_600ms\71.single_stroke_with_finger_top_to_bottom_short_short_600ms.mp4	71.single_stroke_with_finger_top_to_bottom_short_short_600ms.mp4	2219.4189797593453	2220.0273283878532	0.6083486285078834				
438.35498046875	0.2	897751	369	45	3	0	0	86	263	stimuli\Videos_short_600ms_horvertflip\85.touch_top_to_bottom_with_fabric_short_horvertflip_short_600ms.mp4	85.touch_top_to_bottom_with_fabric_short_horvertflip_short_600ms.mp4	2220.2189502588917	2220.827312376672	0.6083621177804162				
439.1552734375	0.2	899390	370	45	3	0	0	87	7	stimuli\Videos_short_600ms\16.repeated_touch_with_plastic_brush_short_short_600ms.mp4	16.repeated_touch_with_plastic_brush_short_short_600ms.mp4	2221.018931022015	2221.6272981249613	0.6083671029464313				
439.955078125	0.2	901028	371	45	3	0	1	88	380	stimuli\Targets_short_600ms_vertflip\chopstickwood-tap_short_horvertflip_short_600ms.mp4	chopstickwood-tap_short_horvertflip_short_600ms.mp4	2221.8189252744114	2222.4272809408003	0.6083556663888885				
440.7548828125	0.2	902666	372	45	3	0	0	89	339	stimuli\Videos_short_600ms_vertflip\72.(short)stroke_with_finger_all_over_the_hand_short_vertflip_short_600ms.mp4	72.(short)stroke_with_finger_all_over_the_hand_short_vertflip_short_600ms.mp4	2222.618926857934	2223.2272634633946	0.6083366054599537				
441.55517578125	0.2	904305	373	45	3	0	0	90	53	stimuli\Videos_short_600ms\58.single_slap_with_pencil_short_short_600ms.mp4	58.single_slap_with_pencil_short_short_600ms.mp4	2223.4189167116556	2224.0272404143316	0.6083237026759889				
