onset	duration	onsetsample	eventnumber	subjectnr	sequencenumber	blocksequencenumber	istarget	presentationnumber	stimnumber	stim	stimname	time_stimon	time_stimoff	stimdur	cresp	resp	rt	correct
49.40771484375	0.2	101187	0	58	0	0	0	0	169	stimuli\Videos_short_600ms_horflip\81.single_stroke_top_to_bottom_with_cotton_pad_short_horflip_short_600ms.mp4	81.single_stroke_top_to_bottom_with_cotton_pad_short_horflip_short_600ms.mp4	54.80915003048358	55.41747263339675	0.6083226029131765				
50.20751953125	0.2	102825	1	58	0	0	0	1	359	stimuli\Videos_short_600ms_vertflip\90.repeated_touch_with_sponge_short_vertflip_short_600ms.mp4	90.repeated_touch_with_sponge_short_vertflip_short_600ms.mp4	55.60913607189468	56.21746424651428	0.6083281746196008				
51.00732421875	0.2	104463	2	58	0	0	0	2	351	stimuli\Videos_short_600ms_vertflip\83.single_stroke_top_to_bottom_with_cotton_bud_short_vertflip_short_600ms.mp4	83.single_stroke_top_to_bottom_with_cotton_bud_short_vertflip_short_600ms.mp4	56.40912973774539	57.01745263390694	0.6083228961615532				
51.8076171875	0.2	106102	3	58	0	0	0	3	45	stimuli\Videos_short_600ms\50.single_(long)hard_push_with_thumb_short_short_600ms.mp4	50.single_(long)hard_push_with_thumb_short_short_600ms.mp4	57.209151555371136	57.817442487537846	0.6082909321667103				
52.607421875	0.2	107740	4	58	0	0	0	4	247	stimuli\Videos_short_600ms_horvertflip\70.(long)stroke_with_finger_all_over_the_hand_short_horvertflip_short_600ms.mp4	70.(long)stroke_with_finger_all_over_the_hand_short_horvertflip_short_600ms.mp4	58.009110617998886	58.61743204792219	0.6083214299233077				
53.4072265625	0.2	109378	5	58	0	0	0	5	172	stimuli\Videos_short_600ms_horflip\84.single_touch_with_cotton_bud_short_horflip_short_600ms.mp4	84.single_touch_with_cotton_bud_short_horflip_short_600ms.mp4	58.80906997387501	59.41742072856323	0.6083507546882174				
54.20751953125	0.2	111017	6	58	0	0	0	6	335	stimuli\Videos_short_600ms_vertflip\69.stroke_with_soft_sock_short_vertflip_short_600ms.mp4	69.stroke_with_soft_sock_short_vertflip_short_600ms.mp4	59.609067158697144	60.21741410116556	0.6083469424684154				
55.00732421875	0.2	112655	7	58	0	0	0	7	54	stimuli\Videos_short_600ms\59.single_push_with_long_side_pencil_short_short_600ms.mp4	59.single_push_with_long_side_pencil_short_short_600ms.mp4	60.40907812616024	61.01740248855822	0.6083243623979797				
55.8076171875	0.2	114294	8	58	0	0	0	8	320	stimuli\Videos_short_600ms_vertflip\55.touch_top_to_bottom_with_nail_file_short_vertflip_short_600ms.mp4	55.touch_top_to_bottom_with_nail_file_short_vertflip_short_600ms.mp4	61.20907325824919	61.81739146244763	0.6083182041984401				
56.607421875	0.2	115932	9	58	0	0	0	9	271	stimuli\Videos_short_600ms_vertflip\10.single_touch_with_knife_short_vertflip_short_600ms.mp4	10.single_touch_with_knife_short_vertflip_short_600ms.mp4	62.00906252538516	62.61738806077483	0.6083255353896675				
57.4072265625	0.2	117570	10	58	0	0	0	10	276	stimuli\Videos_short_600ms_vertflip\15.single_stroke_top_to_bottom_with_a_plastic_whisk_short_vertflip_short_600ms.mp4	15.single_stroke_top_to_bottom_with_a_plastic_whisk_short_vertflip_short_600ms.mp4	62.80904563431977	63.41736706424308	0.6083214299233077				
58.20751953125	0.2	119209	11	58	0	0	0	11	336	stimuli\Videos_short_600ms_vertflip\7.repeated_touch_with_hairbrush_short_vertflip_short_600ms.mp4	7.repeated_touch_with_hairbrush_short_vertflip_short_600ms.mp4	63.60903607444561	64.21735721112054	0.608321136674931				
59.00732421875	0.2	120847	12	58	0	0	0	12	57	stimuli\Videos_short_600ms\61.single_hit_with_rolling_pin_short_short_600ms.mp4	61.single_hit_with_rolling_pin_short_short_600ms.mp4	64.4090232888484	65.01735175671456	0.6083284678661585				
59.80712890625	0.2	122485	13	58	0	0	0	13	135	stimuli\Videos_short_600ms_horflip\50.single_(long)hard_push_with_thumb_short_horflip_short_600ms.mp4	50.single_(long)hard_push_with_thumb_short_horflip_short_600ms.mp4	65.20901314248113	65.81734073060397	0.6083275881228474				
60.607421875	0.2	124124	14	58	0	0	0	14	296	stimuli\Videos_short_600ms_vertflip\33.scratch_top_to_bottom_with_scissors_short_vertflip_short_600ms.mp4	33.scratch_top_to_bottom_with_scissors_short_vertflip_short_600ms.mp4	66.00900446235028	66.6173285315017	0.608324069151422				
61.4072265625	0.2	125762	15	58	0	0	0	15	220	stimuli\Videos_short_600ms_horvertflip\46.scratching_top_to_bottom_with_finger_nails_short_horvertflip_short_600ms.mp4	46.scratching_top_to_bottom_with_finger_nails_short_horvertflip_short_600ms.mp4	66.80899255649456	67.41732982179019	0.6083372652956314				
62.20703125	0.2	127400	16	58	0	0	0	16	158	stimuli\Videos_short_600ms_horflip\71.single_stroke_with_finger_top_to_bottom_short_horflip_short_600ms.mp4	71.single_stroke_with_finger_top_to_bottom_short_horflip_short_600ms.mp4	67.60898328986877	68.21730999825013	0.6083267083813553				
63.00732421875	0.2	129039	17	58	0	0	0	17	144	stimuli\Videos_short_600ms_horflip\59.single_push_with_long_side_pencil_short_horflip_short_600ms.mp4	59.single_push_with_long_side_pencil_short_horflip_short_600ms.mp4	68.40897402324299	69.0173010248709	0.608327001627913				
63.80712890625	0.2	130677	18	58	0	0	0	18	29	stimuli\Videos_short_600ms\36.single_slap_with_full_hand_short_short_600ms.mp4	36.single_slap_with_full_hand_short_short_600ms.mp4	69.20896446337065	69.817289119017	0.6083246556463564				
64.60693359375	0.2	132315	19	58	0	0	0	19	281	stimuli\Videos_short_600ms_vertflip\2.single_touch_with_finger_short_vertflip_short_600ms.mp4	2.single_touch_with_finger_short_vertflip_short_600ms.mp4	70.00895226426837	70.61727867940135	0.6083264151329786				
65.4072265625	0.2	133954	20	58	0	0	0	20	151	stimuli\Videos_short_600ms_horflip\65.stroke_top_to_bottom_with_stanley_knife_short_horflip_short_600ms.mp4	65.stroke_top_to_bottom_with_stanley_knife_short_horflip_short_600ms.mp4	70.80894593011908	71.41726882627881	0.6083228961597342				
66.20703125	0.2	135592	21	58	0	0	0	21	239	stimuli\Videos_short_600ms_horvertflip\63.stroke_top_to_bottom_with_screwdriver_short_horvertflip_short_600ms.mp4	63.stroke_top_to_bottom_with_screwdriver_short_horvertflip_short_600ms.mp4	71.60893607699836	72.21725780016823	0.6083217231698654				
67.0068359375	0.2	137230	22	58	0	0	0	22	134	stimuli\Videos_short_600ms_horflip\5.repeated_tap_with_finger_moving_from_top_to_bottom_short_horflip_short_600ms.mp4	5.repeated_tap_with_finger_moving_from_top_to_bottom_short_horflip_short_600ms.mp4	72.40891918593297	73.01724941328575	0.6083302273527806				
67.80712890625	0.2	138869	23	58	0	0	0	23	103	stimuli\Videos_short_600ms_horflip\21.repeated_touch_with_metal_chopstick_short_horflip_short_600ms.mp4	21.repeated_touch_with_metal_chopstick_short_horflip_short_600ms.mp4	73.20891578426017	73.81723809392497	0.6083223096647998				
68.60693359375	0.2	140507	24	58	0	0	0	24	68	stimuli\Videos_short_600ms\71.single_stroke_with_finger_top_to_bottom_short_short_600ms.mp4	71.single_stroke_with_finger_top_to_bottom_short_short_600ms.mp4	74.0089044649012	74.61722413533789	0.6083196704366856				
69.40673828125	0.2	142145	25	58	0	0	0	25	123	stimuli\Videos_short_600ms_horflip\4.repeated_tap_with_finger_slow_short_horflip_short_600ms.mp4	4.repeated_tap_with_finger_slow_short_horflip_short_600ms.mp4	74.80888845357913	75.41721692144529	0.6083284678661585				
70.20703125	0.2	143784	26	58	0	0	0	26	257	stimuli\Videos_short_600ms_horvertflip\8.single_touch_with_hairbrush_short_horvertflip_short_600ms.mp4	8.single_touch_with_hairbrush_short_horvertflip_short_600ms.mp4	75.60887742746854	76.21720736157113	0.608329934102585				
71.0068359375	0.2	145422	27	58	0	0	1	27	382	stimuli\Targets_short_600ms_vertflip\hand-pinch_short_horvertflip_short_600ms.mp4	hand-pinch_short_horvertflip_short_600ms.mp4	76.408930329344	77.01719897468865	0.6082686453446513				
71.806640625	0.2	147060	28	58	0	0	0	28	214	stimuli\Videos_short_600ms_horvertflip\40.repeated_push_with_finger_short_horvertflip_short_600ms.mp4	40.repeated_push_with_finger_short_horvertflip_short_600ms.mp4	77.20906152834323	77.81719146754949	0.6081299392062647				
72.60693359375	0.2	148699	29	58	0	0	0	29	140	stimuli\Videos_short_600ms_horflip\55.touch_top_to_bottom_with_nail_file_short_horflip_short_600ms.mp4	55.touch_top_to_bottom_with_nail_file_short_horflip_short_600ms.mp4	78.00885578579073	78.61715140992055	0.6082956241298234				
73.40673828125	0.2	150337	30	58	0	0	0	30	199	stimuli\Videos_short_600ms_horvertflip\27.single_push_with_a_plastic_whisk_short_horvertflip_short_600ms.mp4	27.single_push_with_a_plastic_whisk_short_horvertflip_short_600ms.mp4	78.80884153395527	79.41716208413527	0.6083205501799966				
74.20654296875	0.2	151975	31	58	0	0	0	31	21	stimuli\Videos_short_600ms\29.single_pinch_with_tweezers_short_short_600ms.mp4	29.single_pinch_with_tweezers_short_short_600ms.mp4	79.60883080109124	80.21715399049936	0.6083231894081109				
75.0068359375	0.2	153614	32	58	0	0	0	32	67	stimuli\Videos_short_600ms\70.(long)stroke_with_finger_all_over_the_hand_short_short_600ms.mp4	70.(long)stroke_with_finger_all_over_the_hand_short_short_600ms.mp4	80.40882241420877	81.01715176181824	0.6083293476094696				
75.806640625	0.2	155252	33	58	0	0	0	33	248	stimuli\Videos_short_600ms_horvertflip\71.single_stroke_with_finger_top_to_bottom_short_horvertflip_short_600ms.mp4	71.single_stroke_with_finger_top_to_bottom_short_horvertflip_short_600ms.mp4	81.20881050835305	81.81711756914228	0.6083070607892296				
76.60693359375	0.2	156891	34	58	0	0	0	34	285	stimuli\Videos_short_600ms_vertflip\23.single_push_with_a_spoon_short_vertflip_short_600ms.mp4	23.single_push_with_a_spoon_short_vertflip_short_600ms.mp4	82.00879948224247	82.61713440155654	0.6083349193140748				
77.40673828125	0.2	158529	35	58	0	0	0	35	75	stimuli\Videos_short_600ms\78.single_stroke_top_to_bottom_with_soft_brush_short_short_600ms.mp4	78.single_stroke_top_to_bottom_with_soft_brush_short_short_600ms.mp4	82.80879050886506	83.4171172172446	0.6083267083795363				
78.20654296875	0.2	160167	36	58	0	0	0	36	3	stimuli\Videos_short_600ms\12.repeated_touch_with_nail_file_short_short_600ms.mp4	12.repeated_touch_with_nail_file_short_short_600ms.mp4	83.60878006924759	84.21711704129484	0.6083369720472547				
79.0068359375	0.2	161806	37	58	0	0	0	37	117	stimuli\Videos_short_600ms_horflip\34.repeated_punch_with_hand_short_horflip_short_600ms.mp4	34.repeated_punch_with_hand_short_horflip_short_600ms.mp4	84.4087708026218	85.01709545826816	0.6083246556463564				
79.806640625	0.2	163444	38	58	0	0	0	38	177	stimuli\Videos_short_600ms_horflip\89.single_touch_with_plastic_brush_short_horflip_short_600ms.mp4	89.single_touch_with_plastic_brush_short_horflip_short_600ms.mp4	85.20876153599602	85.81708941736724	0.6083278813712241				
80.6064453125	0.2	165082	39	58	0	0	0	39	274	stimuli\Videos_short_600ms_vertflip\13.single_touch_with_pen_short_vertflip_short_600ms.mp4	13.single_touch_with_pen_short_vertflip_short_600ms.mp4	86.0087516828753	86.61707516553179	0.6083234826564876				
81.40673828125	0.2	166721	40	58	0	0	0	40	188	stimuli\Videos_short_600ms_horvertflip\17.repeated_touch_with_rolling_pin_short_horvertflip_short_600ms.mp4	17.repeated_touch_with_rolling_pin_short_horvertflip_short_600ms.mp4	86.80873919052465	87.41706413941938	0.6083249488947331				
82.20654296875	0.2	168359	41	58	0	0	0	41	224	stimuli\Videos_short_600ms_horvertflip\5.repeated_tap_with_finger_moving_from_top_to_bottom_short_horvertflip_short_600ms.mp4	5.repeated_tap_with_finger_moving_from_top_to_bottom_short_horvertflip_short_600ms.mp4	87.60870499784869	88.21705721877515	0.6083522209264629				
83.00634765625	0.2	169997	42	58	0	0	0	42	58	stimuli\Videos_short_600ms\62.touch_top_to_bottom_with_scissors_short_short_600ms.mp4	62.touch_top_to_bottom_with_scissors_short_short_600ms.mp4	88.40871567206341	89.01704443317794	0.6083287611145352				
83.806640625	0.2	171636	43	58	0	0	0	43	155	stimuli\Videos_short_600ms_horflip\69.stroke_with_soft_sock_short_horflip_short_600ms.mp4	69.stroke_with_soft_sock_short_horflip_short_600ms.mp4	89.20870963116249	89.81703545979872	0.6083258286362252				
84.6064453125	0.2	173274	44	58	0	0	0	44	234	stimuli\Videos_short_600ms_horvertflip\59.single_push_with_long_side_pencil_short_horvertflip_short_600ms.mp4	59.single_push_with_long_side_pencil_short_horvertflip_short_600ms.mp4	90.00871062820443	90.61702355394482	0.6083129257403925				
85.40625	0.2	174912	45	58	0	0	0	45	137	stimuli\Videos_short_600ms_horflip\52.touch_top_to_bottom_with_hammer_short_horflip_short_600ms.mp4	52.touch_top_to_bottom_with_hammer_short_horflip_short_600ms.mp4	90.80869080466256	91.41701721979553	0.6083264151329786				
86.20654296875	0.2	176551	46	58	0	0	0	46	91	stimuli\Videos_short_600ms_horflip\10.single_touch_with_knife_short_horflip_short_600ms.mp4	10.single_touch_with_knife_short_horflip_short_600ms.mp4	91.608688869228	92.21700414094994	0.6083152717219491				
87.00634765625	0.2	178189	47	58	0	0	0	47	65	stimuli\Videos_short_600ms\69.stroke_with_soft_sock_short_short_600ms.mp4	69.stroke_with_soft_sock_short_short_600ms.mp4	92.40867256465935	93.01697815920852	0.6083055945491651				
87.80615234375	0.2	179827	48	58	0	0	0	48	178	stimuli\Videos_short_600ms_horflip\9.single_touch_with_hammer_short_horflip_short_600ms.mp4	9.single_touch_with_hammer_short_horflip_short_600ms.mp4	93.20867297520635	93.81698678069006	0.6083138054837036				
88.6064453125	0.2	181466	49	58	0	0	0	49	27	stimuli\Videos_short_600ms\34.repeated_punch_with_hand_short_short_600ms.mp4	34.repeated_punch_with_hand_short_short_600ms.mp4	94.00864699346494	94.61697399509104	0.608327001626094				
89.40625	0.2	183104	50	58	0	0	0	50	249	stimuli\Videos_short_600ms_horvertflip\72.(short)stroke_with_finger_all_over_the_hand_short_horvertflip_short_600ms.mp4	72.(short)stroke_with_finger_all_over_the_hand_short_horvertflip_short_600ms.mp4	94.80863948632395	95.41696120949382	0.6083217231698654				
90.2060546875	0.2	184742	51	58	0	0	0	51	124	stimuli\Videos_short_600ms_horflip\40.repeated_push_with_finger_short_horflip_short_600ms.mp4	40.repeated_push_with_finger_short_horflip_short_600ms.mp4	95.60862758047006	96.21695634158276	0.6083287611127162				
91.00634765625	0.2	186381	52	58	0	0	0	52	8	stimuli\Videos_short_600ms\17.repeated_touch_with_rolling_pin_short_short_600ms.mp4	17.repeated_touch_with_rolling_pin_short_short_600ms.mp4	96.40859074856417	97.016941210004	0.6083504614398407				
91.80615234375	0.2	188019	53	58	0	0	0	53	49	stimuli\Videos_short_600ms\54.repeated_touch_with_knife_short_short_600ms.mp4	54.repeated_touch_with_knife_short_short_600ms.mp4	97.20860758098024	97.81694425978094	0.608336678800697				
92.60595703125	0.2	189657	54	58	0	0	0	54	254	stimuli\Videos_short_600ms_horvertflip\77.tapping_with_all_fingers_short_horvertflip_short_600ms.mp4	77.tapping_with_all_fingers_short_horvertflip_short_600ms.mp4	98.00859831435446	98.61692267675244	0.6083243623979797				
93.40625	0.2	191296	55	58	0	0	0	55	332	stimuli\Videos_short_600ms_vertflip\66.stroke_top_to_bottom_with_sponge_short_vertflip_short_600ms.mp4	66.stroke_top_to_bottom_with_sponge_short_vertflip_short_600ms.mp4	98.80858904772867	99.41691341012664	0.6083243623979797				
94.2060546875	0.2	192934	56	58	0	0	0	56	162	stimuli\Videos_short_600ms_horflip\75.(long)stroke_with_fingers_all_over_the_hand_short_horflip_short_600ms.mp4	75.(long)stroke_with_fingers_all_over_the_hand_short_horflip_short_600ms.mp4	99.60857655537802	100.21690238401608	0.6083258286380442				
95.005859375	0.2	194572	57	58	0	0	0	57	156	stimuli\Videos_short_600ms_horflip\7.repeated_touch_with_hairbrush_short_horflip_short_600ms.mp4	7.repeated_touch_with_hairbrush_short_horflip_short_600ms.mp4	100.40856611576235	101.01689604986676	0.608329934104404				
95.80615234375	0.2	196211	58	58	0	0	0	58	107	stimuli\Videos_short_600ms_horflip\25.single_touch_with_stanley_knife_short_horflip_short_600ms.mp4	25.single_touch_with_stanley_knife_short_horflip_short_600ms.mp4	101.20855919511814	101.8168826777728	0.6083234826546686				
96.60595703125	0.2	197849	59	58	0	0	0	59	50	stimuli\Videos_short_600ms\55.touch_top_to_bottom_with_nail_file_short_short_600ms.mp4	55.touch_top_to_bottom_with_nail_file_short_short_600ms.mp4	102.00854846225413	102.61687106516727	0.6083226029131765				
97.40625	0.2	199488	60	58	0	0	0	60	198	stimuli\Videos_short_600ms_horvertflip\26.single_touch_with_a_blunt_syringe_short_horvertflip_short_600ms.mp4	26.single_touch_with_a_blunt_syringe_short_horvertflip_short_600ms.mp4	102.8085386091334	103.41686385127468	0.6083252421412908				
98.2060546875	0.2	201126	61	58	0	0	0	61	10	stimuli\Videos_short_600ms\19.single_touch_with_rolling_pin_short_short_600ms.mp4	19.single_touch_with_rolling_pin_short_short_600ms.mp4	103.6085094016671	104.21685194541897	0.6083425437518599				
99.005859375	0.2	202764	62	58	0	0	0	62	301	stimuli\Videos_short_600ms_vertflip\38.double_slap_with_pencil_short_vertflip_short_600ms.mp4	38.double_slap_with_pencil_short_vertflip_short_600ms.mp4	104.4085106919556	105.01684179905168	0.6083311070960917				
99.80615234375	0.2	204403	63	58	0	0	0	63	313	stimuli\Videos_short_600ms_vertflip\49.repeated_slap_with_hand_short_vertflip_short_600ms.mp4	49.repeated_slap_with_hand_short_vertflip_short_600ms.mp4	105.2085093430178	105.81683223917751	0.6083228961597342				
100.60595703125	0.2	206041	64	58	0	0	0	64	52	stimuli\Videos_short_600ms\57.single_touch_with_nail_file_short_short_600ms.mp4	57.single_touch_with_nail_file_short_short_600ms.mp4	106.00850535484824	106.6168215063135	0.6083161514652602				
101.40576171875	0.2	207679	65	58	0	0	0	65	225	stimuli\Videos_short_600ms_horvertflip\50.single_(long)hard_push_with_thumb_short_horvertflip_short_600ms.mp4	50.single_(long)hard_push_with_thumb_short_horvertflip_short_600ms.mp4	106.80849608822246	107.41680930721122	0.6083132189887692				
102.2060546875	0.2	209318	66	58	0	0	0	66	246	stimuli\Videos_short_600ms_horvertflip\7.repeated_touch_with_hairbrush_short_horvertflip_short_600ms.mp4	7.repeated_touch_with_hairbrush_short_horvertflip_short_600ms.mp4	107.60847743767226	108.21680297306192	0.6083255353896675				
103.005859375	0.2	210956	67	58	0	0	0	67	71	stimuli\Videos_short_600ms\74.fingers_walking_from_top_to_bottom_short_short_600ms.mp4	74.fingers_walking_from_top_to_bottom_short_short_600ms.mp4	108.4084784347142	109.01676643440442	0.6082879996902193				
103.8056640625	0.2	212594	68	58	0	0	0	68	53	stimuli\Videos_short_600ms\58.single_slap_with_pencil_short_short_600ms.mp4	58.single_slap_with_pencil_short_short_600ms.mp4	109.2084627166405	109.81676567196156	0.6083029553210508				
104.60595703125	0.2	214233	69	58	0	0	0	69	90	stimuli\Videos_short_600ms_horflip\1.repeated_touch_with_finger_fast_short_horflip_short_600ms.mp4	1.repeated_touch_with_finger_fast_short_horflip_short_600ms.mp4	110.008397439713	110.61675581884084	0.6083583791278215				
105.40576171875	0.2	215871	70	58	0	0	0	70	305	stimuli\Videos_short_600ms_vertflip\41.injection_with_blunt_syringe_short_vertflip_short_600ms.mp4	41.injection_with_blunt_syringe_short_vertflip_short_600ms.mp4	110.80842218981525	111.41676502681548	0.6083428370002366				
106.20556640625	0.2	217509	71	58	0	0	0	71	43	stimuli\Videos_short_600ms\49.repeated_slap_with_hand_short_short_600ms.mp4	49.repeated_slap_with_hand_short_short_600ms.mp4	111.6084267058286	112.21675312096158	0.6083264151329786				
107.005859375	0.2	219148	72	58	0	0	0	72	291	stimuli\Videos_short_600ms_vertflip\29.single_pinch_with_tweezers_short_vertflip_short_600ms.mp4	29.single_pinch_with_tweezers_short_vertflip_short_600ms.mp4	112.40841919868944	113.01675118552704	0.6083319868375838				
107.8056640625	0.2	220786	73	58	0	0	0	73	282	stimuli\Videos_short_600ms_vertflip\20.single_touch_with_screwdriver_short_vertflip_short_600ms.mp4	20.single_touch_with_screwdriver_short_vertflip_short_600ms.mp4	113.2084105185586	113.81673341472016	0.6083228961615532				
108.60546875	0.2	222424	74	58	0	0	1	74	364	stimuli\Targets_short_600ms\hand-pinch_short_short_600ms.mp4	hand-pinch_short_short_600ms.mp4	114.00839802620976	114.6167323590289	0.6083343328191404				
109.40576171875	0.2	224063	75	58	0	0	0	75	229	stimuli\Videos_short_600ms_horvertflip\54.repeated_touch_with_knife_short_horvertflip_short_600ms.mp4	54.repeated_touch_with_knife_short_horvertflip_short_600ms.mp4	114.80839081231716	115.41671253548702	0.6083217231698654				
110.20556640625	0.2	225701	76	58	0	0	0	76	79	stimuli\Videos_short_600ms\81.single_stroke_top_to_bottom_with_cotton_pad_short_short_600ms.mp4	81.single_stroke_top_to_bottom_with_cotton_pad_short_short_600ms.mp4	115.60837773347156	116.21670121612806	0.6083234826564876				
111.00537109375	0.2	227339	77	58	0	0	0	77	358	stimuli\Videos_short_600ms_vertflip\9.single_touch_with_hammer_short_vertflip_short_600ms.mp4	9.single_touch_with_hammer_short_vertflip_short_600ms.mp4	116.40836436137944	117.01669106975896	0.6083267083795363				
111.8056640625	0.2	228978	78	58	0	0	0	78	12	stimuli\Videos_short_600ms\20.single_touch_with_screwdriver_short_short_600ms.mp4	20.single_touch_with_screwdriver_short_short_600ms.mp4	117.2083553880002	117.81667916390506	0.6083237759048643				
112.60546875	0.2	230616	79	58	0	0	0	79	85	stimuli\Videos_short_600ms\87.single_stroke_top_to_bottom_with_plastic_brush_short_short_600ms.mp4	87.single_stroke_top_to_bottom_with_plastic_brush_short_short_600ms.mp4	118.0083423091546	118.6166687242876	0.6083264151329786				
113.4052734375	0.2	232254	80	58	0	0	0	80	148	stimuli\Videos_short_600ms_horflip\62.touch_top_to_bottom_with_scissors_short_horflip_short_600ms.mp4	62.touch_top_to_bottom_with_scissors_short_horflip_short_600ms.mp4	118.80834066696843	119.41666180364336	0.608321136674931				
114.20556640625	0.2	233893	81	58	0	0	0	81	97	stimuli\Videos_short_600ms_horflip\16.repeated_touch_with_plastic_brush_short_horflip_short_600ms.mp4	16.repeated_touch_with_plastic_brush_short_horflip_short_600ms.mp4	119.60830559454917	120.2166522437692	0.6083466492200387				
115.00537109375	0.2	235531	82	58	0	0	1	82	379	stimuli\Targets_short_600ms_vertflip\chopstick-silver-tap_short_horvertflip_short_600ms.mp4	chopstick-silver-tap_short_horvertflip_short_600ms.mp4	120.4091573030255	121.01664121765862	0.6074839146331215				
115.80517578125	0.2	237169	83	58	0	0	0	83	289	stimuli\Videos_short_600ms_vertflip\27.single_push_with_a_plastic_whisk_short_vertflip_short_600ms.mp4	27.single_push_with_a_plastic_whisk_short_vertflip_short_600ms.mp4	121.2088234112507	121.81663165778446	0.6078082465337502				
116.60546875	0.2	238808	84	58	0	0	0	84	24	stimuli\Videos_short_600ms\31.hand_grabbing_wrist_short_short_600ms.mp4	31.hand_grabbing_wrist_short_short_600ms.mp4	122.00828659210129	122.61662033842548	0.608333746324206				
117.4052734375	0.2	240446	85	58	0	0	0	85	109	stimuli\Videos_short_600ms_horflip\27.single_push_with_a_plastic_whisk_short_horflip_short_600ms.mp4	27.single_push_with_a_plastic_whisk_short_horflip_short_600ms.mp4	122.80828465666671	123.4166101920564	0.6083255353896675				
118.20556640625	0.2	242085	86	58	0	0	0	86	122	stimuli\Videos_short_600ms_horflip\39.single_stab_with_scissors_short_horflip_short_600ms.mp4	39.single_stab_with_scissors_short_horflip_short_600ms.mp4	123.60828301448056	124.2165821575818	0.6082991431012488				
119.013671875	0.2	243740	87	58	0	0	0	87	1	stimuli\Videos_short_600ms\10.single_touch_with_knife_short_short_600ms.mp4	10.single_touch_with_knife_short_short_600ms.mp4	124.4166101920564	125.0249239975401	0.6083138054837036				
119.8134765625	0.2	245378	88	58	0	0	0	88	126	stimuli\Videos_short_600ms_horflip\42.single_slap_with_plastic_whisk_short_horflip_short_600ms.mp4	42.single_slap_with_plastic_whisk_short_horflip_short_600ms.mp4	125.216595353726	125.82491267818114	0.608317324455129				
120.61376953125	0.2	247017	89	58	0	0	0	89	108	stimuli\Videos_short_600ms_horflip\26.single_touch_with_a_blunt_syringe_short_horflip_short_600ms.mp4	26.single_touch_with_a_blunt_syringe_short_horflip_short_600ms.mp4	126.01657904915736	126.6249048777936	0.6083258286362252				
121.41357421875	0.2	248655	90	58	0	0	0	90	182	stimuli\Videos_short_600ms_horvertflip\11.single_touch_with_lighter_short_horvertflip_short_600ms.mp4	11.single_touch_with_lighter_short_horvertflip_short_600ms.mp4	126.81657007577816	127.42489443817794	0.6083243623997987				
122.21337890625	0.2	250293	91	58	0	0	0	91	184	stimuli\Videos_short_600ms_horvertflip\13.single_touch_with_pen_short_horvertflip_short_600ms.mp4	13.single_touch_with_pen_short_horvertflip_short_600ms.mp4	127.61656755384864	128.2248816525807	0.6083140987320803				
123.013671875	0.2	251932	92	58	0	0	0	92	288	stimuli\Videos_short_600ms_vertflip\26.single_touch_with_a_blunt_syringe_short_vertflip_short_600ms.mp4	26.single_touch_with_a_blunt_syringe_short_vertflip_short_600ms.mp4	128.41655682098462	129.02488118338442	0.6083243623997987	3.0	3.0	2.439083518984262	1.0
155.50390625	0.2	318472	93	58	1	0	0	0	2	stimuli\Videos_short_600ms\11.single_touch_with_lighter_short_short_600ms.mp4	11.single_touch_with_lighter_short_short_600ms.mp4	160.9078073374676	161.51613111337065	0.6083237759030453				
156.30419921875	0.2	320111	94	58	1	0	0	1	94	stimuli\Videos_short_600ms_horflip\13.single_touch_with_pen_short_horflip_short_600ms.mp4	13.single_touch_with_pen_short_horflip_short_600ms.mp4	161.70779689785013	162.31611891426837	0.6083220164182421				
157.10400390625	0.2	321749	95	58	1	0	0	2	147	stimuli\Videos_short_600ms_horflip\61.single_hit_with_rolling_pin_short_horflip_short_600ms.mp4	61.single_hit_with_rolling_pin_short_horflip_short_600ms.mp4	162.5077882177211	163.11610876789928	0.6083205501781777				
157.90380859375	0.2	323387	96	58	1	0	0	3	23	stimuli\Videos_short_600ms\30.finger_pulling_back_another_finger_short_short_600ms.mp4	30.finger_pulling_back_another_finger_short_short_600ms.mp4	163.307778071352	163.91610067426518	0.6083226029131765				
158.7041015625	0.2	325026	97	58	1	0	0	4	256	stimuli\Videos_short_600ms_horvertflip\79.long_with_soft_brush_all_over_the_hand_short_horvertflip_short_600ms.mp4	79.long_with_soft_brush_all_over_the_hand_short_horvertflip_short_600ms.mp4	164.10774094619956	164.71609082114446	0.6083498749449063				
159.50390625	0.2	326664	98	58	1	0	0	5	111	stimuli\Videos_short_600ms_horflip\29.single_pinch_with_tweezers_short_horflip_short_600ms.mp4	29.single_pinch_with_tweezers_short_horflip_short_600ms.mp4	164.90773285256364	165.51608184776524	0.6083489952015952				
160.3037109375	0.2	328302	99	58	1	0	0	6	250	stimuli\Videos_short_600ms_horvertflip\73.single_stroke_with_flat_hand_short_horvertflip_short_600ms.mp4	73.single_stroke_with_flat_hand_short_horvertflip_short_600ms.mp4	165.70772065346137	166.31606994191134	0.6083492884499719				
161.10400390625	0.2	329941	100	58	1	0	0	7	129	stimuli\Videos_short_600ms_horflip\45.scratching_with_finger_nails_short_horflip_short_600ms.mp4	45.scratching_with_finger_nails_short_horflip_short_600ms.mp4	166.5077084543591	167.11606067528555	0.6083522209264629				
161.90380859375	0.2	331579	101	58	1	0	0	8	80	stimuli\Videos_short_600ms\82.repeated_touch_with_cotton_bud_short_short_600ms.mp4	82.repeated_touch_with_cotton_bud_short_short_600ms.mp4	167.3077296854899	167.91604994242152	0.60832025693162				
162.7041015625	0.2	333218	102	58	1	0	0	9	253	stimuli\Videos_short_600ms_horvertflip\76.tickle_with_fingers_from_top_to_bottom_short_horvertflip_short_600ms.mp4	76.tickle_with_fingers_from_top_to_bottom_short_horvertflip_short_600ms.mp4	168.10774475841936	168.7160447812621	0.6083000228427409				
163.50390625	0.2	334856	103	58	1	0	0	10	166	stimuli\Videos_short_600ms_horflip\79.long_with_soft_brush_all_over_the_hand_short_horflip_short_600ms.mp4	79.long_with_soft_brush_all_over_the_hand_short_horflip_short_600ms.mp4	168.9078263985648	169.51602671720684	0.6082003186420479				
164.3037109375	0.2	336494	104	58	1	0	0	11	258	stimuli\Videos_short_600ms_horvertflip\80.stroke_with_sharp_stick_all_over_the_hand_short_horvertflip_short_600ms.mp4	80.stroke_with_sharp_stick_all_over_the_hand_short_horvertflip_short_600ms.mp4	169.70766786888453	170.31602067630593	0.6083528074213973				
165.10400390625	0.2	338133	105	58	1	0	0	12	11	stimuli\Videos_short_600ms\2.single_touch_with_finger_short_short_600ms.mp4	2.single_touch_with_finger_short_short_600ms.mp4	170.5076932054817	171.11598472414337	0.6082915186616447				
165.90380859375	0.2	339771	106	58	1	0	1	13	380	stimuli\Targets_short_600ms_vertflip\chopstickwood-tap_short_horvertflip_short_600ms.mp4	chopstickwood-tap_short_horvertflip_short_600ms.mp4	171.3076745549315	171.91600009032118	0.6083255353896675				
166.70361328125	0.2	341409	107	58	1	0	0	14	325	stimuli\Videos_short_600ms_vertflip\6.single_touch_with_flat_hand_short_vertflip_short_600ms.mp4	6.single_touch_with_flat_hand_short_vertflip_short_600ms.mp4	172.10766294232417	172.71599111694195	0.6083281746177818				
167.50390625	0.2	343048	108	58	1	0	0	15	92	stimuli\Videos_short_600ms_horflip\11.single_touch_with_lighter_short_horflip_short_600ms.mp4	11.single_touch_with_lighter_short_horflip_short_600ms.mp4	172.90765308920345	173.5159815570696	0.6083284678661585				
168.3037109375	0.2	344686	109	58	1	0	0	16	112	stimuli\Videos_short_600ms_horflip\3.single_push_with_finger_short_horflip_short_600ms.mp4	3.single_push_with_finger_short_horflip_short_600ms.mp4	173.7076449955675	174.31598079462492	0.6083357990573859				
169.103515625	0.2	346324	110	58	1	0	0	17	87	stimuli\Videos_short_600ms\89.single_touch_with_plastic_brush_short_short_600ms.mp4	89.single_touch_with_plastic_brush_short_short_600ms.mp4	174.50763895466662	175.11596009134155	0.608321136674931				
169.90380859375	0.2	347963	111	58	1	0	0	18	273	stimuli\Videos_short_600ms_vertflip\12.repeated_touch_with_nail_file_short_vertflip_short_600ms.mp4	12.repeated_touch_with_nail_file_short_vertflip_short_600ms.mp4	175.3076261690694	175.91594789223927	0.6083217231698654				
170.70361328125	0.2	349601	112	58	1	0	0	19	319	stimuli\Videos_short_600ms_vertflip\54.repeated_touch_with_knife_short_vertflip_short_600ms.mp4	54.repeated_touch_with_knife_short_vertflip_short_600ms.mp4	176.1076125037289	176.7159365728803	0.608324069151422				
171.50341796875	0.2	351239	113	58	1	0	0	20	219	stimuli\Videos_short_600ms_horvertflip\45.scratching_with_finger_nails_short_horvertflip_short_600ms.mp4	45.scratching_with_finger_nails_short_horvertflip_short_600ms.mp4	176.90760528983628	177.5159284792444	0.6083231894081109				
172.3037109375	0.2	352878	114	58	1	0	0	21	89	stimuli\Videos_short_600ms\90.repeated_touch_with_sponge_short_short_600ms.mp4	90.repeated_touch_with_sponge_short_short_600ms.mp4	177.70759338398057	178.3159192126186	0.6083258286380442				
173.103515625	0.2	354516	115	58	1	0	0	22	208	stimuli\Videos_short_600ms_horvertflip\35.single_punch_with_hand_short_horvertflip_short_600ms.mp4	35.single_punch_with_hand_short_horvertflip_short_600ms.mp4	178.50758910256627	179.1159093594979	0.60832025693162				
173.9033203125	0.2	356154	116	58	1	0	0	23	143	stimuli\Videos_short_600ms_horflip\58.single_slap_with_pencil_short_horflip_short_600ms.mp4	58.single_slap_with_pencil_short_horflip_short_600ms.mp4	179.30758042243542	179.91590067936704	0.60832025693162				
174.70361328125	0.2	357793	117	58	1	0	0	24	235	stimuli\Videos_short_600ms_horvertflip\6.single_touch_with_flat_hand_short_horvertflip_short_600ms.mp4	6.single_touch_with_flat_hand_short_horvertflip_short_600ms.mp4	180.10758611144047	180.71588848026477	0.6083023688242974				
175.50341796875	0.2	359431	118	58	1	0	0	25	322	stimuli\Videos_short_600ms_vertflip\57.single_touch_with_nail_file_short_vertflip_short_600ms.mp4	57.single_touch_with_nail_file_short_vertflip_short_600ms.mp4	180.907529925189	181.51587862714405	0.6083487019550375				
176.30322265625	0.2	361069	119	58	1	0	0	26	170	stimuli\Videos_short_600ms_horflip\82.repeated_touch_with_cotton_bud_short_horflip_short_600ms.mp4	82.repeated_touch_with_cotton_bud_short_horflip_short_600ms.mp4	181.7075171395918	182.31586760103164	0.6083504614398407				
177.103515625	0.2	362708	120	58	1	0	0	27	9	stimuli\Videos_short_600ms\18.single_stroke_from_top_to_bottom_with_rolling_pin_short_short_600ms.mp4	18.single_stroke_from_top_to_bottom_with_rolling_pin_short_short_600ms.mp4	182.50753778422768	183.11586009389248	0.6083223096647998				
177.9033203125	0.2	364346	121	58	1	0	0	28	15	stimuli\Videos_short_600ms\23.single_push_with_a_spoon_short_short_600ms.mp4	23.single_push_with_a_spoon_short_short_600ms.mp4	183.30753086358163	183.91583000668288	0.6082991431012488				
178.703125	0.2	365984	122	58	1	0	0	29	204	stimuli\Videos_short_600ms_horvertflip\31.hand_grabbing_wrist_short_horvertflip_short_600ms.mp4	31.hand_grabbing_wrist_short_horvertflip_short_600ms.mp4	184.1075163184996	184.71582015356216	0.6083038350625429				
179.50341796875	0.2	367623	123	58	1	0	0	30	35	stimuli\Videos_short_600ms\41.injection_with_blunt_syringe_short_short_600ms.mp4	41.injection_with_blunt_syringe_short_short_600ms.mp4	184.9075052923872	185.51582818854877	0.6083228961615532				
180.30322265625	0.2	369261	124	58	1	0	0	31	338	stimuli\Videos_short_600ms_vertflip\71.single_stroke_with_finger_top_to_bottom_short_vertflip_short_600ms.mp4	71.single_stroke_with_finger_top_to_bottom_short_vertflip_short_600ms.mp4	185.7074945595232	186.3158186286746	0.608324069151422				
181.10302734375	0.2	370899	125	58	1	0	0	32	330	stimuli\Videos_short_600ms_vertflip\64.repeated_touch_with_screwdriver_short_vertflip_short_600ms.mp4	64.repeated_touch_with_screwdriver_short_vertflip_short_600ms.mp4	186.5074835334108	187.11578472924705	0.6083011958362476				
181.9033203125	0.2	372538	126	58	1	0	0	33	187	stimuli\Videos_short_600ms_horvertflip\16.repeated_touch_with_plastic_brush_short_horvertflip_short_600ms.mp4	16.repeated_touch_with_plastic_brush_short_horvertflip_short_600ms.mp4	187.3074733870435	187.9158018549097	0.6083284678661585				
182.703125	0.2	374176	127	58	1	0	0	34	316	stimuli\Videos_short_600ms_vertflip\51.repeated_touch_with_hammer_short_vertflip_short_600ms.mp4	51.repeated_touch_with_hammer_short_vertflip_short_600ms.mp4	188.10746382716937	188.715795227512	0.6083314003426494				
183.50341796875	0.2	375815	128	58	1	0	0	35	284	stimuli\Videos_short_600ms_vertflip\22.single_touch_with_metal_chopstick_short_vertflip_short_600ms.mp4	22.single_touch_with_metal_chopstick_short_vertflip_short_600ms.mp4	188.90745397404865	189.51579035960097	0.6083363855523203				
184.30322265625	0.2	377453	129	58	1	0	1	36	376	stimuli\Targets_short_600ms_horvertflip\hand-pinch_short_vertflip_short_600ms.mp4	hand-pinch_short_vertflip_short_600ms.mp4	189.7074411884514	190.31577053605903	0.6083293476076506				
185.10302734375	0.2	379091	130	58	1	0	0	37	326	stimuli\Videos_short_600ms_vertflip\60.single_push_with_tip_of_pencil_short_vertflip_short_600ms.mp4	60.single_push_with_tip_of_pencil_short_vertflip_short_600ms.mp4	190.5074322150722	191.1157592167001	0.608327001627913				
185.9033203125	0.2	380730	131	58	1	0	0	38	317	stimuli\Videos_short_600ms_vertflip\52.touch_top_to_bottom_with_hammer_short_vertflip_short_600ms.mp4	52.touch_top_to_bottom_with_hammer_short_vertflip_short_600ms.mp4	191.3074250011814	191.91574877708445	0.6083237759030453				
186.703125	0.2	382368	132	58	1	0	0	39	222	stimuli\Videos_short_600ms_horvertflip\48.single_slap_with_hand_short_horvertflip_short_600ms.mp4	48.single_slap_with_hand_short_horvertflip_short_600ms.mp4	192.1074110425925	192.7157380442204	0.608327001627913				
187.5029296875	0.2	384006	133	58	1	0	0	40	86	stimuli\Videos_short_600ms\88.repeated_stroke_with_plastic_brush_short_short_600ms.mp4	88.repeated_stroke_with_plastic_brush_short_short_600ms.mp4	192.9074020692151	193.51572672486145	0.6083246556463564				
188.30322265625	0.2	385645	134	58	1	0	0	41	121	stimuli\Videos_short_600ms_horflip\38.double_slap_with_pencil_short_horflip_short_600ms.mp4	38.double_slap_with_pencil_short_horflip_short_600ms.mp4	193.7073936823308	194.3157209772071	0.6083272948762897				
189.10302734375	0.2	387283	135	58	1	0	0	42	105	stimuli\Videos_short_600ms_horflip\23.single_push_with_a_spoon_short_horflip_short_600ms.mp4	23.single_push_with_a_spoon_short_horflip_short_600ms.mp4	194.5073847089534	195.11570965784813	0.6083249488947331				
189.90283203125	0.2	388921	136	58	1	0	0	43	93	stimuli\Videos_short_600ms_horflip\12.repeated_touch_with_nail_file_short_horflip_short_600ms.mp4	12.repeated_touch_with_nail_file_short_horflip_short_600ms.mp4	195.30738951821513	195.9156980452408	0.6083085270256561				
190.703125	0.2	390560	137	58	1	0	0	44	275	stimuli\Videos_short_600ms_vertflip\14.repeated_touch_with_pencil_short_vertflip_short_600ms.mp4	14.repeated_touch_with_pencil_short_vertflip_short_600ms.mp4	196.10735767152073	196.7156876056251	0.608329934104404				
191.5029296875	0.2	392198	138	58	1	0	0	45	265	stimuli\Videos_short_600ms_horvertflip\87.single_stroke_top_to_bottom_with_plastic_brush_short_horvertflip_short_600ms.mp4	87.single_stroke_top_to_bottom_with_plastic_brush_short_horvertflip_short_600ms.mp4	196.90734928463644	197.51568127147584	0.6083319868394028				
192.302734375	0.2	393836	139	58	1	0	0	46	196	stimuli\Videos_short_600ms_horvertflip\24.single_stroke_top_to_bottom_with_a_spoon_short_horvertflip_short_600ms.mp4	24.single_stroke_top_to_bottom_with_a_spoon_short_horvertflip_short_600ms.mp4	197.7073423639922	198.31566760613532	0.6083252421431098				
193.10302734375	0.2	395475	140	58	1	0	0	47	102	stimuli\Videos_short_600ms_horflip\20.single_touch_with_screwdriver_short_horflip_short_600ms.mp4	20.single_touch_with_screwdriver_short_horflip_short_600ms.mp4	198.5073372028346	199.11563605268748	0.6082988498528721				
193.90283203125	0.2	397113	141	58	1	0	0	48	179	stimuli\Videos_short_600ms_horflip\90.repeated_touch_with_sponge_short_horflip_short_600ms.mp4	90.repeated_touch_with_sponge_short_horflip_short_600ms.mp4	199.30734846354423	199.91562883879487	0.6082803752506152				
194.70263671875	0.2	398751	142	58	1	0	0	49	163	stimuli\Videos_short_600ms_horflip\76.tickle_with_fingers_from_top_to_bottom_short_horflip_short_600ms.mp4	76.tickle_with_fingers_from_top_to_bottom_short_horflip_short_600ms.mp4	200.10731075189688	200.71561136123455	0.6083006093376753				
195.5029296875	0.2	400390	143	58	1	0	0	50	110	stimuli\Videos_short_600ms_horflip\28.single_injection_with_sharp_needle_short_horflip_short_600ms.mp4	28.single_injection_with_sharp_needle_short_horflip_short_600ms.mp4	200.90730265826096	201.5156217422027	0.6083190839417512				
196.302734375	0.2	402028	144	58	1	0	0	51	176	stimuli\Videos_short_600ms_horflip\88.repeated_stroke_with_plastic_brush_short_horflip_short_600ms.mp4	88.repeated_stroke_with_plastic_brush_short_horflip_short_600ms.mp4	201.7072910456536	202.31561482155848	0.6083237759048643				
197.1025390625	0.2	403666	145	58	1	0	0	52	84	stimuli\Videos_short_600ms\86.touch_top_to_bottom_with_hair_brush_short_short_600ms.mp4	86.touch_top_to_bottom_with_hair_brush_short_short_600ms.mp4	202.50728295201952	203.11560907390412	0.6083261218846019				
197.90283203125	0.2	405305	146	58	1	0	0	53	16	stimuli\Videos_short_600ms\24.single_stroke_top_to_bottom_with_a_spoon_short_short_600ms.mp4	24.single_stroke_top_to_bottom_with_a_spoon_short_short_600ms.mp4	203.30727045966887	203.9155992207834	0.6083287611145352				
198.70263671875	0.2	406943	147	58	1	0	0	54	283	stimuli\Videos_short_600ms_vertflip\21.repeated_touch_with_metal_chopstick_short_vertflip_short_600ms.mp4	21.repeated_touch_with_metal_chopstick_short_vertflip_short_600ms.mp4	204.10726060654815	204.71559552586223	0.6083349193140748				
199.50244140625	0.2	408581	148	58	1	0	0	55	252	stimuli\Videos_short_600ms_horvertflip\75.(long)stroke_with_fingers_all_over_the_hand_short_horvertflip_short_600ms.mp4	75.(long)stroke_with_fingers_all_over_the_hand_short_horvertflip_short_600ms.mp4	204.9076439985256	205.5155780483019	0.6079340497763042				
200.302734375	0.2	410220	149	58	1	0	0	56	51	stimuli\Videos_short_600ms\56.repeated_touch_with_nail_file_short_short_600ms.mp4	56.repeated_touch_with_nail_file_short_short_600ms.mp4	205.70721597425472	206.31556731543787	0.6083513411831518				
201.1025390625	0.2	411858	150	58	1	0	0	57	18	stimuli\Videos_short_600ms\26.single_touch_with_a_blunt_syringe_short_short_600ms.mp4	26.single_touch_with_a_blunt_syringe_short_short_600ms.mp4	206.5072298741943	207.1155551163356	0.6083252421412908				
201.90234375	0.2	413496	151	58	1	0	0	58	207	stimuli\Videos_short_600ms_horvertflip\34.repeated_punch_with_hand_short_horvertflip_short_600ms.mp4	34.repeated_punch_with_hand_short_horvertflip_short_600ms.mp4	207.30722207380677	207.91554672945313	0.6083246556463564				
202.70263671875	0.2	415135	152	58	1	0	0	59	164	stimuli\Videos_short_600ms_horflip\77.tapping_with_all_fingers_short_horflip_short_600ms.mp4	77.tapping_with_all_fingers_short_horflip_short_600ms.mp4	208.10721398017083	208.71553658308403	0.6083226029131765				
203.50244140625	0.2	416773	153	58	1	0	0	60	55	stimuli\Videos_short_600ms\6.single_touch_with_flat_hand_short_short_600ms.mp4	6.single_touch_with_flat_hand_short_short_600ms.mp4	208.90719855534553	209.51552731645825	0.6083287611127162				
204.302734375	0.2	418412	154	58	1	0	0	61	321	stimuli\Videos_short_600ms_vertflip\56.repeated_touch_with_nail_file_short_vertflip_short_600ms.mp4	56.repeated_touch_with_nail_file_short_vertflip_short_600ms.mp4	209.70719486042435	210.31551658359425	0.6083217231698654				
205.1025390625	0.2	420050	155	58	1	0	0	62	153	stimuli\Videos_short_600ms_horflip\67.single_touch_with_sponge_short_horflip_short_600ms.mp4	67.single_touch_with_sponge_short_horflip_short_600ms.mp4	210.50716125424333	211.11550731696843	0.6083460627251043				
205.90234375	0.2	421688	156	58	1	0	0	63	60	stimuli\Videos_short_600ms\64.repeated_touch_with_screwdriver_short_short_600ms.mp4	64.repeated_touch_with_screwdriver_short_short_600ms.mp4	211.30717398119123	211.91549629085785	0.6083223096666188				
206.70263671875	0.2	423327	157	58	1	0	0	64	228	stimuli\Videos_short_600ms_horvertflip\53.touch_top_to_bottom_with_knife_short_horvertflip_short_600ms.mp4	53.touch_top_to_bottom_with_knife_short_horvertflip_short_600ms.mp4	212.1071594361092	212.71548614448875	0.6083267083795363				
207.50244140625	0.2	424965	158	58	1	0	0	65	314	stimuli\Videos_short_600ms_vertflip\5.repeated_tap_with_finger_moving_from_top_to_bottom_short_vertflip_short_600ms.mp4	5.repeated_tap_with_finger_moving_from_top_to_bottom_short_vertflip_short_600ms.mp4	212.9071487032452	213.51547687786297	0.6083281746177818				
208.30224609375	0.2	426603	159	58	1	0	0	66	4	stimuli\Videos_short_600ms\13.single_touch_with_pen_short_short_600ms.mp4	13.single_touch_with_pen_short_short_600ms.mp4	213.70719134145293	214.31546614499896	0.6082748035460099				
209.1025390625	0.2	428242	160	58	1	0	0	67	185	stimuli\Videos_short_600ms_horvertflip\14.repeated_touch_with_pencil_short_horvertflip_short_600ms.mp4	14.repeated_touch_with_pencil_short_horvertflip_short_600ms.mp4	214.5071331024701	215.1154375240276	0.6083044215574773				
209.90234375	0.2	429880	161	58	1	0	0	68	31	stimuli\Videos_short_600ms\38.double_slap_with_pencil_short_short_600ms.mp4	38.double_slap_with_pencil_short_short_600ms.mp4	215.30713028729224	215.91541945997233	0.6082891726800881				
210.7021484375	0.2	431518	162	58	1	0	0	69	309	stimuli\Videos_short_600ms_vertflip\45.scratching_with_finger_nails_short_vertflip_short_600ms.mp4	45.scratching_with_finger_nails_short_vertflip_short_600ms.mp4	216.10711368947523	216.7154298409405	0.6083161514652602				
211.50244140625	0.2	433157	163	58	1	0	0	70	354	stimuli\Videos_short_600ms_vertflip\86.touch_top_to_bottom_with_hair_brush_short_vertflip_short_600ms.mp4	86.touch_top_to_bottom_with_hair_brush_short_vertflip_short_600ms.mp4	216.9071000241347	217.51542174730457	0.6083217231698654				
212.30224609375	0.2	434795	164	58	1	0	0	71	63	stimuli\Videos_short_600ms\67.single_touch_with_sponge_short_short_600ms.mp4	67.single_touch_with_sponge_short_short_600ms.mp4	217.7070995549384	218.3154159996502	0.6083164447118179				
213.10205078125	0.2	436433	165	58	1	0	0	72	159	stimuli\Videos_short_600ms_horflip\72.(short)stroke_with_finger_all_over_the_hand_short_horflip_short_600ms.mp4	72.(short)stroke_with_finger_all_over_the_hand_short_horflip_short_600ms.mp4	218.50708237062645	219.1154061465295	0.6083237759030453				
213.90234375	0.2	438072	166	58	1	0	0	73	150	stimuli\Videos_short_600ms_horflip\64.repeated_touch_with_screwdriver_short_horflip_short_600ms.mp4	64.repeated_touch_with_screwdriver_short_horflip_short_600ms.mp4	219.3070689985325	219.9154036246	0.6083346260675171				
214.7021484375	0.2	439710	167	58	1	0	0	74	311	stimuli\Videos_short_600ms_vertflip\47.(long)scratching_with_finger_nails_short_vertflip_short_600ms.mp4	47.(long)scratching_with_finger_nails_short_vertflip_short_600ms.mp4	220.10705855891683	220.71538585379312	0.6083272948762897				
215.501953125	0.2	441348	168	58	1	0	0	75	346	stimuli\Videos_short_600ms_vertflip\79.long_with_soft_brush_all_over_the_hand_short_vertflip_short_600ms.mp4	79.long_with_soft_brush_all_over_the_hand_short_vertflip_short_600ms.mp4	220.90705046528092	221.51538802382493	0.6083375585440081				
216.30224609375	0.2	442987	169	58	1	0	0	76	308	stimuli\Videos_short_600ms_vertflip\44.pushing_top_to_bottom_with_finger_short_vertflip_short_600ms.mp4	44.pushing_top_to_bottom_with_finger_short_vertflip_short_600ms.mp4	221.7070397324169	222.31536350832175	0.6083237759048643				
217.10205078125	0.2	444625	170	58	1	0	0	77	236	stimuli\Videos_short_600ms_horvertflip\60.single_push_with_tip_of_pencil_short_horvertflip_short_600ms.mp4	60.single_push_with_tip_of_pencil_short_horvertflip_short_600ms.mp4	222.50703075903948	223.1153557079342	0.6083249488947331				
217.90185546875	0.2	446263	171	58	1	0	0	78	259	stimuli\Videos_short_600ms_horvertflip\81.single_stroke_top_to_bottom_with_cotton_pad_short_horvertflip_short_600ms.mp4	81.single_stroke_top_to_bottom_with_cotton_pad_short_horvertflip_short_600ms.mp4	223.30701914643217	223.91534644130843	0.6083272948762897				
218.7021484375	0.2	447902	172	58	1	0	0	79	128	stimuli\Videos_short_600ms_horflip\44.pushing_top_to_bottom_with_finger_short_horflip_short_600ms.mp4	44.pushing_top_to_bottom_with_finger_short_horflip_short_600ms.mp4	224.10700987980636	224.715335415196	0.6083255353896675				
219.501953125	0.2	449540	173	58	1	0	0	80	132	stimuli\Videos_short_600ms_horflip\48.single_slap_with_hand_short_horflip_short_600ms.mp4	48.single_slap_with_hand_short_horflip_short_600ms.mp4	224.9069956279709	225.51532702831355	0.6083314003426494				
220.3017578125	0.2	451178	174	58	1	0	0	81	300	stimuli\Videos_short_600ms_vertflip\37.single_stab_with_nail_file_short_vertflip_short_600ms.mp4	37.single_stab_with_nail_file_short_vertflip_short_600ms.mp4	225.70699427903128	226.3153145359629	0.60832025693162				
221.10205078125	0.2	452817	175	58	1	0	0	82	266	stimuli\Videos_short_600ms_horvertflip\88.repeated_stroke_with_plastic_brush_short_horvertflip_short_600ms.mp4	88.repeated_stroke_with_plastic_brush_short_horvertflip_short_600ms.mp4	226.50698911787367	227.115302630109	0.6083135122353269				
221.90185546875	0.2	454455	176	58	1	0	0	83	101	stimuli\Videos_short_600ms_horflip\2.single_touch_with_finger_short_horflip_short_600ms.mp4	2.single_touch_with_finger_short_horflip_short_600ms.mp4	227.3069710538184	227.9152945364749	0.6083234826564876				
222.70166015625	0.2	456093	177	58	1	0	0	84	294	stimuli\Videos_short_600ms_vertflip\31.hand_grabbing_wrist_short_vertflip_short_600ms.mp4	31.hand_grabbing_wrist_short_vertflip_short_600ms.mp4	228.10694448558024	228.71528468335237	0.6083401977721223				
223.501953125	0.2	457732	178	58	1	0	0	85	181	stimuli\Videos_short_600ms_horvertflip\10.single_touch_with_knife_short_horvertflip_short_600ms.mp4	10.single_touch_with_knife_short_horvertflip_short_600ms.mp4	228.90694870834704	229.51527277749847	0.608324069151422				
224.3017578125	0.2	459370	179	58	1	0	0	86	0	stimuli\Videos_short_600ms\1.repeated_touch_with_finger_fast_short_short_600ms.mp4	1.repeated_touch_with_finger_fast_short_short_600ms.mp4	229.70694530667424	230.31526087164457	0.6083155649703258				
225.10205078125	0.2	461009	180	58	1	0	0	87	286	stimuli\Videos_short_600ms_vertflip\24.single_stroke_top_to_bottom_with_a_spoon_short_vertflip_short_600ms.mp4	24.single_stroke_top_to_bottom_with_a_spoon_short_vertflip_short_600ms.mp4	230.50693779953508	231.11526157543813	0.6083237759030453				
225.90185546875	0.2	462647	181	58	1	0	0	88	355	stimuli\Videos_short_600ms_vertflip\87.single_stroke_top_to_bottom_with_plastic_brush_short_vertflip_short_600ms.mp4	87.single_stroke_top_to_bottom_with_plastic_brush_short_vertflip_short_600ms.mp4	231.3069188557365	231.9152470303543	0.6083281746177818				
226.70166015625	0.2	464285	182	58	1	0	0	89	30	stimuli\Videos_short_600ms\37.single_stab_with_nail_file_short_short_600ms.mp4	37.single_stab_with_nail_file_short_short_600ms.mp4	232.10690753637755	232.7152090254585	0.6083014890809864				
227.501953125	0.2	465924	183	58	1	0	0	90	221	stimuli\Videos_short_600ms_horvertflip\47.(long)scratching_with_finger_nails_short_horvertflip_short_600ms.mp4	47.(long)scratching_with_finger_nails_short_horvertflip_short_600ms.mp4	232.9068704112251	233.51522644436957	0.608356033144446				
228.3017578125	0.2	467562	184	58	1	0	0	91	104	stimuli\Videos_short_600ms_horflip\22.single_touch_with_metal_chopstick_short_horflip_short_600ms.mp4	22.single_touch_with_metal_chopstick_short_horflip_short_600ms.mp4	233.70689017611585	234.31521571150552	0.6083255353896675	2.0	2.0	2.204298893253508	1.0
261.87548828125	0.2	536321	185	58	2	0	0	0	192	stimuli\Videos_short_600ms_horvertflip\20.single_touch_with_screwdriver_short_horvertflip_short_600ms.mp4	20.single_touch_with_screwdriver_short_horvertflip_short_600ms.mp4	267.28146642592947	267.88978726935784	0.6083208434283733				
262.67578125	0.2	537960	186	58	2	0	0	1	343	stimuli\Videos_short_600ms_vertflip\76.tickle_with_fingers_from_top_to_bottom_short_vertflip_short_600ms.mp4	76.tickle_with_fingers_from_top_to_bottom_short_vertflip_short_600ms.mp4	268.08145364033226	268.68978005546523	0.6083264151329786				
263.4755859375	0.2	539598	187	58	2	0	0	2	100	stimuli\Videos_short_600ms_horflip\19.single_touch_with_rolling_pin_short_horflip_short_600ms.mp4	19.single_touch_with_rolling_pin_short_horflip_short_600ms.mp4	268.8816332251936	269.489773134821	0.6081399096274254				
264.275390625	0.2	541236	188	58	2	0	0	3	116	stimuli\Videos_short_600ms_horflip\33.scratch_top_to_bottom_with_scissors_short_horflip_short_600ms.mp4	33.scratch_top_to_bottom_with_scissors_short_horflip_short_600ms.mp4	269.68143657331893	270.28975595050906	0.6083193771901279				
265.07568359375	0.2	542875	189	58	2	0	0	4	115	stimuli\Videos_short_600ms_horflip\32.single_(long)pinch_with_fingers_short_horflip_short_600ms.mp4	32.single_(long)pinch_with_fingers_short_horflip_short_600ms.mp4	270.4814258404549	271.08974521764503	0.6083193771901279				
265.87548828125	0.2	544513	190	58	2	0	0	5	96	stimuli\Videos_short_600ms_horflip\15.single_stroke_top_to_bottom_with_a_plastic_whisk_short_horflip_short_600ms.mp4	15.single_stroke_top_to_bottom_with_a_plastic_whisk_short_horflip_short_600ms.mp4	271.2814104156296	271.8897380037524	0.6083275881228474				
266.67529296875	0.2	546151	191	58	2	0	0	6	38	stimuli\Videos_short_600ms\44.pushing_top_to_bottom_with_finger_short_short_600ms.mp4	44.pushing_top_to_bottom_with_finger_short_short_600ms.mp4	272.0813970435356	272.68972697764	0.608329934104404				
267.4755859375	0.2	547790	192	58	2	0	0	7	263	stimuli\Videos_short_600ms_horvertflip\85.touch_top_to_bottom_with_fabric_short_horvertflip_short_600ms.mp4	85.touch_top_to_bottom_with_fabric_short_horvertflip_short_600ms.mp4	272.88136871581264	273.4897174177677	0.6083487019550375				
268.275390625	0.2	549428	193	58	2	0	0	8	201	stimuli\Videos_short_600ms_horvertflip\29.single_pinch_with_tweezers_short_horvertflip_short_600ms.mp4	29.single_pinch_with_tweezers_short_horvertflip_short_600ms.mp4	273.68135680995874	274.2897172418179	0.6083604318591824				
269.0751953125	0.2	551066	194	58	2	0	0	9	70	stimuli\Videos_short_600ms\73.single_stroke_with_flat_hand_short_short_600ms.mp4	73.single_stroke_with_flat_hand_short_short_600ms.mp4	274.48137334912644	275.08969565879124	0.6083223096647998				
269.87548828125	0.2	552705	195	58	2	0	0	10	46	stimuli\Videos_short_600ms\51.repeated_touch_with_hammer_short_short_600ms.mp4	51.repeated_touch_with_hammer_short_short_600ms.mp4	275.28136408250066	275.88968844489864	0.6083243623979797				
270.67529296875	0.2	554343	196	58	2	0	0	11	241	stimuli\Videos_short_600ms_horvertflip\65.stroke_top_to_bottom_with_stanley_knife_short_horvertflip_short_600ms.mp4	65.stroke_top_to_bottom_with_stanley_knife_short_horvertflip_short_600ms.mp4	276.08134924416845	276.68967624579636	0.608327001627913				
271.47509765625	0.2	555981	197	58	2	0	0	12	152	stimuli\Videos_short_600ms_horflip\66.stroke_top_to_bottom_with_sponge_short_horflip_short_600ms.mp4	66.stroke_top_to_bottom_with_sponge_short_horflip_short_600ms.mp4	276.88133997754267	277.48966258045584	0.6083226029131765				
272.275390625	0.2	557620	198	58	2	0	0	13	193	stimuli\Videos_short_600ms_horvertflip\21.repeated_touch_with_metal_chopstick_short_horvertflip_short_600ms.mp4	21.repeated_touch_with_metal_chopstick_short_horvertflip_short_600ms.mp4	277.6813327636519	278.28965243408857	0.6083196704366856				
273.0751953125	0.2	559258	199	58	2	0	0	14	173	stimuli\Videos_short_600ms_horflip\85.touch_top_to_bottom_with_fabric_short_horflip_short_600ms.mp4	85.touch_top_to_bottom_with_fabric_short_horflip_short_600ms.mp4	278.48132379027265	279.08964903241576	0.6083252421431098				
273.875	0.2	560896	200	58	2	0	0	15	48	stimuli\Videos_short_600ms\53.touch_top_to_bottom_with_knife_short_short_600ms.mp4	53.touch_top_to_bottom_with_knife_short_short_600ms.mp4	279.2813121776653	279.8896394725416	0.6083272948762897				
274.67529296875	0.2	562535	201	58	2	0	0	16	26	stimuli\Videos_short_600ms\33.scratch_top_to_bottom_with_scissors_short_short_600ms.mp4	33.scratch_top_to_bottom_with_scissors_short_short_600ms.mp4	280.0812985123248	280.6896325518974	0.6083340395725827				
275.47509765625	0.2	564173	202	58	2	0	0	17	41	stimuli\Videos_short_600ms\47.(long)scratching_with_finger_nails_short_short_600ms.mp4	47.(long)scratching_with_finger_nails_short_short_600ms.mp4	280.88128895245245	281.4896306164628	0.6083416640103678				
276.27490234375	0.2	565811	203	58	2	0	0	18	161	stimuli\Videos_short_600ms_horflip\74.fingers_walking_from_top_to_bottom_short_horflip_short_600ms.mp4	74.fingers_walking_from_top_to_bottom_short_horflip_short_600ms.mp4	281.68127997907504	282.28960404822465	0.608324069149603				
277.0751953125	0.2	567450	204	58	2	0	0	19	312	stimuli\Videos_short_600ms_vertflip\48.single_slap_with_hand_short_vertflip_short_600ms.mp4	48.single_slap_with_hand_short_vertflip_short_600ms.mp4	282.48127071244926	283.0895941951039	0.6083234826546686				
277.875	0.2	569088	205	58	2	0	1	20	365	stimuli\Targets_short_600ms\hand-stroke_short_short_600ms.mp4	hand-stroke_short_short_600ms.mp4	283.2812602728318	283.8895966583841	0.6083363855523203				
278.6748046875	0.2	570726	206	58	2	0	0	21	287	stimuli\Videos_short_600ms_vertflip\25.single_touch_with_stanley_knife_short_vertflip_short_600ms.mp4	25.single_touch_with_stanley_knife_short_vertflip_short_600ms.mp4	284.0812454345014	284.6895750753574	0.6083296408560273				
279.47509765625	0.2	572365	207	58	2	0	0	22	212	stimuli\Videos_short_600ms_horvertflip\39.single_stab_with_scissors_short_horvertflip_short_600ms.mp4	39.single_stab_with_scissors_short_horvertflip_short_600ms.mp4	284.88124232607515	285.4895617032653	0.6083193771901279				
280.27490234375	0.2	574003	208	58	2	0	0	23	245	stimuli\Videos_short_600ms_horvertflip\69.stroke_with_soft_sock_short_horvertflip_short_600ms.mp4	69.stroke_with_soft_sock_short_horvertflip_short_600ms.mp4	285.6812260215065	286.2895544893727	0.6083284678661585				
281.0751953125	0.2	575642	209	58	2	0	0	24	334	stimuli\Videos_short_600ms_vertflip\68.stroke_top_to_bottom_with_shawl_short_vertflip_short_600ms.mp4	68.stroke_top_to_bottom_with_shawl_short_vertflip_short_600ms.mp4	286.48122789829176	287.0895431700137	0.6083152717219491				
281.875	0.2	577280	210	58	2	0	0	25	186	stimuli\Videos_short_600ms_horvertflip\15.single_stroke_top_to_bottom_with_a_plastic_whisk_short_horvertflip_short_600ms.mp4	15.single_stroke_top_to_bottom_with_a_plastic_whisk_short_horvertflip_short_600ms.mp4	287.2812057287683	287.88953566287273	0.608329934104404				
282.6748046875	0.2	578918	211	58	2	0	1	26	378	stimuli\Targets_short_600ms_vertflip\brush-stroke_short_horvertflip_short_600ms.mp4	brush-stroke_short_horvertflip_short_600ms.mp4	288.08120496632546	288.68952258402896	0.6083176177035057				
283.47509765625	0.2	580557	212	58	2	0	0	27	251	stimuli\Videos_short_600ms_horvertflip\74.fingers_walking_from_top_to_bottom_short_horvertflip_short_600ms.mp4	74.fingers_walking_from_top_to_bottom_short_horvertflip_short_600ms.mp4	288.8811830900504	289.48952035534603	0.6083372652956314				
284.27490234375	0.2	582195	213	58	2	0	0	28	167	stimuli\Videos_short_600ms_horflip\8.single_touch_with_hairbrush_short_horflip_short_600ms.mp4	8.single_touch_with_hairbrush_short_horflip_short_600ms.mp4	289.68117646265273	290.28950903598707	0.6083325733343372				
285.07470703125	0.2	583833	214	58	2	0	0	29	131	stimuli\Videos_short_600ms_horflip\47.(long)scratching_with_finger_nails_short_horflip_short_600ms.mp4	47.(long)scratching_with_finger_nails_short_horflip_short_600ms.mp4	290.48117276773337	291.08946985810144	0.6082970903680689				
285.875	0.2	585472	215	58	2	0	0	30	120	stimuli\Videos_short_600ms_horflip\37.single_stab_with_nail_file_short_horflip_short_600ms.mp4	37.single_stab_with_nail_file_short_horflip_short_600ms.mp4	291.2811573429062	291.889481705306	0.6083243623997987				
286.6748046875	0.2	587110	216	58	2	0	1	31	368	stimuli\Targets_short_600ms_horflip\chopstickwood-tap_short_horflip_short_600ms.mp4	chopstickwood-tap_short_horflip_short_600ms.mp4	292.08114895602375	292.68947214543186	0.6083231894081109				
287.474609375	0.2	588748	217	58	2	0	0	32	202	stimuli\Videos_short_600ms_horvertflip\3.single_push_with_finger_short_horvertflip_short_600ms.mp4	3.single_push_with_finger_short_horvertflip_short_600ms.mp4	292.8811367569215	293.4894570138531	0.60832025693162				
288.27490234375	0.2	590387	218	58	2	0	0	33	244	stimuli\Videos_short_600ms_horvertflip\68.stroke_top_to_bottom_with_shawl_short_horvertflip_short_600ms.mp4	68.stroke_top_to_bottom_with_shawl_short_horvertflip_short_600ms.mp4	293.681906942551	294.28945126620056	0.607544323649563				
289.07470703125	0.2	592025	219	58	2	0	0	34	315	stimuli\Videos_short_600ms_vertflip\50.single_(long)hard_push_with_thumb_short_vertflip_short_600ms.mp4	50.single_(long)hard_push_with_thumb_short_vertflip_short_600ms.mp4	294.48138478578403	295.0894408265831	0.6080560407990561				
289.87451171875	0.2	593663	220	58	2	0	0	35	113	stimuli\Videos_short_600ms_horflip\30.finger_pulling_back_another_finger_short_horflip_short_600ms.mp4	30.finger_pulling_back_another_finger_short_horflip_short_600ms.mp4	295.28110954353906	295.8894350789287	0.6083255353896675				
290.6748046875	0.2	595302	221	58	2	0	0	36	138	stimuli\Videos_short_600ms_horflip\53.touch_top_to_bottom_with_knife_short_horflip_short_600ms.mp4	53.touch_top_to_bottom_with_knife_short_horflip_short_600ms.mp4	296.0810991039234	296.6894222933315	0.6083231894081109				
291.474609375	0.2	596940	222	58	2	0	0	37	175	stimuli\Videos_short_600ms_horflip\87.single_stroke_top_to_bottom_with_plastic_brush_short_horflip_short_600ms.mp4	87.single_stroke_top_to_bottom_with_plastic_brush_short_horflip_short_600ms.mp4	296.8810845588396	297.4894074550011	0.6083228961615532				
292.2744140625	0.2	598578	223	58	2	0	0	38	278	stimuli\Videos_short_600ms_vertflip\17.repeated_touch_with_rolling_pin_short_vertflip_short_600ms.mp4	17.repeated_touch_with_rolling_pin_short_vertflip_short_600ms.mp4	297.68107470571886	298.28939906811866	0.6083243623997987				
293.07470703125	0.2	600217	224	58	2	0	0	39	62	stimuli\Videos_short_600ms\66.stroke_top_to_bottom_with_sponge_short_short_600ms.mp4	66.stroke_top_to_bottom_with_sponge_short_short_600ms.mp4	298.48106661208294	299.0893886285012	0.6083220164182421				
293.87451171875	0.2	601855	225	58	2	0	0	40	180	stimuli\Videos_short_600ms_horvertflip\1.repeated_touch_with_finger_fast_short_horvertflip_short_600ms.mp4	1.repeated_touch_with_finger_fast_short_horvertflip_short_600ms.mp4	299.28105558597235	299.8893776023906	0.6083220164182421				
294.67431640625	0.2	603493	226	58	2	0	0	41	357	stimuli\Videos_short_600ms_vertflip\89.single_touch_with_plastic_brush_short_vertflip_short_600ms.mp4	89.single_touch_with_plastic_brush_short_vertflip_short_600ms.mp4	300.0810621547189	300.6893695087547	0.6083073540357873				
295.474609375	0.2	605132	227	58	2	0	0	42	353	stimuli\Videos_short_600ms_vertflip\85.touch_top_to_bottom_with_fabric_short_vertflip_short_600ms.mp4	85.touch_top_to_bottom_with_fabric_short_vertflip_short_600ms.mp4	300.8810376392157	301.4893573096524	0.6083196704366856				
296.2744140625	0.2	606770	228	58	2	0	0	43	331	stimuli\Videos_short_600ms_vertflip\65.stroke_top_to_bottom_with_stanley_knife_short_vertflip_short_600ms.mp4	65.stroke_top_to_bottom_with_stanley_knife_short_vertflip_short_600ms.mp4	301.68102280088533	302.2893503890082	0.6083275881228474				
297.07421875	0.2	608408	229	58	2	0	0	44	47	stimuli\Videos_short_600ms\52.touch_top_to_bottom_with_hammer_short_short_600ms.mp4	52.touch_top_to_bottom_with_hammer_short_short_600ms.mp4	302.48102027895584	303.08936927415743	0.6083489952015952				
297.87451171875	0.2	610047	230	58	2	0	0	45	280	stimuli\Videos_short_600ms_vertflip\19.single_touch_with_rolling_pin_short_vertflip_short_600ms.mp4	19.single_touch_with_rolling_pin_short_vertflip_short_600ms.mp4	303.2809819808117	303.8893773091422	0.6083953283305163				
298.67431640625	0.2	611685	231	58	2	0	0	46	125	stimuli\Videos_short_600ms_horflip\41.injection_with_blunt_syringe_short_horflip_short_600ms.mp4	41.injection_with_blunt_syringe_short_horflip_short_600ms.mp4	304.0809683154712	304.68936862901137	0.6084003135401872				
299.47412109375	0.2	613323	232	58	2	0	0	47	98	stimuli\Videos_short_600ms_horflip\17.repeated_touch_with_rolling_pin_short_horflip_short_600ms.mp4	17.repeated_touch_with_rolling_pin_short_horflip_short_600ms.mp4	304.8809845613905	305.4893581893957	0.6083736280052108				
300.2744140625	0.2	614962	233	58	2	0	0	48	237	stimuli\Videos_short_600ms_horvertflip\61.single_hit_with_rolling_pin_short_horvertflip_short_600ms.mp4	61.single_hit_with_rolling_pin_short_horvertflip_short_600ms.mp4	305.68098350569926	306.2893603594275	0.6083768537282594				
301.07421875	0.2	616600	234	58	2	0	0	49	230	stimuli\Videos_short_600ms_horvertflip\55.touch_top_to_bottom_with_nail_file_short_horvertflip_short_600ms.mp4	55.touch_top_to_bottom_with_nail_file_short_horvertflip_short_600ms.mp4	306.4809666146357	307.0893364304193	0.6083698157835897				
301.87451171875	0.2	618239	235	58	2	0	0	50	82	stimuli\Videos_short_600ms\84.single_touch_with_cotton_bud_short_short_600ms.mp4	84.single_touch_with_cotton_bud_short_short_600ms.mp4	307.2813582175477	307.88931895285896	0.6079607353112806				
302.67431640625	0.2	619877	236	58	2	0	0	51	5	stimuli\Videos_short_600ms\14.repeated_touch_with_pencil_short_short_600ms.mp4	14.repeated_touch_with_pencil_short_short_600ms.mp4	308.0809407501929	308.6892706842973	0.608329934104404				
303.47412109375	0.2	621515	237	58	2	0	0	52	189	stimuli\Videos_short_600ms_horvertflip\18.single_stroke_from_top_to_bottom_with_rolling_pin_short_horvertflip_short_600ms.mp4	18.single_stroke_from_top_to_bottom_with_rolling_pin_short_horvertflip_short_600ms.mp4	308.88093500253854	309.4892625906614	0.6083275881228474				
304.2744140625	0.2	623154	238	58	2	0	0	53	6	stimuli\Videos_short_600ms\15.single_stroke_top_to_bottom_with_a_plastic_whisk_short_short_600ms.mp4	15.single_stroke_top_to_bottom_with_a_plastic_whisk_short_short_600ms.mp4	309.68092778864593	310.28925391053053	0.6083261218846019				
305.07421875	0.2	624792	239	58	2	0	0	54	7	stimuli\Videos_short_600ms\16.repeated_touch_with_plastic_brush_short_short_600ms.mp4	16.repeated_touch_with_plastic_brush_short_short_600ms.mp4	310.4809132435621	311.08924200467663	0.6083287611145352				
305.8740234375	0.2	626430	240	58	2	0	0	55	44	stimuli\Videos_short_600ms\5.repeated_tap_with_finger_moving_from_top_to_bottom_short_short_600ms.mp4	5.repeated_tap_with_finger_moving_from_top_to_bottom_short_short_600ms.mp4	311.2808778778963	311.88924036249045	0.6083624845941813				
306.67431640625	0.2	628069	241	58	2	0	0	56	191	stimuli\Videos_short_600ms_horvertflip\2.single_touch_with_finger_short_horvertflip_short_600ms.mp4	2.single_touch_with_finger_short_horvertflip_short_600ms.mp4	312.08121376375493	312.6892287498831	0.6080149861281825				
307.47412109375	0.2	629707	242	58	2	0	0	57	295	stimuli\Videos_short_600ms_vertflip\32.single_(long)pinch_with_fingers_short_vertflip_short_600ms.mp4	32.single_(long)pinch_with_fingers_short_vertflip_short_600ms.mp4	312.88088104497	313.48920892634123	0.6083278813712241				
308.27392578125	0.2	631345	243	58	2	0	0	58	61	stimuli\Videos_short_600ms\65.stroke_top_to_bottom_with_stanley_knife_short_short_600ms.mp4	65.stroke_top_to_bottom_with_stanley_knife_short_short_600ms.mp4	313.68086972561105	314.28920053945876	0.608330813847715				
309.07421875	0.2	632984	244	58	2	0	0	59	232	stimuli\Videos_short_600ms_horvertflip\57.single_touch_with_nail_file_short_horvertflip_short_600ms.mp4	57.single_touch_with_nail_file_short_horvertflip_short_600ms.mp4	314.4808601657387	315.08918980659473	0.6083296408560273				
309.8740234375	0.2	634622	245	58	2	0	0	60	267	stimuli\Videos_short_600ms_horvertflip\89.single_touch_with_plastic_brush_short_horvertflip_short_600ms.mp4	89.single_touch_with_plastic_brush_short_horvertflip_short_600ms.mp4	315.2808567640659	315.8891790737307	0.6083223096647998				
310.673828125	0.2	636260	246	58	2	0	0	61	66	stimuli\Videos_short_600ms\7.repeated_touch_with_hairbrush_short_short_600ms.mp4	7.repeated_touch_with_hairbrush_short_short_600ms.mp4	316.0808360607807	316.68916482189525	0.6083287611145352				
311.47412109375	0.2	637899	247	58	2	0	0	62	69	stimuli\Videos_short_600ms\72.(short)stroke_with_finger_all_over_the_hand_short_short_600ms.mp4	72.(short)stroke_with_finger_all_over_the_hand_short_short_600ms.mp4	316.88091975366115	317.48914617134506	0.608226417683909				
312.27392578125	0.2	639537	248	58	2	0	0	63	81	stimuli\Videos_short_600ms\83.single_stroke_top_to_bottom_with_cotton_bud_short_short_600ms.mp4	83.single_stroke_top_to_bottom_with_cotton_bud_short_short_600ms.mp4	317.68079377447066	318.2891278140414	0.6083340395707637				
313.07373046875	0.2	641175	249	58	2	0	0	64	303	stimuli\Videos_short_600ms_vertflip\4.repeated_tap_with_finger_slow_short_vertflip_short_600ms.mp4	4.repeated_tap_with_finger_slow_short_vertflip_short_600ms.mp4	318.48080914064667	319.0891074040046	0.6082982633579377				
313.8740234375	0.2	642814	250	58	2	0	1	65	381	stimuli\Targets_short_600ms_vertflip\finger-tap_short_horvertflip_short_600ms.mp4	finger-tap_short_horvertflip_short_600ms.mp4	319.28077289523753	319.8890908061876	0.6083179109500634				
314.673828125	0.2	644452	251	58	2	0	0	66	268	stimuli\Videos_short_600ms_horvertflip\9.single_touch_with_hammer_short_horvertflip_short_600ms.mp4	9.single_touch_with_hammer_short_horvertflip_short_600ms.mp4	320.0807926601283	320.6890501620637	0.6082575019354408				
315.4736328125	0.2	646090	252	58	2	0	0	67	13	stimuli\Videos_short_600ms\21.repeated_touch_with_metal_chopstick_short_short_600ms.mp4	21.repeated_touch_with_metal_chopstick_short_short_600ms.mp4	320.88075465523434	321.4890581970485	0.6083035418141662				
316.27392578125	0.2	647729	253	58	2	0	0	68	33	stimuli\Videos_short_600ms\4.repeated_tap_with_finger_slow_short_short_600ms.mp4	4.repeated_tap_with_finger_slow_short_short_600ms.mp4	321.6807770593532	322.28903192206053	0.6082548627073265				
317.07373046875	0.2	649367	254	58	2	0	0	69	114	stimuli\Videos_short_600ms_horflip\31.hand_grabbing_wrist_short_horflip_short_600ms.mp4	31.hand_grabbing_wrist_short_horflip_short_600ms.mp4	322.48076016828963	323.08903027987253	0.6082701115828968				
317.87353515625	0.2	651005	255	58	2	0	0	70	146	stimuli\Videos_short_600ms_horflip\60.single_push_with_tip_of_pencil_short_horflip_short_600ms.mp4	60.single_push_with_tip_of_pencil_short_horflip_short_600ms.mp4	323.2807482624339	323.8890004859113	0.6082522234773933				
318.673828125	0.2	652644	256	58	2	0	0	71	205	stimuli\Videos_short_600ms_horvertflip\32.single_(long)pinch_with_fingers_short_horvertflip_short_600ms.mp4	32.single_(long)pinch_with_fingers_short_horvertflip_short_600ms.mp4	324.08073694307495	324.68898916655235	0.6082522234773933				
319.4736328125	0.2	654282	257	58	2	0	0	72	73	stimuli\Videos_short_600ms\76.tickle_with_fingers_from_top_to_bottom_short_short_600ms.mp4	76.tickle_with_fingers_from_top_to_bottom_short_short_600ms.mp4	324.8807265034593	325.4890007205104	0.6082742170510755				
320.2734375	0.2	655920	258	58	2	0	0	73	171	stimuli\Videos_short_600ms_horflip\83.single_stroke_top_to_bottom_with_cotton_bud_short_horflip_short_600ms.mp4	83.single_stroke_top_to_bottom_with_cotton_bud_short_horflip_short_600ms.mp4	325.68072075580494	326.2889973188376	0.6082765630326321				
321.07373046875	0.2	657559	259	58	2	0	0	74	324	stimuli\Videos_short_600ms_vertflip\59.single_push_with_long_side_pencil_short_vertflip_short_600ms.mp4	59.single_push_with_long_side_pencil_short_vertflip_short_600ms.mp4	326.48070415798793	327.0889786682874	0.6082745102994522				
321.87353515625	0.2	659197	260	58	2	0	1	75	360	stimuli\Targets_short_600ms\brush-stroke_short_short_600ms.mp4	brush-stroke_short_short_600ms.mp4	327.2806963576004	327.8889694016616	0.6082730440612067				
322.67333984375	0.2	660835	261	58	2	0	0	76	127	stimuli\Videos_short_600ms_horflip\43.touch_top_to_bottom_with_sharp_wooden_stick_short_horflip_short_600ms.mp4	43.touch_top_to_bottom_with_sharp_wooden_stick_short_horflip_short_600ms.mp4	328.0807040993386	328.68895778905426	0.6082536897156388				
323.4736328125	0.2	662474	262	58	2	0	0	77	270	stimuli\Videos_short_600ms_vertflip\1.repeated_touch_with_finger_fast_short_vertflip_short_600ms.mp4	1.repeated_touch_with_finger_fast_short_vertflip_short_600ms.mp4	328.8806751851207	329.4889461764469	0.6082709913262079				
324.2734375	0.2	664112	263	58	2	0	0	78	227	stimuli\Videos_short_600ms_horvertflip\52.touch_top_to_bottom_with_hammer_short_horvertflip_short_600ms.mp4	52.touch_top_to_bottom_with_hammer_short_horvertflip_short_600ms.mp4	329.68067149019953	330.28893749631607	0.608266006116537				
325.07373046875	0.2	665751	264	58	2	0	0	79	306	stimuli\Videos_short_600ms_vertflip\42.single_slap_with_plastic_whisk_short_vertflip_short_600ms.mp4	42.single_slap_with_plastic_whisk_short_vertflip_short_600ms.mp4	330.4810469644908	331.0889279364437	0.607880971952909				
325.87353515625	0.2	667389	265	58	2	0	0	80	37	stimuli\Videos_short_600ms\43.touch_top_to_bottom_with_sharp_wooden_stick_short_short_600ms.mp4	43.touch_top_to_bottom_with_sharp_wooden_stick_short_short_600ms.mp4	331.280652370453	331.8889169103313	0.6082645398782915				
326.67333984375	0.2	669027	266	58	2	0	0	81	242	stimuli\Videos_short_600ms_horvertflip\66.stroke_top_to_bottom_with_sponge_short_horvertflip_short_600ms.mp4	66.stroke_top_to_bottom_with_sponge_short_horvertflip_short_600ms.mp4	332.0806407578457	332.6889061774673	0.6082654196216026				
327.4736328125	0.2	670666	267	58	2	0	0	82	293	stimuli\Videos_short_600ms_vertflip\30.finger_pulling_back_another_finger_short_vertflip_short_600ms.mp4	30.finger_pulling_back_another_finger_short_vertflip_short_600ms.mp4	332.8806247465236	333.48889544460326	0.6082706980796502				
328.2734375	0.2	672304	268	58	2	0	0	83	318	stimuli\Videos_short_600ms_vertflip\53.touch_top_to_bottom_with_knife_short_vertflip_short_600ms.mp4	53.touch_top_to_bottom_with_knife_short_vertflip_short_600ms.mp4	333.6806022837536	334.28888647122585	0.6082841874722362				
329.0732421875	0.2	673942	269	58	2	0	0	84	160	stimuli\Videos_short_600ms_horflip\73.single_stroke_with_flat_hand_short_horflip_short_600ms.mp4	73.single_stroke_with_flat_hand_short_horflip_short_600ms.mp4	334.48060621327204	335.0888795505798	0.6082733373077645				
329.87353515625	0.2	675581	270	58	2	0	0	85	168	stimuli\Videos_short_600ms_horflip\80.stroke_with_sharp_stick_all_over_the_hand_short_horflip_short_600ms.mp4	80.stroke_with_sharp_stick_all_over_the_hand_short_horflip_short_600ms.mp4	335.28059987912275	335.888872336689	0.6082724575662724				
330.67333984375	0.2	677219	271	58	2	0	0	86	145	stimuli\Videos_short_600ms_horflip\6.single_touch_with_flat_hand_short_horflip_short_600ms.mp4	6.single_touch_with_flat_hand_short_horflip_short_600ms.mp4	336.0805894395071	336.68886307006323	0.6082736305561411				
331.47314453125	0.2	678857	272	58	2	0	0	87	157	stimuli\Videos_short_600ms_horflip\70.(long)stroke_with_finger_all_over_the_hand_short_horflip_short_600ms.mp4	70.(long)stroke_with_finger_all_over_the_hand_short_horflip_short_600ms.mp4	336.8805795863864	337.48884441951304	0.6082648331266682				
332.2734375	0.2	680496	273	58	2	0	0	88	139	stimuli\Videos_short_600ms_horflip\54.repeated_touch_with_knife_short_horflip_short_600ms.mp4	54.repeated_touch_with_knife_short_horflip_short_600ms.mp4	337.68056122908274	338.28883339340064	0.6082721643178957				
333.0732421875	0.2	682134	274	58	2	0	0	89	197	stimuli\Videos_short_600ms_horvertflip\25.single_touch_with_stanley_knife_short_horvertflip_short_600ms.mp4	25.single_touch_with_stanley_knife_short_horvertflip_short_600ms.mp4	338.4805575341634	339.08882617950803	0.6082686453446513				
333.873046875	0.2	683772	275	58	2	0	0	90	20	stimuli\Videos_short_600ms\28.single_injection_with_sharp_needle_short_short_600ms.mp4	28.single_injection_with_sharp_needle_short_short_600ms.mp4	339.28054562830766	339.8888145669007	0.608268938593028				
334.67333984375	0.2	685411	276	58	2	0	0	91	209	stimuli\Videos_short_600ms_horvertflip\36.single_slap_with_full_hand_short_horvertflip_short_600ms.mp4	36.single_slap_with_full_hand_short_horvertflip_short_600ms.mp4	340.0805313764722	340.6888053002749	0.6082739238026988				
335.47314453125	0.2	687049	277	58	2	0	0	92	25	stimuli\Videos_short_600ms\32.single_(long)pinch_with_fingers_short_short_600ms.mp4	32.single_(long)pinch_with_fingers_short_short_600ms.mp4	340.88052269634136	341.48880131210717	0.608278615765812				
336.27294921875	0.2	688687	278	58	2	0	0	93	261	stimuli\Videos_short_600ms_horvertflip\83.single_stroke_top_to_bottom_with_cotton_bud_short_horvertflip_short_600ms.mp4	83.single_stroke_top_to_bottom_with_cotton_bud_short_horvertflip_short_600ms.mp4	341.6805187081736	342.2887844210436	0.6082657128699793				
337.0732421875	0.2	690326	279	58	2	0	0	94	64	stimuli\Videos_short_600ms\68.stroke_top_to_bottom_with_shawl_short_short_600ms.mp4	68.stroke_top_to_bottom_with_shawl_short_short_600ms.mp4	342.4805660383445	343.0887722219413	0.6082061835968489	5.0	5.0	2.510380233701653	1.0
371.5302734375	0.2	760894	280	58	3	0	1	0	383	stimuli\Targets_short_600ms_vertflip\hand-stroke_short_horvertflip_short_600ms.mp4	hand-stroke_short_horvertflip_short_600ms.mp4	376.93839042816217	377.5467241744864	0.608333746324206				
372.330078125	0.2	762532	281	58	3	0	0	1	297	stimuli\Videos_short_600ms_vertflip\34.repeated_punch_with_hand_short_vertflip_short_600ms.mp4	34.repeated_punch_with_hand_short_vertflip_short_600ms.mp4	377.73837852230827	378.3467052306878	0.6083267083795363				
373.13037109375	0.2	764171	282	58	3	0	0	2	269	stimuli\Videos_short_600ms_horvertflip\90.repeated_touch_with_sponge_short_horvertflip_short_600ms.mp4	90.repeated_touch_with_sponge_short_horvertflip_short_600ms.mp4	378.5389255464743	379.14669273833897	0.6077671918646956				
373.93017578125	0.2	765809	283	58	3	0	0	3	28	stimuli\Videos_short_600ms\35.single_punch_with_hand_short_short_600ms.mp4	35.single_punch_with_hand_short_short_600ms.mp4	379.3383910733064	379.94668200547494	0.6082909321685293				
374.72998046875	0.2	767447	284	58	3	0	0	4	255	stimuli\Videos_short_600ms_horvertflip\78.single_stroke_top_to_bottom_with_soft_brush_short_horvertflip_short_600ms.mp4	78.single_stroke_top_to_bottom_with_soft_brush_short_horvertflip_short_600ms.mp4	380.1383460304678	380.7466692198759	0.6083231894081109				
375.5302734375	0.2	769086	285	58	3	0	1	5	363	stimuli\Targets_short_600ms\finger-tap_short_short_600ms.mp4	finger-tap_short_short_600ms.mp4	380.938336763842	381.5466614194884	0.6083246556463564				
376.330078125	0.2	770724	286	58	3	0	0	6	307	stimuli\Videos_short_600ms_vertflip\43.touch_top_to_bottom_with_sharp_wooden_stick_short_vertflip_short_600ms.mp4	43.touch_top_to_bottom_with_sharp_wooden_stick_short_vertflip_short_600ms.mp4	381.7383266174729	382.3466530326059	0.6083264151329786				
377.1298828125	0.2	772362	287	58	3	0	0	7	272	stimuli\Videos_short_600ms_vertflip\11.single_touch_with_lighter_short_vertflip_short_600ms.mp4	11.single_touch_with_lighter_short_vertflip_short_600ms.mp4	382.5382971167601	383.14664141999856	0.6083443032384821				
377.93017578125	0.2	774001	288	58	3	0	0	8	329	stimuli\Videos_short_600ms_vertflip\63.stroke_top_to_bottom_with_screwdriver_short_vertflip_short_600ms.mp4	63.stroke_top_to_bottom_with_screwdriver_short_vertflip_short_600ms.mp4	383.33830720447986	383.94663156687784	0.6083243623979797				
378.72998046875	0.2	775639	289	58	3	0	0	9	106	stimuli\Videos_short_600ms_horflip\24.single_stroke_top_to_bottom_with_a_spoon_short_horflip_short_600ms.mp4	24.single_stroke_top_to_bottom_with_a_spoon_short_horflip_short_600ms.mp4	384.1383049757969	384.74660323915487	0.6082982633579377				
379.52978515625	0.2	777277	290	58	3	0	0	10	203	stimuli\Videos_short_600ms_horvertflip\30.finger_pulling_back_another_finger_short_horvertflip_short_600ms.mp4	30.finger_pulling_back_another_finger_short_horvertflip_short_600ms.mp4	384.9382608127016	385.5466089281599	0.6083481154582842				
380.330078125	0.2	778916	291	58	3	0	0	11	136	stimuli\Videos_short_600ms_horflip\51.repeated_touch_with_hammer_short_horflip_short_600ms.mp4	51.repeated_touch_with_hammer_short_horflip_short_600ms.mp4	385.7382761788776	386.3465984885424	0.6083223096647998				
381.1298828125	0.2	780554	292	58	3	0	0	12	141	stimuli\Videos_short_600ms_horflip\56.repeated_touch_with_nail_file_short_horflip_short_600ms.mp4	56.repeated_touch_with_nail_file_short_horflip_short_600ms.mp4	386.53826720550023	387.1465974328512	0.6083302273509616				
381.93017578125	0.2	782193	293	58	3	0	0	13	337	stimuli\Videos_short_600ms_vertflip\70.(long)stroke_with_finger_all_over_the_hand_short_vertflip_short_600ms.mp4	70.(long)stroke_with_finger_all_over_the_hand_short_vertflip_short_600ms.mp4	387.3382594051127	387.9465843540074	0.6083249488947331				
382.72998046875	0.2	783831	294	58	3	0	0	14	17	stimuli\Videos_short_600ms\25.single_touch_with_stanley_knife_short_short_600ms.mp4	25.single_touch_with_stanley_knife_short_short_600ms.mp4	388.138243687039	388.746541950397	0.6082982633579377				
383.52978515625	0.2	785469	295	58	3	0	0	15	240	stimuli\Videos_short_600ms_horvertflip\64.repeated_touch_with_screwdriver_short_horvertflip_short_600ms.mp4	64.repeated_touch_with_screwdriver_short_horvertflip_short_600ms.mp4	388.9382432178427	389.54656376802086	0.6083205501781777				
384.330078125	0.2	787108	296	58	3	0	0	16	74	stimuli\Videos_short_600ms\77.tapping_with_all_fingers_short_short_600ms.mp4	77.tapping_with_all_fingers_short_short_600ms.mp4	389.73821899558607	390.34654453097573	0.6083255353896675				
385.1298828125	0.2	788746	297	58	3	0	0	17	333	stimuli\Videos_short_600ms_vertflip\67.single_touch_with_sponge_short_vertflip_short_600ms.mp4	67.single_touch_with_sponge_short_vertflip_short_600ms.mp4	390.53820914246535	391.1465502199808	0.6083410775154334				
385.9296875	0.2	790384	298	58	3	0	0	18	328	stimuli\Videos_short_600ms_vertflip\62.touch_top_to_bottom_with_scissors_short_vertflip_short_600ms.mp4	62.touch_top_to_bottom_with_scissors_short_vertflip_short_600ms.mp4	391.33820104882943	391.94652805045735	0.608327001627913				
386.72998046875	0.2	792023	299	58	3	0	0	19	56	stimuli\Videos_short_600ms\60.single_push_with_tip_of_pencil_short_short_600ms.mp4	60.single_push_with_tip_of_pencil_short_short_600ms.mp4	392.1381894362221	392.7465264082712	0.6083369720490737				
387.52978515625	0.2	793661	300	58	3	0	0	20	217	stimuli\Videos_short_600ms_horvertflip\43.touch_top_to_bottom_with_sharp_wooden_stick_short_horvertflip_short_600ms.mp4	43.touch_top_to_bottom_with_sharp_wooden_stick_short_horvertflip_short_600ms.mp4	392.93817694387326	393.5465065847293	0.6083296408560273				
388.32958984375	0.2	795299	301	58	3	0	0	21	218	stimuli\Videos_short_600ms_horvertflip\44.pushing_top_to_bottom_with_finger_short_horvertflip_short_600ms.mp4	44.pushing_top_to_bottom_with_finger_short_horvertflip_short_600ms.mp4	393.7381673839991	394.3464964383602	0.6083290543610929				
389.1298828125	0.2	796938	302	58	3	0	0	22	233	stimuli\Videos_short_600ms_horvertflip\58.single_slap_with_pencil_short_horvertflip_short_600ms.mp4	58.single_slap_with_pencil_short_horvertflip_short_600ms.mp4	394.5381578241267	395.1464842392579	0.6083264151311596				
389.9296875	0.2	798576	303	58	3	0	1	23	377	stimuli\Targets_short_600ms_horvertflip\hand-stroke_short_vertflip_short_600ms.mp4	hand-stroke_short_vertflip_short_600ms.mp4	395.3381511967291	395.94647379964226	0.6083226029131765				
390.7294921875	0.2	800214	304	58	3	0	0	24	339	stimuli\Videos_short_600ms_vertflip\72.(short)stroke_with_finger_all_over_the_hand_short_vertflip_short_600ms.mp4	72.(short)stroke_with_finger_all_over_the_hand_short_vertflip_short_600ms.mp4	396.13813753138857	396.74646482626486	0.6083272948762897				
391.52978515625	0.2	801853	305	58	3	0	0	25	213	stimuli\Videos_short_600ms_horvertflip\4.repeated_tap_with_finger_slow_short_horvertflip_short_600ms.mp4	4.repeated_tap_with_finger_slow_short_horvertflip_short_600ms.mp4	396.9381710789203	397.54645467989576	0.6082836009754828				
392.32958984375	0.2	803491	306	58	3	0	0	26	78	stimuli\Videos_short_600ms\80.stroke_with_sharp_stick_all_over_the_hand_short_short_600ms.mp4	80.stroke_with_sharp_stick_all_over_the_hand_short_short_600ms.mp4	397.73811841164206	398.3464457065183	0.6083272948762897				
393.12939453125	0.2	805129	307	58	3	0	0	27	340	stimuli\Videos_short_600ms_vertflip\73.single_stroke_with_flat_hand_short_vertflip_short_600ms.mp4	73.single_stroke_with_flat_hand_short_vertflip_short_600ms.mp4	398.53811325048264	399.146434093911	0.6083208434283733				
393.9296875	0.2	806768	308	58	3	0	0	28	119	stimuli\Videos_short_600ms_horflip\36.single_slap_with_full_hand_short_horflip_short_600ms.mp4	36.single_slap_with_full_hand_short_horflip_short_600ms.mp4	399.3380702603772	399.9464245340369	0.6083542736596428				
394.7294921875	0.2	808406	309	58	3	0	0	29	88	stimuli\Videos_short_600ms\9.single_touch_with_hammer_short_short_600ms.mp4	9.single_touch_with_hammer_short_short_600ms.mp4	400.1383741822429	400.746412041688	0.6080378594451759				
395.529296875	0.2	810044	310	58	3	0	0	30	310	stimuli\Videos_short_600ms_vertflip\46.scratching_top_to_bottom_with_finger_nails_short_vertflip_short_600ms.mp4	46.scratching_top_to_bottom_with_finger_nails_short_vertflip_short_600ms.mp4	400.93807811941406	401.5464021885655	0.608324069151422				
396.32958984375	0.2	811683	311	58	3	0	0	31	292	stimuli\Videos_short_600ms_vertflip\3.single_push_with_finger_short_vertflip_short_600ms.mp4	3.single_push_with_finger_short_vertflip_short_600ms.mp4	401.7380685595417	402.34638764348347	0.6083190839417512				
397.12939453125	0.2	813321	312	58	3	0	0	32	264	stimuli\Videos_short_600ms_horvertflip\86.touch_top_to_bottom_with_hair_brush_short_horvertflip_short_600ms.mp4	86.touch_top_to_bottom_with_hair_brush_short_horvertflip_short_600ms.mp4	402.5380666241072	403.14638424181067	0.6083176177035057				
397.92919921875	0.2	814959	313	58	3	0	0	33	279	stimuli\Videos_short_600ms_vertflip\18.single_stroke_from_top_to_bottom_with_rolling_pin_short_vertflip_short_600ms.mp4	18.single_stroke_from_top_to_bottom_with_rolling_pin_short_vertflip_short_600ms.mp4	403.33805295876664	403.94636676425034	0.6083138054837036				
398.7294921875	0.2	816598	314	58	3	0	0	34	243	stimuli\Videos_short_600ms_horvertflip\67.single_touch_with_sponge_short_horvertflip_short_600ms.mp4	67.single_touch_with_sponge_short_horvertflip_short_600ms.mp4	404.1380460381224	404.7463560313863	0.6083099932639016				
399.529296875	0.2	818236	315	58	3	0	1	35	361	stimuli\Targets_short_600ms\chopstick-silver-tap_short_short_600ms.mp4	chopstick-silver-tap_short_short_600ms.mp4	404.9380276808188	405.5463517499702	0.608324069151422				
400.3291015625	0.2	819874	316	58	3	0	0	36	260	stimuli\Videos_short_600ms_horvertflip\82.repeated_touch_with_cotton_bud_short_horvertflip_short_600ms.mp4	82.repeated_touch_with_cotton_bud_short_horvertflip_short_600ms.mp4	405.7380116694967	406.34634952128727	0.6083378517905658				
401.12939453125	0.2	821513	317	58	3	0	0	37	194	stimuli\Videos_short_600ms_horvertflip\22.single_touch_with_metal_chopstick_short_horvertflip_short_600ms.mp4	22.single_touch_with_metal_chopstick_short_horvertflip_short_600ms.mp4	406.5380044556059	407.1463513980725	0.6083469424665964				
401.92919921875	0.2	823151	318	58	3	0	1	38	375	stimuli\Targets_short_600ms_horvertflip\finger-tap_short_vertflip_short_600ms.mp4	finger-tap_short_vertflip_short_600ms.mp4	407.3379928429986	407.94632013787304	0.6083272948744707				
402.7294921875	0.2	824790	319	58	3	0	0	39	277	stimuli\Videos_short_600ms_vertflip\16.repeated_touch_with_plastic_brush_short_vertflip_short_600ms.mp4	16.repeated_touch_with_plastic_brush_short_vertflip_short_600ms.mp4	408.1379812303912	408.7463067657809	0.6083255353896675				
403.529296875	0.2	826428	320	58	3	0	0	40	42	stimuli\Videos_short_600ms\48.single_slap_with_hand_short_short_600ms.mp4	48.single_slap_with_hand_short_short_600ms.mp4	408.9379716705171	409.5463101088044	0.6083384382873191				
404.3291015625	0.2	828066	321	58	3	0	0	41	40	stimuli\Videos_short_600ms\46.scratching_top_to_bottom_with_finger_nails_short_short_600ms.mp4	46.scratching_top_to_bottom_with_finger_nails_short_short_600ms.mp4	409.737962990388	410.34628823252933	0.6083252421412908				
405.12939453125	0.2	829705	322	58	3	0	0	42	345	stimuli\Videos_short_600ms_vertflip\78.single_stroke_top_to_bottom_with_soft_brush_short_vertflip_short_600ms.mp4	78.single_stroke_top_to_bottom_with_soft_brush_short_vertflip_short_600ms.mp4	410.5379548967521	411.1462795523985	0.6083246556463564				
405.92919921875	0.2	831343	323	58	3	0	0	43	200	stimuli\Videos_short_600ms_horvertflip\28.single_injection_with_sharp_needle_short_horvertflip_short_600ms.mp4	28.single_injection_with_sharp_needle_short_horvertflip_short_600ms.mp4	411.3379403516683	411.9462655938114	0.6083252421431098				
406.72900390625	0.2	832981	324	58	3	0	0	44	238	stimuli\Videos_short_600ms_horvertflip\62.touch_top_to_bottom_with_scissors_short_horvertflip_short_600ms.mp4	62.touch_top_to_bottom_with_scissors_short_horvertflip_short_600ms.mp4	412.1379325512808	412.7462566204322	0.608324069151422				
407.529296875	0.2	834620	325	58	3	0	0	45	34	stimuli\Videos_short_600ms\40.repeated_push_with_finger_short_short_600ms.mp4	40.repeated_push_with_finger_short_short_600ms.mp4	412.93791976568355	413.5462450078248	0.6083252421412908				
408.3291015625	0.2	836258	326	58	3	0	0	46	19	stimuli\Videos_short_600ms\27.single_push_with_a_plastic_whisk_short_short_600ms.mp4	27.single_push_with_a_plastic_whisk_short_short_600ms.mp4	413.7379128450393	414.34623310197094	0.60832025693162				
409.12890625	0.2	837896	327	58	3	0	0	47	298	stimuli\Videos_short_600ms_vertflip\35.single_punch_with_hand_short_vertflip_short_600ms.mp4	35.single_punch_with_hand_short_vertflip_short_600ms.mp4	414.5378950742325	415.1462255948318	0.6083305205993383				
409.92919921875	0.2	839535	328	58	3	0	0	48	174	stimuli\Videos_short_600ms_horflip\86.touch_top_to_bottom_with_hair_brush_short_horflip_short_600ms.mp4	86.touch_top_to_bottom_with_hair_brush_short_horflip_short_600ms.mp4	415.3378644005279	415.9462151552143	0.6083507546863984				
410.72900390625	0.2	841173	329	58	3	0	0	49	183	stimuli\Videos_short_600ms_horvertflip\12.repeated_touch_with_nail_file_short_horvertflip_short_600ms.mp4	12.repeated_touch_with_nail_file_short_horvertflip_short_600ms.mp4	416.13788035319885	416.7462023696171	0.6083220164182421				
411.52880859375	0.2	842811	330	58	3	0	0	50	154	stimuli\Videos_short_600ms_horflip\68.stroke_top_to_bottom_with_shawl_short_horflip_short_600ms.mp4	68.stroke_top_to_bottom_with_shawl_short_horflip_short_600ms.mp4	416.93787137982144	417.54617580138074	0.6083044215592963				
412.3291015625	0.2	844450	331	58	3	0	0	51	231	stimuli\Videos_short_600ms_horvertflip\56.repeated_touch_with_nail_file_short_horvertflip_short_600ms.mp4	56.repeated_touch_with_nail_file_short_horvertflip_short_600ms.mp4	417.737868271397	418.3461641887734	0.6082959173763811				
413.12890625	0.2	846088	332	58	3	0	0	52	211	stimuli\Videos_short_600ms_horvertflip\38.double_slap_with_pencil_short_horvertflip_short_600ms.mp4	38.double_slap_with_pencil_short_horvertflip_short_600ms.mp4	418.5378469816169	419.1461739832448	0.608327001627913				
413.9287109375	0.2	847726	333	58	3	0	0	53	356	stimuli\Videos_short_600ms_vertflip\88.repeated_stroke_with_plastic_brush_short_vertflip_short_600ms.mp4	88.repeated_stroke_with_plastic_brush_short_vertflip_short_600ms.mp4	419.337850031392	419.9461685288388	0.6083184974468168				
414.72900390625	0.2	849365	334	58	3	0	0	54	39	stimuli\Videos_short_600ms\45.scratching_with_finger_nails_short_short_600ms.mp4	45.scratching_with_finger_nails_short_short_600ms.mp4	420.1378246361455	420.74615427700337	0.6083296408578462				
415.52880859375	0.2	851003	335	58	3	0	0	55	36	stimuli\Videos_short_600ms\42.single_slap_with_plastic_whisk_short_short_600ms.mp4	42.single_slap_with_plastic_whisk_short_short_600ms.mp4	420.9378156627681	421.5461608457499	0.6083451829817932				
416.32861328125	0.2	852641	336	58	3	0	0	56	32	stimuli\Videos_short_600ms\39.single_stab_with_scissors_short_short_600ms.mp4	39.single_stab_with_scissors_short_short_600ms.mp4	421.737805516399	422.3461316382836	0.6083261218846019				
417.12890625	0.2	854280	337	58	3	0	0	57	327	stimuli\Videos_short_600ms_vertflip\61.single_hit_with_rolling_pin_short_vertflip_short_600ms.mp4	61.single_hit_with_rolling_pin_short_vertflip_short_600ms.mp4	422.5377953700299	423.1461311690873	0.6083357990573859				
417.9287109375	0.2	855918	338	58	3	0	0	58	323	stimuli\Videos_short_600ms_vertflip\58.single_slap_with_pencil_short_vertflip_short_600ms.mp4	58.single_slap_with_pencil_short_vertflip_short_600ms.mp4	423.33778405067096	423.9461133982804	0.6083293476094696				
418.728515625	0.2	857556	339	58	3	0	0	59	210	stimuli\Videos_short_600ms_horvertflip\37.single_stab_with_nail_file_short_horvertflip_short_600ms.mp4	37.single_stab_with_nail_file_short_horvertflip_short_600ms.mp4	424.1377756637885	424.7461017856731	0.6083261218846019				
419.52880859375	0.2	859195	340	58	3	0	0	60	342	stimuli\Videos_short_600ms_vertflip\75.(long)stroke_with_fingers_all_over_the_hand_short_vertflip_short_600ms.mp4	75.(long)stroke_with_fingers_all_over_the_hand_short_vertflip_short_600ms.mp4	424.9377625849429	425.5460904663141	0.6083278813712241				
420.32861328125	0.2	860833	341	58	3	0	1	61	374	stimuli\Targets_short_600ms_horvertflip\chopstickwood-tap_short_vertflip_short_600ms.mp4	chopstickwood-tap_short_vertflip_short_600ms.mp4	425.7377544913088	426.3460800266985	0.6083255353896675				
421.12841796875	0.2	862471	342	58	3	0	0	62	349	stimuli\Videos_short_600ms_vertflip\81.single_stroke_top_to_bottom_with_cotton_pad_short_vertflip_short_600ms.mp4	81.single_stroke_top_to_bottom_with_cotton_pad_short_vertflip_short_600ms.mp4	426.5377179526513	427.14607017357594	0.6083522209246439				
421.9287109375	0.2	864110	343	58	3	0	0	63	118	stimuli\Videos_short_600ms_horflip\35.single_punch_with_hand_short_horflip_short_600ms.mp4	35.single_punch_with_hand_short_horflip_short_600ms.mp4	427.3377347850655	427.9460597339603	0.6083249488947331				
422.728515625	0.2	865748	344	58	3	0	0	64	142	stimuli\Videos_short_600ms_horflip\57.single_touch_with_nail_file_short_horflip_short_600ms.mp4	57.single_touch_with_nail_file_short_horflip_short_600ms.mp4	428.1377252251932	428.746047534858	0.6083223096647998				
423.52880859375	0.2	867387	345	58	3	0	0	65	72	stimuli\Videos_short_600ms\75.(long)stroke_with_fingers_all_over_the_hand_short_short_600ms.mp4	75.(long)stroke_with_fingers_all_over_the_hand_short_short_600ms.mp4	428.93773648590286	429.5460385614806	0.6083020755777397				
424.32861328125	0.2	869025	346	58	3	0	0	66	130	stimuli\Videos_short_600ms_horflip\46.scratching_top_to_bottom_with_finger_nails_short_horflip_short_600ms.mp4	46.scratching_top_to_bottom_with_finger_nails_short_horflip_short_600ms.mp4	429.7377014134836	430.3460266556249	0.6083252421412908				
425.12841796875	0.2	870663	347	58	3	0	0	67	149	stimuli\Videos_short_600ms_horflip\63.stroke_top_to_bottom_with_screwdriver_short_horflip_short_600ms.mp4	63.stroke_top_to_bottom_with_screwdriver_short_horflip_short_600ms.mp4	430.5376915603629	431.1460165092558	0.6083249488929141				
425.9287109375	0.2	872302	348	58	3	0	0	68	290	stimuli\Videos_short_600ms_vertflip\28.single_injection_with_sharp_needle_short_vertflip_short_600ms.mp4	28.single_injection_with_sharp_needle_short_vertflip_short_600ms.mp4	431.3376843464702	431.94601046835487	0.6083261218846019				
426.728515625	0.2	873940	349	58	3	0	0	69	302	stimuli\Videos_short_600ms_vertflip\39.single_stab_with_scissors_short_vertflip_short_600ms.mp4	39.single_stab_with_scissors_short_vertflip_short_600ms.mp4	432.1376744933495	432.7459962165194	0.6083217231698654				
427.5283203125	0.2	875578	350	58	3	0	0	70	344	stimuli\Videos_short_600ms_vertflip\77.tapping_with_all_fingers_short_vertflip_short_600ms.mp4	77.tapping_with_all_fingers_short_vertflip_short_600ms.mp4	432.9376696254385	433.545985190407	0.6083155649685068				
428.32861328125	0.2	877217	351	58	3	0	0	71	195	stimuli\Videos_short_600ms_horvertflip\23.single_push_with_a_spoon_short_horvertflip_short_600ms.mp4	23.single_push_with_a_spoon_short_horvertflip_short_600ms.mp4	433.7376515613833	434.3459773900194	0.6083258286362252				
429.12841796875	0.2	878855	352	58	3	0	0	72	352	stimuli\Videos_short_600ms_vertflip\84.single_touch_with_cotton_bud_short_vertflip_short_600ms.mp4	84.single_touch_with_cotton_bud_short_vertflip_short_600ms.mp4	434.5376493327003	435.1459725221084	0.6083231894081109				
429.92822265625	0.2	880493	353	58	3	0	1	73	372	stimuli\Targets_short_600ms_horvertflip\brush-stroke_short_vertflip_short_600ms.mp4	brush-stroke_short_vertflip_short_600ms.mp4	435.3376262834354	435.9459494728435	0.6083231894081109				
430.728515625	0.2	882132	354	58	3	0	0	74	95	stimuli\Videos_short_600ms_horflip\14.repeated_touch_with_pencil_short_horflip_short_600ms.mp4	14.repeated_touch_with_pencil_short_horflip_short_600ms.mp4	436.1376187762962	436.7459443116859	0.6083255353896675				
431.5283203125	0.2	883770	355	58	3	0	0	75	206	stimuli\Videos_short_600ms_horvertflip\33.scratch_top_to_bottom_with_scissors_short_horvertflip_short_600ms.mp4	33.scratch_top_to_bottom_with_scissors_short_horvertflip_short_600ms.mp4	436.9376080434322	437.5459376842882	0.6083296408560273				
432.328125	0.2	885408	356	58	3	0	0	76	226	stimuli\Videos_short_600ms_horvertflip\51.repeated_touch_with_hammer_short_horvertflip_short_600ms.mp4	51.repeated_touch_with_hammer_short_horvertflip_short_600ms.mp4	437.7375987768064	438.34593105689055	0.6083322800841415				
433.12841796875	0.2	887047	357	58	3	0	0	77	99	stimuli\Videos_short_600ms_horflip\18.single_stroke_from_top_to_bottom_with_rolling_pin_short_horflip_short_600ms.mp4	18.single_stroke_from_top_to_bottom_with_rolling_pin_short_horflip_short_600ms.mp4	438.5375874574456	439.14591651180854	0.6083290543629118				
433.92822265625	0.2	888685	358	58	3	0	0	78	347	stimuli\Videos_short_600ms_vertflip\8.single_touch_with_hairbrush_short_vertflip_short_600ms.mp4	8.single_touch_with_hairbrush_short_vertflip_short_600ms.mp4	439.33757613808666	439.94590343296295	0.6083272948762897				
434.72802734375	0.2	890323	359	58	3	0	0	79	22	stimuli\Videos_short_600ms\3.single_push_with_finger_short_short_600ms.mp4	3.single_push_with_finger_short_short_600ms.mp4	440.137565698471	440.7458918203556	0.6083261218846019				
435.5283203125	0.2	891962	360	58	3	0	1	80	373	stimuli\Targets_short_600ms_horvertflip\chopstick-silver-tap_short_vertflip_short_600ms.mp4	chopstick-silver-tap_short_vertflip_short_600ms.mp4	440.937554379112	441.54588343347314	0.6083290543610929				
436.328125	0.2	893600	361	58	3	0	0	81	83	stimuli\Videos_short_600ms\85.touch_top_to_bottom_with_fabric_short_short_600ms.mp4	85.touch_top_to_bottom_with_fabric_short_short_600ms.mp4	441.7375445259895	442.3458721141142	0.6083275881246664				
437.1279296875	0.2	895238	362	58	3	0	0	82	59	stimuli\Videos_short_600ms\63.stroke_top_to_bottom_with_screwdriver_short_short_600ms.mp4	63.stroke_top_to_bottom_with_screwdriver_short_short_600ms.mp4	442.5375273416776	443.1458578622769	0.6083305205993383				
437.92822265625	0.2	896877	363	58	3	0	0	83	76	stimuli\Videos_short_600ms\79.long_with_soft_brush_all_over_the_hand_short_short_600ms.mp4	79.long_with_soft_brush_all_over_the_hand_short_short_600ms.mp4	443.33754476058857	443.9458494753944	0.608304714805854				
438.72802734375	0.2	898515	364	58	3	0	0	84	223	stimuli\Videos_short_600ms_horvertflip\49.repeated_slap_with_hand_short_horvertflip_short_600ms.mp4	49.repeated_slap_with_hand_short_horvertflip_short_600ms.mp4	444.1375187788471	444.7458387425304	0.6083199636832433				
439.52783203125	0.2	900153	365	58	3	0	0	85	299	stimuli\Videos_short_600ms_vertflip\36.single_slap_with_full_hand_short_vertflip_short_600ms.mp4	36.single_slap_with_full_hand_short_vertflip_short_600ms.mp4	444.93750306077345	445.54583006240136	0.608327001627913				
440.328125	0.2	901792	366	58	3	0	0	86	350	stimuli\Videos_short_600ms_vertflip\82.repeated_touch_with_cotton_bud_short_vertflip_short_600ms.mp4	82.repeated_touch_with_cotton_bud_short_vertflip_short_600ms.mp4	445.73749115491773	446.34581727680234	0.6083261218846019				
441.1279296875	0.2	903430	367	58	3	0	0	87	133	stimuli\Videos_short_600ms_horflip\49.repeated_slap_with_hand_short_horflip_short_600ms.mp4	49.repeated_slap_with_hand_short_horflip_short_600ms.mp4	446.5374912722163	447.1458059574434	0.6083146852270147				
441.927734375	0.2	905068	368	58	3	0	0	88	77	stimuli\Videos_short_600ms\8.single_touch_with_hairbrush_short_short_600ms.mp4	8.single_touch_with_hairbrush_short_short_600ms.mp4	447.3374779001242	447.94579522457934	0.608317324455129				
442.72802734375	0.2	906707	369	58	3	0	1	89	371	stimuli\Targets_short_600ms_horflip\hand-stroke_short_horflip_short_600ms.mp4	hand-stroke_short_horflip_short_600ms.mp4	448.1376044071603	448.74576719010474	0.6081627829444187				
443.52783203125	0.2	908345	370	58	3	0	0	90	304	stimuli\Videos_short_600ms_vertflip\40.repeated_push_with_finger_short_vertflip_short_600ms.mp4	40.repeated_push_with_finger_short_vertflip_short_600ms.mp4	448.937454381663	449.5457810900425	0.6083267083795363				
444.32763671875	0.2	909983	371	58	3	0	0	91	216	stimuli\Videos_short_600ms_horvertflip\42.single_slap_with_plastic_whisk_short_horvertflip_short_600ms.mp4	42.single_slap_with_plastic_whisk_short_horvertflip_short_600ms.mp4	449.73745303272335	450.3457662517121	0.6083132189887692				
445.1279296875	0.2	911622	372	58	3	0	0	92	215	stimuli\Videos_short_600ms_horvertflip\41.injection_with_blunt_syringe_short_horvertflip_short_600ms.mp4	41.injection_with_blunt_syringe_short_horvertflip_short_600ms.mp4	450.5374285172202	451.1457502403901	0.6083217231698654				
445.927734375	0.2	913260	373	58	3	0	0	93	190	stimuli\Videos_short_600ms_horvertflip\19.single_touch_with_rolling_pin_short_horvertflip_short_600ms.mp4	19.single_touch_with_rolling_pin_short_horvertflip_short_600ms.mp4	451.3374198370893	451.9457474252122	0.6083275881228474				
446.72802734375	0.2	914899	374	58	3	0	0	94	165	stimuli\Videos_short_600ms_horflip\78.single_stroke_top_to_bottom_with_soft_brush_short_horflip_short_600ms.mp4	78.single_stroke_top_to_bottom_with_soft_brush_short_horflip_short_600ms.mp4	452.13740763798705	452.7457384518348	0.608330813847715				
