onset	duration	onsetsample	eventnumber	subjectnr	sequencenumber	blocksequencenumber	istarget	presentationnumber	stimnumber	stim	stimname	time_stimon	time_stimoff	stimdur	cresp	resp	rt	correct
24.81494140625	0.2	50821	0	67	0	0	0	0	150	stimuli\Videos_short_600ms_horflip\64.repeated_touch_with_screwdriver_short_horflip_short_600ms.mp4	64.repeated_touch_with_screwdriver_short_horflip_short_600ms.mp4	40.31269137855634	40.92090878753152	0.6082174089751788				
25.615234375	0.2	52460	1	67	0	0	1	1	371	stimuli\Targets_short_600ms_horflip\hand-stroke_short_horflip_short_600ms.mp4	hand-stroke_short_horflip_short_600ms.mp4	41.11258293681749	41.720891544769984	0.6083086079524946				
26.4150390625	0.2	54098	2	67	0	0	0	2	57	stimuli\Videos_short_600ms\61.single_hit_with_rolling_pin_short_short_600ms.mp4	61.single_hit_with_rolling_pin_short_short_600ms.mp4	41.9125586561895	42.520868437117315	0.6083097809278115				
27.21484375	0.2	55736	3	67	0	0	0	3	263	stimuli\Videos_short_600ms_horvertflip\85.touch_top_to_bottom_with_fabric_short_horvertflip_short_600ms.mp4	85.touch_top_to_bottom_with_fabric_short_horvertflip_short_600ms.mp4	42.71276779802065	43.320847968665475	0.6080801706448256				
28.01513671875	0.2	57375	4	67	0	0	0	4	0	stimuli\Videos_short_600ms\1.repeated_touch_with_finger_fast_short_short_600ms.mp4	1.repeated_touch_with_finger_fast_short_short_600ms.mp4	43.51261185070325	44.120808146089985	0.6081962953867333				
28.81494140625	0.2	59013	5	67	0	0	0	5	110	stimuli\Videos_short_600ms_horflip\28.single_injection_with_sharp_needle_short_horflip_short_600ms.mp4	28.single_injection_with_sharp_needle_short_horflip_short_600ms.mp4	44.312607803931314	44.92081260340274	0.608204799471423				
29.61474609375	0.2	60651	6	67	0	0	0	6	236	stimuli\Videos_short_600ms_horvertflip\60.single_push_with_tip_of_pencil_short_horvertflip_short_600ms.mp4	60.single_push_with_tip_of_pencil_short_horvertflip_short_600ms.mp4	45.112471503984125	45.72079770659184	0.6083262026077136				
30.4150390625	0.2	62290	7	67	0	0	0	7	325	stimuli\Videos_short_600ms_vertflip\6.single_touch_with_flat_hand_short_vertflip_short_600ms.mp4	6.single_touch_with_flat_hand_short_vertflip_short_600ms.mp4	45.91249326270918	46.5207822232951	0.6082889605859236				
31.21484375	0.2	63928	8	67	0	0	0	8	84	stimuli\Videos_short_600ms\86.touch_top_to_bottom_with_hair_brush_short_short_600ms.mp4	86.touch_top_to_bottom_with_hair_brush_short_short_600ms.mp4	46.71243496574607	47.32075676968816	0.6083218039420899				
32.0146484375	0.2	65566	9	67	0	0	0	9	328	stimuli\Videos_short_600ms_vertflip\62.touch_top_to_bottom_with_scissors_short_vertflip_short_600ms.mp4	62.touch_top_to_bottom_with_scissors_short_vertflip_short_600ms.mp4	47.512418602713296	48.120746271542885	0.6083276688295882				
32.81494140625	0.2	67205	10	67	0	0	0	10	163	stimuli\Videos_short_600ms_horflip\76.tickle_with_fingers_from_top_to_bottom_short_horflip_short_600ms.mp4	76.tickle_with_fingers_from_top_to_bottom_short_horflip_short_600ms.mp4	48.31239842750438	48.92071817873875	0.6083197512343759				
33.61474609375	0.2	68843	11	67	0	0	0	11	358	stimuli\Videos_short_600ms_vertflip\9.single_touch_with_hammer_short_vertflip_short_600ms.mp4	9.single_touch_with_hammer_short_vertflip_short_600ms.mp4	49.11237766580962	49.72070210895254	0.6083244431429193				
34.41455078125	0.2	70481	12	67	0	0	0	12	111	stimuli\Videos_short_600ms_horflip\29.single_pinch_with_tweezers_short_horflip_short_600ms.mp4	29.single_pinch_with_tweezers_short_horflip_short_600ms.mp4	49.91237860418914	50.52067870805695	0.6083001038678049				
35.21484375	0.2	72120	13	67	0	0	0	13	40	stimuli\Videos_short_600ms\46.scratching_top_to_bottom_with_finger_nails_short_short_600ms.mp4	46.scratching_top_to_bottom_with_finger_nails_short_short_600ms.mp4	50.71234112757156	51.32065999907354	0.6083188715019787				
36.0146484375	0.2	73758	14	67	0	0	0	14	139	stimuli\Videos_short_600ms_horflip\54.repeated_touch_with_knife_short_horflip_short_600ms.mp4	54.repeated_touch_with_knife_short_horflip_short_600ms.mp4	51.512574608677824	52.120641290086496	0.6080666814086726				
36.814453125	0.2	75396	15	67	0	0	0	15	137	stimuli\Videos_short_600ms_horflip\52.touch_top_to_bottom_with_hammer_short_horflip_short_600ms.mp4	52.touch_top_to_bottom_with_hammer_short_horflip_short_600ms.mp4	52.31230752177362	52.9206205283881	0.6083130066144804				
37.61474609375	0.2	77035	16	67	0	0	0	16	190	stimuli\Videos_short_600ms_horvertflip\19.single_touch_with_rolling_pin_short_horvertflip_short_600ms.mp4	19.single_touch_with_rolling_pin_short_horvertflip_short_600ms.mp4	53.112654781671154	53.72060328562657	0.6079485039554129				
38.41455078125	0.2	78673	17	67	0	0	0	17	249	stimuli\Videos_short_600ms_horvertflip\72.(short)stroke_with_finger_all_over_the_hand_short_horvertflip_short_600ms.mp4	72.(short)stroke_with_finger_all_over_the_hand_short_horvertflip_short_600ms.mp4	53.912329925638915	54.52058633610432	0.6082564104654011				
39.22314453125	0.2	80329	18	67	0	0	0	18	101	stimuli\Videos_short_600ms_horflip\2.single_touch_with_finger_short_horflip_short_600ms.mp4	2.single_touch_with_finger_short_horflip_short_600ms.mp4	54.72057982608021	55.32889635162792	0.608316525547707				
40.02294921875	0.2	81967	19	67	0	0	0	19	256	stimuli\Videos_short_600ms_horvertflip\79.long_with_soft_brush_all_over_the_hand_short_horvertflip_short_600ms.mp4	79.long_with_soft_brush_all_over_the_hand_short_horvertflip_short_600ms.mp4	55.52060217129838	56.1288811615741	0.6082789902757213				
40.82275390625	0.2	83605	20	67	0	0	0	20	322	stimuli\Videos_short_600ms_vertflip\57.single_touch_with_nail_file_short_vertflip_short_600ms.mp4	57.single_touch_with_nail_file_short_vertflip_short_600ms.mp4	56.32053742295466	56.92886069312226	0.6083232701676025				
41.623046875	0.2	85244	21	67	0	0	0	21	44	stimuli\Videos_short_600ms\5.repeated_tap_with_finger_moving_from_top_to_bottom_short_short_600ms.mp4	5.repeated_tap_with_finger_moving_from_top_to_bottom_short_short_600ms.mp4	57.12050610446386	57.72884433008949	0.60833822562563				
42.4228515625	0.2	86882	22	67	0	0	0	22	348	stimuli\Videos_short_600ms_vertflip\80.stroke_with_sharp_stick_all_over_the_hand_short_vertflip_short_600ms.mp4	80.stroke_with_sharp_stick_all_over_the_hand_short_vertflip_short_600ms.mp4	57.92047889139576	58.52882298190525	0.6083440905094903				
43.22265625	0.2	88520	23	67	0	0	0	23	312	stimuli\Videos_short_600ms_vertflip\48.single_slap_with_hand_short_vertflip_short_600ms.mp4	48.single_slap_with_hand_short_vertflip_short_600ms.mp4	58.72054551649853	59.32880573914008	0.6082602226415474				
44.02294921875	0.2	90159	24	67	0	0	0	24	165	stimuli\Videos_short_600ms_horflip\78.single_stroke_top_to_bottom_with_soft_brush_short_horflip_short_600ms.mp4	78.single_stroke_top_to_bottom_with_soft_brush_short_horflip_short_600ms.mp4	59.52046288025667	60.12878409771292	0.6083212174562505				
44.82275390625	0.2	91797	25	67	0	0	0	25	222	stimuli\Videos_short_600ms_horvertflip\48.single_slap_with_hand_short_horvertflip_short_600ms.mp4	48.single_slap_with_hand_short_horvertflip_short_600ms.mp4	60.32047525516464	60.92876685494775	0.6082915997831151				
45.62255859375	0.2	93435	26	67	0	0	0	26	304	stimuli\Videos_short_600ms_vertflip\40.repeated_push_with_finger_short_vertflip_short_600ms.mp4	40.repeated_push_with_finger_short_vertflip_short_600ms.mp4	61.12053190996448	61.72874726622831	0.6082153562638268				
46.4228515625	0.2	95074	27	67	0	0	0	27	198	stimuli\Videos_short_600ms_horvertflip\26.single_touch_with_a_blunt_syringe_short_horvertflip_short_600ms.mp4	26.single_touch_with_a_blunt_syringe_short_horvertflip_short_600ms.mp4	61.92054457811537	62.52873178293157	0.608187204816204				
47.22265625	0.2	96712	28	67	0	0	0	28	108	stimuli\Videos_short_600ms_horflip\26.single_touch_with_a_blunt_syringe_short_horflip_short_600ms.mp4	26.single_touch_with_a_blunt_syringe_short_horflip_short_600ms.mp4	62.72038745782265	63.32870750230359	0.6083200444809336				
48.0224609375	0.2	98350	29	67	0	0	0	29	243	stimuli\Videos_short_600ms_horvertflip\67.single_touch_with_sponge_short_horvertflip_short_600ms.mp4	67.single_touch_with_sponge_short_horvertflip_short_600ms.mp4	63.52040716383999	64.12869084602426	0.6082836821842648				
48.82275390625	0.2	99989	30	67	0	0	0	30	232	stimuli\Videos_short_600ms_horvertflip\57.single_touch_with_nail_file_short_horvertflip_short_600ms.mp4	57.single_touch_with_nail_file_short_horvertflip_short_600ms.mp4	64.32034798714085	64.92866861810762	0.608320630966773				
49.62255859375	0.2	101627	31	67	0	0	0	31	3	stimuli\Videos_short_600ms\12.repeated_touch_with_nail_file_short_short_600ms.mp4	12.repeated_touch_with_nail_file_short_short_600ms.mp4	65.12033074437568	65.72865460103276	0.6083238566570799				
50.42236328125	0.2	103265	32	67	0	0	0	32	97	stimuli\Videos_short_600ms_horflip\16.repeated_touch_with_plastic_brush_short_horflip_short_600ms.mp4	16.repeated_touch_with_plastic_brush_short_horflip_short_600ms.mp4	65.92037009775959	66.52863559879916	0.6082655010395683				
51.22265625	0.2	104904	33	67	0	0	0	33	337	stimuli\Videos_short_600ms_vertflip\70.(long)stroke_with_finger_all_over_the_hand_short_vertflip_short_600ms.mp4	70.(long)stroke_with_finger_all_over_the_hand_short_vertflip_short_600ms.mp4	66.7203138535042	67.32862334118909	0.6083094876848918				
52.0224609375	0.2	106542	34	67	0	0	0	34	58	stimuli\Videos_short_600ms\62.touch_top_to_bottom_with_scissors_short_short_600ms.mp4	62.touch_top_to_bottom_with_scissors_short_short_600ms.mp4	67.52036112448332	68.12859378216308	0.6082326576797641				
52.822265625	0.2	108180	35	67	0	0	0	35	156	stimuli\Videos_short_600ms_horflip\7.repeated_touch_with_hairbrush_short_horflip_short_600ms.mp4	7.repeated_touch_with_hairbrush_short_horflip_short_600ms.mp4	68.32027291660052	68.92857653939791	0.6083036227973935				
53.62255859375	0.2	109819	36	67	0	0	0	36	295	stimuli\Videos_short_600ms_vertflip\32.single_(long)pinch_with_fingers_short_vertflip_short_600ms.mp4	32.single_(long)pinch_with_fingers_short_vertflip_short_600ms.mp4	69.12028147933233	69.72855607094607	0.6082745916137355				
54.42236328125	0.2	111457	37	67	0	0	0	37	71	stimuli\Videos_short_600ms\74.fingers_walking_from_top_to_bottom_short_short_600ms.mp4	74.fingers_walking_from_top_to_bottom_short_short_600ms.mp4	69.92027450012029	70.52853736196266	0.6082628618423769				
55.22216796875	0.2	113095	38	67	0	0	0	38	43	stimuli\Videos_short_600ms\49.repeated_slap_with_hand_short_short_600ms.mp4	49.repeated_slap_with_hand_short_short_600ms.mp4	70.72028687502825	71.32852129217281	0.6082344171445584				
56.0224609375	0.2	114734	39	67	0	0	0	39	144	stimuli\Videos_short_600ms_horflip\59.single_push_with_long_side_pencil_short_horflip_short_600ms.mp4	59.single_push_with_long_side_pencil_short_horflip_short_600ms.mp4	71.52012916824606	72.12850053047805	0.608371362231992				
56.822265625	0.2	116372	40	67	0	0	0	40	87	stimuli\Videos_short_600ms\89.single_touch_with_plastic_brush_short_short_600ms.mp4	89.single_touch_with_plastic_brush_short_short_600ms.mp4	72.32014535533017	72.92848328771288	0.6083379323827103				
57.62255859375	0.2	118011	41	67	0	0	0	41	299	stimuli\Videos_short_600ms_vertflip\36.single_slap_with_full_hand_short_vertflip_short_600ms.mp4	36.single_slap_with_full_hand_short_vertflip_short_600ms.mp4	73.12012048821634	73.72846340575052	0.6083429175341735				
58.42236328125	0.2	119649	42	67	0	0	0	42	10	stimuli\Videos_short_600ms\19.single_touch_with_rolling_pin_short_short_600ms.mp4	19.single_touch_with_rolling_pin_short_short_600ms.mp4	73.92014312667379	74.528444110274	0.608300983600202				
59.22216796875	0.2	121287	43	67	0	0	0	43	218	stimuli\Videos_short_600ms_horvertflip\44.pushing_top_to_bottom_with_finger_short_horvertflip_short_600ms.mp4	44.pushing_top_to_bottom_with_finger_short_horvertflip_short_600ms.mp4	74.72014905020842	75.32842598777643	0.6082769375680073				
60.0224609375	0.2	122926	44	67	0	0	0	44	355	stimuli\Videos_short_600ms_vertflip\87.single_stroke_top_to_bottom_with_plastic_brush_short_vertflip_short_600ms.mp4	87.single_stroke_top_to_bottom_with_plastic_brush_short_vertflip_short_600ms.mp4	75.52009368568542	76.12840757203594	0.6083138863505155				
60.822265625	0.2	124564	45	67	0	0	0	45	37	stimuli\Videos_short_600ms\43.touch_top_to_bottom_with_sharp_wooden_stick_short_short_600ms.mp4	43.touch_top_to_bottom_with_sharp_wooden_stick_short_short_600ms.mp4	76.32007116452587	76.9283853441193	0.6083141795934353				
61.6220703125	0.2	126202	46	67	0	0	0	46	1	stimuli\Videos_short_600ms\10.single_touch_with_knife_short_short_600ms.mp4	10.single_touch_with_knife_short_short_600ms.mp4	77.12004541767601	77.72836223646664	0.6083168187906267				
62.42236328125	0.2	127841	47	67	0	0	0	47	121	stimuli\Videos_short_600ms_horflip\38.double_slap_with_pencil_short_horflip_short_600ms.mp4	38.double_slap_with_pencil_short_horflip_short_600ms.mp4	77.92003403979834	78.52835027209949	0.6083162323011493				
63.22216796875	0.2	129479	48	67	0	0	0	48	253	stimuli\Videos_short_600ms_horvertflip\76.tickle_with_fingers_from_top_to_bottom_short_horvertflip_short_600ms.mp4	76.tickle_with_fingers_from_top_to_bottom_short_horvertflip_short_600ms.mp4	78.72006137016433	79.32833948071129	0.6082781105469621				
64.02197265625	0.2	131117	49	67	0	0	0	49	196	stimuli\Videos_short_600ms_horvertflip\24.single_stroke_top_to_bottom_with_a_spoon_short_horvertflip_short_600ms.mp4	24.single_stroke_top_to_bottom_with_a_spoon_short_horvertflip_short_600ms.mp4	79.51999310289102	80.12831168115008	0.608318578259059				
64.822265625	0.2	132756	50	67	0	0	0	50	161	stimuli\Videos_short_600ms_horflip\74.fingers_walking_from_top_to_bottom_short_horflip_short_600ms.mp4	74.fingers_walking_from_top_to_bottom_short_horflip_short_600ms.mp4	80.31998788314377	80.92830030327241	0.608312420128641				
65.6220703125	0.2	134394	51	67	0	0	0	51	187	stimuli\Videos_short_600ms_horvertflip\16.repeated_touch_with_plastic_brush_short_horvertflip_short_600ms.mp4	16.repeated_touch_with_plastic_brush_short_horvertflip_short_600ms.mp4	81.11998500935078	81.72827778210922	0.608292772758432				
66.421875	0.2	136032	52	67	0	0	0	52	240	stimuli\Videos_short_600ms_horvertflip\64.repeated_touch_with_screwdriver_short_horvertflip_short_600ms.mp4	64.repeated_touch_with_screwdriver_short_horvertflip_short_600ms.mp4	81.91993257727154	82.52826757720686	0.6083349999353231				
67.22216796875	0.2	137671	53	67	0	0	0	53	269	stimuli\Videos_short_600ms_horvertflip\90.repeated_touch_with_sponge_short_horvertflip_short_600ms.mp4	90.repeated_touch_with_sponge_short_horvertflip_short_600ms.mp4	82.71989158171709	83.32823772493794	0.6083461432208424				
68.02197265625	0.2	139309	54	67	0	0	0	54	15	stimuli\Videos_short_600ms\23.single_push_with_a_spoon_short_short_600ms.mp4	23.single_push_with_a_spoon_short_short_600ms.mp4	83.51987345921953	84.12821989568693	0.6083464364674				
68.82177734375	0.2	140947	55	67	0	0	0	55	127	stimuli\Videos_short_600ms_horflip\43.touch_top_to_bottom_with_sharp_wooden_stick_short_horflip_short_600ms.mp4	43.touch_top_to_bottom_with_sharp_wooden_stick_short_horflip_short_600ms.mp4	84.31987703679988	84.92819825425613	0.6083212174562505				
69.6220703125	0.2	142586	56	67	0	0	0	56	160	stimuli\Videos_short_600ms_horflip\73.single_stroke_with_flat_hand_short_horflip_short_600ms.mp4	73.single_stroke_with_flat_hand_short_horflip_short_600ms.mp4	85.119857741327	85.72817866553669	0.6083209242096927				
70.421875	0.2	144224	57	67	0	0	0	57	70	stimuli\Videos_short_600ms\73.single_stroke_with_flat_hand_short_short_600ms.mp4	73.single_stroke_with_flat_hand_short_short_600ms.mp4	85.91984313775902	86.52816347548287	0.6083203377238533				
71.2216796875	0.2	145862	58	67	0	0	0	58	276	stimuli\Videos_short_600ms_vertflip\15.single_stroke_top_to_bottom_with_a_plastic_whisk_short_vertflip_short_600ms.mp4	15.single_stroke_top_to_bottom_with_a_plastic_whisk_short_vertflip_short_600ms.mp4	86.7198426099203	87.32814154080916	0.60829893088885				
72.02197265625	0.2	147501	59	67	0	0	0	59	50	stimuli\Videos_short_600ms\55.touch_top_to_bottom_with_nail_file_short_short_600ms.mp4	55.touch_top_to_bottom_with_nail_file_short_short_600ms.mp4	87.51980132112294	88.12812283182211	0.6083215106991702				
72.830078125	0.2	149156	60	67	0	0	0	60	129	stimuli\Videos_short_600ms_horflip\45.scratching_with_finger_nails_short_horflip_short_600ms.mp4	45.scratching_with_finger_nails_short_horflip_short_600ms.mp4	88.32811954748831	88.9364480960503	0.6083285485619854				
73.63037109375	0.2	150795	61	67	0	0	0	61	260	stimuli\Videos_short_600ms_horvertflip\82.repeated_touch_with_cotton_bud_short_horvertflip_short_600ms.mp4	82.repeated_touch_with_cotton_bud_short_horvertflip_short_600ms.mp4	89.12812576426586	89.7364208829822	0.6082951187163417				
74.43017578125	0.2	152433	62	67	0	0	0	62	307	stimuli\Videos_short_600ms_vertflip\43.touch_top_to_bottom_with_sharp_wooden_stick_short_vertflip_short_600ms.mp4	43.touch_top_to_bottom_with_sharp_wooden_stick_short_vertflip_short_600ms.mp4	89.92807802409516	90.53640070777328	0.608322683678125				
75.22998046875	0.2	154071	63	67	0	0	0	63	113	stimuli\Videos_short_600ms_horflip\30.finger_pulling_back_another_finger_short_horflip_short_600ms.mp4	30.finger_pulling_back_another_finger_short_horflip_short_600ms.mp4	90.72819743317086	91.33638199878624	0.6081845656153746				
76.0302734375	0.2	155710	64	67	0	0	0	64	117	stimuli\Videos_short_600ms_horflip\34.repeated_punch_with_hand_short_horflip_short_600ms.mp4	34.repeated_punch_with_hand_short_horflip_short_600ms.mp4	91.52810306715764	92.13636299655629	0.6082599293986277				
76.830078125	0.2	157348	65	67	0	0	0	65	180	stimuli\Videos_short_600ms_horvertflip\1.repeated_touch_with_finger_fast_short_horvertflip_short_600ms.mp4	1.repeated_touch_with_finger_fast_short_horvertflip_short_600ms.mp4	92.3280016632816	92.93634516730162	0.6083435040200129				
77.6298828125	0.2	158986	66	67	0	0	1	66	372	stimuli\Targets_short_600ms_horvertflip\brush-stroke_short_vertflip_short_600ms.mp4	brush-stroke_short_vertflip_short_600ms.mp4	93.12798617998124	93.73632675156114	0.6083405715799017				
78.43017578125	0.2	160625	67	67	0	0	0	67	247	stimuli\Videos_short_600ms_horvertflip\70.(long)stroke_with_finger_all_over_the_hand_short_horvertflip_short_600ms.mp4	70.(long)stroke_with_finger_all_over_the_hand_short_horvertflip_short_600ms.mp4	93.92822611246449	94.53630481688742	0.608078704422951				
79.22998046875	0.2	162263	68	67	0	0	0	68	120	stimuli\Videos_short_600ms_horflip\37.single_stab_with_nail_file_short_horflip_short_600ms.mp4	37.single_stab_with_nail_file_short_horflip_short_600ms.mp4	94.72803526907592	95.33628933359068	0.6082540645147674				
80.02978515625	0.2	163901	69	67	0	0	0	69	227	stimuli\Videos_short_600ms_horvertflip\52.touch_top_to_bottom_with_hammer_short_horvertflip_short_600ms.mp4	52.touch_top_to_bottom_with_hammer_short_horvertflip_short_600ms.mp4	95.52799955192312	96.13626886513885	0.6082693132157146				
80.830078125	0.2	165540	70	67	0	0	0	70	224	stimuli\Videos_short_600ms_horvertflip\5.repeated_tap_with_finger_moving_from_top_to_bottom_short_horvertflip_short_600ms.mp4	5.repeated_tap_with_finger_moving_from_top_to_bottom_short_horvertflip_short_600ms.mp4	96.32793802926972	96.93625074264128	0.6083127133715607				
81.6298828125	0.2	167178	71	67	0	0	0	71	146	stimuli\Videos_short_600ms_horflip\60.single_push_with_tip_of_pencil_short_horflip_short_600ms.mp4	60.single_push_with_tip_of_pencil_short_horflip_short_600ms.mp4	97.12791052295142	97.73622792823517	0.6083174052837421				
82.4296875	0.2	168816	72	67	0	0	0	72	94	stimuli\Videos_short_600ms_horflip\13.single_touch_with_pen_short_horflip_short_600ms.mp4	13.single_touch_with_pen_short_horflip_short_600ms.mp4	97.92786718144636	98.536189278635	0.6083220971886476				
83.22998046875	0.2	170455	73	67	0	0	0	73	128	stimuli\Videos_short_600ms_horflip\44.pushing_top_to_bottom_with_finger_short_horflip_short_600ms.mp4	44.pushing_top_to_bottom_with_finger_short_horflip_short_600ms.mp4	98.72814201000074	99.336190803504	0.6080487935032579				
84.02978515625	0.2	172093	74	67	0	0	0	74	250	stimuli\Videos_short_600ms_horvertflip\73.single_stroke_with_flat_hand_short_horvertflip_short_600ms.mp4	73.single_stroke_with_flat_hand_short_horvertflip_short_600ms.mp4	99.5278532230186	100.1361509809285	0.6082977579098952				
84.82958984375	0.2	173731	75	67	0	0	0	75	202	stimuli\Videos_short_600ms_horvertflip\3.single_push_with_finger_short_horvertflip_short_600ms.mp4	3.single_push_with_finger_short_horvertflip_short_600ms.mp4	100.32786207899336	100.93615397202302	0.6082918930296728				
85.6298828125	0.2	175370	76	67	0	0	0	76	123	stimuli\Videos_short_600ms_horflip\4.repeated_tap_with_finger_slow_short_horflip_short_600ms.mp4	4.repeated_tap_with_finger_slow_short_horflip_short_600ms.mp4	101.12784161054152	101.73615754960338	0.6083159390618675				
86.4296875	0.2	177008	77	67	0	0	0	77	138	stimuli\Videos_short_600ms_horflip\53.touch_top_to_bottom_with_knife_short_horflip_short_600ms.mp4	53.touch_top_to_bottom_with_knife_short_horflip_short_600ms.mp4	101.92807861058463	102.53612417840122	0.608045567816589				
87.2294921875	0.2	178646	78	67	0	0	0	78	170	stimuli\Videos_short_600ms_horflip\82.repeated_touch_with_cotton_bud_short_horflip_short_600ms.mp4	82.repeated_touch_with_cotton_bud_short_horflip_short_600ms.mp4	102.72829332405672	103.33610019101616	0.6078068669594359				
88.02978515625	0.2	180285	79	67	0	0	0	79	45	stimuli\Videos_short_600ms\50.single_(long)hard_push_with_thumb_short_short_600ms.mp4	50.single_(long)hard_push_with_thumb_short_short_600ms.mp4	103.52782712427506	104.13608851989557	0.6082613956205023				
88.82958984375	0.2	181923	80	67	0	0	0	80	72	stimuli\Videos_short_600ms\75.(long)stroke_with_fingers_all_over_the_hand_short_short_600ms.mp4	75.(long)stroke_with_fingers_all_over_the_hand_short_short_600ms.mp4	104.3277395028781	104.9360627730457	0.6083232701676025				
89.62939453125	0.2	183561	81	67	0	0	0	81	288	stimuli\Videos_short_600ms_vertflip\26.single_touch_with_a_blunt_syringe_short_vertflip_short_600ms.mp4	26.single_touch_with_a_blunt_syringe_short_vertflip_short_600ms.mp4	105.12802342200666	105.73604377081574	0.6080203488090774				
90.4296875	0.2	185200	82	67	0	0	0	82	49	stimuli\Videos_short_600ms\54.repeated_touch_with_knife_short_short_600ms.mp4	54.repeated_touch_with_knife_short_short_600ms.mp4	105.927761027011	106.53602770102952	0.6082666740185232				
91.2294921875	0.2	186838	83	67	0	0	0	83	157	stimuli\Videos_short_600ms_horflip\70.(long)stroke_with_finger_all_over_the_hand_short_horflip_short_600ms.mp4	70.(long)stroke_with_finger_all_over_the_hand_short_horflip_short_600ms.mp4	106.72774818291144	107.33600547310924	0.6082572901977983				
92.029296875	0.2	188476	84	67	0	0	0	84	245	stimuli\Videos_short_600ms_horvertflip\69.stroke_with_soft_sock_short_horvertflip_short_600ms.mp4	69.stroke_with_soft_sock_short_horvertflip_short_600ms.mp4	107.52768108861346	108.13598705736877	0.6083059687553032				
92.82958984375	0.2	190115	85	67	0	0	0	85	114	stimuli\Videos_short_600ms_horflip\31.hand_grabbing_wrist_short_horflip_short_600ms.mp4	31.hand_grabbing_wrist_short_horflip_short_600ms.mp4	108.32764625119307	108.93596952136068	0.6083232701676025				
93.62939453125	0.2	191753	86	67	0	0	1	86	369	stimuli\Targets_short_600ms_horflip\finger-tap_short_horflip_short_600ms.mp4	finger-tap_short_horflip_short_600ms.mp4	109.12760789483946	109.73595169210604	0.6083437972665706				
94.4296875	0.2	193392	87	67	0	0	0	87	80	stimuli\Videos_short_600ms\82.repeated_touch_with_cotton_bud_short_short_600ms.mp4	82.repeated_touch_with_cotton_bud_short_short_600ms.mp4	109.9276692415442	110.53593093041128	0.60826168886706				
95.2294921875	0.2	195030	88	67	0	0	0	88	359	stimuli\Videos_short_600ms_vertflip\90.repeated_touch_with_sponge_short_vertflip_short_600ms.mp4	90.repeated_touch_with_sponge_short_vertflip_short_600ms.mp4	110.72788219555514	111.3359119281813	0.6080297326261643				
96.029296875	0.2	196668	89	67	0	0	0	89	287	stimuli\Videos_short_600ms_vertflip\25.single_touch_with_stanley_knife_short_vertflip_short_600ms.mp4	25.single_touch_with_stanley_knife_short_vertflip_short_600ms.mp4	111.52755997872008	112.13589409892666	0.608334120206564				
96.82958984375	0.2	198307	90	67	0	0	0	90	8	stimuli\Videos_short_600ms\17.repeated_touch_with_rolling_pin_short_short_600ms.mp4	17.repeated_touch_with_rolling_pin_short_short_600ms.mp4	112.32761428756568	112.93585515608356	0.6082408685178962				
97.62939453125	0.2	199945	91	67	0	0	0	91	88	stimuli\Videos_short_600ms\9.single_touch_with_hammer_short_short_600ms.mp4	9.single_touch_with_hammer_short_short_600ms.mp4	113.12787679985922	113.73583058221266	0.6079537823534338				
98.42919921875	0.2	201583	92	67	0	0	0	92	96	stimuli\Videos_short_600ms_horflip\15.single_stroke_top_to_bottom_with_a_plastic_whisk_short_horflip_short_600ms.mp4	15.single_stroke_top_to_bottom_with_a_plastic_whisk_short_horflip_short_600ms.mp4	113.92756044791167	114.5358109934932	0.6082505455815408	3.0	3.0	2.333045171937556	1.0
140.85302734375	0.2	288467	93	67	1	0	1	0	379	stimuli\Targets_short_600ms_vertflip\chopstick-silver-tap_short_horvertflip_short_600ms.mp4	chopstick-silver-tap_short_horvertflip_short_600ms.mp4	156.35152337479303	156.95984547198532	0.6083220971922856				
141.65283203125	0.2	290105	94	67	1	0	0	1	65	stimuli\Videos_short_600ms\69.stroke_with_soft_sock_short_short_600ms.mp4	69.stroke_with_soft_sock_short_short_600ms.mp4	157.151547479476	157.7598252967764	0.6082778173004044				
142.453125	0.2	291744	95	67	1	0	0	2	195	stimuli\Videos_short_600ms_horvertflip\23.single_push_with_a_spoon_short_horvertflip_short_600ms.mp4	23.single_push_with_a_spoon_short_horvertflip_short_600ms.mp4	157.95149006224165	158.5598077607683	0.6083176985266618				
143.2529296875	0.2	293382	96	67	1	0	0	3	356	stimuli\Videos_short_600ms_vertflip\88.repeated_stroke_with_plastic_brush_short_vertflip_short_600ms.mp4	88.repeated_stroke_with_plastic_brush_short_vertflip_short_600ms.mp4	158.7514780978745	159.35978523960512	0.6083071417306201				
144.052734375	0.2	295020	97	67	1	0	0	4	27	stimuli\Videos_short_600ms\34.repeated_punch_with_hand_short_short_600ms.mp4	34.repeated_punch_with_hand_short_short_600ms.mp4	159.5515233161459	160.15975186840296	0.6082285522570601				
144.85302734375	0.2	296659	98	67	1	0	0	5	2	stimuli\Videos_short_600ms\11.single_touch_with_lighter_short_short_600ms.mp4	11.single_touch_with_lighter_short_short_600ms.mp4	160.35151545719782	160.95975134056425	0.608235883366433				
145.65283203125	0.2	298297	99	67	1	0	0	6	204	stimuli\Videos_short_600ms_horvertflip\31.hand_grabbing_wrist_short_horvertflip_short_600ms.mp4	31.hand_grabbing_wrist_short_horvertflip_short_600ms.mp4	161.15145012236826	161.75970799905917	0.6082578766909137				
146.45263671875	0.2	299935	100	67	1	0	0	7	221	stimuli\Videos_short_600ms_horvertflip\47.(long)scratching_with_finger_nails_short_horvertflip_short_600ms.mp4	47.(long)scratching_with_finger_nails_short_horvertflip_short_600ms.mp4	161.95145311346278	162.55971040366055	0.6082572901977983				
147.2529296875	0.2	301574	101	67	1	0	0	8	323	stimuli\Videos_short_600ms_vertflip\58.single_slap_with_pencil_short_vertflip_short_600ms.mp4	58.single_slap_with_pencil_short_vertflip_short_600ms.mp4	162.75182148694512	163.35969873253634	0.6078772455912258				
148.052734375	0.2	303212	102	67	1	0	0	9	41	stimuli\Videos_short_600ms\47.(long)scratching_with_finger_nails_short_short_600ms.mp4	47.(long)scratching_with_finger_nails_short_short_600ms.mp4	163.55136701693482	164.1596773843521	0.6083103674172889				
148.8525390625	0.2	304850	103	67	1	0	0	10	118	stimuli\Videos_short_600ms_horflip\35.single_punch_with_hand_short_horflip_short_600ms.mp4	35.single_punch_with_hand_short_horflip_short_600ms.mp4	164.35133569844402	164.95966600647444	0.6083303080304177				
149.65283203125	0.2	306489	104	67	1	0	0	11	152	stimuli\Videos_short_600ms_horflip\66.stroke_top_to_bottom_with_sponge_short_horflip_short_600ms.mp4	66.stroke_top_to_bottom_with_sponge_short_horflip_short_600ms.mp4	165.151317869193	165.7596396731351	0.6083218039420899				
150.45263671875	0.2	308127	105	67	1	0	0	12	177	stimuli\Videos_short_600ms_horflip\89.single_touch_with_plastic_brush_short_horflip_short_600ms.mp4	89.single_touch_with_plastic_brush_short_horflip_short_600ms.mp4	165.9513029723821	166.55961979117274	0.6083168187906267				
151.25244140625	0.2	309765	106	67	1	0	0	13	136	stimuli\Videos_short_600ms_horflip\51.repeated_touch_with_hammer_short_horflip_short_600ms.mp4	51.repeated_touch_with_hammer_short_horflip_short_600ms.mp4	166.75127898499704	167.3596002024533	0.6083212174562505				
152.052734375	0.2	311404	107	67	1	0	0	14	301	stimuli\Videos_short_600ms_vertflip\38.double_slap_with_pencil_short_vertflip_short_600ms.mp4	38.double_slap_with_pencil_short_vertflip_short_600ms.mp4	167.55134590334637	168.15958618537843	0.6082402820320567				
152.8525390625	0.2	313042	108	67	1	0	0	15	277	stimuli\Videos_short_600ms_vertflip\16.repeated_touch_with_plastic_brush_short_vertflip_short_600ms.mp4	16.repeated_touch_with_plastic_brush_short_vertflip_short_600ms.mp4	168.35133569844402	168.95956337097232	0.6082276725283009				
153.65234375	0.2	314680	109	67	1	0	0	16	338	stimuli\Videos_short_600ms_vertflip\71.single_stroke_with_finger_top_to_bottom_short_vertflip_short_600ms.mp4	71.single_stroke_with_finger_top_to_bottom_short_vertflip_short_600ms.mp4	169.15120497013777	169.75954554171767	0.6083405715799017				
154.45263671875	0.2	316319	110	67	1	0	0	17	281	stimuli\Videos_short_600ms_vertflip\2.single_touch_with_finger_short_vertflip_short_600ms.mp4	2.single_touch_with_finger_short_vertflip_short_600ms.mp4	169.95119241928114	170.55953093815333	0.6083385188721877				
155.25244140625	0.2	317957	111	67	1	0	0	18	61	stimuli\Videos_short_600ms\65.stroke_top_to_bottom_with_stanley_knife_short_short_600ms.mp4	65.stroke_top_to_bottom_with_stanley_knife_short_short_600ms.mp4	170.7513264905756	171.35950753725774	0.608181046682148				
156.05224609375	0.2	319595	112	67	1	0	0	19	22	stimuli\Videos_short_600ms\3.single_push_with_finger_short_short_600ms.mp4	3.single_push_with_finger_short_short_600ms.mp4	171.5511485499337	172.1594879485383	0.6083393986045849				
156.8525390625	0.2	321234	113	67	1	0	1	20	380	stimuli\Targets_short_600ms_vertflip\chopstickwood-tap_short_horvertflip_short_600ms.mp4	chopstickwood-tap_short_horvertflip_short_600ms.mp4	172.35143833394977	172.95947099901605	0.6080326650662755				
157.65234375	0.2	322872	114	67	1	0	0	21	17	stimuli\Videos_short_600ms\25.single_touch_with_stanley_knife_short_short_600ms.mp4	25.single_touch_with_stanley_knife_short_short_600ms.mp4	173.1515372159265	173.75945170354316	0.6079144876166538				
158.4521484375	0.2	324510	115	67	1	0	0	22	262	stimuli\Videos_short_600ms_horvertflip\84.single_touch_with_cotton_bud_short_horvertflip_short_600ms.mp4	84.single_touch_with_cotton_bud_short_horvertflip_short_600ms.mp4	173.95116162862905	174.5594104147458	0.6082487861167465				
159.25244140625	0.2	326149	116	67	1	0	0	23	193	stimuli\Videos_short_600ms_horvertflip\21.repeated_touch_with_metal_chopstick_short_horvertflip_short_600ms.mp4	21.repeated_touch_with_metal_chopstick_short_horvertflip_short_600ms.mp4	174.75164642009986	175.35939053278344	0.6077441126835765				
160.05224609375	0.2	327787	117	67	1	0	0	24	38	stimuli\Videos_short_600ms\44.pushing_top_to_bottom_with_finger_short_short_600ms.mp4	44.pushing_top_to_bottom_with_finger_short_short_600ms.mp4	175.55111248088724	176.15940144146953	0.6082889605822857				
160.85205078125	0.2	329425	118	67	1	0	0	25	265	stimuli\Videos_short_600ms_horvertflip\87.single_stroke_top_to_bottom_with_plastic_brush_short_horvertflip_short_600ms.mp4	87.single_stroke_top_to_bottom_with_plastic_brush_short_horvertflip_short_600ms.mp4	176.35104802579008	176.95938478519383	0.6083367594037554				
161.65234375	0.2	331064	119	67	1	0	1	26	382	stimuli\Targets_short_600ms_vertflip\hand-pinch_short_horvertflip_short_600ms.mp4	hand-pinch_short_horvertflip_short_600ms.mp4	177.15162958787914	177.75933616529073	0.6077065774115908				
162.4521484375	0.2	332702	120	67	1	0	0	27	42	stimuli\Videos_short_600ms\48.single_slap_with_hand_short_short_600ms.mp4	48.single_slap_with_hand_short_short_600ms.mp4	177.95115224481196	178.5593406226035	0.6081883777915209				
163.25244140625	0.2	334341	121	67	1	0	0	28	25	stimuli\Videos_short_600ms\32.single_(long)pinch_with_fingers_short_short_600ms.mp4	32.single_(long)pinch_with_fingers_short_short_600ms.mp4	178.75100040291727	179.35935270426853	0.6083523013512604				
164.05224609375	0.2	335979	122	67	1	0	0	29	271	stimuli\Videos_short_600ms_vertflip\10.single_touch_with_knife_short_vertflip_short_600ms.mp4	10.single_touch_with_knife_short_vertflip_short_600ms.mp4	179.55108579565422	180.15931434791491	0.608228552260698				
164.85205078125	0.2	337617	123	67	1	0	0	30	145	stimuli\Videos_short_600ms_horflip\6.single_touch_with_flat_hand_short_horflip_short_600ms.mp4	6.single_touch_with_flat_hand_short_horflip_short_600ms.mp4	180.3510060918561	180.95928156320224	0.6082754713461327				
165.65234375	0.2	339256	124	67	1	0	0	31	16	stimuli\Videos_short_600ms\24.single_stroke_top_to_bottom_with_a_spoon_short_short_600ms.mp4	24.single_stroke_top_to_bottom_with_a_spoon_short_short_600ms.mp4	181.15097799905195	181.75926402719415	0.6082860281421745				
166.4521484375	0.2	340894	125	67	1	0	0	32	331	stimuli\Videos_short_600ms_vertflip\65.stroke_top_to_bottom_with_stanley_knife_short_vertflip_short_600ms.mp4	65.stroke_top_to_bottom_with_stanley_knife_short_vertflip_short_600ms.mp4	181.95093876296596	182.55924502496416	0.6083062619982229				
167.251953125	0.2	342532	126	67	1	0	0	33	214	stimuli\Videos_short_600ms_horvertflip\40.repeated_push_with_finger_short_horvertflip_short_600ms.mp4	40.repeated_push_with_finger_short_horvertflip_short_600ms.mp4	182.7509071512286	183.3592266092201	0.6083194579914561				
168.05224609375	0.2	344171	127	67	1	0	0	34	261	stimuli\Videos_short_600ms_horvertflip\83.single_stroke_top_to_bottom_with_cotton_bud_short_horvertflip_short_600ms.mp4	83.single_stroke_top_to_bottom_with_cotton_bud_short_horvertflip_short_600ms.mp4	183.55117875409633	184.159207900233	0.6080291461366869				
168.85205078125	0.2	345809	128	67	1	0	0	35	255	stimuli\Videos_short_600ms_horvertflip\78.single_stroke_top_to_bottom_with_soft_brush_short_horvertflip_short_600ms.mp4	78.single_stroke_top_to_bottom_with_soft_brush_short_horvertflip_short_600ms.mp4	184.35086944001523	184.95919153720388	0.6083220971886476				
169.65185546875	0.2	347447	129	67	1	0	0	36	124	stimuli\Videos_short_600ms_horflip\40.repeated_push_with_finger_short_horflip_short_600ms.mp4	40.repeated_push_with_finger_short_horflip_short_600ms.mp4	185.15085161076055	185.75917077550548	0.6083191647448984				
170.4521484375	0.2	349086	130	67	1	0	0	37	205	stimuli\Videos_short_600ms_horvertflip\32.single_(long)pinch_with_fingers_short_horvertflip_short_600ms.mp4	32.single_(long)pinch_with_fingers_short_horvertflip_short_600ms.mp4	185.95088509926063	186.55915118678604	0.6082660875254078				
171.251953125	0.2	350724	131	67	1	0	0	38	151	stimuli\Videos_short_600ms_horflip\65.stroke_top_to_bottom_with_stanley_knife_short_horflip_short_600ms.mp4	65.stroke_top_to_bottom_with_stanley_knife_short_horflip_short_600ms.mp4	186.75084791588233	187.35913423726743	0.6082863213850942				
172.0517578125	0.2	352362	132	67	1	0	0	39	92	stimuli\Videos_short_600ms_horflip\11.single_touch_with_lighter_short_horflip_short_600ms.mp4	11.single_touch_with_lighter_short_horflip_short_600ms.mp4	187.5508567718607	188.1591137688156	0.6082569969548786				
172.85205078125	0.2	354001	133	67	1	0	0	40	334	stimuli\Videos_short_600ms_vertflip\68.stroke_top_to_bottom_with_shawl_short_vertflip_short_600ms.mp4	68.stroke_top_to_bottom_with_shawl_short_vertflip_short_600ms.mp4	188.35108086914988	188.95909359360667	0.6080127244567848				
173.65185546875	0.2	355639	134	67	1	0	0	41	33	stimuli\Videos_short_600ms\4.repeated_tap_with_finger_slow_short_short_600ms.mp4	4.repeated_tap_with_finger_slow_short_short_600ms.mp4	189.1508035186962	189.7590657940491	0.6082622753528995				
174.45166015625	0.2	357277	135	67	1	0	0	42	13	stimuli\Videos_short_600ms\21.repeated_touch_with_metal_chopstick_short_short_600ms.mp4	21.repeated_touch_with_metal_chopstick_short_short_600ms.mp4	189.9507411163104	190.55901072276905	0.6082696064586344				
175.251953125	0.2	358916	136	67	1	0	0	43	283	stimuli\Videos_short_600ms_vertflip\21.repeated_touch_with_metal_chopstick_short_vertflip_short_600ms.mp4	21.repeated_touch_with_metal_chopstick_short_vertflip_short_600ms.mp4	190.75138396645707	191.35901430034937	0.6076303338923026				
176.0517578125	0.2	360554	137	67	1	0	0	44	315	stimuli\Videos_short_600ms_vertflip\50.single_(long)hard_push_with_thumb_short_vertflip_short_600ms.mp4	50.single_(long)hard_push_with_thumb_short_vertflip_short_600ms.mp4	191.5511629189059	192.15900673464785	0.6078438157419441				
176.8515625	0.2	362192	138	67	1	0	0	45	140	stimuli\Videos_short_600ms_horflip\55.touch_top_to_bottom_with_nail_file_short_horflip_short_600ms.mp4	55.touch_top_to_bottom_with_nail_file_short_horflip_short_600ms.mp4	192.3506612365636	192.9589941837912	0.6083329472276091				
177.65185546875	0.2	363831	139	67	1	0	0	46	185	stimuli\Videos_short_600ms_horvertflip\14.repeated_touch_with_pencil_short_horvertflip_short_600ms.mp4	14.repeated_touch_with_pencil_short_horvertflip_short_600ms.mp4	193.1506709722744	193.7589866180897	0.6083156458153098				
178.45166015625	0.2	365469	140	67	1	0	0	47	351	stimuli\Videos_short_600ms_vertflip\83.single_stroke_top_to_bottom_with_cotton_bud_short_vertflip_short_600ms.mp4	83.single_stroke_top_to_bottom_with_cotton_bud_short_vertflip_short_600ms.mp4	193.95064346595973	194.55897142803224	0.6083279620725079				
179.25146484375	0.2	367107	141	67	1	0	0	48	326	stimuli\Videos_short_600ms_vertflip\60.single_push_with_tip_of_pencil_short_vertflip_short_600ms.mp4	60.single_push_with_tip_of_pencil_short_vertflip_short_600ms.mp4	194.75060422987008	195.3589562379784	0.6083520081083407				
180.0517578125	0.2	368746	142	67	1	0	0	49	186	stimuli\Videos_short_600ms_horvertflip\15.single_stroke_top_to_bottom_with_a_plastic_whisk_short_horvertflip_short_600ms.mp4	15.single_stroke_top_to_bottom_with_a_plastic_whisk_short_horvertflip_short_600ms.mp4	195.55060604798564	196.15892961139616	0.6083235634105222				
180.8515625	0.2	370384	143	67	1	0	0	50	350	stimuli\Videos_short_600ms_vertflip\82.repeated_touch_with_cotton_bud_short_vertflip_short_600ms.mp4	82.repeated_touch_with_cotton_bud_short_vertflip_short_600ms.mp4	196.35058675251275	196.95892028622984	0.6083335337170865				
181.65185546875	0.2	372023	144	67	1	0	0	51	311	stimuli\Videos_short_600ms_vertflip\47.(long)scratching_with_finger_nails_short_vertflip_short_600ms.mp4	47.(long)scratching_with_finger_nails_short_vertflip_short_600ms.mp4	197.150544583983	197.758888088003	0.6083435040200129				
182.45166015625	0.2	373661	145	67	1	0	0	52	62	stimuli\Videos_short_600ms\66.stroke_top_to_bottom_with_sponge_short_short_600ms.mp4	66.stroke_top_to_bottom_with_sponge_short_short_600ms.mp4	197.9510710161412	198.5588714317273	0.6078004155860981				
183.25146484375	0.2	375299	146	67	1	0	0	53	246	stimuli\Videos_short_600ms_horvertflip\7.repeated_touch_with_hairbrush_short_horvertflip_short_600ms.mp4	7.repeated_touch_with_hairbrush_short_horvertflip_short_600ms.mp4	198.75058839467965	199.35885184300787	0.6082634483282163				
184.0517578125	0.2	376938	147	67	1	0	0	54	242	stimuli\Videos_short_600ms_horvertflip\66.stroke_top_to_bottom_with_sponge_short_horvertflip_short_600ms.mp4	66.stroke_top_to_bottom_with_sponge_short_horvertflip_short_600ms.mp4	199.550492269198	200.15883254753496	0.608340278336982				
184.8515625	0.2	378576	148	67	1	0	0	55	258	stimuli\Videos_short_600ms_horvertflip\80.stroke_with_sharp_stick_all_over_the_hand_short_horvertflip_short_600ms.mp4	80.stroke_with_sharp_stick_all_over_the_hand_short_horvertflip_short_600ms.mp4	200.35047209399272	200.95881559801637	0.6083435040236509				
185.6513671875	0.2	380214	149	67	1	0	0	56	318	stimuli\Videos_short_600ms_vertflip\53.touch_top_to_bottom_with_knife_short_vertflip_short_600ms.mp4	53.touch_top_to_bottom_with_knife_short_vertflip_short_600ms.mp4	201.15049004054163	201.75879659578277	0.6083065552411426				
186.45166015625	0.2	381853	150	67	1	0	0	57	282	stimuli\Videos_short_600ms_vertflip\20.single_touch_with_screwdriver_short_vertflip_short_600ms.mp4	20.single_touch_with_screwdriver_short_vertflip_short_600ms.mp4	201.9505349655701	202.5587775935528	0.6082426279826905				
187.25146484375	0.2	383491	151	67	1	0	0	58	78	stimuli\Videos_short_600ms\80.stroke_with_sharp_stick_all_over_the_hand_short_short_600ms.mp4	80.stroke_with_sharp_stick_all_over_the_hand_short_short_600ms.mp4	202.75041655352103	203.3587565386115	0.6083399850904243				
188.05126953125	0.2	385129	152	67	1	0	0	59	344	stimuli\Videos_short_600ms_vertflip\77.tapping_with_all_fingers_short_vertflip_short_600ms.mp4	77.tapping_with_all_fingers_short_vertflip_short_600ms.mp4	203.5507869797184	204.15874046882527	0.6079534891068761				
188.8515625	0.2	386768	153	67	1	0	0	60	98	stimuli\Videos_short_600ms_horflip\17.repeated_touch_with_rolling_pin_short_horflip_short_600ms.mp4	17.repeated_touch_with_rolling_pin_short_horflip_short_600ms.mp4	204.35043338574545	204.9587211733524	0.6082877876069688				
189.6513671875	0.2	388406	154	67	1	0	0	61	215	stimuli\Videos_short_600ms_horvertflip\41.injection_with_blunt_syringe_short_horvertflip_short_600ms.mp4	41.injection_with_blunt_syringe_short_horvertflip_short_600ms.mp4	205.15092638805436	205.7587039305872	0.6077775425328582				
190.451171875	0.2	390044	155	67	1	0	0	62	5	stimuli\Videos_short_600ms\14.repeated_touch_with_pencil_short_short_600ms.mp4	14.repeated_touch_with_pencil_short_short_600ms.mp4	205.95077571913495	206.55868815404392	0.6079124349089398				
191.25146484375	0.2	391683	156	67	1	0	0	63	244	stimuli\Videos_short_600ms_horvertflip\68.stroke_top_to_bottom_with_shawl_short_horvertflip_short_600ms.mp4	68.stroke_top_to_bottom_with_shawl_short_horvertflip_short_600ms.mp4	206.7503206626352	207.35864451929228	0.6083238566570799				
192.05126953125	0.2	393321	157	67	1	0	0	64	169	stimuli\Videos_short_600ms_horflip\81.single_stroke_top_to_bottom_with_cotton_pad_short_horflip_short_600ms.mp4	81.single_stroke_top_to_bottom_with_cotton_pad_short_horflip_short_600ms.mp4	207.55033684972295	208.1586460441613	0.6083091944383341				
192.85107421875	0.2	394959	158	67	1	0	0	65	284	stimuli\Videos_short_600ms_vertflip\22.single_touch_with_metal_chopstick_short_vertflip_short_600ms.mp4	22.single_touch_with_metal_chopstick_short_vertflip_short_600ms.mp4	208.35037854906113	208.9586276284208	0.6082490793596662				
193.6513671875	0.2	396598	159	67	1	0	0	66	53	stimuli\Videos_short_600ms\58.single_slap_with_pencil_short_short_600ms.mp4	58.single_slap_with_pencil_short_short_600ms.mp4	209.1502868222451	209.75861683702897	0.60833001478386				
194.451171875	0.2	398236	160	67	1	0	0	67	105	stimuli\Videos_short_600ms_horflip\23.single_push_with_a_spoon_short_horflip_short_600ms.mp4	23.single_push_with_a_spoon_short_horflip_short_600ms.mp4	209.95026752676856	210.558597834799	0.6083303080304177				
195.2509765625	0.2	399874	161	67	1	0	0	68	174	stimuli\Videos_short_600ms_horflip\86.touch_top_to_bottom_with_hair_brush_short_horflip_short_600ms.mp4	86.touch_top_to_bottom_with_hair_brush_short_horflip_short_600ms.mp4	210.7502491110281	211.3585729676852	0.6083238566570799				
196.05126953125	0.2	401513	162	67	1	0	0	69	159	stimuli\Videos_short_600ms_horflip\72.(short)stroke_with_finger_all_over_the_hand_short_horflip_short_600ms.mp4	72.(short)stroke_with_finger_all_over_the_hand_short_horflip_short_600ms.mp4	211.55023274799532	212.15855601816293	0.6083232701676025				
196.85107421875	0.2	403151	163	67	1	0	0	70	308	stimuli\Videos_short_600ms_vertflip\44.pushing_top_to_bottom_with_finger_short_vertflip_short_600ms.mp4	44.pushing_top_to_bottom_with_finger_short_vertflip_short_600ms.mp4	212.3503876396353	212.9585349632216	0.6081473235863086				
197.65087890625	0.2	404789	164	67	1	0	0	71	305	stimuli\Videos_short_600ms_vertflip\41.injection_with_blunt_syringe_short_vertflip_short_600ms.mp4	41.injection_with_blunt_syringe_short_vertflip_short_600ms.mp4	213.15016864479185	213.75851420152685	0.6083455567350029				
198.451171875	0.2	406428	165	67	1	0	0	72	182	stimuli\Videos_short_600ms_horvertflip\11.single_touch_with_lighter_short_horvertflip_short_600ms.mp4	11.single_touch_with_lighter_short_horvertflip_short_600ms.mp4	213.95018013997105	214.55849666551876	0.608316525547707				
199.2509765625	0.2	408066	166	67	1	0	0	73	69	stimuli\Videos_short_600ms\72.(short)stroke_with_finger_all_over_the_hand_short_short_600ms.mp4	72.(short)stroke_with_finger_all_over_the_hand_short_short_600ms.mp4	214.7501570323184	215.35847737004224	0.6083203377238533				
200.05078125	0.2	409704	167	67	1	0	0	74	289	stimuli\Videos_short_600ms_vertflip\27.single_push_with_a_plastic_whisk_short_vertflip_short_600ms.mp4	27.single_push_with_a_plastic_whisk_short_vertflip_short_600ms.mp4	215.55011750298945	216.15845983403415	0.608342331044696				
200.85107421875	0.2	411343	168	67	1	0	0	75	293	stimuli\Videos_short_600ms_vertflip\30.finger_pulling_back_another_finger_short_vertflip_short_600ms.mp4	30.finger_pulling_back_another_finger_short_vertflip_short_600ms.mp4	216.3500961548052	216.95843877909283	0.6083426242876158				
201.65087890625	0.2	412981	169	67	1	0	0	76	74	stimuli\Videos_short_600ms\77.tapping_with_all_fingers_short_short_600ms.mp4	77.tapping_with_all_fingers_short_short_600ms.mp4	217.1500759795963	217.7584206565953	0.6083446769989678				
202.451171875	0.2	414620	170	67	1	0	0	77	275	stimuli\Videos_short_600ms_vertflip\14.repeated_touch_with_pencil_short_vertflip_short_600ms.mp4	14.repeated_touch_with_pencil_short_vertflip_short_600ms.mp4	217.9500610827854	218.55840312058717	0.6083420378017763				
203.2509765625	0.2	416258	171	67	1	0	0	78	119	stimuli\Videos_short_600ms_horflip\36.single_slap_with_full_hand_short_horflip_short_600ms.mp4	36.single_slap_with_full_hand_short_horflip_short_600ms.mp4	218.7500702320067	219.3583849980896	0.6083147660829127				
204.05078125	0.2	417896	172	67	1	0	0	79	142	stimuli\Videos_short_600ms_horflip\57.single_touch_with_nail_file_short_horflip_short_600ms.mp4	57.single_touch_with_nail_file_short_horflip_short_600ms.mp4	219.5500283567235	220.15836364990537	0.6083352931818808				
204.85107421875	0.2	419535	173	67	1	0	0	80	223	stimuli\Videos_short_600ms_horvertflip\49.repeated_slap_with_hand_short_horvertflip_short_600ms.mp4	49.repeated_slap_with_hand_short_horvertflip_short_600ms.mp4	220.35011932110135	220.95834845985155	0.6082291387501755				
205.65087890625	0.2	421173	174	67	1	0	0	81	336	stimuli\Videos_short_600ms_vertflip\7.repeated_touch_with_hairbrush_short_vertflip_short_600ms.mp4	7.repeated_touch_with_hairbrush_short_vertflip_short_600ms.mp4	221.1500762728392	221.75832916437503	0.6082528915358125				
206.45068359375	0.2	422811	175	67	1	0	0	82	55	stimuli\Videos_short_600ms\6.single_touch_with_flat_hand_short_short_600ms.mp4	6.single_touch_with_flat_hand_short_short_600ms.mp4	221.95005785709873	222.5583078161908	0.6082499590920634				
207.2509765625	0.2	424450	176	67	1	0	0	83	235	stimuli\Videos_short_600ms_horvertflip\6.single_touch_with_flat_hand_short_horvertflip_short_600ms.mp4	6.single_touch_with_flat_hand_short_horvertflip_short_600ms.mp4	222.75002184669935	223.35826652739345	0.6082446806940425				
208.05078125	0.2	426088	177	67	1	0	0	84	103	stimuli\Videos_short_600ms_horflip\21.repeated_touch_with_metal_chopstick_short_horflip_short_600ms.mp4	21.repeated_touch_with_metal_chopstick_short_horflip_short_600ms.mp4	223.54994918076045	224.1582674657766	0.6083182850161393				
208.8505859375	0.2	427726	178	67	1	0	0	85	238	stimuli\Videos_short_600ms_horvertflip\62.touch_top_to_bottom_with_scissors_short_horvertflip_short_600ms.mp4	62.touch_top_to_bottom_with_scissors_short_horvertflip_short_600ms.mp4	224.35001228693363	224.95825403518757	0.6082417482539313				
209.65087890625	0.2	429365	179	67	1	0	1	86	377	stimuli\Targets_short_600ms_horvertflip\hand-stroke_short_vertflip_short_600ms.mp4	hand-stroke_short_vertflip_short_600ms.mp4	225.1499179209204	225.7582341532252	0.6083162323047873				
210.45068359375	0.2	431003	180	67	1	0	0	87	112	stimuli\Videos_short_600ms_horflip\3.single_push_with_finger_short_horflip_short_600ms.mp4	3.single_push_with_finger_short_horflip_short_600ms.mp4	225.94993322827213	226.55821749694587	0.6082842686737422				
211.25048828125	0.2	432641	181	67	1	0	1	88	370	stimuli\Targets_short_600ms_horflip\hand-pinch_short_horflip_short_600ms.mp4	hand-pinch_short_horflip_short_600ms.mp4	226.7498755177949	227.35819380280736	0.6083182850125013				
212.05078125	0.2	434280	182	67	1	0	0	89	354	stimuli\Videos_short_600ms_vertflip\86.touch_top_to_bottom_with_hair_brush_short_vertflip_short_600ms.mp4	86.touch_top_to_bottom_with_hair_brush_short_vertflip_short_600ms.mp4	227.54985798178677	228.15817743977823	0.6083194579914561				
212.8505859375	0.2	435918	183	67	1	0	0	90	212	stimuli\Videos_short_600ms_horvertflip\39.single_stab_with_scissors_short_horvertflip_short_600ms.mp4	39.single_stab_with_scissors_short_horvertflip_short_600ms.mp4	228.34983663360256	228.958160490256	0.6083238566534419				
213.650390625	0.2	437556	184	67	1	0	0	91	63	stimuli\Videos_short_600ms\67.single_touch_with_sponge_short_short_600ms.mp4	67.single_touch_with_sponge_short_short_600ms.mp4	229.1498199773232	229.75814178126893	0.6083218039457279				
214.45068359375	0.2	439195	185	67	1	0	0	92	266	stimuli\Videos_short_600ms_horvertflip\88.repeated_stroke_with_plastic_brush_short_horvertflip_short_600ms.mp4	88.repeated_stroke_with_plastic_brush_short_horvertflip_short_600ms.mp4	229.94979833589605	230.5581213128171	0.6083229769210448				
215.25048828125	0.2	440833	186	67	1	0	0	93	317	stimuli\Videos_short_600ms_vertflip\52.touch_top_to_bottom_with_hammer_short_vertflip_short_600ms.mp4	52.touch_top_to_bottom_with_hammer_short_vertflip_short_600ms.mp4	230.74983592981516	231.35810436329848	0.6082684334833175				
216.05029296875	0.2	442471	187	67	1	0	0	94	310	stimuli\Videos_short_600ms_vertflip\46.scratching_top_to_bottom_with_finger_nails_short_vertflip_short_600ms.mp4	46.scratching_top_to_bottom_with_finger_nails_short_vertflip_short_600ms.mp4	231.54975358681625	232.15808154889237	0.6083279620761459	5.0	5.0	2.9250664051687636	1.0
253.84912109375	0.2	519883	188	67	2	0	0	0	217	stimuli\Videos_short_600ms_horvertflip\43.touch_top_to_bottom_with_sharp_wooden_stick_short_horvertflip_short_600ms.mp4	43.touch_top_to_bottom_with_sharp_wooden_stick_short_horvertflip_short_600ms.mp4	269.3490038197997	269.95719366380945	0.6081898440097575				
254.6494140625	0.2	521522	189	67	2	0	0	1	131	stimuli\Videos_short_600ms_horflip\47.(long)scratching_with_finger_nails_short_horflip_short_600ms.mp4	47.(long)scratching_with_finger_nails_short_horflip_short_600ms.mp4	270.14933583099264	270.75717583455844	0.6078400035657978				
255.44921875	0.2	523160	190	67	2	0	0	2	194	stimuli\Videos_short_600ms_horvertflip\22.single_touch_with_metal_chopstick_short_horvertflip_short_600ms.mp4	22.single_touch_with_metal_chopstick_short_horvertflip_short_600ms.mp4	270.9488347351362	271.5571574188143	0.608322683678125				
256.2490234375	0.2	524798	191	67	2	0	0	3	248	stimuli\Videos_short_600ms_horvertflip\71.single_stroke_with_finger_top_to_bottom_short_horvertflip_short_600ms.mp4	71.single_stroke_with_finger_top_to_bottom_short_horvertflip_short_600ms.mp4	271.7488321545861	272.35714633417956	0.6083141795934353				
257.04931640625	0.2	526437	192	67	2	0	0	4	132	stimuli\Videos_short_600ms_horflip\48.single_slap_with_hand_short_horflip_short_600ms.mp4	48.single_slap_with_hand_short_horflip_short_600ms.mp4	272.54882664159595	273.15711736164303	0.60829072004708				
257.84912109375	0.2	528075	193	67	2	0	0	5	77	stimuli\Videos_short_600ms\8.single_touch_with_hairbrush_short_short_600ms.mp4	8.single_touch_with_hairbrush_short_short_600ms.mp4	273.34881262451745	273.9571106756739	0.6082980511564529				
258.64892578125	0.2	529713	194	67	2	0	0	6	324	stimuli\Videos_short_600ms_vertflip\59.single_push_with_long_side_pencil_short_vertflip_short_600ms.mp4	59.single_push_with_long_side_pencil_short_vertflip_short_600ms.mp4	274.1487757343857	274.7570784774507	0.6083027430649963				
259.44921875	0.2	531352	195	67	2	0	0	7	321	stimuli\Videos_short_600ms_vertflip\56.repeated_touch_with_nail_file_short_vertflip_short_600ms.mp4	56.repeated_touch_with_nail_file_short_vertflip_short_600ms.mp4	274.9487136252428	275.55706064819606	0.6083470229532395				
260.2490234375	0.2	532990	196	67	2	0	0	8	264	stimuli\Videos_short_600ms_horvertflip\86.touch_top_to_bottom_with_hair_brush_short_horvertflip_short_600ms.mp4	86.touch_top_to_bottom_with_hair_brush_short_horvertflip_short_600ms.mp4	275.74872893259453	276.35704311218797	0.6083141795934353				
261.048828125	0.2	534628	197	67	2	0	0	9	95	stimuli\Videos_short_600ms_horflip\14.repeated_touch_with_pencil_short_horflip_short_600ms.mp4	14.repeated_touch_with_pencil_short_horflip_short_600ms.mp4	276.54877591033073	277.1570232302256	0.6082473198948719				
261.84912109375	0.2	536267	198	67	2	0	0	10	208	stimuli\Videos_short_600ms_horvertflip\35.single_punch_with_hand_short_horvertflip_short_600ms.mp4	35.single_punch_with_hand_short_horvertflip_short_600ms.mp4	277.3487536824141	277.95700334826324	0.6082496658491436				
262.64892578125	0.2	537905	199	67	2	0	0	11	48	stimuli\Videos_short_600ms\53.touch_top_to_bottom_with_knife_short_short_600ms.mp4	53.touch_top_to_bottom_with_knife_short_short_600ms.mp4	278.1486754448342	278.7569872784734	0.6083118336391635				
263.44873046875	0.2	539543	200	67	2	0	0	12	230	stimuli\Videos_short_600ms_horvertflip\55.touch_top_to_bottom_with_nail_file_short_horvertflip_short_600ms.mp4	55.touch_top_to_bottom_with_nail_file_short_horvertflip_short_600ms.mp4	278.9486435398576	279.5569653437997	0.6083218039420899				
264.2490234375	0.2	541182	201	67	2	0	0	13	133	stimuli\Videos_short_600ms_horflip\49.repeated_slap_with_hand_short_horflip_short_600ms.mp4	49.repeated_slap_with_hand_short_horflip_short_600ms.mp4	279.74860283754606	280.3569472213021	0.608344383756048				
265.048828125	0.2	542820	202	67	2	0	0	14	30	stimuli\Videos_short_600ms\37.single_stab_with_nail_file_short_short_600ms.mp4	37.single_stab_with_nail_file_short_short_600ms.mp4	280.5485908731789	281.1569276325863	0.6083367594073934				
265.84912109375	0.2	544459	203	67	2	0	0	15	148	stimuli\Videos_short_600ms_horflip\62.touch_top_to_bottom_with_scissors_short_horflip_short_600ms.mp4	62.touch_top_to_bottom_with_scissors_short_horflip_short_600ms.mp4	281.3485918115621	281.9569139087507	0.6083220971886476				
266.64892578125	0.2	546097	204	67	2	0	0	16	252	stimuli\Videos_short_600ms_horvertflip\75.(long)stroke_with_fingers_all_over_the_hand_short_horvertflip_short_600ms.mp4	75.(long)stroke_with_fingers_all_over_the_hand_short_horvertflip_short_600ms.mp4	282.14870213006725	282.75688640243607	0.6081842723688169				
267.44873046875	0.2	547735	205	67	2	0	0	17	272	stimuli\Videos_short_600ms_vertflip\11.single_touch_with_lighter_short_vertflip_short_600ms.mp4	11.single_touch_with_lighter_short_vertflip_short_600ms.mp4	282.9485423705737	283.55685420421287	0.6083118336391635				
268.2490234375	0.2	549374	206	67	2	0	0	18	178	stimuli\Videos_short_600ms_horflip\9.single_touch_with_hammer_short_horflip_short_600ms.mp4	9.single_touch_with_hammer_short_horflip_short_600ms.mp4	283.7490520878091	284.3568372546906	0.6077851668815129				
269.048828125	0.2	551012	207	67	2	0	0	19	154	stimuli\Videos_short_600ms_horflip\68.stroke_top_to_bottom_with_shawl_short_horflip_short_600ms.mp4	68.stroke_top_to_bottom_with_shawl_short_horflip_short_600ms.mp4	284.5486536274584	285.1568452309366	0.6081916034781898				
269.8486328125	0.2	552650	208	67	2	0	0	20	126	stimuli\Videos_short_600ms_horflip\42.single_slap_with_plastic_whisk_short_horflip_short_600ms.mp4	42.single_slap_with_plastic_whisk_short_horflip_short_600ms.mp4	285.3485733371708	285.95681625840007	0.6082429212292482				
270.64892578125	0.2	554289	209	67	2	0	0	21	59	stimuli\Videos_short_600ms\63.stroke_top_to_bottom_with_screwdriver_short_short_600ms.mp4	63.stroke_top_to_bottom_with_screwdriver_short_short_600ms.mp4	286.1484795576471	286.7568060534977	0.6083264958506334				
271.44873046875	0.2	555927	210	67	2	0	0	22	342	stimuli\Videos_short_600ms_vertflip\75.(long)stroke_with_fingers_all_over_the_hand_short_vertflip_short_600ms.mp4	75.(long)stroke_with_fingers_all_over_the_hand_short_vertflip_short_600ms.mp4	286.94843181747274	287.5567829458487	0.6083511283759435				
272.24853515625	0.2	557565	211	67	2	0	1	23	373	stimuli\Targets_short_600ms_horvertflip\chopstick-silver-tap_short_vertflip_short_600ms.mp4	chopstick-silver-tap_short_vertflip_short_600ms.mp4	287.7484380342539	288.3567580787312	0.6083200444772956				
273.048828125	0.2	559204	212	67	2	0	0	24	302	stimuli\Videos_short_600ms_vertflip\39.single_stab_with_scissors_short_vertflip_short_600ms.mp4	39.single_stab_with_scissors_short_vertflip_short_600ms.mp4	288.54842782935157	289.15673995623365	0.6083121268820832				
273.8486328125	0.2	560842	213	67	2	0	1	25	375	stimuli\Targets_short_600ms_horvertflip\finger-tap_short_vertflip_short_600ms.mp4	finger-tap_short_vertflip_short_600ms.mp4	289.34840149601223	289.95671978102837	0.6083182850161393				
274.6484375	0.2	562480	214	67	2	0	0	26	73	stimuli\Videos_short_600ms\76.tickle_with_fingers_from_top_to_bottom_short_short_600ms.mp4	76.tickle_with_fingers_from_top_to_bottom_short_short_600ms.mp4	290.1484308790932	290.7567019517737	0.608271072680509				
275.44873046875	0.2	564119	215	67	2	0	0	27	183	stimuli\Videos_short_600ms_horvertflip\12.repeated_touch_with_nail_file_short_horvertflip_short_600ms.mp4	12.repeated_touch_with_nail_file_short_horvertflip_short_600ms.mp4	290.94837404834834	291.55668119007896	0.6083071417306201				
276.24853515625	0.2	565757	216	67	2	0	0	28	319	stimuli\Videos_short_600ms_vertflip\54.repeated_touch_with_knife_short_vertflip_short_600ms.mp4	54.repeated_touch_with_knife_short_vertflip_short_600ms.mp4	291.7484007922285	292.35666453380327	0.608263741574774				
277.04833984375	0.2	567395	217	67	2	0	0	29	285	stimuli\Videos_short_600ms_vertflip\23.single_push_with_a_spoon_short_vertflip_short_600ms.mp4	23.single_push_with_a_spoon_short_vertflip_short_600ms.mp4	292.54837533862155	293.15664553156967	0.6082701929481118				
277.8486328125	0.2	569034	218	67	2	0	0	30	122	stimuli\Videos_short_600ms_horflip\39.single_stab_with_scissors_short_horflip_short_600ms.mp4	39.single_stab_with_scissors_short_horflip_short_600ms.mp4	293.34868975515565	293.9566262360968	0.6079364809411345				
278.6484375	0.2	570672	219	67	2	0	0	31	39	stimuli\Videos_short_600ms\45.scratching_with_finger_nails_short_short_600ms.mp4	45.scratching_with_finger_nails_short_short_600ms.mp4	294.1487971412171	294.7566063541344	0.6078092129173456				
279.4482421875	0.2	572310	220	67	2	0	0	32	268	stimuli\Videos_short_600ms_horvertflip\9.single_touch_with_hammer_short_horvertflip_short_600ms.mp4	9.single_touch_with_hammer_short_horvertflip_short_600ms.mp4	294.9482866615472	295.5569389518132	0.6086522902660363				
280.24853515625	0.2	573949	221	67	2	0	0	33	234	stimuli\Videos_short_600ms_horvertflip\59.single_push_with_long_side_pencil_short_horvertflip_short_600ms.mp4	59.single_push_with_long_side_pencil_short_horvertflip_short_600ms.mp4	295.74824889168303	296.3565692294069	0.6083203377238533				
281.04833984375	0.2	575587	222	67	2	0	0	34	353	stimuli\Videos_short_600ms_vertflip\85.touch_top_to_bottom_with_fabric_short_vertflip_short_600ms.mp4	85.touch_top_to_bottom_with_fabric_short_vertflip_short_600ms.mp4	296.5486369125356	297.15655257312756	0.6079156605919707				
281.84814453125	0.2	577225	223	67	2	0	0	35	220	stimuli\Videos_short_600ms_horvertflip\46.scratching_top_to_bottom_with_finger_nails_short_horvertflip_short_600ms.mp4	46.scratching_top_to_bottom_with_finger_nails_short_horvertflip_short_600ms.mp4	297.3482850780274	297.95651509651	0.6082300184825726				
282.6484375	0.2	578864	224	67	2	0	0	36	237	stimuli\Videos_short_600ms_horvertflip\61.single_hit_with_rolling_pin_short_horvertflip_short_600ms.mp4	61.single_hit_with_rolling_pin_short_horvertflip_short_600ms.mp4	298.1482141715569	298.7564875901917	0.6082734186347807				
283.4482421875	0.2	580502	225	67	2	0	0	37	340	stimuli\Videos_short_600ms_vertflip\73.single_stroke_with_flat_hand_short_vertflip_short_600ms.mp4	73.single_stroke_with_flat_hand_short_vertflip_short_600ms.mp4	298.94834355093917	299.5564688812083	0.6081253302691039				
284.248046875	0.2	582140	226	67	2	0	0	38	226	stimuli\Videos_short_600ms_horvertflip\51.repeated_touch_with_hammer_short_horvertflip_short_600ms.mp4	51.repeated_touch_with_hammer_short_horvertflip_short_600ms.mp4	299.74830314187784	300.35644929248883	0.6081461506109918				
285.04833984375	0.2	583779	227	67	2	0	0	39	303	stimuli\Videos_short_600ms_vertflip\4.repeated_tap_with_finger_slow_short_vertflip_short_600ms.mp4	4.repeated_tap_with_finger_slow_short_vertflip_short_600ms.mp4	300.5481131782217	301.1564349821674	0.6083218039457279				
285.84814453125	0.2	585417	228	67	2	0	0	40	188	stimuli\Videos_short_600ms_horvertflip\17.repeated_touch_with_rolling_pin_short_horvertflip_short_600ms.mp4	17.repeated_touch_with_rolling_pin_short_horvertflip_short_600ms.mp4	301.34811704904496	301.956466711199	0.6083496621540689				
286.6484375	0.2	587056	229	67	2	0	0	41	23	stimuli\Videos_short_600ms\30.finger_pulling_back_another_finger_short_short_600ms.mp4	30.finger_pulling_back_another_finger_short_short_600ms.mp4	302.1481279577347	302.75642336969395	0.6082954119592614				
287.4482421875	0.2	588694	230	67	2	0	0	42	274	stimuli\Videos_short_600ms_vertflip\13.single_touch_with_pen_short_vertflip_short_600ms.mp4	13.single_touch_with_pen_short_vertflip_short_600ms.mp4	302.9480796310745	303.55644131624285	0.6083616851683473				
288.248046875	0.2	590332	231	67	2	0	0	43	216	stimuli\Videos_short_600ms_horvertflip\42.single_slap_with_plastic_whisk_short_horvertflip_short_600ms.mp4	42.single_slap_with_plastic_whisk_short_horvertflip_short_600ms.mp4	303.7483855435239	304.3563809665684	0.6079954230444855				
289.04833984375	0.2	591971	232	67	2	0	0	44	239	stimuli\Videos_short_600ms_horvertflip\63.stroke_top_to_bottom_with_screwdriver_short_horvertflip_short_600ms.mp4	63.stroke_top_to_bottom_with_screwdriver_short_horvertflip_short_600ms.mp4	304.54807740241813	305.1563596183805	0.6082822159623902				
289.84814453125	0.2	593609	233	67	2	0	0	45	82	stimuli\Videos_short_600ms\84.single_touch_with_cotton_bud_short_short_600ms.mp4	84.single_touch_with_cotton_bud_short_short_600ms.mp4	305.34817129923977	305.95634149588295	0.6081701966431865				
290.64794921875	0.2	595247	234	67	2	0	0	46	254	stimuli\Videos_short_600ms_horvertflip\77.tapping_with_all_fingers_short_horvertflip_short_600ms.mp4	77.tapping_with_all_fingers_short_horvertflip_short_600ms.mp4	306.14800655459476	306.75632190716715	0.6083153525723901				
291.4482421875	0.2	596886	235	67	2	0	0	47	4	stimuli\Videos_short_600ms\13.single_touch_with_pen_short_short_600ms.mp4	13.single_touch_with_pen_short_short_600ms.mp4	306.9479834469457	307.5563052508878	0.6083218039420899				
292.248046875	0.2	598524	236	67	2	0	0	48	36	stimuli\Videos_short_600ms\42.single_slap_with_plastic_whisk_short_short_600ms.mp4	42.single_slap_with_plastic_whisk_short_short_600ms.mp4	307.74794538383503	308.35628360946066	0.60833822562563				
293.0478515625	0.2	600162	237	67	2	0	0	49	206	stimuli\Videos_short_600ms_horvertflip\33.scratch_top_to_bottom_with_scissors_short_horvertflip_short_600ms.mp4	33.scratch_top_to_bottom_with_scissors_short_horvertflip_short_600ms.mp4	308.54794778843643	309.15626607345257	0.6083182850161393				
293.84814453125	0.2	601801	238	67	2	0	0	50	32	stimuli\Videos_short_600ms\39.single_stab_with_scissors_short_short_600ms.mp4	39.single_stab_with_scissors_short_short_600ms.mp4	309.34792878620647	309.95624589824365	0.6083171120371844				
294.64794921875	0.2	603439	239	67	2	0	1	51	376	stimuli\Targets_short_600ms_horvertflip\hand-pinch_short_vertflip_short_600ms.mp4	hand-pinch_short_vertflip_short_600ms.mp4	310.1478866176767	310.75622924196796	0.6083426242912537				
295.44775390625	0.2	605077	240	67	2	0	0	52	176	stimuli\Videos_short_600ms_horflip\88.repeated_stroke_with_plastic_brush_short_horflip_short_600ms.mp4	88.repeated_stroke_with_plastic_brush_short_horflip_short_600ms.mp4	310.9479239183529	311.55620906675904	0.6082851484061393				
296.248046875	0.2	606716	241	67	2	0	0	53	316	stimuli\Videos_short_600ms_vertflip\51.repeated_touch_with_hammer_short_vertflip_short_600ms.mp4	51.repeated_touch_with_hammer_short_vertflip_short_600ms.mp4	311.74787412547084	312.3561962226595	0.6083220971886476				
297.0478515625	0.2	608354	242	67	2	0	0	54	270	stimuli\Videos_short_600ms_vertflip\1.repeated_touch_with_finger_fast_short_vertflip_short_600ms.mp4	1.repeated_touch_with_finger_fast_short_vertflip_short_600ms.mp4	312.5478598151494	313.1561470162669	0.6082872011174913				
297.84765625	0.2	609992	243	67	2	0	0	55	173	stimuli\Videos_short_600ms_horflip\85.touch_top_to_bottom_with_fabric_short_horflip_short_600ms.mp4	85.touch_top_to_bottom_with_fabric_short_horflip_short_600ms.mp4	313.3478440386061	313.95613417216737	0.6082901335612405				
298.64794921875	0.2	611631	244	67	2	0	0	56	279	stimuli\Videos_short_600ms_vertflip\18.single_stroke_from_top_to_bottom_with_rolling_pin_short_vertflip_short_600ms.mp4	18.single_stroke_from_top_to_bottom_with_rolling_pin_short_vertflip_short_600ms.mp4	314.1478177052668	314.7561081320746	0.6082904268077982				
299.44775390625	0.2	613269	245	67	2	0	0	57	162	stimuli\Videos_short_600ms_horflip\75.(long)stroke_with_fingers_all_over_the_hand_short_horflip_short_600ms.mp4	75.(long)stroke_with_fingers_all_over_the_hand_short_horflip_short_600ms.mp4	314.9478767060209	315.55608971633046	0.6082130103095551				
300.24755859375	0.2	614907	246	67	2	0	0	58	28	stimuli\Videos_short_600ms\35.single_punch_with_hand_short_short_600ms.mp4	35.single_punch_with_hand_short_short_600ms.mp4	315.7482617944297	316.35607951143174	0.6078177170020354				
301.0478515625	0.2	616546	247	67	2	0	0	59	189	stimuli\Videos_short_600ms_horvertflip\18.single_stroke_from_top_to_bottom_with_rolling_pin_short_horvertflip_short_600ms.mp4	18.single_stroke_from_top_to_bottom_with_rolling_pin_short_horvertflip_short_600ms.mp4	316.54780321900034	317.1560772241246	0.6082740051242581				
301.84765625	0.2	618184	248	67	2	0	0	60	207	stimuli\Videos_short_600ms_horvertflip\34.repeated_punch_with_hand_short_horvertflip_short_600ms.mp4	34.repeated_punch_with_hand_short_horvertflip_short_600ms.mp4	317.3478457980709	317.9560629138032	0.6082171157322591				
302.6474609375	0.2	619822	249	67	2	0	0	61	297	stimuli\Videos_short_600ms_vertflip\34.repeated_punch_with_hand_short_vertflip_short_600ms.mp4	34.repeated_punch_with_hand_short_vertflip_short_600ms.mp4	318.1476977683524	318.75605094943603	0.6083531810836575				
303.44775390625	0.2	621461	250	67	2	0	0	62	335	stimuli\Videos_short_600ms_vertflip\69.stroke_with_soft_sock_short_vertflip_short_600ms.mp4	69.stroke_with_soft_sock_short_vertflip_short_600ms.mp4	318.947698413489	319.5560193377023	0.6083209242133307				
304.24755859375	0.2	623099	251	67	2	0	0	63	309	stimuli\Videos_short_600ms_vertflip\45.scratching_with_finger_nails_short_vertflip_short_600ms.mp4	45.scratching_with_finger_nails_short_vertflip_short_600ms.mp4	319.747768557525	320.35600209493714	0.6082335374121612				
305.04736328125	0.2	624737	252	67	2	0	0	64	9	stimuli\Videos_short_600ms\18.single_stroke_from_top_to_bottom_with_rolling_pin_short_short_600ms.mp4	18.single_stroke_from_top_to_bottom_with_rolling_pin_short_short_600ms.mp4	320.5476354832608	321.15598133323874	0.6083458499779226				
305.84765625	0.2	626376	253	67	2	0	0	65	225	stimuli\Videos_short_600ms_horvertflip\50.single_(long)hard_push_with_thumb_short_horvertflip_short_600ms.mp4	50.single_(long)hard_push_with_thumb_short_horvertflip_short_600ms.mp4	321.34767718260264	321.9559614512764	0.6082842686737422				
306.6474609375	0.2	628014	254	67	2	0	0	66	320	stimuli\Videos_short_600ms_vertflip\55.touch_top_to_bottom_with_nail_file_short_vertflip_short_600ms.mp4	55.touch_top_to_bottom_with_nail_file_short_vertflip_short_600ms.mp4	322.1476361870482	322.75594215579986	0.6083059687516652				
307.44775390625	0.2	629653	255	67	2	0	0	67	294	stimuli\Videos_short_600ms_vertflip\31.hand_grabbing_wrist_short_vertflip_short_600ms.mp4	31.hand_grabbing_wrist_short_vertflip_short_600ms.mp4	322.9476555998226	323.5559249130383	0.6082693132157146				
308.24755859375	0.2	631291	256	67	2	0	0	68	167	stimuli\Videos_short_600ms_horflip\8.single_touch_with_hairbrush_short_horflip_short_600ms.mp4	8.single_touch_with_hairbrush_short_horflip_short_600ms.mp4	323.74756885815805	324.3559064972942	0.6083376391361526				
309.04736328125	0.2	632929	257	67	2	0	0	69	153	stimuli\Videos_short_600ms_horflip\67.single_touch_with_sponge_short_horflip_short_600ms.mp4	67.single_touch_with_sponge_short_horflip_short_600ms.mp4	324.54761847509144	325.15588661533184	0.6082681402403978				
309.84765625	0.2	634568	258	67	2	0	0	70	54	stimuli\Videos_short_600ms\59.single_push_with_long_side_pencil_short_short_600ms.mp4	59.single_push_with_long_side_pencil_short_short_600ms.mp4	325.34754199698	325.95587083878854	0.6083288418085431				
310.6474609375	0.2	636206	259	67	2	0	0	71	201	stimuli\Videos_short_600ms_horvertflip\29.single_pinch_with_tweezers_short_horvertflip_short_600ms.mp4	29.single_pinch_with_tweezers_short_horvertflip_short_600ms.mp4	326.14750569333773	326.7558486108719	0.6083429175341735				
311.447265625	0.2	637844	260	67	2	0	0	72	168	stimuli\Videos_short_600ms_horflip\80.stroke_with_sharp_stick_all_over_the_hand_short_horflip_short_600ms.mp4	80.stroke_with_sharp_stick_all_over_the_hand_short_horflip_short_600ms.mp4	326.9474869843507	327.55582960864194	0.6083426242912537				
312.24755859375	0.2	639483	261	67	2	0	0	73	12	stimuli\Videos_short_600ms\20.single_touch_with_screwdriver_short_short_600ms.mp4	20.single_touch_with_screwdriver_short_short_600ms.mp4	327.7477955360009	328.35580444828156	0.6080089122806385				
313.04736328125	0.2	641121	262	67	2	0	1	74	365	stimuli\Targets_short_600ms\hand-stroke_short_short_600ms.mp4	hand-stroke_short_short_600ms.mp4	328.5474871016486	329.1557962960869	0.6083091944383341				
313.84716796875	0.2	642759	263	67	2	0	0	75	231	stimuli\Videos_short_600ms_horvertflip\56.repeated_touch_with_nail_file_short_horvertflip_short_600ms.mp4	56.repeated_touch_with_nail_file_short_horvertflip_short_600ms.mp4	329.3474299776608	329.9557482626733	0.6083182850125013				
314.6474609375	0.2	644398	264	67	2	0	0	76	106	stimuli\Videos_short_600ms_horflip\24.single_stroke_top_to_bottom_with_a_spoon_short_horflip_short_600ms.mp4	24.single_stroke_top_to_bottom_with_a_spoon_short_horflip_short_600ms.mp4	330.14745789451626	330.75573629830615	0.6082784037898818				
315.447265625	0.2	646036	265	67	2	0	0	77	18	stimuli\Videos_short_600ms\26.single_touch_with_a_blunt_syringe_short_short_600ms.mp4	26.single_touch_with_a_blunt_syringe_short_short_600ms.mp4	330.94741338003223	331.5557114311887	0.6082980511564529				
316.2470703125	0.2	647674	266	67	2	0	0	78	115	stimuli\Videos_short_600ms_horflip\32.single_(long)pinch_with_fingers_short_horflip_short_600ms.mp4	32.single_(long)pinch_with_fingers_short_horflip_short_600ms.mp4	331.7473937913128	332.3557276182728	0.6083338269600063				
317.04736328125	0.2	649313	267	67	2	0	0	79	213	stimuli\Videos_short_600ms_horvertflip\4.repeated_tap_with_finger_slow_short_horvertflip_short_600ms.mp4	4.repeated_tap_with_finger_slow_short_horvertflip_short_600ms.mp4	332.5473762553047	333.15569835249335	0.6083220971886476				
317.84716796875	0.2	650951	268	67	2	0	0	80	175	stimuli\Videos_short_600ms_horflip\87.single_stroke_top_to_bottom_with_plastic_brush_short_horflip_short_600ms.mp4	87.single_stroke_top_to_bottom_with_plastic_brush_short_horflip_short_600ms.mp4	333.34733496650733	333.9556866813691	0.608351714861783				
318.64697265625	0.2	652589	269	67	2	0	0	81	278	stimuli\Videos_short_600ms_vertflip\17.repeated_touch_with_rolling_pin_short_vertflip_short_600ms.mp4	17.repeated_touch_with_rolling_pin_short_vertflip_short_600ms.mp4	334.14734147653144	334.75565653585727	0.6083150593258324				
319.447265625	0.2	654228	270	67	2	0	0	82	143	stimuli\Videos_short_600ms_horflip\58.single_slap_with_pencil_short_horflip_short_600ms.mp4	58.single_slap_with_pencil_short_horflip_short_600ms.mp4	334.9472978417798	335.55561876599313	0.6083209242133307				
320.2470703125	0.2	655866	271	67	2	0	0	83	11	stimuli\Videos_short_600ms\2.single_touch_with_finger_short_short_600ms.mp4	2.single_touch_with_finger_short_short_600ms.mp4	335.7474568388352	336.3556199976192	0.6081631587840093				
321.046875	0.2	657504	272	67	2	0	0	84	20	stimuli\Videos_short_600ms\28.single_injection_with_sharp_needle_short_short_600ms.mp4	28.single_injection_with_sharp_needle_short_short_600ms.mp4	336.54729531987687	337.1556009953856	0.6083056755087455				
321.84716796875	0.2	659143	273	67	2	0	0	85	29	stimuli\Videos_short_600ms\36.single_slap_with_full_hand_short_short_600ms.mp4	36.single_slap_with_full_hand_short_short_600ms.mp4	337.34726194867835	337.9555825796451	0.608320630966773				
322.64697265625	0.2	660781	274	67	2	0	0	86	102	stimuli\Videos_short_600ms_horflip\20.single_touch_with_screwdriver_short_horflip_short_600ms.mp4	20.single_touch_with_screwdriver_short_horflip_short_600ms.mp4	338.14722535178953	338.7555629909257	0.6083376391361526				
323.44677734375	0.2	662419	275	67	2	0	0	87	21	stimuli\Videos_short_600ms\29.single_pinch_with_tweezers_short_short_600ms.mp4	29.single_pinch_with_tweezers_short_short_600ms.mp4	338.94720195089394	339.5555445751852	0.6083426242912537				
324.2470703125	0.2	664058	276	67	2	0	0	88	56	stimuli\Videos_short_600ms\60.single_push_with_tip_of_pencil_short_short_600ms.mp4	60.single_push_with_tip_of_pencil_short_short_600ms.mp4	339.74720787442857	340.35552469322283	0.6083168187942647				
325.046875	0.2	665696	277	67	2	0	0	89	68	stimuli\Videos_short_600ms\71.single_stroke_with_finger_top_to_bottom_short_short_600ms.mp4	71.single_stroke_with_finger_top_to_bottom_short_short_600ms.mp4	340.5472445886153	341.1555068639682	0.6082622753528995				
325.8466796875	0.2	667334	278	67	2	0	0	90	83	stimuli\Videos_short_600ms\85.touch_top_to_bottom_with_fabric_short_short_600ms.mp4	85.touch_top_to_bottom_with_fabric_short_short_600ms.mp4	341.3478073830702	341.9554884482277	0.6076810651575215				
326.64697265625	0.2	668973	279	67	2	0	0	91	203	stimuli\Videos_short_600ms_horvertflip\30.finger_pulling_back_another_finger_short_horvertflip_short_600ms.mp4	30.finger_pulling_back_another_finger_short_horvertflip_short_600ms.mp4	342.14719221518317	342.75546973924065	0.6082775240574847				
327.44677734375	0.2	670611	280	67	2	0	0	92	24	stimuli\Videos_short_600ms\31.hand_grabbing_wrist_short_short_600ms.mp4	31.hand_grabbing_wrist_short_short_600ms.mp4	342.94713743714965	343.55544692483454	0.6083094876848918				
328.2470703125	0.2	672250	281	67	2	0	0	93	332	stimuli\Videos_short_600ms_vertflip\66.stroke_top_to_bottom_with_sponge_short_vertflip_short_600ms.mp4	66.stroke_top_to_bottom_with_sponge_short_vertflip_short_600ms.mp4	343.7476272137719	344.3554056360372	0.6077784222652554	4.0	4.0	1.822147334143665	1.0
360.47900390625	0.2	738261	282	67	3	0	0	0	91	stimuli\Videos_short_600ms_horflip\10.single_touch_with_knife_short_horflip_short_600ms.mp4	10.single_touch_with_knife_short_horflip_short_600ms.mp4	375.97967963646806	376.58810847458153	0.6084288381134684				
361.279296875	0.2	739900	283	67	3	0	0	1	171	stimuli\Videos_short_600ms_horflip\83.single_stroke_top_to_bottom_with_cotton_bud_short_horflip_short_600ms.mp4	83.single_stroke_top_to_bottom_with_cotton_bud_short_horflip_short_600ms.mp4	376.7803908125388	377.3879777462753	0.6075869337364566				
362.08740234375	0.2	741555	284	67	3	0	0	2	164	stimuli\Videos_short_600ms_horflip\77.tapping_with_all_fingers_short_horflip_short_600ms.mp4	77.tapping_with_all_fingers_short_horflip_short_600ms.mp4	377.58797270247305	378.19628893477784	0.6083162323047873				
362.88720703125	0.2	743193	285	67	3	0	0	3	191	stimuli\Videos_short_600ms_horvertflip\2.single_touch_with_finger_short_horvertflip_short_600ms.mp4	2.single_touch_with_finger_short_horvertflip_short_600ms.mp4	378.3879924084904	378.9962708122803	0.6082784037898818				
363.6875	0.2	744832	286	67	3	0	0	4	314	stimuli\Videos_short_600ms_vertflip\5.repeated_tap_with_finger_moving_from_top_to_bottom_short_vertflip_short_600ms.mp4	5.repeated_tap_with_finger_moving_from_top_to_bottom_short_vertflip_short_600ms.mp4	379.18793293854833	379.7962503438284	0.6083174052801041				
364.4873046875	0.2	746470	287	67	3	0	0	5	107	stimuli\Videos_short_600ms_horflip\25.single_touch_with_stanley_knife_short_horflip_short_600ms.mp4	25.single_touch_with_stanley_knife_short_horflip_short_600ms.mp4	379.9878895970396	380.5962310483519	0.6083414513122989				
365.287109375	0.2	748108	288	67	3	0	0	6	352	stimuli\Videos_short_600ms_vertflip\84.single_touch_with_cotton_bud_short_vertflip_short_600ms.mp4	84.single_touch_with_cotton_bud_short_vertflip_short_600ms.mp4	380.7879028516836	381.3962167380305	0.6083138863468776				
366.08740234375	0.2	749747	289	67	3	0	0	7	67	stimuli\Videos_short_600ms\70.(long)stroke_with_finger_all_over_the_hand_short_short_600ms.mp4	70.(long)stroke_with_finger_all_over_the_hand_short_short_600ms.mp4	381.5878973386898	382.1961959763358	0.6082986376459303				
366.88720703125	0.2	751385	290	67	3	0	0	8	6	stimuli\Videos_short_600ms\15.single_stroke_top_to_bottom_with_a_plastic_whisk_short_short_600ms.mp4	15.single_stroke_top_to_bottom_with_a_plastic_whisk_short_short_600ms.mp4	382.3878542904277	382.9961746281515	0.6083203377238533				
367.68701171875	0.2	753023	291	67	3	0	0	9	233	stimuli\Videos_short_600ms_horvertflip\58.single_slap_with_pencil_short_horvertflip_short_600ms.mp4	58.single_slap_with_pencil_short_horvertflip_short_600ms.mp4	383.1878121218979	383.7961609043159	0.6083487824180338				
368.4873046875	0.2	754662	292	67	3	0	0	10	75	stimuli\Videos_short_600ms\78.single_stroke_top_to_bottom_with_soft_brush_short_short_600ms.mp4	78.single_stroke_top_to_bottom_with_soft_brush_short_short_600ms.mp4	383.9878503023028	384.59613310475834	0.6082828024555056				
369.287109375	0.2	756300	293	67	3	0	0	11	51	stimuli\Videos_short_600ms\56.repeated_touch_with_nail_file_short_short_600ms.mp4	56.repeated_touch_with_nail_file_short_short_600ms.mp4	384.7878755799611	385.396102372757	0.6082267927959037				
370.0869140625	0.2	757938	294	67	3	0	0	12	31	stimuli\Videos_short_600ms\38.double_slap_with_pencil_short_short_600ms.mp4	38.double_slap_with_pencil_short_short_600ms.mp4	385.5877841463917	386.1960974462527	0.6083132998610381				
370.88720703125	0.2	759577	295	67	3	0	0	13	79	stimuli\Videos_short_600ms\81.single_stroke_top_to_bottom_with_cotton_pad_short_short_600ms.mp4	81.single_stroke_top_to_bottom_with_cotton_pad_short_short_600ms.mp4	386.38775898603126	386.9960898805475	0.6083308945162571				
371.68701171875	0.2	761215	296	67	3	0	0	14	267	stimuli\Videos_short_600ms_horvertflip\89.single_touch_with_plastic_brush_short_horvertflip_short_600ms.mp4	89.single_touch_with_plastic_brush_short_horvertflip_short_600ms.mp4	387.1877435027309	387.7960444863311	0.608300983600202				
372.48681640625	0.2	762853	297	67	3	0	0	15	349	stimuli\Videos_short_600ms_vertflip\81.single_stroke_top_to_bottom_with_cotton_pad_short_vertflip_short_600ms.mp4	81.single_stroke_top_to_bottom_with_cotton_pad_short_vertflip_short_600ms.mp4	387.98798284872464	388.5960433720029	0.6080605232782545				
373.287109375	0.2	764492	298	67	3	0	0	16	329	stimuli\Videos_short_600ms_vertflip\63.stroke_top_to_bottom_with_screwdriver_short_vertflip_short_600ms.mp4	63.stroke_top_to_bottom_with_screwdriver_short_vertflip_short_600ms.mp4	388.7877028590701	389.39602261030814	0.6083197512380139				
374.0869140625	0.2	766130	299	67	3	0	0	17	47	stimuli\Videos_short_600ms\52.touch_top_to_bottom_with_hammer_short_short_600ms.mp4	52.touch_top_to_bottom_with_hammer_short_short_600ms.mp4	389.5876815108859	390.196010645941	0.6083291350551008				
374.88720703125	0.2	767769	300	67	3	0	0	18	209	stimuli\Videos_short_600ms_horvertflip\36.single_slap_with_full_hand_short_horvertflip_short_600ms.mp4	36.single_slap_with_full_hand_short_horvertflip_short_600ms.mp4	390.3876633883883	390.9959860720664	0.608322683678125				
375.68701171875	0.2	769407	301	67	3	0	0	19	296	stimuli\Videos_short_600ms_vertflip\33.scratch_top_to_bottom_with_scissors_short_vertflip_short_600ms.mp4	33.scratch_top_to_bottom_with_scissors_short_vertflip_short_600ms.mp4	391.18819979085674	391.7959679495689	0.6077681587121333				
376.48681640625	0.2	771045	302	67	3	0	0	20	158	stimuli\Videos_short_600ms_horflip\71.single_stroke_with_finger_top_to_bottom_short_horflip_short_600ms.mp4	71.single_stroke_with_finger_top_to_bottom_short_horflip_short_600ms.mp4	391.98764327183017	392.5959460148952	0.6083027430649963				
377.287109375	0.2	772684	303	67	3	0	0	21	286	stimuli\Videos_short_600ms_vertflip\24.single_stroke_top_to_bottom_with_a_spoon_short_vertflip_short_600ms.mp4	24.single_stroke_top_to_bottom_with_a_spoon_short_vertflip_short_600ms.mp4	392.7877550565572	393.3959293586194	0.6081743020622525				
378.0869140625	0.2	774322	304	67	3	0	0	22	19	stimuli\Videos_short_600ms\27.single_push_with_a_plastic_whisk_short_short_600ms.mp4	27.single_push_with_a_plastic_whisk_short_short_600ms.mp4	393.58758562000367	394.19590742394575	0.6083218039420899				
378.88671875	0.2	775960	305	67	3	0	0	23	290	stimuli\Videos_short_600ms_vertflip\28.single_injection_with_sharp_needle_short_vertflip_short_600ms.mp4	28.single_injection_with_sharp_needle_short_vertflip_short_600ms.mp4	394.3875460906711	394.99588812847287	0.6083420378017763				
379.68701171875	0.2	777599	306	67	3	0	0	24	347	stimuli\Videos_short_600ms_vertflip\8.single_touch_with_hairbrush_short_vertflip_short_600ms.mp4	8.single_touch_with_hairbrush_short_vertflip_short_600ms.mp4	395.18752620870873	395.7958702992182	0.6083440905094903				
380.48681640625	0.2	779237	307	67	3	0	0	25	229	stimuli\Videos_short_600ms_horvertflip\54.repeated_touch_with_knife_short_horvertflip_short_600ms.mp4	54.repeated_touch_with_knife_short_horvertflip_short_600ms.mp4	395.9875069132322	396.59584953752346	0.6083426242912537				
381.28662109375	0.2	780875	308	67	3	0	0	26	313	stimuli\Videos_short_600ms_vertflip\49.repeated_slap_with_hand_short_vertflip_short_600ms.mp4	49.repeated_slap_with_hand_short_vertflip_short_600ms.mp4	396.7875060921506	397.395831121783	0.6083250296323968				
382.0869140625	0.2	782514	309	67	3	0	0	27	343	stimuli\Videos_short_600ms_vertflip\76.tickle_with_fingers_from_top_to_bottom_short_vertflip_short_600ms.mp4	76.tickle_with_fingers_from_top_to_bottom_short_vertflip_short_600ms.mp4	397.587487969653	398.195811239817	0.6083232701639645				
382.88671875	0.2	784152	310	67	3	0	0	28	155	stimuli\Videos_short_600ms_horflip\69.stroke_with_soft_sock_short_horflip_short_600ms.mp4	69.stroke_with_soft_sock_short_horflip_short_600ms.mp4	398.3874798174584	398.9957928240765	0.6083130066181184				
383.6865234375	0.2	785790	311	67	3	0	0	29	99	stimuli\Videos_short_600ms_horflip\18.single_stroke_from_top_to_bottom_with_rolling_pin_short_horflip_short_600ms.mp4	18.single_stroke_from_top_to_bottom_with_rolling_pin_short_horflip_short_600ms.mp4	399.1875065613385	399.79578203268466	0.6082754713461327				
384.48681640625	0.2	787429	312	67	3	0	0	30	341	stimuli\Videos_short_600ms_vertflip\74.fingers_walking_from_top_to_bottom_short_vertflip_short_600ms.mp4	74.fingers_walking_from_top_to_bottom_short_vertflip_short_600ms.mp4	399.98743506837855	400.59574983446146	0.6083147660829127				
385.28662109375	0.2	789067	313	67	3	0	0	31	199	stimuli\Videos_short_600ms_horvertflip\27.single_push_with_a_plastic_whisk_short_horvertflip_short_600ms.mp4	27.single_push_with_a_plastic_whisk_short_horvertflip_short_600ms.mp4	400.78743893920546	401.3957320052105	0.6082930660049897				
386.08642578125	0.2	790705	314	67	3	0	0	32	197	stimuli\Videos_short_600ms_horvertflip\25.single_touch_with_stanley_knife_short_horvertflip_short_600ms.mp4	25.single_touch_with_stanley_knife_short_horvertflip_short_600ms.mp4	401.5877891315431	402.1957127097339	0.607923578190821				
386.88671875	0.2	792344	315	67	3	0	0	33	14	stimuli\Videos_short_600ms\22.single_touch_with_metal_chopstick_short_short_600ms.mp4	22.single_touch_with_metal_chopstick_short_short_600ms.mp4	402.3874284997073	402.9956740601374	0.6082455604300776				
387.6865234375	0.2	793982	316	67	3	0	0	34	292	stimuli\Videos_short_600ms_vertflip\3.single_push_with_finger_short_vertflip_short_600ms.mp4	3.single_push_with_finger_short_vertflip_short_600ms.mp4	403.1873578864798	403.79568467558056	0.608326789100829				
388.486328125	0.2	795620	317	67	3	0	0	35	60	stimuli\Videos_short_600ms\64.repeated_touch_with_screwdriver_short_short_600ms.mp4	64.repeated_touch_with_screwdriver_short_short_600ms.mp4	403.9873382977639	404.59566127468497	0.6083229769210448				
389.28662109375	0.2	797259	318	67	3	0	0	36	346	stimuli\Videos_short_600ms_vertflip\79.long_with_soft_brush_all_over_the_hand_short_vertflip_short_600ms.mp4	79.long_with_soft_brush_all_over_the_hand_short_vertflip_short_600ms.mp4	404.7873178293121	405.39564872382834	0.6083308945162571				
390.08642578125	0.2	798897	319	67	3	0	0	37	210	stimuli\Videos_short_600ms_horvertflip\37.single_stab_with_nail_file_short_horvertflip_short_600ms.mp4	37.single_stab_with_nail_file_short_horvertflip_short_600ms.mp4	405.5873510245656	406.1956220972461	0.608271072680509				
390.88623046875	0.2	800535	320	67	3	0	0	38	100	stimuli\Videos_short_600ms_horflip\19.single_touch_with_rolling_pin_short_horflip_short_600ms.mp4	19.single_touch_with_rolling_pin_short_horflip_short_600ms.mp4	406.387349030505	406.995600455819	0.6082514253139379				
391.6865234375	0.2	802174	321	67	3	0	0	39	147	stimuli\Videos_short_600ms_horflip\61.single_hit_with_rolling_pin_short_horflip_short_600ms.mp4	61.single_hit_with_rolling_pin_short_horflip_short_600ms.mp4	407.1872593563967	407.7955820400748	0.608322683678125				
392.486328125	0.2	803812	322	67	3	0	0	40	211	stimuli\Videos_short_600ms_horvertflip\38.double_slap_with_pencil_short_horvertflip_short_600ms.mp4	38.double_slap_with_pencil_short_horvertflip_short_600ms.mp4	407.98722158653254	408.5955647973096	0.6083432107770932				
393.2861328125	0.2	805450	323	67	3	0	0	41	81	stimuli\Videos_short_600ms\83.single_stroke_top_to_bottom_with_cotton_bud_short_short_600ms.mp4	83.single_stroke_top_to_bottom_with_cotton_bud_short_short_600ms.mp4	408.78722809655665	409.3955431558825	0.6083150593258324				
394.08642578125	0.2	807089	324	67	3	0	0	42	130	stimuli\Videos_short_600ms_horflip\46.scratching_top_to_bottom_with_finger_nails_short_horflip_short_600ms.mp4	46.scratching_top_to_bottom_with_finger_nails_short_horflip_short_600ms.mp4	409.5872032294392	410.1955247401383	0.6083215106991702				
394.88623046875	0.2	808727	325	67	3	0	0	43	85	stimuli\Videos_short_600ms\87.single_stroke_top_to_bottom_with_plastic_brush_short_short_600ms.mp4	87.single_stroke_top_to_bottom_with_plastic_brush_short_short_600ms.mp4	410.38718715965297	410.995504564933	0.6083174052801041				
395.6865234375	0.2	810366	326	67	3	0	0	44	46	stimuli\Videos_short_600ms\51.repeated_touch_with_hammer_short_short_600ms.mp4	51.repeated_touch_with_hammer_short_short_600ms.mp4	411.1871461640985	411.7954864424355	0.608340278336982				
396.486328125	0.2	812004	327	67	3	0	0	45	257	stimuli\Videos_short_600ms_horvertflip\8.single_touch_with_hairbrush_short_horvertflip_short_600ms.mp4	8.single_touch_with_hairbrush_short_horvertflip_short_600ms.mp4	411.9871781863767	412.595467146959	0.6082889605822857				
397.2861328125	0.2	813642	328	67	3	0	0	46	93	stimuli\Videos_short_600ms_horflip\12.repeated_touch_with_nail_file_short_horflip_short_600ms.mp4	12.repeated_touch_with_nail_file_short_horflip_short_600ms.mp4	412.7879072503456	413.3954472649966	0.6075400146510219				
398.08642578125	0.2	815281	329	67	3	0	0	47	259	stimuli\Videos_short_600ms_horvertflip\81.single_stroke_top_to_bottom_with_cotton_pad_short_horvertflip_short_600ms.mp4	81.single_stroke_top_to_bottom_with_cotton_pad_short_horvertflip_short_600ms.mp4	413.5876257944692	414.19542826276665	0.6078024682974501				
398.88623046875	0.2	816919	330	67	3	0	0	48	52	stimuli\Videos_short_600ms\57.single_touch_with_nail_file_short_short_600ms.mp4	57.single_touch_with_nail_file_short_short_600ms.mp4	414.3871138485774	414.99541072675856	0.608296878181136				
399.68603515625	0.2	818557	331	67	3	0	0	49	306	stimuli\Videos_short_600ms_vertflip\42.single_slap_with_plastic_whisk_short_vertflip_short_600ms.mp4	42.single_slap_with_plastic_whisk_short_vertflip_short_600ms.mp4	415.18714176543654	415.7953884988383	0.6082467334017565				
400.486328125	0.2	820196	332	67	3	0	0	50	166	stimuli\Videos_short_600ms_horflip\79.long_with_soft_brush_all_over_the_hand_short_horflip_short_600ms.mp4	79.long_with_soft_brush_all_over_the_hand_short_horflip_short_600ms.mp4	415.9871286280904	416.5953777074501	0.6082490793596662				
401.2861328125	0.2	821834	333	67	3	0	0	51	184	stimuli\Videos_short_600ms_horvertflip\13.single_touch_with_pen_short_horvertflip_short_600ms.mp4	13.single_touch_with_pen_short_horvertflip_short_600ms.mp4	416.7870797149408	417.39532820781096	0.6082484928701888				
402.0859375	0.2	823472	334	67	3	0	0	52	66	stimuli\Videos_short_600ms\7.repeated_touch_with_hairbrush_short_short_600ms.mp4	7.repeated_touch_with_hairbrush_short_short_600ms.mp4	417.5870316815271	418.19532855970465	0.608296878177498				
402.88623046875	0.2	825111	335	67	3	0	0	53	330	stimuli\Videos_short_600ms_vertflip\64.repeated_touch_with_screwdriver_short_vertflip_short_600ms.mp4	64.repeated_touch_with_screwdriver_short_vertflip_short_600ms.mp4	418.38697103860613	418.9953142493832	0.6083432107770932				
403.68603515625	0.2	826749	336	67	3	0	0	54	327	stimuli\Videos_short_600ms_vertflip\61.single_hit_with_rolling_pin_short_vertflip_short_600ms.mp4	61.single_hit_with_rolling_pin_short_vertflip_short_600ms.mp4	419.1869749094294	419.7953099093684	0.6083349999389611				
404.48583984375	0.2	828387	337	67	3	0	0	55	125	stimuli\Videos_short_600ms_horflip\41.injection_with_blunt_syringe_short_horflip_short_600ms.mp4	41.injection_with_blunt_syringe_short_horflip_short_600ms.mp4	419.9869441774281	420.59528357602903	0.6083393986009469				
405.2861328125	0.2	830026	338	67	3	0	1	56	360	stimuli\Targets_short_600ms\brush-stroke_short_short_600ms.mp4	brush-stroke_short_short_600ms.mp4	420.7869395441666	421.39525577647146	0.6083162323047873				
406.0859375	0.2	831664	339	67	3	0	0	57	116	stimuli\Videos_short_600ms_horflip\33.scratch_top_to_bottom_with_scissors_short_horflip_short_600ms.mp4	33.scratch_top_to_bottom_with_scissors_short_horflip_short_600ms.mp4	421.58735952865027	422.1952376539739	0.607878125323623				
406.8857421875	0.2	833302	340	67	3	0	0	58	228	stimuli\Videos_short_600ms_horvertflip\53.touch_top_to_bottom_with_knife_short_horvertflip_short_600ms.mp4	53.touch_top_to_bottom_with_knife_short_horvertflip_short_600ms.mp4	422.3869505115035	422.9952165990326	0.6082660875290458				
407.68603515625	0.2	834941	341	67	3	0	0	59	200	stimuli\Videos_short_600ms_horvertflip\28.single_injection_with_sharp_needle_short_horvertflip_short_600ms.mp4	28.single_injection_with_sharp_needle_short_horvertflip_short_600ms.mp4	423.1873584729692	423.7951981832921	0.6078397103228781				
408.494140625	0.2	836596	342	67	3	0	0	60	357	stimuli\Videos_short_600ms_vertflip\89.single_touch_with_plastic_brush_short_vertflip_short_600ms.mp4	89.single_touch_with_plastic_brush_short_vertflip_short_600ms.mp4	423.99519401922225	424.60351289072423	0.6083188715019787				
409.2939453125	0.2	838234	343	67	3	0	0	61	251	stimuli\Videos_short_600ms_horvertflip\74.fingers_walking_from_top_to_bottom_short_horvertflip_short_600ms.mp4	74.fingers_walking_from_top_to_bottom_short_horvertflip_short_600ms.mp4	424.7951864535207	425.40349799391333	0.6083115403926058				
410.09423828125	0.2	839873	344	67	3	0	0	62	172	stimuli\Videos_short_600ms_horflip\84.single_touch_with_cotton_bud_short_horflip_short_600ms.mp4	84.single_touch_with_cotton_bud_short_horflip_short_600ms.mp4	425.59516481208993	426.2034734200424	0.6083086079524946				
410.89404296875	0.2	841511	345	67	3	0	0	63	7	stimuli\Videos_short_600ms\16.repeated_touch_with_plastic_brush_short_short_600ms.mp4	16.repeated_touch_with_plastic_brush_short_short_600ms.mp4	426.3952000600548	427.00346409487247	0.6082640348176938				
411.6943359375	0.2	843150	346	67	3	0	0	64	345	stimuli\Videos_short_600ms_vertflip\78.single_stroke_top_to_bottom_with_soft_brush_short_vertflip_short_600ms.mp4	78.single_stroke_top_to_bottom_with_soft_brush_short_vertflip_short_600ms.mp4	427.19514762797553	427.8034377615368	0.6082901335612405				
412.494140625	0.2	844788	347	67	3	0	0	65	141	stimuli\Videos_short_600ms_horflip\56.repeated_touch_with_nail_file_short_horflip_short_600ms.mp4	56.repeated_touch_with_nail_file_short_horflip_short_600ms.mp4	427.99508551883264	428.603417293085	0.6083317742522922				
413.2939453125	0.2	846426	348	67	3	0	0	66	181	stimuli\Videos_short_600ms_horvertflip\10.single_touch_with_knife_short_horvertflip_short_600ms.mp4	10.single_touch_with_knife_short_horvertflip_short_600ms.mp4	428.7950583057609	429.40340005031976	0.6083417445588566				
414.09423828125	0.2	848065	349	67	3	0	0	67	298	stimuli\Videos_short_600ms_vertflip\35.single_punch_with_hand_short_vertflip_short_600ms.mp4	35.single_punch_with_hand_short_vertflip_short_600ms.mp4	429.59506012387646	430.2033819278222	0.6083218039457279				
414.89404296875	0.2	849703	350	67	3	0	0	68	90	stimuli\Videos_short_600ms_horflip\1.repeated_touch_with_finger_fast_short_horflip_short_600ms.mp4	1.repeated_touch_with_finger_fast_short_horflip_short_600ms.mp4	430.3950138499277	431.0033602863914	0.6083464364637621				
415.69384765625	0.2	851341	351	67	3	0	0	69	219	stimuli\Videos_short_600ms_horvertflip\45.scratching_with_finger_nails_short_horvertflip_short_600ms.mp4	45.scratching_with_finger_nails_short_horvertflip_short_600ms.mp4	431.1950288640364	431.8033380584747	0.6083091944383341				
416.494140625	0.2	852980	352	67	3	0	0	70	273	stimuli\Videos_short_600ms_vertflip\12.repeated_touch_with_nail_file_short_vertflip_short_600ms.mp4	12.repeated_touch_with_nail_file_short_vertflip_short_600ms.mp4	431.9950318551273	432.6033225751744	0.60829072004708				
417.2939453125	0.2	854618	353	67	3	0	0	71	333	stimuli\Videos_short_600ms_vertflip\67.single_touch_with_sponge_short_vertflip_short_600ms.mp4	67.single_touch_with_sponge_short_vertflip_short_600ms.mp4	432.7949814757558	433.4033023999691	0.6083209242133307				
418.09375	0.2	856256	354	67	3	0	0	72	35	stimuli\Videos_short_600ms\41.injection_with_blunt_syringe_short_short_600ms.mp4	41.injection_with_blunt_syringe_short_short_600ms.mp4	433.5949636465048	434.2032831044926	0.6083194579878182				
418.89404296875	0.2	857895	355	67	3	0	0	73	192	stimuli\Videos_short_600ms_horvertflip\20.single_touch_with_screwdriver_short_horvertflip_short_600ms.mp4	20.single_touch_with_screwdriver_short_horvertflip_short_600ms.mp4	434.3949446442712	435.0032699671501	0.6083253228789545				
419.69384765625	0.2	859533	356	67	3	0	0	74	241	stimuli\Videos_short_600ms_horvertflip\65.stroke_top_to_bottom_with_stanley_knife_short_horvertflip_short_600ms.mp4	65.stroke_top_to_bottom_with_stanley_knife_short_horvertflip_short_600ms.mp4	435.1949922084968	435.8032280918633	0.608235883366433				
420.49365234375	0.2	861171	357	67	3	0	0	75	280	stimuli\Videos_short_600ms_vertflip\19.single_touch_with_rolling_pin_short_vertflip_short_600ms.mp4	19.single_touch_with_rolling_pin_short_vertflip_short_600ms.mp4	435.9954808121438	436.60322140589415	0.6077405937503499				
421.2939453125	0.2	862810	358	67	3	0	0	76	104	stimuli\Videos_short_600ms_horflip\22.single_touch_with_metal_chopstick_short_horflip_short_600ms.mp4	22.single_touch_with_metal_chopstick_short_horflip_short_600ms.mp4	436.7948764942994	437.40318363603	0.6083071417306201				
422.09375	0.2	864448	359	67	3	0	0	77	109	stimuli\Videos_short_600ms_horflip\27.single_push_with_a_plastic_whisk_short_horflip_short_600ms.mp4	27.single_push_with_a_plastic_whisk_short_horflip_short_600ms.mp4	437.59527125977183	438.2031857473885	0.6079144876166538				
422.8935546875	0.2	866086	360	67	3	0	0	78	300	stimuli\Videos_short_600ms_vertflip\37.single_stab_with_nail_file_short_vertflip_short_600ms.mp4	37.single_stab_with_nail_file_short_vertflip_short_600ms.mp4	438.3948525655651	439.0031673316443	0.6083147660792747				
423.69384765625	0.2	867725	361	67	3	0	0	79	134	stimuli\Videos_short_600ms_horflip\5.repeated_tap_with_finger_moving_from_top_to_bottom_short_horflip_short_600ms.mp4	5.repeated_tap_with_finger_moving_from_top_to_bottom_short_horflip_short_600ms.mp4	439.19494147723526	439.8031536078124	0.608212130577158				
424.49365234375	0.2	869363	362	67	3	0	0	80	149	stimuli\Videos_short_600ms_horflip\63.stroke_top_to_bottom_with_screwdriver_short_horflip_short_600ms.mp4	63.stroke_top_to_bottom_with_screwdriver_short_horflip_short_600ms.mp4	439.9948072299958	440.6031390042481	0.6083317742522922				
425.29345703125	0.2	871001	363	67	3	0	1	81	374	stimuli\Targets_short_600ms_horvertflip\chopstickwood-tap_short_vertflip_short_600ms.mp4	chopstickwood-tap_short_vertflip_short_600ms.mp4	440.7947844155897	441.403109738465	0.6083253228753165				
426.09375	0.2	872640	364	67	3	0	0	82	89	stimuli\Videos_short_600ms\90.repeated_touch_with_sponge_short_short_600ms.mp4	90.repeated_touch_with_sponge_short_short_600ms.mp4	441.5947686390464	442.2030948416541	0.6083262026077136				
426.8935546875	0.2	874278	365	67	3	0	0	83	34	stimuli\Videos_short_600ms\40.repeated_push_with_finger_short_short_600ms.mp4	40.repeated_push_with_finger_short_short_600ms.mp4	442.39475344899256	443.0030729069804	0.6083194579878182				
427.693359375	0.2	875916	366	67	3	0	0	84	339	stimuli\Videos_short_600ms_vertflip\72.(short)stroke_with_finger_all_over_the_hand_short_vertflip_short_600ms.mp4	72.(short)stroke_with_finger_all_over_the_hand_short_vertflip_short_600ms.mp4	443.1947323940512	443.8030512655532	0.6083188715019787				
428.49365234375	0.2	877555	367	67	3	0	0	85	86	stimuli\Videos_short_600ms\88.repeated_stroke_with_plastic_brush_short_short_600ms.mp4	88.repeated_stroke_with_plastic_brush_short_short_600ms.mp4	443.9948781951134	444.60303226332326	0.6081540682098421				
429.29345703125	0.2	879193	368	67	3	0	0	86	64	stimuli\Videos_short_600ms\68.stroke_top_to_bottom_with_shawl_short_short_600ms.mp4	68.stroke_top_to_bottom_with_shawl_short_short_600ms.mp4	444.79469233688	445.40301208811434	0.6083197512343759				
430.09326171875	0.2	880831	369	67	3	0	0	87	179	stimuli\Videos_short_600ms_horflip\90.repeated_touch_with_sponge_short_horflip_short_600ms.mp4	90.repeated_touch_with_sponge_short_horflip_short_600ms.mp4	445.5947000198794	446.2029942588633	0.6082942389839445				
430.8935546875	0.2	882470	370	67	3	0	0	88	135	stimuli\Videos_short_600ms_horflip\50.single_(long)hard_push_with_thumb_short_horflip_short_600ms.mp4	50.single_(long)hard_push_with_thumb_short_horflip_short_600ms.mp4	446.3946387904725	447.00297789583055	0.6083391053580272				
431.693359375	0.2	884108	371	67	3	0	0	89	26	stimuli\Videos_short_600ms\33.scratch_top_to_bottom_with_scissors_short_short_600ms.mp4	33.scratch_top_to_bottom_with_scissors_short_short_600ms.mp4	447.1946332774787	447.8029574273787	0.6083241498999996				
432.49365234375	0.2	885747	372	67	3	0	0	90	291	stimuli\Videos_short_600ms_vertflip\29.single_pinch_with_tweezers_short_vertflip_short_600ms.mp4	29.single_pinch_with_tweezers_short_vertflip_short_600ms.mp4	447.9946139820022	448.6029375454163	0.6083235634141602				
433.29345703125	0.2	887385	373	67	3	0	0	91	76	stimuli\Videos_short_600ms\79.long_with_soft_brush_all_over_the_hand_short_short_600ms.mp4	79.long_with_soft_brush_all_over_the_hand_short_short_600ms.mp4	448.7948067021571	449.40291824993983	0.6081115477827552	2.0	2.0	1.8289497220903288	1.0
