onset	duration	onsetsample	eventnumber	subjectnr	sequencenumber	blocksequencenumber	istarget	presentationnumber	stimnumber	stim	stimname	time_stimon	time_stimoff	stimdur	cresp	resp	rt	correct
41.318359375	0.2	84620	0	3	0	0	1	0	370	stimuli\Targets_short_600ms_horflip\hand-pinch_short_horflip_short_600ms.mp4	hand-pinch_short_horflip_short_600ms.mp4	34.71054485973582	35.318861548917994	0.6083166891821747	n/a	n/a	n/a	n/a
42.1181640625	0.2	86258	1	3	0	0	0	1	221	stimuli\Videos_short_600ms_horvertflip\47.(long)scratching_with_finger_nails_short_horvertflip_short_600ms.mp4	47.(long)scratching_with_finger_nails_short_horvertflip_short_600ms.mp4	35.51052855526177	36.11885609454475	0.6083275392829819	n/a	n/a	n/a	n/a
42.91796875	0.2	87896	2	3	0	0	0	2	33	stimuli\Videos_short_600ms\4.repeated_tap_with_finger_slow_short_short_600ms.mp4	4.repeated_tap_with_finger_slow_short_short_600ms.mp4	36.310494069539345	36.9188409630533	0.6083468935139535	n/a	n/a	n/a	n/a
43.71826171875	0.2	89535	3	3	0	0	0	3	356	stimuli\Videos_short_600ms_vertflip\88.repeated_stroke_with_plastic_brush_short_vertflip_short_600ms.mp4	88.repeated_stroke_with_plastic_brush_short_vertflip_short_600ms.mp4	37.11047571234485	37.71882231261225	0.6083466002673958	n/a	n/a	n/a	n/a
44.51806640625	0.2	91173	4	3	0	0	0	4	359	stimuli\Videos_short_600ms_vertflip\90.repeated_touch_with_sponge_short_vertflip_short_600ms.mp4	90.repeated_touch_with_sponge_short_vertflip_short_600ms.mp4	37.91050251502202	38.5188060081382	0.6083034931161819	n/a	n/a	n/a	n/a
45.31787109375	0.2	92811	5	3	0	0	0	5	66	stimuli\Videos_short_600ms\7.repeated_touch_with_hairbrush_short_short_600ms.mp4	7.repeated_touch_with_hairbrush_short_short_600ms.mp4	38.71046011166072	39.318789117172855	0.6083290055121324	n/a	n/a	n/a	n/a
46.1181640625	0.2	94450	6	3	0	0	0	6	264	stimuli\Videos_short_600ms_horvertflip\86.touch_top_to_bottom_with_hair_brush_short_horvertflip_short_600ms.mp4	86.touch_top_to_bottom_with_hair_brush_short_horvertflip_short_600ms.mp4	39.510461695188496	40.1187830763065	0.608321381118003	n/a	n/a	n/a	n/a
46.91796875	0.2	96088	7	3	0	0	0	7	193	stimuli\Videos_short_600ms_horvertflip\21.repeated_touch_with_metal_chopstick_short_horvertflip_short_600ms.mp4	21.repeated_touch_with_metal_chopstick_short_horvertflip_short_600ms.mp4	40.3104679706521	40.918761786651885	0.6082938159997866	n/a	n/a	n/a	n/a
47.71826171875	0.2	97727	8	3	0	0	0	8	338	stimuli\Videos_short_600ms_vertflip\71.single_stroke_with_finger_top_to_bottom_short_vertflip_short_600ms.mp4	71.single_stroke_with_finger_top_to_bottom_short_vertflip_short_600ms.mp4	41.11042263483069	41.718744309195245	0.6083216743645607	n/a	n/a	n/a	n/a
48.51806640625	0.2	99365	9	3	0	0	0	9	127	stimuli\Videos_short_600ms_horflip\43.touch_top_to_bottom_with_sharp_wooden_stick_short_horflip_short_600ms.mp4	43.touch_top_to_bottom_with_sharp_wooden_stick_short_horflip_short_600ms.mp4	41.91041336825947	42.51870777075237	0.608294402492902	n/a	n/a	n/a	n/a
49.31787109375	0.2	101003	10	3	0	0	0	10	285	stimuli\Videos_short_600ms_vertflip\23.single_push_with_a_spoon_short_vertflip_short_600ms.mp4	23.single_push_with_a_spoon_short_vertflip_short_600ms.mp4	42.71063957817023	43.31869381224533	0.6080542340750981	n/a	n/a	n/a	n/a
50.1181640625	0.2	102642	11	3	0	0	0	11	256	stimuli\Videos_short_600ms_horvertflip\79.long_with_soft_brush_all_over_the_hand_short_horvertflip_short_600ms.mp4	79.long_with_soft_brush_all_over_the_hand_short_horvertflip_short_600ms.mp4	43.51038105255793	44.11870331341379	0.6083222608558572	n/a	n/a	n/a	n/a
50.91796875	0.2	104280	12	3	0	0	0	12	352	stimuli\Videos_short_600ms_vertflip\84.single_touch_with_cotton_bud_short_vertflip_short_600ms.mp4	84.single_touch_with_cotton_bud_short_vertflip_short_600ms.mp4	44.310367680544005	44.91868524946403	0.6083175689200289	n/a	n/a	n/a	n/a
51.7177734375	0.2	105918	13	3	0	0	0	13	146	stimuli\Videos_short_600ms_horflip\60.single_push_with_tip_of_pencil_short_horflip_short_600ms.mp4	60.single_push_with_tip_of_pencil_short_horflip_short_600ms.mp4	45.11035548151267	45.71867979509079	0.6083243135781231	n/a	n/a	n/a	n/a
52.51806640625	0.2	107557	14	3	0	0	0	14	114	stimuli\Videos_short_600ms_horflip\31.hand_grabbing_wrist_short_horflip_short_600ms.mp4	31.hand_grabbing_wrist_short_horflip_short_600ms.mp4	45.91033360536676	46.51865469323821	0.6083210878714453	n/a	n/a	n/a	n/a
53.31787109375	0.2	109195	15	3	0	0	0	15	15	stimuli\Videos_short_600ms\23.single_push_with_a_spoon_short_short_600ms.mp4	23.single_push_with_a_spoon_short_short_600ms.mp4	46.710316714401415	47.318638388765976	0.6083216743645607	n/a	n/a	n/a	n/a
54.11767578125	0.2	110833	16	3	0	0	0	16	328	stimuli\Videos_short_600ms_vertflip\62.touch_top_to_bottom_with_scissors_short_vertflip_short_600ms.mp4	62.touch_top_to_bottom_with_scissors_short_vertflip_short_600ms.mp4	47.51030422212534	48.118625603243345	0.608321381118003	n/a	n/a	n/a	n/a
54.91796875	0.2	112472	17	3	0	0	0	17	133	stimuli\Videos_short_600ms_horflip\49.repeated_slap_with_hand_short_horflip_short_600ms.mp4	49.repeated_slap_with_hand_short_horflip_short_600ms.mp4	48.31029202309401	48.91861193798286	0.6083199148888525	n/a	n/a	n/a	n/a
55.7177734375	0.2	114110	18	3	0	0	1	18	377	stimuli\Targets_short_600ms_horvertflip\hand-stroke_short_vertflip_short_600ms.mp4	hand-stroke_short_vertflip_short_600ms.mp4	49.11028275652279	49.71859328754181	0.6083105310190149	n/a	n/a	n/a	n/a
56.517578125	0.2	115748	19	3	0	0	0	19	156	stimuli\Videos_short_600ms_horflip\7.repeated_touch_with_hairbrush_short_horflip_short_600ms.mp4	7.repeated_touch_with_hairbrush_short_horflip_short_600ms.mp4	49.91026000063903	50.51858050201918	0.6083205013801489	n/a	n/a	n/a	n/a
57.31787109375	0.2	117387	20	3	0	0	0	20	195	stimuli\Videos_short_600ms_horvertflip\23.single_push_with_a_spoon_short_horvertflip_short_600ms.mp4	23.single_push_with_a_spoon_short_horvertflip_short_600ms.mp4	50.71022727439231	51.31856537052772	0.6083380961354123	n/a	n/a	n/a	n/a
58.11767578125	0.2	119025	21	3	0	0	0	21	136	stimuli\Videos_short_600ms_horflip\51.repeated_touch_with_hammer_short_horflip_short_600ms.mp4	51.repeated_touch_with_hammer_short_horflip_short_600ms.mp4	51.51020686447555	52.11854906605549	0.6083422015799442	n/a	n/a	n/a	n/a
58.91748046875	0.2	120663	22	3	0	0	0	22	176	stimuli\Videos_short_600ms_horflip\88.repeated_stroke_with_plastic_brush_short_horflip_short_600ms.mp4	88.repeated_stroke_with_plastic_brush_short_horflip_short_600ms.mp4	52.31019261272377	52.91853510754845	0.6083424948246829	n/a	n/a	n/a	n/a
59.7177734375	0.2	122302	23	3	0	0	0	23	155	stimuli\Videos_short_600ms_horflip\69.stroke_with_soft_sock_short_horflip_short_600ms.mp4	69.stroke_with_soft_sock_short_horflip_short_600ms.mp4	53.11024258182988	53.718519976058815	0.608277394228935	n/a	n/a	n/a	n/a
60.517578125	0.2	123940	24	3	0	0	0	24	179	stimuli\Videos_short_600ms_horflip\90.repeated_touch_with_sponge_short_horflip_short_600ms.mp4	90.repeated_touch_with_sponge_short_horflip_short_600ms.mp4	53.910180824237614	54.518504258076064	0.60832343383845	n/a	n/a	n/a	n/a
61.3173828125	0.2	125578	25	3	0	0	0	25	250	stimuli\Videos_short_600ms_horvertflip\73.single_stroke_with_flat_hand_short_horvertflip_short_600ms.mp4	73.single_stroke_with_flat_hand_short_horvertflip_short_600ms.mp4	54.71019707006235	55.318497337471854	0.6083002674095042	n/a	n/a	n/a	n/a
62.11767578125	0.2	127217	26	3	0	0	1	26	383	stimuli\Targets_short_600ms_vertflip\hand-stroke_short_horvertflip_short_600ms.mp4	hand-stroke_short_horvertflip_short_600ms.mp4	55.51016434381563	56.11845493411056	0.6082905902949278	n/a	n/a	n/a	n/a
62.91748046875	0.2	128855	27	3	0	0	0	27	153	stimuli\Videos_short_600ms_horflip\67.single_touch_with_sponge_short_horflip_short_600ms.mp4	67.single_touch_with_sponge_short_horflip_short_600ms.mp4	56.310138948718304	56.91843892288307	0.6082999741647654	n/a	n/a	n/a	n/a
63.71728515625	0.2	130493	28	3	0	0	1	28	360	stimuli\Targets_short_600ms\brush-stroke_short_short_600ms.mp4	brush-stroke_short_short_600ms.mp4	57.11013173486936	57.71842349814688	0.6082917632775207	n/a	n/a	n/a	n/a
64.517578125	0.2	132132	29	3	0	0	0	29	99	stimuli\Videos_short_600ms_horflip\18.single_stroke_from_top_to_bottom_with_rolling_pin_short_horflip_short_600ms.mp4	18.single_stroke_from_top_to_bottom_with_rolling_pin_short_horflip_short_600ms.mp4	57.91011015196818	58.51842948036392	0.6083193283957371	n/a	n/a	n/a	n/a
65.3173828125	0.2	133770	30	3	0	0	0	30	351	stimuli\Videos_short_600ms_vertflip\83.single_stroke_top_to_bottom_with_cotton_bud_short_vertflip_short_600ms.mp4	83.single_stroke_top_to_bottom_with_cotton_bud_short_vertflip_short_600ms.mp4	58.71008739608442	59.318418454317	0.6083310582325794	n/a	n/a	n/a	n/a
66.1171875	0.2	135408	31	3	0	0	0	31	183	stimuli\Videos_short_600ms_horvertflip\12.repeated_touch_with_nail_file_short_horvertflip_short_600ms.mp4	12.repeated_touch_with_nail_file_short_horvertflip_short_600ms.mp4	59.51008604715207	60.11840948099234	0.608323433840269	n/a	n/a	n/a	n/a
66.91748046875	0.2	137047	32	3	0	0	0	32	273	stimuli\Videos_short_600ms_vertflip\12.repeated_touch_with_nail_file_short_vertflip_short_600ms.mp4	12.repeated_touch_with_nail_file_short_vertflip_short_600ms.mp4	60.31006681021972	60.91839845494542	0.6083316447256948	n/a	n/a	n/a	n/a
67.71728515625	0.2	138685	33	3	0	0	0	33	242	stimuli\Videos_short_600ms_horvertflip\66.stroke_top_to_bottom_with_sponge_short_horvertflip_short_600ms.mp4	66.stroke_top_to_bottom_with_sponge_short_horvertflip_short_600ms.mp4	61.11005285171268	61.71837012738797	0.6083172756752901	n/a	n/a	n/a	n/a
68.517578125	0.2	140324	34	3	0	0	0	34	283	stimuli\Videos_short_600ms_vertflip\21.repeated_touch_with_metal_chopstick_short_vertflip_short_600ms.mp4	21.repeated_touch_with_metal_chopstick_short_vertflip_short_600ms.mp4	61.91004006619005	62.51835734186534	0.6083172756752901	n/a	n/a	n/a	n/a
69.3173828125	0.2	141962	35	3	0	0	0	35	92	stimuli\Videos_short_600ms_horflip\11.single_touch_with_lighter_short_horflip_short_600ms.mp4	11.single_touch_with_lighter_short_horflip_short_600ms.mp4	62.71002053601114	63.31834309011356	0.6083225541024149	n/a	n/a	n/a	n/a
70.1171875	0.2	143600	36	3	0	0	0	36	126	stimuli\Videos_short_600ms_horflip\42.single_slap_with_plastic_whisk_short_horflip_short_600ms.mp4	42.single_slap_with_plastic_whisk_short_horflip_short_600ms.mp4	63.51000481803021	64.11832854511522	0.6083237270850077	n/a	n/a	n/a	n/a
70.91748046875	0.2	145239	37	3	0	0	0	37	329	stimuli\Videos_short_600ms_vertflip\63.stroke_top_to_bottom_with_screwdriver_short_vertflip_short_600ms.mp4	63.stroke_top_to_bottom_with_screwdriver_short_vertflip_short_600ms.mp4	64.30999027303187	64.91831194739461	0.6083216743627418	n/a	n/a	n/a	n/a
71.71728515625	0.2	146877	38	3	0	0	0	38	178	stimuli\Videos_short_600ms_horflip\9.single_touch_with_hammer_short_horflip_short_600ms.mp4	9.single_touch_with_hammer_short_horflip_short_600ms.mp4	65.10997983347625	65.71829652266024	0.6083166891839937	n/a	n/a	n/a	n/a
72.51708984375	0.2	148515	39	3	0	0	0	39	187	stimuli\Videos_short_600ms_horvertflip\16.repeated_touch_with_plastic_brush_short_horvertflip_short_600ms.mp4	16.repeated_touch_with_plastic_brush_short_horvertflip_short_600ms.mp4	65.90994886670705	66.51827992493963	0.6083310582325794	n/a	n/a	n/a	n/a
73.3173828125	0.2	150154	40	3	0	0	0	40	52	stimuli\Videos_short_600ms\57.single_touch_with_nail_file_short_short_600ms.mp4	57.single_touch_with_nail_file_short_short_600ms.mp4	66.70995924761155	67.31826684617226	0.6083075985607138	n/a	n/a	n/a	n/a
74.1171875	0.2	151792	41	3	0	0	0	41	216	stimuli\Videos_short_600ms_horvertflip\42.single_slap_with_plastic_whisk_short_horvertflip_short_600ms.mp4	42.single_slap_with_plastic_whisk_short_horvertflip_short_600ms.mp4	67.50990834011827	68.11825054169822	0.6083422015799442	n/a	n/a	n/a	n/a
74.9169921875	0.2	153430	42	3	0	0	0	42	117	stimuli\Videos_short_600ms_horflip\34.repeated_punch_with_hand_short_horflip_short_600ms.mp4	34.repeated_punch_with_hand_short_horflip_short_600ms.mp4	68.30989291538208	68.91823541020676	0.6083424948246829	n/a	n/a	n/a	n/a
75.71728515625	0.2	155069	43	3	0	0	0	43	291	stimuli\Videos_short_600ms_vertflip\29.single_pinch_with_tweezers_short_vertflip_short_600ms.mp4	29.single_pinch_with_tweezers_short_vertflip_short_600ms.mp4	69.10989743136997	69.7182217449481	0.6083243135781231	n/a	n/a	n/a	n/a
76.51708984375	0.2	156707	44	3	0	0	0	44	3	stimuli\Videos_short_600ms\12.repeated_touch_with_nail_file_short_short_600ms.mp4	12.repeated_touch_with_nail_file_short_short_600ms.mp4	69.90989256348803	70.51821335811292	0.6083207946248876	n/a	n/a	n/a	n/a
77.31689453125	0.2	158345	45	3	0	0	0	45	275	stimuli\Videos_short_600ms_vertflip\14.repeated_touch_with_pencil_short_vertflip_short_600ms.mp4	14.repeated_touch_with_pencil_short_vertflip_short_600ms.mp4	70.70987274006256	71.31817681967004	0.6083040796074783	n/a	n/a	n/a	n/a
78.1171875	0.2	159984	46	3	0	0	0	46	209	stimuli\Videos_short_600ms_horvertflip\36.single_slap_with_full_hand_short_horvertflip_short_600ms.mp4	36.single_slap_with_full_hand_short_horvertflip_short_600ms.mp4	71.50985555585066	72.11815670299984	0.6083011471491773	n/a	n/a	n/a	n/a
78.9169921875	0.2	161622	47	3	0	0	0	47	89	stimuli\Videos_short_600ms\90.repeated_touch_with_sponge_short_short_600ms.mp4	90.repeated_touch_with_sponge_short_short_600ms.mp4	72.3098471690173	72.91816884338186	0.6083216743645607	n/a	n/a	n/a	n/a
79.716796875	0.2	163260	48	3	0	0	0	48	113	stimuli\Videos_short_600ms_horflip\30.finger_pulling_back_another_finger_short_horflip_short_600ms.mp4	30.finger_pulling_back_another_finger_short_horflip_short_600ms.mp4	73.10982441313354	73.71812585352745	0.608301440393916	n/a	n/a	n/a	n/a
80.51708984375	0.2	164899	49	3	0	0	0	49	44	stimuli\Videos_short_600ms\5.repeated_tap_with_finger_moving_from_top_to_bottom_short_short_600ms.mp4	5.repeated_tap_with_finger_moving_from_top_to_bottom_short_short_600ms.mp4	73.90981602630018	74.51813535469591	0.6083193283957371	n/a	n/a	n/a	n/a
81.31689453125	0.2	166537	50	3	0	0	0	50	222	stimuli\Videos_short_600ms_horvertflip\48.single_slap_with_hand_short_horvertflip_short_600ms.mp4	48.single_slap_with_hand_short_horvertflip_short_600ms.mp4	74.70979708261257	75.31812432864899	0.6083272460364242	n/a	n/a	n/a	n/a
82.11669921875	0.2	168175	51	3	0	0	0	51	83	stimuli\Videos_short_600ms\85.touch_top_to_bottom_with_fabric_short_short_600ms.mp4	85.touch_top_to_bottom_with_fabric_short_short_600ms.mp4	75.50977901866281	76.11811242286421	0.608333404201403	n/a	n/a	n/a	n/a
82.9169921875	0.2	169814	52	3	0	0	0	52	268	stimuli\Videos_short_600ms_horvertflip\9.single_touch_with_hammer_short_horvertflip_short_600ms.mp4	9.single_touch_with_hammer_short_horvertflip_short_600ms.mp4	76.30976418041973	76.91808937373389	0.6083251933141582	n/a	n/a	n/a	n/a
83.716796875	0.2	171452	53	3	0	0	0	53	5	stimuli\Videos_short_600ms\14.repeated_touch_with_pencil_short_short_600ms.mp4	14.repeated_touch_with_pencil_short_short_600ms.mp4	77.10975080840399	77.7180877315568	0.6083369231528195	n/a	n/a	n/a	n/a
84.5166015625	0.2	173090	54	3	0	0	0	54	236	stimuli\Videos_short_600ms_horvertflip\60.single_push_with_tip_of_pencil_short_horvertflip_short_600ms.mp4	60.single_push_with_tip_of_pencil_short_horvertflip_short_600ms.mp4	77.90973538366961	78.51805940399936	0.6083240203297464	n/a	n/a	n/a	n/a
85.31689453125	0.2	174729	55	3	0	0	0	55	35	stimuli\Videos_short_600ms\41.injection_with_blunt_syringe_short_short_600ms.mp4	41.injection_with_blunt_syringe_short_short_600ms.mp4	78.70972729008099	79.31804720496984	0.6083199148888525	n/a	n/a	n/a	n/a
86.11669921875	0.2	176367	56	3	0	0	0	56	162	stimuli\Videos_short_600ms_horflip\75.(long)stroke_with_fingers_all_over_the_hand_short_horflip_short_600ms.mp4	75.(long)stroke_with_fingers_all_over_the_hand_short_horflip_short_600ms.mp4	79.50970453419723	80.11803412620066	0.6083295920034288	n/a	n/a	n/a	n/a
86.91650390625	0.2	178005	57	3	0	0	0	57	225	stimuli\Videos_short_600ms_horvertflip\50.single_(long)hard_push_with_thumb_short_horvertflip_short_600ms.mp4	50.single_(long)hard_push_with_thumb_short_horvertflip_short_600ms.mp4	80.3096935081503	80.91801664874401	0.6083231405937113	n/a	n/a	n/a	n/a
87.716796875	0.2	179644	58	3	0	0	0	58	294	stimuli\Videos_short_600ms_vertflip\31.hand_grabbing_wrist_short_vertflip_short_600ms.mp4	31.hand_grabbing_wrist_short_vertflip_short_600ms.mp4	81.109661954888	81.71800093076126	0.6083389758732665	n/a	n/a	n/a	n/a
88.5166015625	0.2	181282	59	3	0	0	0	59	118	stimuli\Videos_short_600ms_horflip\35.single_punch_with_hand_short_horflip_short_600ms.mp4	35.single_punch_with_hand_short_horflip_short_600ms.mp4	81.90964154497124	82.51798491953377	0.6083433745625371	n/a	n/a	n/a	n/a
89.31689453125	0.2	182921	60	3	0	0	0	60	12	stimuli\Videos_short_600ms\20.single_touch_with_screwdriver_short_short_600ms.mp4	20.single_touch_with_screwdriver_short_short_600ms.mp4	82.70962787971075	83.317975359716	0.60834748000525	n/a	n/a	n/a	n/a
90.11669921875	0.2	184559	61	3	0	0	0	61	249	stimuli\Videos_short_600ms_horvertflip\72.(short)stroke_with_finger_all_over_the_hand_short_horvertflip_short_600ms.mp4	72.(short)stroke_with_finger_all_over_the_hand_short_horvertflip_short_600ms.mp4	83.50963210245209	84.11795729576806	0.6083251933159772	n/a	n/a	n/a	n/a
90.91650390625	0.2	186197	62	3	0	0	0	62	201	stimuli\Videos_short_600ms_horvertflip\29.single_pinch_with_tweezers_short_horvertflip_short_600ms.mp4	29.single_pinch_with_tweezers_short_horvertflip_short_600ms.mp4	84.30960524112561	84.91794363050758	0.60833838938197	n/a	n/a	n/a	n/a
91.716796875	0.2	187836	63	3	0	0	0	63	149	stimuli\Videos_short_600ms_horflip\63.stroke_top_to_bottom_with_screwdriver_short_horflip_short_600ms.mp4	63.stroke_top_to_bottom_with_screwdriver_short_horflip_short_600ms.mp4	85.10960799763598	85.71793583016552	0.6083278325295396	n/a	n/a	n/a	n/a
92.5166015625	0.2	189474	64	3	0	0	0	64	312	stimuli\Videos_short_600ms_vertflip\48.single_slap_with_hand_short_vertflip_short_600ms.mp4	48.single_slap_with_hand_short_vertflip_short_600ms.mp4	85.9095937458842	86.51789958496738	0.6083058390831866	n/a	n/a	n/a	n/a
93.31640625	0.2	191112	65	3	0	0	0	65	341	stimuli\Videos_short_600ms_vertflip\74.fingers_walking_from_top_to_bottom_short_vertflip_short_600ms.mp4	74.fingers_walking_from_top_to_bottom_short_vertflip_short_600ms.mp4	86.70957362921399	87.31789530357673	0.6083216743627418	n/a	n/a	n/a	n/a
94.11669921875	0.2	192751	66	3	0	0	0	66	265	stimuli\Videos_short_600ms_horvertflip\87.single_stroke_top_to_bottom_with_plastic_brush_short_horvertflip_short_600ms.mp4	87.single_stroke_top_to_bottom_with_plastic_brush_short_horvertflip_short_600ms.mp4	87.50956377614966	88.1178681490037	0.608304372854036	n/a	n/a	n/a	n/a
94.91650390625	0.2	194389	67	3	0	0	0	67	252	stimuli\Videos_short_600ms_horvertflip\75.(long)stroke_with_fingers_all_over_the_hand_short_horvertflip_short_600ms.mp4	75.(long)stroke_with_fingers_all_over_the_hand_short_horvertflip_short_600ms.mp4	88.30954571220173	88.91784422013734	0.6082985079356149	n/a	n/a	n/a	n/a
95.71630859375	0.2	196027	68	3	0	0	0	68	25	stimuli\Videos_short_600ms\32.single_(long)pinch_with_fingers_short_short_600ms.mp4	32.single_(long)pinch_with_fingers_short_short_600ms.mp4	89.10952735500541	89.71784961586127	0.6083222608558572	n/a	n/a	n/a	n/a
96.5166015625	0.2	197666	69	3	0	0	0	69	318	stimuli\Videos_short_600ms_vertflip\53.touch_top_to_bottom_with_knife_short_vertflip_short_600ms.mp4	53.touch_top_to_bottom_with_knife_short_vertflip_short_600ms.mp4	89.90951134377792	90.51783565735604	0.6083243135781231	n/a	n/a	n/a	n/a
97.31640625	0.2	199304	70	3	0	0	0	70	49	stimuli\Videos_short_600ms\54.repeated_touch_with_knife_short_short_600ms.mp4	54.repeated_touch_with_knife_short_short_600ms.mp4	90.70949767851744	91.31782873675184	0.6083310582343984	n/a	n/a	n/a	n/a
98.1162109375	0.2	200942	71	3	0	0	0	71	101	stimuli\Videos_short_600ms_horflip\2.single_touch_with_finger_short_horflip_short_600ms.mp4	2.single_touch_with_finger_short_horflip_short_600ms.mp4	91.50948753220835	92.11780715385066	0.6083196216422948	n/a	n/a	n/a	n/a
98.91650390625	0.2	202581	72	3	0	0	0	72	226	stimuli\Videos_short_600ms_horvertflip\51.repeated_touch_with_hammer_short_horvertflip_short_600ms.mp4	51.repeated_touch_with_hammer_short_horvertflip_short_600ms.mp4	92.3094480613072	92.91779143586972	0.6083433745625371	n/a	n/a	n/a	n/a
99.71630859375	0.2	204219	73	3	0	0	1	73	373	stimuli\Targets_short_600ms_horvertflip\chopstick-silver-tap_short_vertflip_short_600ms.mp4	chopstick-silver-tap_short_vertflip_short_600ms.mp4	93.10945257729328	93.71777542464042	0.6083228473471536	n/a	n/a	n/a	n/a
100.51611328125	0.2	205857	74	3	0	0	0	74	327	stimuli\Videos_short_600ms_vertflip\61.single_hit_with_rolling_pin_short_vertflip_short_600ms.mp4	61.single_hit_with_rolling_pin_short_vertflip_short_600ms.mp4	93.9094436039686	94.5177608796439	0.6083172756752901	n/a	n/a	n/a	n/a
101.31640625	0.2	207496	75	3	0	0	0	75	342	stimuli\Videos_short_600ms_vertflip\75.(long)stroke_with_fingers_all_over_the_hand_short_vertflip_short_600ms.mp4	75.(long)stroke_with_fingers_all_over_the_hand_short_vertflip_short_600ms.mp4	94.709422314314	95.3177442819233	0.6083219676092995	n/a	n/a	n/a	n/a
102.1162109375	0.2	209134	76	3	0	0	0	76	186	stimuli\Videos_short_600ms_horvertflip\15.single_stroke_top_to_bottom_with_a_plastic_whisk_short_horvertflip_short_600ms.mp4	15.single_stroke_top_to_bottom_with_a_plastic_whisk_short_horvertflip_short_600ms.mp4	95.50941627344764	96.11773032341624	0.6083140499686124	n/a	n/a	n/a	n/a
102.916015625	0.2	210772	77	3	0	0	0	77	284	stimuli\Videos_short_600ms_vertflip\22.single_touch_with_metal_chopstick_short_vertflip_short_600ms.mp4	22.single_touch_with_metal_chopstick_short_vertflip_short_600ms.mp4	96.30938032149606	96.91771812438674	0.6083378028906736	n/a	n/a	n/a	n/a
103.71630859375	0.2	212411	78	3	0	0	0	78	263	stimuli\Videos_short_600ms_horvertflip\85.touch_top_to_bottom_with_fabric_short_horvertflip_short_600ms.mp4	85.touch_top_to_bottom_with_fabric_short_horvertflip_short_600ms.mp4	97.109359325088	97.7177012334214	0.6083419083333865	n/a	n/a	n/a	n/a
104.51611328125	0.2	214049	79	3	0	0	0	79	23	stimuli\Videos_short_600ms\30.finger_pulling_back_another_finger_short_short_600ms.mp4	30.finger_pulling_back_another_finger_short_short_600ms.mp4	97.90936823976335	98.5176852221939	0.6083169824305514	n/a	n/a	n/a	n/a
105.31591796875	0.2	215687	80	3	0	0	0	80	255	stimuli\Videos_short_600ms_horvertflip\78.single_stroke_top_to_bottom_with_soft_brush_short_horvertflip_short_600ms.mp4	78.single_stroke_top_to_bottom_with_soft_brush_short_horvertflip_short_600ms.mp4	98.70932759587777	99.31767507588302	0.60834748000525	n/a	n/a	n/a	n/a
106.1162109375	0.2	217326	81	3	0	0	0	81	61	stimuli\Videos_short_600ms\65.stroke_top_to_bottom_with_stanley_knife_short_short_600ms.mp4	65.stroke_top_to_bottom_with_stanley_knife_short_short_600ms.mp4	99.50935498504803	100.1176549592128	0.6082999741647654	n/a	n/a	n/a	n/a
106.916015625	0.2	218964	82	3	0	0	0	82	306	stimuli\Videos_short_600ms_vertflip\42.single_slap_with_plastic_whisk_short_vertflip_short_600ms.mp4	42.single_slap_with_plastic_whisk_short_vertflip_short_600ms.mp4	100.309327830475	100.91764774536388	0.6083199148888525	n/a	n/a	n/a	n/a
107.7158203125	0.2	220602	83	3	0	0	0	83	276	stimuli\Videos_short_600ms_vertflip\15.single_stroke_top_to_bottom_with_a_plastic_whisk_short_vertflip_short_600ms.mp4	15.single_stroke_top_to_bottom_with_a_plastic_whisk_short_vertflip_short_600ms.mp4	101.10930859354266	101.71761150016572	0.6083029066230665	n/a	n/a	n/a	n/a
108.51611328125	0.2	222241	84	3	0	0	0	84	230	stimuli\Videos_short_600ms_horvertflip\55.touch_top_to_bottom_with_nail_file_short_horvertflip_short_600ms.mp4	55.touch_top_to_bottom_with_nail_file_short_horvertflip_short_600ms.mp4	101.90929903372488	102.51758991726638	0.6082908835414855	n/a	n/a	n/a	n/a
109.31591796875	0.2	223879	85	3	0	0	0	85	333	stimuli\Videos_short_600ms_vertflip\67.single_touch_with_sponge_short_vertflip_short_600ms.mp4	67.single_touch_with_sponge_short_vertflip_short_600ms.mp4	102.70927715757716	103.31757507902148	0.6082979214443185	n/a	n/a	n/a	n/a
110.1162109375	0.2	225518	86	3	0	0	1	86	382	stimuli\Targets_short_600ms_vertflip\hand-pinch_short_horvertflip_short_600ms.mp4	hand-pinch_short_horvertflip_short_600ms.mp4	103.50926026661182	104.11755965428527	0.608299387673469	n/a	n/a	n/a	n/a
110.916015625	0.2	227156	87	3	0	0	0	87	219	stimuli\Videos_short_600ms_horvertflip\45.scratching_with_finger_nails_short_horvertflip_short_600ms.mp4	45.scratching_with_finger_nails_short_horvertflip_short_600ms.mp4	104.3092510000406	104.91757384738958	0.6083228473489726	n/a	n/a	n/a	n/a
111.7158203125	0.2	228794	88	3	0	0	0	88	290	stimuli\Videos_short_600ms_vertflip\28.single_injection_with_sharp_needle_short_vertflip_short_600ms.mp4	28.single_injection_with_sharp_needle_short_vertflip_short_600ms.mp4	105.1092302968791	105.71755373071755	0.60832343383845	n/a	n/a	n/a	n/a
112.51611328125	0.2	230433	89	3	0	0	0	89	243	stimuli\Videos_short_600ms_horvertflip\67.single_touch_with_sponge_short_horvertflip_short_600ms.mp4	67.single_touch_with_sponge_short_horvertflip_short_600ms.mp4	105.90921985732348	106.51754739660646	0.6083275392829819	n/a	n/a	n/a	n/a
113.31591796875	0.2	232071	90	3	0	0	0	90	184	stimuli\Videos_short_600ms_horvertflip\13.single_touch_with_pen_short_horvertflip_short_600ms.mp4	13.single_touch_with_pen_short_horvertflip_short_600ms.mp4	106.70921264347272	107.31752200150731	0.6083093580346031	n/a	n/a	n/a	n/a
114.11572265625	0.2	233709	91	3	0	0	0	91	332	stimuli\Videos_short_600ms_vertflip\66.stroke_top_to_bottom_with_sponge_short_vertflip_short_600ms.mp4	66.stroke_top_to_bottom_with_sponge_short_vertflip_short_600ms.mp4	107.50918666188409	108.11751977283892	0.6083331109548453	n/a	n/a	n/a	n/a
114.916015625	0.2	235348	92	3	0	0	0	92	348	stimuli\Videos_short_600ms_vertflip\80.stroke_with_sharp_stick_all_over_the_hand_short_vertflip_short_600ms.mp4	80.stroke_with_sharp_stick_all_over_the_hand_short_vertflip_short_600ms.mp4	108.3091718236392	108.9174932047572	0.608321381118003	n/a	n/a	n/a	n/a
115.7158203125	0.2	236986	93	3	0	0	0	93	355	stimuli\Videos_short_600ms_vertflip\87.single_stroke_top_to_bottom_with_plastic_brush_short_vertflip_short_600ms.mp4	87.single_stroke_top_to_bottom_with_plastic_brush_short_vertflip_short_600ms.mp4	109.10916021110096	109.7174771935297	0.6083169824287324	n/a	n/a	n/a	n/a
116.515625	0.2	238624	94	3	0	0	0	94	177	stimuli\Videos_short_600ms_horflip\89.single_touch_with_plastic_brush_short_horflip_short_600ms.mp4	89.single_touch_with_plastic_brush_short_horflip_short_600ms.mp4	109.90914302688908	110.51746558099148	0.6083225541024149	n/a	n/a	n/a	n/a
117.31591796875	0.2	240263	95	3	0	0	0	95	142	stimuli\Videos_short_600ms_horflip\57.single_touch_with_nail_file_short_horflip_short_600ms.mp4	57.single_touch_with_nail_file_short_horflip_short_600ms.mp4	110.7091616186808	111.31744663730387	0.6082850186230644	6.0	5.0	2.232975974067813	0.0
147.28955078125	0.2	301649	96	3	1	0	0	0	282	stimuli\Videos_short_600ms_vertflip\20.single_touch_with_screwdriver_short_vertflip_short_600ms.mp4	20.single_touch_with_screwdriver_short_vertflip_short_600ms.mp4	140.6835709260722	141.2919002248309	0.6083292987586901	n/a	n/a	n/a	n/a
148.08984375	0.2	303288	97	3	1	0	0	1	272	stimuli\Videos_short_600ms_vertflip\11.single_touch_with_lighter_short_vertflip_short_600ms.mp4	11.single_touch_with_lighter_short_vertflip_short_600ms.mp4	141.48355198238642	142.09187570947142	0.6083237270850077	n/a	n/a	n/a	n/a
148.8896484375	0.2	304926	98	3	1	0	0	2	97	stimuli\Videos_short_600ms_horflip\16.repeated_touch_with_plastic_brush_short_horflip_short_600ms.mp4	16.repeated_touch_with_plastic_brush_short_horflip_short_600ms.mp4	142.2835180831553	142.8918605779818	0.6083424948265019	n/a	n/a	n/a	n/a
149.689453125	0.2	306564	99	3	1	0	0	3	125	stimuli\Videos_short_600ms_horflip\41.injection_with_blunt_syringe_short_horflip_short_600ms.mp4	41.injection_with_blunt_syringe_short_horflip_short_600ms.mp4	143.0835038314035	143.6918474992126	0.6083436678090948	n/a	n/a	n/a	n/a
150.48974609375	0.2	308203	100	3	1	0	0	4	235	stimuli\Videos_short_600ms_horvertflip\6.single_touch_with_flat_hand_short_horvertflip_short_600ms.mp4	6.single_touch_with_flat_hand_short_horvertflip_short_600ms.mp4	143.88349661755456	144.491817705426	0.6083210878714453	n/a	n/a	n/a	n/a
151.28955078125	0.2	309841	101	3	1	0	0	5	75	stimuli\Videos_short_600ms\78.single_stroke_top_to_bottom_with_soft_brush_short_short_600ms.mp4	78.single_stroke_top_to_bottom_with_soft_brush_short_short_600ms.mp4	144.683748633106	145.29182486062746	0.6080762275214511	n/a	n/a	n/a	n/a
152.08984375	0.2	311480	102	3	1	0	0	6	143	stimuli\Videos_short_600ms_horflip\58.single_slap_with_pencil_short_horflip_short_600ms.mp4	58.single_slap_with_pencil_short_horflip_short_600ms.mp4	145.48350799549553	146.09182321844855	0.6083152229530242	n/a	n/a	n/a	n/a
152.8896484375	0.2	313118	103	3	1	0	0	7	100	stimuli\Videos_short_600ms_horflip\19.single_touch_with_rolling_pin_short_horflip_short_600ms.mp4	19.single_touch_with_rolling_pin_short_horflip_short_600ms.mp4	146.28346969757695	146.89178022859596	0.6083105310190149	n/a	n/a	n/a	n/a
153.689453125	0.2	314756	104	3	1	0	0	8	32	stimuli\Videos_short_600ms\39.single_stab_with_scissors_short_short_600ms.mp4	39.single_stab_with_scissors_short_short_600ms.mp4	147.08342788070877	147.69175131454722	0.60832343383845	n/a	n/a	n/a	n/a
154.48974609375	0.2	316395	105	3	1	0	0	9	349	stimuli\Videos_short_600ms_vertflip\81.single_stroke_top_to_bottom_with_cotton_pad_short_vertflip_short_600ms.mp4	81.single_stroke_top_to_bottom_with_cotton_pad_short_vertflip_short_600ms.mp4	147.88345526987723	148.49173618305758	0.6082809131803515	n/a	n/a	n/a	n/a
155.28955078125	0.2	318033	106	3	1	0	0	10	104	stimuli\Videos_short_600ms_horflip\22.single_touch_with_metal_chopstick_short_horflip_short_600ms.mp4	22.single_touch_with_metal_chopstick_short_horflip_short_600ms.mp4	148.6834354464536	149.29172105156795	0.6082856051143608	n/a	n/a	n/a	n/a
156.08935546875	0.2	319671	107	3	1	0	0	11	245	stimuli\Videos_short_600ms_horvertflip\69.stroke_with_soft_sock_short_horvertflip_short_600ms.mp4	69.stroke_with_soft_sock_short_horvertflip_short_600ms.mp4	149.48341063784756	150.09172791352285	0.6083172756752901	n/a	n/a	n/a	n/a
156.8896484375	0.2	321310	108	3	1	0	0	12	48	stimuli\Videos_short_600ms\53.touch_top_to_bottom_with_knife_short_short_600ms.mp4	53.touch_top_to_bottom_with_knife_short_short_600ms.mp4	150.28338993468424	150.89171307527795	0.6083231405937113	n/a	n/a	n/a	n/a
157.689453125	0.2	322948	109	3	1	0	0	13	47	stimuli\Videos_short_600ms\52.touch_top_to_bottom_with_hammer_short_short_600ms.mp4	52.touch_top_to_bottom_with_hammer_short_short_600ms.mp4	151.083375976179	151.69170146273973	0.608325486560716	n/a	n/a	n/a	n/a
158.4892578125	0.2	324586	110	3	1	0	0	14	30	stimuli\Videos_short_600ms\37.single_stab_with_nail_file_short_short_600ms.mp4	37.single_stab_with_nail_file_short_short_600ms.mp4	151.88336436363898	152.4916927826598	0.608328419020836	n/a	n/a	n/a	n/a
159.28955078125	0.2	326225	111	3	1	0	0	15	50	stimuli\Videos_short_600ms\55.touch_top_to_bottom_with_nail_file_short_short_600ms.mp4	55.touch_top_to_bottom_with_nail_file_short_short_600ms.mp4	152.68335744303477	153.2916744254635	0.6083169824287324	n/a	n/a	n/a	n/a
160.08935546875	0.2	327863	112	3	1	0	1	16	372	stimuli\Targets_short_600ms_horvertflip\brush-stroke_short_vertflip_short_600ms.mp4	brush-stroke_short_vertflip_short_600ms.mp4	153.48332970197043	154.09213552536494	0.6088058233945048	n/a	n/a	n/a	n/a
160.88916015625	0.2	329501	113	3	1	0	0	17	181	stimuli\Videos_short_600ms_horvertflip\10.single_touch_with_knife_short_horvertflip_short_600ms.mp4	10.single_touch_with_knife_short_horvertflip_short_600ms.mp4	154.2833175029391	154.89163741782795	0.6083199148888525	n/a	n/a	n/a	n/a
161.689453125	0.2	331140	114	3	1	0	0	18	266	stimuli\Videos_short_600ms_horvertflip\88.repeated_stroke_with_plastic_brush_short_horvertflip_short_600ms.mp4	88.repeated_stroke_with_plastic_brush_short_horvertflip_short_600ms.mp4	155.08330325118732	155.69162228633832	0.6083190351509984	n/a	n/a	n/a	n/a
162.4892578125	0.2	332778	115	3	1	0	0	19	196	stimuli\Videos_short_600ms_horvertflip\24.single_stroke_top_to_bottom_with_a_spoon_short_horvertflip_short_600ms.mp4	24.single_stroke_top_to_bottom_with_a_spoon_short_horvertflip_short_600ms.mp4	155.88328723995983	156.49160715484868	0.6083199148888525	n/a	n/a	n/a	n/a
163.2890625	0.2	334416	116	3	1	0	0	20	277	stimuli\Videos_short_600ms_vertflip\16.repeated_touch_with_plastic_brush_short_vertflip_short_600ms.mp4	16.repeated_touch_with_plastic_brush_short_vertflip_short_600ms.mp4	156.68328178558477	157.2915917301125	0.6083099445277185	n/a	n/a	n/a	n/a
164.08935546875	0.2	336055	117	3	1	0	0	21	157	stimuli\Videos_short_600ms_horflip\70.(long)stroke_with_finger_all_over_the_hand_short_horflip_short_600ms.mp4	70.(long)stroke_with_finger_all_over_the_hand_short_horflip_short_600ms.mp4	157.4832434876662	158.0915809973103	0.6083375096441159	n/a	n/a	n/a	n/a
164.88916015625	0.2	337693	118	3	1	0	0	22	110	stimuli\Videos_short_600ms_horflip\28.single_injection_with_sharp_needle_short_horflip_short_600ms.mp4	28.single_injection_with_sharp_needle_short_horflip_short_600ms.mp4	158.28322219801157	158.8915626401158	0.608340442104236	n/a	n/a	n/a	n/a
165.68896484375	0.2	339331	119	3	1	0	0	23	191	stimuli\Videos_short_600ms_horvertflip\2.single_touch_with_finger_short_horvertflip_short_600ms.mp4	2.single_touch_with_finger_short_horvertflip_short_600ms.mp4	159.08320442730837	159.6915917887618	0.6083873614534241	n/a	n/a	n/a	n/a
166.4892578125	0.2	340970	120	3	1	0	0	24	247	stimuli\Videos_short_600ms_horvertflip\70.(long)stroke_with_finger_all_over_the_hand_short_horvertflip_short_600ms.mp4	70.(long)stroke_with_finger_all_over_the_hand_short_horvertflip_short_600ms.mp4	159.88319545398372	160.49153413661045	0.6083386826267088	n/a	n/a	n/a	n/a
167.2890625	0.2	342608	121	3	1	0	0	25	319	stimuli\Videos_short_600ms_vertflip\54.repeated_touch_with_knife_short_vertflip_short_600ms.mp4	54.repeated_touch_with_knife_short_vertflip_short_600ms.mp4	160.68320084970765	161.29151871187605	0.6083178621684056	n/a	n/a	n/a	n/a
168.0888671875	0.2	344246	122	3	1	0	0	26	135	stimuli\Videos_short_600ms_horflip\50.single_(long)hard_push_with_thumb_short_horflip_short_600ms.mp4	50.single_(long)hard_push_with_thumb_short_horflip_short_600ms.mp4	161.4832217874682	162.09150328713986	0.6082814996716479	n/a	n/a	n/a	n/a
168.88916015625	0.2	345885	123	3	1	0	0	27	267	stimuli\Videos_short_600ms_horvertflip\89.single_touch_with_plastic_brush_short_horvertflip_short_600ms.mp4	89.single_touch_with_plastic_brush_short_horvertflip_short_600ms.mp4	162.28317791787595	162.89149636653565	0.608318448659702	n/a	n/a	n/a	n/a
169.68896484375	0.2	347523	124	3	1	0	0	28	40	stimuli\Videos_short_600ms\46.scratching_top_to_bottom_with_finger_nails_short_short_600ms.mp4	46.scratching_top_to_bottom_with_finger_nails_short_short_600ms.mp4	163.08314959032032	163.69146305379763	0.608313463477316	n/a	n/a	n/a	n/a
170.48876953125	0.2	349161	125	3	1	0	0	29	203	stimuli\Videos_short_600ms_horvertflip\30.finger_pulling_back_another_finger_short_horvertflip_short_600ms.mp4	30.finger_pulling_back_another_finger_short_horvertflip_short_600ms.mp4	163.88314736165012	164.491437072209	0.6082897105588927	n/a	n/a	n/a	n/a
171.2890625	0.2	350800	126	3	1	0	0	30	78	stimuli\Videos_short_600ms\80.stroke_with_sharp_stick_all_over_the_hand_short_short_600ms.mp4	80.stroke_with_sharp_stick_all_over_the_hand_short_short_600ms.mp4	164.6831225530459	165.29145009232707	0.6083275392811629	n/a	n/a	n/a	n/a
172.0888671875	0.2	352438	127	3	1	0	0	31	227	stimuli\Videos_short_600ms_horvertflip\52.touch_top_to_bottom_with_hammer_short_horvertflip_short_600ms.mp4	52.touch_top_to_bottom_with_hammer_short_horvertflip_short_600ms.mp4	165.48309950391558	166.09146428543136	0.6083647815157747	n/a	n/a	n/a	n/a
172.88916015625	0.2	354077	128	3	1	0	0	32	238	stimuli\Videos_short_600ms_horvertflip\62.touch_top_to_bottom_with_scissors_short_horvertflip_short_600ms.mp4	62.touch_top_to_bottom_with_scissors_short_horvertflip_short_600ms.mp4	166.28309815498324	166.89142657400407	0.608328419020836	n/a	n/a	n/a	n/a
173.68896484375	0.2	355715	129	3	1	0	0	33	105	stimuli\Videos_short_600ms_horflip\23.single_push_with_a_spoon_short_horflip_short_600ms.mp4	23.single_push_with_a_spoon_short_horflip_short_600ms.mp4	167.08307803831303	167.6914032316272	0.6083251933141582	n/a	n/a	n/a	n/a
174.48876953125	0.2	357353	130	3	1	0	0	34	76	stimuli\Videos_short_600ms\79.long_with_soft_brush_all_over_the_hand_short_short_600ms.mp4	79.long_with_soft_brush_all_over_the_hand_short_short_600ms.mp4	167.88306232033028	168.4913866339084	0.6083243135781231	n/a	n/a	n/a	n/a
175.2890625	0.2	358992	131	3	1	0	0	35	79	stimuli\Videos_short_600ms\81.single_stroke_top_to_bottom_with_cotton_pad_short_short_600ms.mp4	81.single_stroke_top_to_bottom_with_cotton_pad_short_short_600ms.mp4	168.6830234359204	169.2913694496965	0.6083460137760994	n/a	n/a	n/a	n/a
176.0888671875	0.2	360630	132	3	1	0	0	36	58	stimuli\Videos_short_600ms\62.touch_top_to_bottom_with_scissors_short_short_600ms.mp4	62.touch_top_to_bottom_with_scissors_short_short_600ms.mp4	169.4830326438423	170.09135549119128	0.6083228473489726	n/a	n/a	n/a	n/a
176.888671875	0.2	362268	133	3	1	0	0	37	297	stimuli\Videos_short_600ms_vertflip\34.repeated_punch_with_hand_short_vertflip_short_600ms.mp4	34.repeated_punch_with_hand_short_vertflip_short_600ms.mp4	170.28301751235267	170.89133830697938	0.6083207946267066	n/a	n/a	n/a	n/a
177.68896484375	0.2	363907	134	3	1	0	0	38	154	stimuli\Videos_short_600ms_horflip\68.stroke_top_to_bottom_with_shawl_short_horflip_short_600ms.mp4	68.stroke_top_to_bottom_with_shawl_short_horflip_short_600ms.mp4	171.08300150112518	171.69132786742375	0.6083263662985701	n/a	n/a	n/a	n/a
178.48876953125	0.2	365545	135	3	1	0	0	39	54	stimuli\Videos_short_600ms\59.single_push_with_long_side_pencil_short_short_600ms.mp4	59.single_push_with_long_side_pencil_short_short_600ms.mp4	171.8829793317327	172.49131244268756	0.6083331109548453	n/a	n/a	n/a	n/a
179.28857421875	0.2	367183	136	3	1	0	0	40	270	stimuli\Videos_short_600ms_vertflip\1.repeated_touch_with_finger_fast_short_vertflip_short_600ms.mp4	1.repeated_touch_with_finger_fast_short_vertflip_short_600ms.mp4	172.6829592150625	173.2912943787378	0.6083351636752923	n/a	n/a	n/a	n/a
180.0888671875	0.2	368822	137	3	1	0	0	41	73	stimuli\Videos_short_600ms\76.tickle_with_fingers_from_top_to_bottom_short_short_600ms.mp4	76.tickle_with_fingers_from_top_to_bottom_short_short_600ms.mp4	173.48296578377085	174.09127954049472	0.6083137567238737	n/a	n/a	n/a	n/a
180.888671875	0.2	370460	138	3	1	0	0	42	168	stimuli\Videos_short_600ms_horflip\80.stroke_with_sharp_stick_all_over_the_hand_short_horflip_short_600ms.mp4	80.stroke_with_sharp_stick_all_over_the_hand_short_horflip_short_600ms.mp4	174.28292865883668	174.89126939418566	0.6083407353489747	n/a	n/a	n/a	n/a
181.6884765625	0.2	372098	139	3	1	0	0	43	42	stimuli\Videos_short_600ms\48.single_slap_with_hand_short_short_600ms.mp4	48.single_slap_with_hand_short_short_600ms.mp4	175.08293522754502	175.69125045049805	0.6083152229530242	n/a	n/a	n/a	n/a
182.48876953125	0.2	373737	140	3	1	0	0	44	218	stimuli\Videos_short_600ms_horvertflip\44.pushing_top_to_bottom_with_finger_short_horvertflip_short_600ms.mp4	44.pushing_top_to_bottom_with_finger_short_horvertflip_short_600ms.mp4	175.88292332176025	176.49122740136772	0.6083040796074783	n/a	n/a	n/a	n/a
183.28857421875	0.2	375375	141	3	1	0	0	45	11	stimuli\Videos_short_600ms\2.single_touch_with_finger_short_short_600ms.mp4	2.single_touch_with_finger_short_short_600ms.mp4	176.68290672403964	177.29119995354813	0.6082932295084902	n/a	n/a	n/a	n/a
184.08837890625	0.2	377013	142	3	1	0	0	46	41	stimuli\Videos_short_600ms\47.(long)scratching_with_finger_nails_short_short_600ms.mp4	47.(long)scratching_with_finger_nails_short_short_600ms.mp4	177.48301270312004	178.09118394232064	0.6081712392006011	n/a	n/a	n/a	n/a
184.888671875	0.2	378652	143	3	1	0	0	47	172	stimuli\Videos_short_600ms_horflip\84.single_touch_with_cotton_bud_short_horflip_short_600ms.mp4	84.single_touch_with_cotton_bud_short_horflip_short_600ms.mp4	178.28287235561766	178.891168810831	0.608296455213349	n/a	n/a	n/a	n/a
185.6884765625	0.2	380290	144	3	1	0	0	48	180	stimuli\Videos_short_600ms_horvertflip\1.repeated_touch_with_finger_fast_short_horvertflip_short_600ms.mp4	1.repeated_touch_with_finger_fast_short_horvertflip_short_600ms.mp4	179.0828314184855	179.6911739133102	0.6083424948246829	n/a	n/a	n/a	n/a
186.48828125	0.2	381928	145	3	1	0	0	49	60	stimuli\Videos_short_600ms\64.repeated_touch_with_screwdriver_short_short_600ms.mp4	64.repeated_touch_with_screwdriver_short_short_600ms.mp4	179.88281570050276	180.4911664062147	0.6083507057119277	n/a	n/a	n/a	n/a
187.28857421875	0.2	383567	146	3	1	0	0	50	0	stimuli\Videos_short_600ms\1.repeated_touch_with_finger_fast_short_short_600ms.mp4	1.repeated_touch_with_finger_fast_short_short_600ms.mp4	180.68282696114693	181.29116886948032	0.6083419083333865	n/a	n/a	n/a	n/a
188.08837890625	0.2	385205	147	3	1	0	0	51	278	stimuli\Videos_short_600ms_vertflip\17.repeated_touch_with_rolling_pin_short_vertflip_short_600ms.mp4	17.repeated_touch_with_rolling_pin_short_vertflip_short_600ms.mp4	181.4828147621174	182.09113350402183	0.6083187419044407	n/a	n/a	n/a	n/a
188.88818359375	0.2	386843	148	3	1	0	0	52	123	stimuli\Videos_short_600ms_horflip\4.repeated_tap_with_finger_slow_short_horflip_short_600ms.mp4	4.repeated_tap_with_finger_slow_short_horflip_short_600ms.mp4	182.28281399967636	182.89111749279255	0.6083034931161819	n/a	n/a	n/a	n/a
189.6884765625	0.2	388482	149	3	1	0	1	53	366	stimuli\Targets_short_600ms_horflip\brush-stroke_short_horflip_short_600ms.mp4	brush-stroke_short_horflip_short_600ms.mp4	183.08277775448005	183.69110118832032	0.608323433840269	n/a	n/a	n/a	n/a
190.48828125	0.2	390120	150	3	1	0	0	54	220	stimuli\Videos_short_600ms_horvertflip\46.scratching_top_to_bottom_with_finger_nails_short_horvertflip_short_600ms.mp4	46.scratching_top_to_bottom_with_finger_nails_short_horvertflip_short_600ms.mp4	183.8827646757109	184.4910930947317	0.608328419020836	n/a	n/a	n/a	n/a
191.2880859375	0.2	391758	151	3	1	0	0	55	185	stimuli\Videos_short_600ms_horvertflip\14.repeated_touch_with_pencil_short_horvertflip_short_600ms.mp4	14.repeated_touch_with_pencil_short_horvertflip_short_600ms.mp4	184.6827551158949	185.291101129671	0.6083460137760994	n/a	n/a	n/a	n/a
192.08837890625	0.2	393397	152	3	1	0	0	56	166	stimuli\Videos_short_600ms_horflip\79.long_with_soft_brush_all_over_the_hand_short_horflip_short_600ms.mp4	79.long_with_soft_brush_all_over_the_hand_short_horflip_short_600ms.mp4	185.4827344127316	186.09105667358745	0.6083222608558572	n/a	n/a	n/a	n/a
192.88818359375	0.2	395035	153	3	1	0	0	57	46	stimuli\Videos_short_600ms\51.repeated_touch_with_hammer_short_short_600ms.mp4	51.repeated_touch_with_hammer_short_short_600ms.mp4	186.28269523507515	186.8910424218357	0.6083471867605112	n/a	n/a	n/a	n/a
193.6884765625	0.2	396674	154	3	1	0	0	58	167	stimuli\Videos_short_600ms_horflip\8.single_touch_with_hairbrush_short_horflip_short_600ms.mp4	8.single_touch_with_hairbrush_short_horflip_short_600ms.mp4	187.0827032700145	187.6910352079849	0.6083319379704335	n/a	n/a	n/a	n/a
194.48828125	0.2	398312	155	3	1	0	0	59	303	stimuli\Videos_short_600ms_vertflip\4.repeated_tap_with_finger_slow_short_vertflip_short_600ms.mp4	4.repeated_tap_with_finger_slow_short_vertflip_short_600ms.mp4	187.88267611544143	188.49101215885457	0.6083360434131464	n/a	n/a	n/a	n/a
195.2880859375	0.2	399950	156	3	1	0	0	60	91	stimuli\Videos_short_600ms_horflip\10.single_touch_with_knife_short_horflip_short_600ms.mp4	10.single_touch_with_knife_short_horflip_short_600ms.mp4	188.6826536528024	189.29099761385623	0.6083439610538335	n/a	n/a	n/a	n/a
196.08837890625	0.2	401589	157	3	1	0	0	61	145	stimuli\Videos_short_600ms_horflip\6.single_touch_with_flat_hand_short_horflip_short_600ms.mp4	6.single_touch_with_flat_hand_short_horflip_short_600ms.mp4	189.4826388145575	190.09098541482672	0.6083466002692148	n/a	n/a	n/a	n/a
196.88818359375	0.2	403227	158	3	1	0	0	62	10	stimuli\Videos_short_600ms\19.single_touch_with_rolling_pin_short_short_600ms.mp4	19.single_touch_with_rolling_pin_short_short_600ms.mp4	190.28266649697431	190.8909658846478	0.608299387673469	n/a	n/a	n/a	n/a
197.68798828125	0.2	404865	159	3	1	0	0	63	175	stimuli\Videos_short_600ms_horflip\87.single_stroke_top_to_bottom_with_plastic_brush_short_horflip_short_600ms.mp4	87.single_stroke_top_to_bottom_with_plastic_brush_short_horflip_short_600ms.mp4	191.0826279058092	191.69095251263207	0.6083246068228618	n/a	n/a	n/a	n/a
198.48828125	0.2	406504	160	3	1	0	0	64	241	stimuli\Videos_short_600ms_horvertflip\65.stroke_top_to_bottom_with_stanley_knife_short_horvertflip_short_600ms.mp4	65.stroke_top_to_bottom_with_stanley_knife_short_horvertflip_short_600ms.mp4	191.8826230379273	192.4909435393074	0.6083205013801489	n/a	n/a	n/a	n/a
199.2880859375	0.2	408142	161	3	1	0	0	65	205	stimuli\Videos_short_600ms_horvertflip\32.single_(long)pinch_with_fingers_short_horvertflip_short_600ms.mp4	32.single_(long)pinch_with_fingers_short_horvertflip_short_600ms.mp4	192.6826211025036	193.2909023089287	0.6082812064250902	n/a	n/a	n/a	n/a
200.087890625	0.2	409780	162	3	1	0	0	66	6	stimuli\Videos_short_600ms\15.single_stroke_top_to_bottom_with_a_plastic_whisk_short_short_600ms.mp4	15.single_stroke_top_to_bottom_with_a_plastic_whisk_short_short_600ms.mp4	193.482584270816	194.09088600445648	0.6083017336404737	n/a	n/a	n/a	n/a
200.88818359375	0.2	411419	163	3	1	0	0	67	139	stimuli\Videos_short_600ms_horflip\54.repeated_touch_with_knife_short_horflip_short_600ms.mp4	54.repeated_touch_with_knife_short_horflip_short_600ms.mp4	194.2825796961788	194.8908914001804	0.6083117040016077	n/a	n/a	n/a	n/a
201.68798828125	0.2	413057	164	3	1	0	0	68	289	stimuli\Videos_short_600ms_vertflip\27.single_push_with_a_plastic_whisk_short_vertflip_short_600ms.mp4	27.single_push_with_a_plastic_whisk_short_vertflip_short_600ms.mp4	195.08255576731065	195.6908551549841	0.608299387673469	n/a	n/a	n/a	n/a
202.48779296875	0.2	414695	165	3	1	0	0	69	111	stimuli\Videos_short_600ms_horflip\29.single_pinch_with_tweezers_short_horflip_short_600ms.mp4	29.single_pinch_with_tweezers_short_horflip_short_600ms.mp4	195.882545327755	196.4908649493973	0.6083196216422948	n/a	n/a	n/a	n/a
203.2880859375	0.2	416334	166	3	1	0	0	70	94	stimuli\Videos_short_600ms_horflip\13.single_touch_with_pen_short_horflip_short_600ms.mp4	13.single_touch_with_pen_short_horflip_short_600ms.mp4	196.6825246245935	197.2908785560085	0.6083539314149675	n/a	n/a	n/a	n/a
204.087890625	0.2	417972	167	3	1	0	0	71	269	stimuli\Videos_short_600ms_horvertflip\90.repeated_touch_with_sponge_short_horvertflip_short_600ms.mp4	90.repeated_touch_with_sponge_short_horvertflip_short_600ms.mp4	197.48251359854655	198.0908329269423	0.6083193283957371	n/a	n/a	n/a	n/a
204.8876953125	0.2	419610	168	3	1	0	0	72	121	stimuli\Videos_short_600ms_horflip\38.double_slap_with_pencil_short_horflip_short_600ms.mp4	38.double_slap_with_pencil_short_horflip_short_600ms.mp4	198.28249494810552	198.89081720896135	0.6083222608558572	n/a	n/a	n/a	n/a
205.68798828125	0.2	421249	169	3	1	0	0	73	19	stimuli\Videos_short_600ms\27.single_push_with_a_plastic_whisk_short_short_600ms.mp4	27.single_push_with_a_plastic_whisk_short_short_600ms.mp4	199.0824856815343	199.69080794238835	0.6083222608540382	n/a	n/a	n/a	n/a
206.48779296875	0.2	422887	170	3	1	0	0	74	261	stimuli\Videos_short_600ms_horvertflip\83.single_stroke_top_to_bottom_with_cotton_bud_short_horvertflip_short_600ms.mp4	83.single_stroke_top_to_bottom_with_cotton_bud_short_horvertflip_short_600ms.mp4	199.8824655648623	200.49078606624244	0.6083205013801489	n/a	n/a	n/a	n/a
207.28759765625	0.2	424525	171	3	1	0	0	75	63	stimuli\Videos_short_600ms\67.single_touch_with_sponge_short_short_600ms.mp4	67.single_touch_with_sponge_short_short_600ms.mp4	200.68248884858983	201.29077797265563	0.6082891240657773	n/a	n/a	n/a	n/a
208.087890625	0.2	426164	172	3	1	0	0	76	237	stimuli\Videos_short_600ms_horvertflip\61.single_hit_with_rolling_pin_short_horvertflip_short_600ms.mp4	61.single_hit_with_rolling_pin_short_horvertflip_short_600ms.mp4	201.48244116680144	202.0907563897545	0.6083152229530242	n/a	n/a	n/a	n/a
208.8876953125	0.2	427802	173	3	1	0	0	77	343	stimuli\Videos_short_600ms_vertflip\76.tickle_with_fingers_from_top_to_bottom_short_vertflip_short_600ms.mp4	76.tickle_with_fingers_from_top_to_bottom_short_vertflip_short_600ms.mp4	202.28242632855657	202.89074419072313	0.6083178621665866	n/a	n/a	n/a	n/a
209.6875	0.2	429440	174	3	1	0	0	78	87	stimuli\Videos_short_600ms\89.single_touch_with_plastic_brush_short_short_600ms.mp4	89.single_touch_with_plastic_brush_short_short_600ms.mp4	203.08240797136204	203.6907290592335	0.6083210878714453	n/a	n/a	n/a	n/a
210.48779296875	0.2	431079	175	3	1	0	0	79	93	stimuli\Videos_short_600ms_horflip\12.repeated_touch_with_nail_file_short_horflip_short_600ms.mp4	12.repeated_touch_with_nail_file_short_horflip_short_600ms.mp4	203.88237201941047	204.49072477784284	0.6083527584323747	n/a	n/a	n/a	n/a
211.28759765625	0.2	432717	176	3	1	0	0	80	357	stimuli\Videos_short_600ms_vertflip\89.single_touch_with_plastic_brush_short_vertflip_short_600ms.mp4	89.single_touch_with_plastic_brush_short_vertflip_short_600ms.mp4	204.68235512844512	205.2906976232698	0.6083424948246829	n/a	n/a	n/a	n/a
212.08740234375	0.2	434355	177	3	1	0	0	81	9	stimuli\Videos_short_600ms\18.single_stroke_from_top_to_bottom_with_rolling_pin_short_short_600ms.mp4	18.single_stroke_from_top_to_bottom_with_rolling_pin_short_short_600ms.mp4	205.482365802598	206.09068395800932	0.6083181554113253	n/a	n/a	n/a	n/a
212.8876953125	0.2	435994	178	3	1	0	0	82	128	stimuli\Videos_short_600ms_horflip\44.pushing_top_to_bottom_with_finger_short_horflip_short_600ms.mp4	44.pushing_top_to_bottom_with_finger_short_horflip_short_600ms.mp4	206.2823492048774	206.89066677379745	0.6083175689200289	n/a	n/a	n/a	n/a
213.6875	0.2	437632	179	3	1	0	0	83	59	stimuli\Videos_short_600ms\63.stroke_top_to_bottom_with_screwdriver_short_short_600ms.mp4	63.stroke_top_to_bottom_with_screwdriver_short_short_600ms.mp4	207.0823085609918	207.69068477909784	0.6083762181060592	n/a	n/a	n/a	n/a
214.48779296875	0.2	439271	180	3	1	0	0	84	88	stimuli\Videos_short_600ms\9.single_touch_with_hammer_short_short_600ms.mp4	9.single_touch_with_hammer_short_short_600ms.mp4	207.8822931362556	208.4906247809813	0.6083316447256948	n/a	n/a	n/a	n/a
215.28759765625	0.2	440909	181	3	1	0	0	85	131	stimuli\Videos_short_600ms_horflip\47.(long)scratching_with_finger_nails_short_horflip_short_600ms.mp4	47.(long)scratching_with_finger_nails_short_horflip_short_600ms.mp4	208.6823014644397	209.29060085211313	0.608299387673469	n/a	n/a	n/a	n/a
216.08740234375	0.2	442547	182	3	1	0	0	86	119	stimuli\Videos_short_600ms_horflip\36.single_slap_with_full_hand_short_horflip_short_600ms.mp4	36.single_slap_with_full_hand_short_horflip_short_600ms.mp4	209.4822936640976	210.09058601386823	0.6082923497706361	n/a	n/a	n/a	n/a
216.8876953125	0.2	444186	183	3	1	0	0	87	159	stimuli\Videos_short_600ms_horflip\72.(short)stroke_with_finger_all_over_the_hand_short_horflip_short_600ms.mp4	72.(short)stroke_with_finger_all_over_the_hand_short_horflip_short_600ms.mp4	210.28235448330452	210.8905702958873	0.6082158125827846	n/a	n/a	n/a	n/a
217.6875	0.2	445824	184	3	1	0	0	88	171	stimuli\Videos_short_600ms_horflip\83.single_stroke_top_to_bottom_with_cotton_bud_short_horflip_short_600ms.mp4	83.single_stroke_top_to_bottom_with_cotton_bud_short_horflip_short_600ms.mp4	211.08225548347764	211.69057803758005	0.6083225541024149	n/a	n/a	n/a	n/a
218.4873046875	0.2	447462	185	3	1	0	0	89	314	stimuli\Videos_short_600ms_vertflip\5.repeated_tap_with_finger_moving_from_top_to_bottom_short_vertflip_short_600ms.mp4	5.repeated_tap_with_finger_moving_from_top_to_bottom_short_vertflip_short_600ms.mp4	211.88221659906776	212.49056935750016	0.6083527584323747	n/a	n/a	n/a	n/a
219.28759765625	0.2	449101	186	3	1	0	0	90	151	stimuli\Videos_short_600ms_horflip\65.stroke_top_to_bottom_with_stanley_knife_short_horflip_short_600ms.mp4	65.stroke_top_to_bottom_with_stanley_knife_short_horflip_short_600ms.mp4	212.68220557302084	213.29054982732123	0.6083442543003912	n/a	n/a	n/a	n/a
220.08740234375	0.2	450739	187	3	1	0	0	91	281	stimuli\Videos_short_600ms_vertflip\2.single_touch_with_finger_short_vertflip_short_600ms.mp4	2.single_touch_with_finger_short_vertflip_short_600ms.mp4	213.4822127282223	214.09053293635588	0.6083202081335912	2.0	3.0	1.7309269181296258	0.0
249.861328125	0.2	511716	188	3	2	0	0	0	271	stimuli\Videos_short_600ms_vertflip\10.single_touch_with_knife_short_vertflip_short_600ms.mp4	10.single_touch_with_knife_short_vertflip_short_600ms.mp4	243.25665118425783	243.8649845884593	0.608333404201403	n/a	n/a	n/a	n/a
250.6611328125	0.2	513354	189	3	2	0	0	1	188	stimuli\Videos_short_600ms_horvertflip\17.repeated_touch_with_rolling_pin_short_horvertflip_short_600ms.mp4	17.repeated_touch_with_rolling_pin_short_horvertflip_short_600ms.mp4	244.05663751899735	244.6649577271328	0.6083202081354102	n/a	n/a	n/a	n/a
251.46142578125	0.2	514993	190	3	2	0	0	2	90	stimuli\Videos_short_600ms_horflip\1.repeated_touch_with_finger_fast_short_horflip_short_600ms.mp4	1.repeated_touch_with_finger_fast_short_horflip_short_600ms.mp4	244.8566279591796	245.46494259564133	0.6083146364617278	n/a	n/a	n/a	n/a
252.26123046875	0.2	516631	191	3	2	0	0	3	358	stimuli\Videos_short_600ms_vertflip\9.single_touch_with_hammer_short_vertflip_short_600ms.mp4	9.single_touch_with_hammer_short_vertflip_short_600ms.mp4	245.65660637628025	246.26493068985656	0.6083243135763041	n/a	n/a	n/a	n/a
253.0615234375	0.2	518270	192	3	2	0	0	4	190	stimuli\Videos_short_600ms_horvertflip\19.single_touch_with_rolling_pin_short_horvertflip_short_600ms.mp4	19.single_touch_with_rolling_pin_short_horvertflip_short_600ms.mp4	246.4565909515441	247.06491702459607	0.6083260730520124	n/a	n/a	n/a	n/a
253.861328125	0.2	519908	193	3	2	0	1	5	374	stimuli\Targets_short_600ms_horvertflip\chopstickwood-tap_short_vertflip_short_600ms.mp4	chopstickwood-tap_short_vertflip_short_600ms.mp4	247.25658051198843	247.864896028188	0.6083155161995819	n/a	n/a	n/a	n/a
254.6611328125	0.2	521546	194	3	2	0	0	6	68	stimuli\Videos_short_600ms\71.single_stroke_with_finger_top_to_bottom_short_short_600ms.mp4	71.single_stroke_with_finger_top_to_bottom_short_short_600ms.mp4	248.0565647940075	248.66488412240324	0.6083193283957371	n/a	n/a	n/a	n/a
255.46142578125	0.2	523185	195	3	2	0	0	7	301	stimuli\Videos_short_600ms_vertflip\38.double_slap_with_pencil_short_vertflip_short_600ms.mp4	38.double_slap_with_pencil_short_vertflip_short_600ms.mp4	248.8565308947782	249.46486752468445	0.6083366299062618	n/a	n/a	n/a	n/a
256.26123046875	0.2	524823	196	3	2	0	0	8	251	stimuli\Videos_short_600ms_horvertflip\74.fingers_walking_from_top_to_bottom_short_horvertflip_short_600ms.mp4	74.fingers_walking_from_top_to_bottom_short_horvertflip_short_600ms.mp4	249.65653335804384	250.2648518067017	0.608318448657883	n/a	n/a	n/a	n/a
257.06103515625	0.2	526461	197	3	2	0	0	9	170	stimuli\Videos_short_600ms_horflip\82.repeated_touch_with_cotton_bud_short_horflip_short_600ms.mp4	82.repeated_touch_with_cotton_bud_short_horflip_short_600ms.mp4	250.45649476687868	251.0648419536392	0.6083471867605112	n/a	n/a	n/a	n/a
257.861328125	0.2	528100	198	3	2	0	0	10	239	stimuli\Videos_short_600ms_horvertflip\63.stroke_top_to_bottom_with_screwdriver_short_horvertflip_short_600ms.mp4	63.stroke_top_to_bottom_with_screwdriver_short_horvertflip_short_600ms.mp4	251.2565042680471	251.8648230099516	0.6083187419044407	n/a	n/a	n/a	n/a
258.6611328125	0.2	529738	199	3	2	0	0	11	144	stimuli\Videos_short_600ms_horflip\59.single_push_with_long_side_pencil_short_horflip_short_600ms.mp4	59.single_push_with_long_side_pencil_short_horflip_short_600ms.mp4	252.05649353524677	252.66480729196883	0.6083137567220547	n/a	n/a	n/a	n/a
259.4609375	0.2	531376	200	3	2	0	0	12	165	stimuli\Videos_short_600ms_horflip\78.single_stroke_top_to_bottom_with_soft_brush_short_horflip_short_600ms.mp4	78.single_stroke_top_to_bottom_with_soft_brush_short_horflip_short_600ms.mp4	252.8564751780505	253.46478512257815	0.6083099445277185	n/a	n/a	n/a	n/a
260.26123046875	0.2	533015	201	3	2	0	0	13	212	stimuli\Videos_short_600ms_horvertflip\39.single_stab_with_scissors_short_horvertflip_short_600ms.mp4	39.single_stab_with_scissors_short_horvertflip_short_600ms.mp4	253.6564656182327	254.2647864128594	0.6083207946267066	n/a	n/a	n/a	n/a
261.06103515625	0.2	534653	202	3	2	0	0	14	8	stimuli\Videos_short_600ms\17.repeated_touch_with_rolling_pin_short_short_600ms.mp4	17.repeated_touch_with_rolling_pin_short_short_600ms.mp4	254.4564411028732	255.06474049054668	0.608299387673469	n/a	n/a	n/a	n/a
261.86083984375	0.2	536291	203	3	2	0	0	15	334	stimuli\Videos_short_600ms_vertflip\68.stroke_top_to_bottom_with_shawl_short_vertflip_short_600ms.mp4	68.stroke_top_to_bottom_with_shawl_short_vertflip_short_600ms.mp4	255.25644239315625	255.8647274117775	0.6082850186212454	n/a	n/a	n/a	n/a
262.6611328125	0.2	537930	204	3	2	0	0	16	202	stimuli\Videos_short_600ms_horvertflip\3.single_push_with_finger_short_horvertflip_short_600ms.mp4	3.single_push_with_finger_short_horvertflip_short_600ms.mp4	256.05637301116803	256.66471902494413	0.6083460137760994	n/a	n/a	n/a	n/a
263.4609375	0.2	539568	205	3	2	0	0	17	295	stimuli\Videos_short_600ms_vertflip\32.single_(long)pinch_with_fingers_short_vertflip_short_600ms.mp4	32.single_(long)pinch_with_fingers_short_vertflip_short_600ms.mp4	256.8564306046701	257.4647182625049	0.6082876578348078	n/a	n/a	n/a	n/a
264.2607421875	0.2	541206	206	3	2	0	0	18	232	stimuli\Videos_short_600ms_horvertflip\57.single_touch_with_nail_file_short_horvertflip_short_600ms.mp4	57.single_touch_with_nail_file_short_horvertflip_short_600ms.mp4	257.6563946527185	258.2647054769823	0.6083108242637536	n/a	n/a	n/a	n/a
265.06103515625	0.2	542845	207	3	2	0	0	19	233	stimuli\Videos_short_600ms_horvertflip\58.single_slap_with_pencil_short_horvertflip_short_600ms.mp4	58.single_slap_with_pencil_short_horvertflip_short_600ms.mp4	258.4563757090309	259.0646935711975	0.6083178621665866	n/a	n/a	n/a	n/a
265.86083984375	0.2	544483	208	3	2	0	0	20	130	stimuli\Videos_short_600ms_horflip\46.scratching_top_to_bottom_with_finger_nails_short_horflip_short_600ms.mp4	46.scratching_top_to_bottom_with_finger_nails_short_horflip_short_600ms.mp4	259.2564552959775	259.86467374777385	0.6082184517963469	n/a	n/a	n/a	n/a
266.66064453125	0.2	546121	209	3	2	0	0	21	102	stimuli\Videos_short_600ms_horflip\20.single_touch_with_screwdriver_short_horflip_short_600ms.mp4	20.single_touch_with_screwdriver_short_horflip_short_600ms.mp4	260.0563384081488	260.6646568568067	0.608318448657883	n/a	n/a	n/a	n/a
267.4609375	0.2	547760	210	3	2	0	0	22	164	stimuli\Videos_short_600ms_horflip\77.tapping_with_all_fingers_short_horflip_short_600ms.mp4	77.tapping_with_all_fingers_short_horflip_short_600ms.mp4	260.8563297280689	261.46464113882575	0.608311410756869	n/a	n/a	n/a	n/a
268.2607421875	0.2	549398	211	3	2	0	0	23	244	stimuli\Videos_short_600ms_horvertflip\68.stroke_top_to_bottom_with_shawl_short_horvertflip_short_600ms.mp4	68.stroke_top_to_bottom_with_shawl_short_horvertflip_short_600ms.mp4	261.6563216344821	262.2646260073361	0.608304372854036	n/a	n/a	n/a	n/a
269.060546875	0.2	551036	212	3	2	0	0	24	298	stimuli\Videos_short_600ms_vertflip\35.single_punch_with_hand_short_vertflip_short_600ms.mp4	35.single_punch_with_hand_short_vertflip_short_600ms.mp4	262.45629096095763	263.0646111690912	0.6083202081335912	n/a	n/a	n/a	n/a
269.86083984375	0.2	552675	213	3	2	0	0	25	18	stimuli\Videos_short_600ms\26.single_touch_with_a_blunt_syringe_short_short_600ms.mp4	26.single_touch_with_a_blunt_syringe_short_short_600ms.mp4	263.2562901985184	263.86459750383074	0.6083073053123371	n/a	n/a	n/a	n/a
270.66064453125	0.2	554313	214	3	2	0	0	26	317	stimuli\Videos_short_600ms_vertflip\52.touch_top_to_bottom_with_hammer_short_vertflip_short_600ms.mp4	52.touch_top_to_bottom_with_hammer_short_vertflip_short_600ms.mp4	264.05623899777856	264.664579439881	0.608340442102417	n/a	n/a	n/a	n/a
271.46044921875	0.2	555951	215	3	2	0	0	27	109	stimuli\Videos_short_600ms_horflip\27.single_push_with_a_plastic_whisk_short_horflip_short_600ms.mp4	27.single_push_with_a_plastic_whisk_short_horflip_short_600ms.mp4	264.8562221068132	265.46456372190005	0.6083416150868288	n/a	n/a	n/a	n/a
272.2607421875	0.2	557590	216	3	2	0	0	28	307	stimuli\Videos_short_600ms_vertflip\43.touch_top_to_bottom_with_sharp_wooden_stick_short_vertflip_short_600ms.mp4	43.touch_top_to_bottom_with_sharp_wooden_stick_short_vertflip_short_600ms.mp4	265.6562069753236	266.26455064313086	0.6083436678072758	n/a	n/a	n/a	n/a
273.060546875	0.2	559228	217	3	2	0	0	29	122	stimuli\Videos_short_600ms_horflip\39.single_stab_with_scissors_short_horflip_short_600ms.mp4	39.single_stab_with_scissors_short_horflip_short_600ms.mp4	266.45619653576796	267.0645358048878	0.6083392691198242	n/a	n/a	n/a	n/a
273.86083984375	0.2	560867	218	3	2	0	0	30	323	stimuli\Videos_short_600ms_vertflip\58.single_slap_with_pencil_short_vertflip_short_600ms.mp4	58.single_slap_with_pencil_short_vertflip_short_600ms.mp4	267.2562066234277	267.8645274180544	0.6083207946267066	n/a	n/a	n/a	n/a
274.66064453125	0.2	562505	219	3	2	0	0	31	103	stimuli\Videos_short_600ms_horflip\21.repeated_touch_with_metal_chopstick_short_horflip_short_600ms.mp4	21.repeated_touch_with_metal_chopstick_short_horflip_short_600ms.mp4	268.05619090544496	268.66450583515325	0.6083149297082855	n/a	n/a	n/a	n/a
275.46044921875	0.2	564143	220	3	2	0	0	32	253	stimuli\Videos_short_600ms_horvertflip\76.tickle_with_fingers_from_top_to_bottom_short_horvertflip_short_600ms.mp4	76.tickle_with_fingers_from_top_to_bottom_short_horvertflip_short_600ms.mp4	268.85617929290675	269.46447017644823	0.6082908835414855	n/a	n/a	n/a	n/a
276.2607421875	0.2	565782	221	3	2	0	0	33	98	stimuli\Videos_short_600ms_horflip\17.repeated_touch_with_rolling_pin_short_horflip_short_600ms.mp4	17.repeated_touch_with_rolling_pin_short_horflip_short_600ms.mp4	269.6561585897434	270.26445299223633	0.608294402492902	n/a	n/a	n/a	n/a
277.060546875	0.2	567420	222	3	2	0	0	34	112	stimuli\Videos_short_600ms_horflip\3.single_push_with_finger_short_horflip_short_600ms.mp4	3.single_push_with_finger_short_horflip_short_600ms.mp4	270.4561387663198	271.06444167294285	0.6083029066230665	n/a	n/a	n/a	n/a
277.8603515625	0.2	569058	223	3	2	0	0	35	80	stimuli\Videos_short_600ms\82.repeated_touch_with_cotton_bud_short_short_600ms.mp4	82.repeated_touch_with_cotton_bud_short_short_600ms.mp4	271.2561274470263	271.86444618893074	0.6083187419044407	n/a	n/a	n/a	n/a
278.66064453125	0.2	570697	224	3	2	0	0	36	292	stimuli\Videos_short_600ms_vertflip\3.single_push_with_finger_short_vertflip_short_600ms.mp4	3.single_push_with_finger_short_vertflip_short_600ms.mp4	272.0561079168474	272.66443135068766	0.608323433840269	n/a	n/a	n/a	n/a
279.46044921875	0.2	572335	225	3	2	0	0	37	21	stimuli\Videos_short_600ms\29.single_pinch_with_tweezers_short_short_600ms.mp4	29.single_pinch_with_tweezers_short_short_600ms.mp4	272.85609337184906	273.46442091113204	0.6083275392829819	n/a	n/a	n/a	n/a
280.26025390625	0.2	573973	226	3	2	0	0	38	254	stimuli\Videos_short_600ms_horvertflip\77.tapping_with_all_fingers_short_horvertflip_short_600ms.mp4	77.tapping_with_all_fingers_short_horvertflip_short_600ms.mp4	273.656078533606	274.26440783236285	0.6083292987568711	n/a	n/a	n/a	n/a
281.060546875	0.2	575612	227	3	2	0	0	39	296	stimuli\Videos_short_600ms_vertflip\33.scratch_top_to_bottom_with_scissors_short_vertflip_short_600ms.mp4	33.scratch_top_to_bottom_with_scissors_short_vertflip_short_600ms.mp4	274.4560610561475	275.06438536972564	0.6083243135781231	n/a	n/a	n/a	n/a
281.8603515625	0.2	577250	228	3	2	0	0	40	120	stimuli\Videos_short_600ms_horflip\37.single_stab_with_nail_file_short_horflip_short_600ms.mp4	37.single_stab_with_nail_file_short_horflip_short_600ms.mp4	275.25604856387145	275.86436877200504	0.6083202081335912	n/a	n/a	n/a	n/a
282.66015625	0.2	578888	229	3	2	0	0	41	124	stimuli\Videos_short_600ms_horflip\40.repeated_push_with_finger_short_horflip_short_600ms.mp4	40.repeated_push_with_finger_short_horflip_short_600ms.mp4	276.0560381243158	276.6643571594668	0.6083190351509984	n/a	n/a	n/a	n/a
283.46044921875	0.2	580527	230	3	2	0	0	42	174	stimuli\Videos_short_600ms_horflip\86.touch_top_to_bottom_with_hair_brush_short_horflip_short_600ms.mp4	86.touch_top_to_bottom_with_hair_brush_short_horflip_short_600ms.mp4	276.85602181984177	277.4643393887636	0.6083175689218479	n/a	n/a	n/a	n/a
284.26025390625	0.2	582165	231	3	2	0	0	43	231	stimuli\Videos_short_600ms_horvertflip\56.repeated_touch_with_nail_file_short_horvertflip_short_600ms.mp4	56.repeated_touch_with_nail_file_short_horvertflip_short_600ms.mp4	277.6560031694007	278.2643248437653	0.6083216743645607	n/a	n/a	n/a	n/a
285.06005859375	0.2	583803	232	3	2	0	0	44	280	stimuli\Videos_short_600ms_vertflip\19.single_touch_with_rolling_pin_short_vertflip_short_600ms.mp4	19.single_touch_with_rolling_pin_short_vertflip_short_600ms.mp4	278.4559886244024	279.0643076595534	0.6083190351509984	n/a	n/a	n/a	n/a
285.8603515625	0.2	585442	233	3	2	0	0	45	347	stimuli\Videos_short_600ms_vertflip\8.single_touch_with_hairbrush_short_vertflip_short_600ms.mp4	8.single_touch_with_hairbrush_short_vertflip_short_600ms.mp4	279.25603536780363	279.86429370104634	0.6082583332427021	n/a	n/a	n/a	n/a
286.66015625	0.2	587080	234	3	2	0	0	46	53	stimuli\Videos_short_600ms\58.single_slap_with_pencil_short_short_600ms.mp4	58.single_slap_with_pencil_short_short_600ms.mp4	280.05593343551845	280.66427827631196	0.6083448407935066	n/a	n/a	n/a	n/a
287.4599609375	0.2	588718	235	3	2	0	0	47	305	stimuli\Videos_short_600ms_vertflip\41.injection_with_blunt_syringe_short_vertflip_short_600ms.mp4	41.injection_with_blunt_syringe_short_vertflip_short_600ms.mp4	280.8559227027181	281.46426783675633	0.6083451340382453	n/a	n/a	n/a	n/a
288.26025390625	0.2	590357	236	3	2	0	0	48	22	stimuli\Videos_short_600ms\3.single_push_with_finger_short_short_600ms.mp4	3.single_push_with_finger_short_short_600ms.mp4	281.65590639824404	282.2642474268396	0.6083410285955324	n/a	n/a	n/a	n/a
289.06005859375	0.2	591995	237	3	2	0	0	49	346	stimuli\Videos_short_600ms_vertflip\79.long_with_soft_brush_all_over_the_hand_short_vertflip_short_600ms.mp4	79.long_with_soft_brush_all_over_the_hand_short_vertflip_short_600ms.mp4	282.4559129669524	283.06423405482565	0.6083210878732643	n/a	n/a	n/a	n/a
289.85986328125	0.2	593633	238	3	2	0	0	50	192	stimuli\Videos_short_600ms_horvertflip\20.single_touch_with_screwdriver_short_horvertflip_short_600ms.mp4	20.single_touch_with_screwdriver_short_horvertflip_short_600ms.mp4	283.2559039936277	283.8641992758585	0.6082952822307561	n/a	n/a	n/a	n/a
290.66015625	0.2	595272	239	3	2	0	0	51	148	stimuli\Videos_short_600ms_horflip\62.touch_top_to_bottom_with_scissors_short_horflip_short_600ms.mp4	62.touch_top_to_bottom_with_scissors_short_horflip_short_600ms.mp4	284.0558873959071	284.6641826781379	0.6082952822307561	n/a	n/a	n/a	n/a
291.4599609375	0.2	596910	240	3	2	0	0	52	84	stimuli\Videos_short_600ms\86.touch_top_to_bottom_with_hair_brush_short_short_600ms.mp4	86.touch_top_to_bottom_with_hair_brush_short_short_600ms.mp4	284.85586698599036	285.4641672534017	0.6083002674113231	n/a	n/a	n/a	n/a
292.259765625	0.2	598548	241	3	2	0	0	53	37	stimuli\Videos_short_600ms\43.touch_top_to_bottom_with_sharp_wooden_stick_short_short_600ms.mp4	43.touch_top_to_bottom_with_sharp_wooden_stick_short_short_600ms.mp4	285.6558544937143	286.2641524151586	0.6082979214443185	n/a	n/a	n/a	n/a
293.06005859375	0.2	600187	242	3	2	0	0	54	310	stimuli\Videos_short_600ms_vertflip\46.scratching_top_to_bottom_with_finger_nails_short_vertflip_short_600ms.mp4	46.scratching_top_to_bottom_with_finger_nails_short_vertflip_short_600ms.mp4	286.4558402419625	287.0641352309467	0.6082949889841984	n/a	n/a	n/a	n/a
293.85986328125	0.2	601825	243	3	2	0	0	55	82	stimuli\Videos_short_600ms\84.single_touch_with_cotton_bud_short_short_600ms.mp4	84.single_touch_with_cotton_bud_short_short_600ms.mp4	287.2558218847662	287.86414414562205	0.6083222608558572	n/a	n/a	n/a	n/a
294.66015625	0.2	603464	244	3	2	0	0	56	210	stimuli\Videos_short_600ms_horvertflip\37.single_stab_with_nail_file_short_horvertflip_short_600ms.mp4	37.single_stab_with_nail_file_short_horvertflip_short_600ms.mp4	288.055810272228	288.66413253308383	0.6083222608558572	n/a	n/a	n/a	n/a
295.4599609375	0.2	605102	245	3	2	0	0	57	189	stimuli\Videos_short_600ms_horvertflip\18.single_stroke_from_top_to_bottom_with_rolling_pin_short_horvertflip_short_600ms.mp4	18.single_stroke_from_top_to_bottom_with_rolling_pin_short_horvertflip_short_600ms.mp4	288.8557971934588	289.4641220935282	0.6083249000694195	n/a	n/a	n/a	n/a
296.259765625	0.2	606740	246	3	2	0	0	58	350	stimuli\Videos_short_600ms_vertflip\82.repeated_touch_with_cotton_bud_short_vertflip_short_600ms.mp4	82.repeated_touch_with_cotton_bud_short_vertflip_short_600ms.mp4	289.6557761970507	290.26410051062885	0.6083243135781231	n/a	n/a	n/a	n/a
297.06005859375	0.2	608379	247	3	2	0	0	59	85	stimuli\Videos_short_600ms\87.single_stroke_top_to_bottom_with_plastic_brush_short_short_600ms.mp4	87.single_stroke_top_to_bottom_with_plastic_brush_short_short_600ms.mp4	290.4557692764465	291.0640824466791	0.6083131702325772	n/a	n/a	n/a	n/a
297.85986328125	0.2	610017	248	3	2	0	0	60	29	stimuli\Videos_short_600ms\36.single_slap_with_full_hand_short_short_600ms.mp4	36.single_slap_with_full_hand_short_short_600ms.mp4	291.25572364738036	291.86404561498966	0.6083219676092995	n/a	n/a	n/a	n/a
298.65966796875	0.2	611655	249	3	2	0	0	61	34	stimuli\Videos_short_600ms\40.repeated_push_with_finger_short_short_600ms.mp4	40.repeated_push_with_finger_short_short_600ms.mp4	292.05573285530227	292.66402080638363	0.6082879510813655	n/a	n/a	n/a	n/a
299.4599609375	0.2	613294	250	3	2	0	1	62	361	stimuli\Targets_short_600ms\chopstick-silver-tap_short_short_600ms.mp4	chopstick-silver-tap_short_short_600ms.mp4	292.8557142048612	293.464070482245	0.6083562773837912	n/a	n/a	n/a	n/a
300.259765625	0.2	614932	251	3	2	0	0	63	259	stimuli\Videos_short_600ms_horvertflip\81.single_stroke_top_to_bottom_with_cotton_pad_short_horvertflip_short_600ms.mp4	81.single_stroke_top_to_bottom_with_cotton_pad_short_horvertflip_short_600ms.mp4	293.6557108032084	294.26402192071873	0.6083111175103113	n/a	n/a	n/a	n/a
301.0595703125	0.2	616570	252	3	2	0	1	64	363	stimuli\Targets_short_600ms\finger-tap_short_short_600ms.mp4	finger-tap_short_short_600ms.mp4	294.45567074581413	295.0640062027378	0.608335456923669	n/a	n/a	n/a	n/a
301.85986328125	0.2	618209	253	3	2	0	0	65	194	stimuli\Videos_short_600ms_horvertflip\22.single_touch_with_metal_chopstick_short_horvertflip_short_600ms.mp4	22.single_touch_with_metal_chopstick_short_horvertflip_short_600ms.mp4	295.25564798993037	295.863994296953	0.6083463070226571	n/a	n/a	n/a	n/a
302.65966796875	0.2	619847	254	3	2	0	0	66	213	stimuli\Videos_short_600ms_horvertflip\4.repeated_tap_with_finger_slow_short_horvertflip_short_600ms.mp4	4.repeated_tap_with_finger_slow_short_horvertflip_short_600ms.mp4	296.055633444932	296.66397506001886	0.6083416150868288	n/a	n/a	n/a	n/a
303.45947265625	0.2	621485	255	3	2	0	0	67	36	stimuli\Videos_short_600ms\42.single_slap_with_plastic_whisk_short_short_600ms.mp4	42.single_slap_with_plastic_whisk_short_short_600ms.mp4	296.85563972039563	297.46396110151363	0.608321381118003	n/a	n/a	n/a	n/a
304.259765625	0.2	623124	256	3	2	0	1	68	379	stimuli\Targets_short_600ms_vertflip\chopstick-silver-tap_short_horvertflip_short_600ms.mp4	chopstick-silver-tap_short_horvertflip_short_600ms.mp4	297.65563983769425	298.26394421054647	0.6083043728522171	n/a	n/a	n/a	n/a
305.0595703125	0.2	624762	257	3	2	0	0	69	287	stimuli\Videos_short_600ms_vertflip\25.single_touch_with_stanley_knife_short_vertflip_short_600ms.mp4	25.single_touch_with_stanley_knife_short_vertflip_short_600ms.mp4	298.45561913453093	299.0639123640394	0.6082932295084902	n/a	n/a	n/a	n/a
305.859375	0.2	626400	258	3	2	0	0	70	322	stimuli\Videos_short_600ms_vertflip\57.single_touch_with_nail_file_short_vertflip_short_600ms.mp4	57.single_touch_with_nail_file_short_vertflip_short_600ms.mp4	299.2556040030413	299.8638928338605	0.6082888308192196	n/a	n/a	n/a	n/a
306.65966796875	0.2	628039	259	3	2	0	0	71	72	stimuli\Videos_short_600ms\75.(long)stroke_with_fingers_all_over_the_hand_short_short_600ms.mp4	75.(long)stroke_with_fingers_all_over_the_hand_short_short_600ms.mp4	300.0555824201401	300.66387858210874	0.6082961619686102	n/a	n/a	n/a	n/a
307.45947265625	0.2	629677	260	3	2	0	0	72	163	stimuli\Videos_short_600ms_horflip\76.tickle_with_fingers_from_top_to_bottom_short_horflip_short_600ms.mp4	76.tickle_with_fingers_from_top_to_bottom_short_horflip_short_600ms.mp4	300.85558371042316	301.46386491684825	0.6082812064250902	n/a	n/a	n/a	n/a
308.25927734375	0.2	631315	261	3	2	0	0	73	2	stimuli\Videos_short_600ms\11.single_touch_with_lighter_short_short_600ms.mp4	11.single_touch_with_lighter_short_short_600ms.mp4	301.655547465225	302.26385359755477	0.6083061323297443	n/a	n/a	n/a	n/a
309.0595703125	0.2	632954	262	3	2	0	0	74	224	stimuli\Videos_short_600ms_horvertflip\5.repeated_tap_with_finger_moving_from_top_to_bottom_short_horvertflip_short_600ms.mp4	5.repeated_tap_with_finger_moving_from_top_to_bottom_short_horvertflip_short_600ms.mp4	302.45553262698195	303.06385576757566	0.6083231405937113	n/a	n/a	n/a	n/a
309.859375	0.2	634592	263	3	2	0	0	75	17	stimuli\Videos_short_600ms\25.single_touch_with_stanley_knife_short_short_600ms.mp4	25.single_touch_with_stanley_knife_short_short_600ms.mp4	303.25551837522835	303.86384708749574	0.6083287122673937	n/a	n/a	n/a	n/a
310.6591796875	0.2	636230	264	3	2	0	0	76	199	stimuli\Videos_short_600ms_horvertflip\27.single_push_with_a_plastic_whisk_short_horvertflip_short_600ms.mp4	27.single_push_with_a_plastic_whisk_short_horvertflip_short_600ms.mp4	304.05550236400086	304.663814361249	0.6083119972481654	n/a	n/a	n/a	n/a
311.45947265625	0.2	637869	265	3	2	0	0	77	198	stimuli\Videos_short_600ms_horvertflip\26.single_touch_with_a_blunt_syringe_short_horvertflip_short_600ms.mp4	26.single_touch_with_a_blunt_syringe_short_horvertflip_short_600ms.mp4	304.85548840549563	305.46381095959623	0.6083225541005959	n/a	n/a	n/a	n/a
312.25927734375	0.2	639507	266	3	2	0	0	78	353	stimuli\Videos_short_600ms_vertflip\85.touch_top_to_bottom_with_fabric_short_vertflip_short_600ms.mp4	85.touch_top_to_bottom_with_fabric_short_vertflip_short_600ms.mp4	305.65547180777503	306.26379788082886	0.6083260730538314	n/a	n/a	n/a	n/a
313.05908203125	0.2	641145	267	3	2	0	0	79	26	stimuli\Videos_short_600ms\33.scratch_top_to_bottom_with_scissors_short_short_600ms.mp4	33.scratch_top_to_bottom_with_scissors_short_short_600ms.mp4	306.45545931549896	307.0637762979277	0.6083169824287324	n/a	n/a	n/a	n/a
313.859375	0.2	642784	268	3	2	0	0	80	293	stimuli\Videos_short_600ms_vertflip\30.finger_pulling_back_another_finger_short_vertflip_short_600ms.mp4	30.finger_pulling_back_another_finger_short_vertflip_short_600ms.mp4	307.25544037181135	307.8637632191585	0.6083228473471536	n/a	n/a	n/a	n/a
314.6591796875	0.2	644422	269	3	2	0	0	81	206	stimuli\Videos_short_600ms_horvertflip\33.scratch_top_to_bottom_with_scissors_short_horvertflip_short_600ms.mp4	33.scratch_top_to_bottom_with_scissors_short_horvertflip_short_600ms.mp4	308.055425826813	308.66375189986684	0.6083260730538314	n/a	n/a	n/a	n/a
315.45947265625	0.2	646061	270	3	2	0	0	82	108	stimuli\Videos_short_600ms_horflip\26.single_touch_with_a_blunt_syringe_short_horflip_short_600ms.mp4	26.single_touch_with_a_blunt_syringe_short_horflip_short_600ms.mp4	308.8554256508651	309.46373236968793	0.6083067188228597	n/a	n/a	n/a	n/a
316.25927734375	0.2	647699	271	3	2	0	0	83	129	stimuli\Videos_short_600ms_horflip\45.scratching_with_finger_nails_short_horflip_short_600ms.mp4	45.scratching_with_finger_nails_short_horflip_short_600ms.mp4	309.6553776758319	310.26372105039445	0.6083433745625371	n/a	n/a	n/a	n/a
317.05908203125	0.2	649337	272	3	2	0	0	84	137	stimuli\Videos_short_600ms_horflip\52.touch_top_to_bottom_with_hammer_short_horflip_short_600ms.mp4	52.touch_top_to_bottom_with_hammer_short_horflip_short_600ms.mp4	310.4553719282121	311.06371119733194	0.6083392691198242	n/a	n/a	n/a	n/a
317.859375	0.2	650976	273	3	2	0	0	85	147	stimuli\Videos_short_600ms_horflip\61.single_hit_with_rolling_pin_short_horflip_short_600ms.mp4	61.single_hit_with_rolling_pin_short_horflip_short_600ms.mp4	311.2553447736391	311.86368668197065	0.6083419083315675	n/a	n/a	n/a	n/a
318.6591796875	0.2	652614	274	3	2	0	0	86	240	stimuli\Videos_short_600ms_horvertflip\64.repeated_touch_with_screwdriver_short_horvertflip_short_600ms.mp4	64.repeated_touch_with_screwdriver_short_horvertflip_short_600ms.mp4	312.05533257460775	312.66367184372757	0.6083392691198242	n/a	n/a	n/a	n/a
319.458984375	0.2	654252	275	3	2	0	0	87	45	stimuli\Videos_short_600ms\50.single_(long)hard_push_with_thumb_short_short_600ms.mp4	50.single_(long)hard_push_with_thumb_short_short_600ms.mp4	312.85534060954524	313.4636564189914	0.6083158094461396	n/a	n/a	n/a	n/a
320.25927734375	0.2	655891	276	3	2	0	0	88	86	stimuli\Videos_short_600ms\88.repeated_stroke_with_plastic_brush_short_short_600ms.mp4	88.repeated_stroke_with_plastic_brush_short_short_600ms.mp4	313.6553219591042	314.2636260387135	0.6083040796092973	n/a	n/a	n/a	n/a
321.05908203125	0.2	657529	277	3	2	0	0	89	106	stimuli\Videos_short_600ms_horflip\24.single_stroke_top_to_bottom_with_a_spoon_short_horflip_short_600ms.mp4	24.single_stroke_top_to_bottom_with_a_spoon_short_horflip_short_600ms.mp4	314.45531943718925	315.063603869321	0.608284432131768	n/a	n/a	n/a	n/a
321.85888671875	0.2	659167	278	3	2	0	0	90	65	stimuli\Videos_short_600ms\69.stroke_with_soft_sock_short_short_600ms.mp4	69.stroke_with_soft_sock_short_short_600ms.mp4	315.2552899366492	315.8635907905518	0.6083008539026196	n/a	n/a	n/a	n/a
322.6591796875	0.2	660806	279	3	2	0	0	91	74	stimuli\Videos_short_600ms\77.tapping_with_all_fingers_short_short_600ms.mp4	77.tapping_with_all_fingers_short_short_600ms.mp4	316.05527803086443	316.6635768320466	0.6082988011821726	n/a	n/a	n/a	n/a
323.458984375	0.2	662444	280	3	2	0	0	92	228	stimuli\Videos_short_600ms_horvertflip\53.touch_top_to_bottom_with_knife_short_horvertflip_short_600ms.mp4	53.touch_top_to_bottom_with_knife_short_horvertflip_short_600ms.mp4	316.85525527498066	317.4635836939997	0.608328419019017	n/a	n/a	n/a	n/a
324.2587890625	0.2	664082	281	3	2	0	0	93	28	stimuli\Videos_short_600ms\35.single_punch_with_hand_short_short_600ms.mp4	35.single_punch_with_hand_short_short_600ms.mp4	317.6552480611299	318.26356973549446	0.6083216743645607	4.0	3.0	1.8529403916054432	0.0
354.0498046875	0.2	725094	282	3	3	0	0	0	315	stimuli\Videos_short_600ms_vertflip\50.single_(long)hard_push_with_thumb_short_vertflip_short_600ms.mp4	50.single_(long)hard_push_with_thumb_short_vertflip_short_600ms.mp4	347.44634229952317	348.0546657333616	0.60832343383845	n/a	n/a	n/a	n/a
354.849609375	0.2	726732	283	3	3	0	0	1	288	stimuli\Videos_short_600ms_vertflip\26.single_touch_with_a_blunt_syringe_short_vertflip_short_600ms.mp4	26.single_touch_with_a_blunt_syringe_short_vertflip_short_600ms.mp4	348.24632804776957	348.85465324108554	0.6083251933159772	n/a	n/a	n/a	n/a
355.6494140625	0.2	728370	284	3	3	0	0	2	152	stimuli\Videos_short_600ms_horflip\66.stroke_top_to_bottom_with_sponge_short_horflip_short_600ms.mp4	66.stroke_top_to_bottom_with_sponge_short_horflip_short_600ms.mp4	349.0463234731342	349.65463781634935	0.6083143432151701	n/a	n/a	n/a	n/a
356.44970703125	0.2	730009	285	3	3	0	0	3	67	stimuli\Videos_short_600ms\70.(long)stroke_with_finger_all_over_the_hand_short_short_600ms.mp4	70.(long)stroke_with_finger_all_over_the_hand_short_short_600ms.mp4	349.84627461836135	350.45461945915304	0.6083448407916876	n/a	n/a	n/a	n/a
357.24951171875	0.2	731647	286	3	3	0	0	4	204	stimuli\Videos_short_600ms_horvertflip\31.hand_grabbing_wrist_short_horvertflip_short_600ms.mp4	31.hand_grabbing_wrist_short_horvertflip_short_600ms.mp4	350.64627238969297	351.2546037411721	0.6083313514791371	n/a	n/a	n/a	n/a
358.04931640625	0.2	733285	287	3	3	0	0	5	279	stimuli\Videos_short_600ms_vertflip\18.single_stroke_from_top_to_bottom_with_rolling_pin_short_vertflip_short_600ms.mp4	18.single_stroke_from_top_to_bottom_with_rolling_pin_short_vertflip_short_600ms.mp4	351.4462467013491	352.05458860968247	0.6083419083333865	n/a	n/a	n/a	n/a
358.849609375	0.2	734924	288	3	3	0	0	6	14	stimuli\Videos_short_600ms\22.single_touch_with_metal_chopstick_short_short_600ms.mp4	22.single_touch_with_metal_chopstick_short_short_600ms.mp4	352.24626881209224	352.8545737714376	0.6083049593453325	n/a	n/a	n/a	n/a
359.6494140625	0.2	736562	289	3	3	0	0	7	211	stimuli\Videos_short_600ms_horvertflip\38.double_slap_with_pencil_short_horvertflip_short_600ms.mp4	38.double_slap_with_pencil_short_horvertflip_short_600ms.mp4	353.0462736213249	353.6545366465034	0.6082630251785304	n/a	n/a	n/a	n/a
360.44921875	0.2	738200	290	3	3	0	0	8	107	stimuli\Videos_short_600ms_horflip\25.single_touch_with_stanley_knife_short_horflip_short_600ms.mp4	25.single_touch_with_stanley_knife_short_horflip_short_600ms.mp4	353.8462532114081	354.45452884616134	0.6082756347532268	n/a	n/a	n/a	n/a
361.24951171875	0.2	739839	291	3	3	0	0	9	24	stimuli\Videos_short_600ms\31.hand_grabbing_wrist_short_short_600ms.mp4	31.hand_grabbing_wrist_short_short_600ms.mp4	354.6462342677223	355.25450433080186	0.6082700630795443	n/a	n/a	n/a	n/a
362.04931640625	0.2	741477	292	3	3	0	0	10	115	stimuli\Videos_short_600ms_horflip\32.single_(long)pinch_with_fingers_short_horflip_short_600ms.mp4	32.single_(long)pinch_with_fingers_short_horflip_short_600ms.mp4	355.4461962630485	356.05448919931223	0.6082929362637515	n/a	n/a	n/a	n/a
362.84912109375	0.2	743115	293	3	3	0	0	11	200	stimuli\Videos_short_600ms_horvertflip\28.single_injection_with_sharp_needle_short_horvertflip_short_600ms.mp4	28.single_injection_with_sharp_needle_short_horvertflip_short_600ms.mp4	356.2464303905999	356.85448198546146	0.6080515948615357	n/a	n/a	n/a	n/a
363.6494140625	0.2	744754	294	3	3	0	1	12	376	stimuli\Targets_short_600ms_horvertflip\hand-pinch_short_vertflip_short_600ms.mp4	hand-pinch_short_vertflip_short_600ms.mp4	357.0461481120674	357.65446919993883	0.6083210878714453	n/a	n/a	n/a	n/a
364.44921875	0.2	746392	295	3	3	0	0	13	340	stimuli\Videos_short_600ms_vertflip\73.single_stroke_with_flat_hand_short_vertflip_short_600ms.mp4	73.single_stroke_with_flat_hand_short_vertflip_short_600ms.mp4	357.84614793611945	358.45447899435385	0.6083310582343984	n/a	n/a	n/a	n/a
365.2490234375	0.2	748030	296	3	3	0	0	14	71	stimuli\Videos_short_600ms\74.fingers_walking_from_top_to_bottom_short_short_600ms.mp4	74.fingers_walking_from_top_to_bottom_short_short_600ms.mp4	358.64613661682597	359.25445946417494	0.6083228473489726	n/a	n/a	n/a	n/a
366.04931640625	0.2	749669	297	3	3	0	0	15	160	stimuli\Videos_short_600ms_horflip\73.single_stroke_with_flat_hand_short_horflip_short_600ms.mp4	73.single_stroke_with_flat_hand_short_horflip_short_600ms.mp4	359.4461211920916	360.0544455056679	0.6083243135763041	n/a	n/a	n/a	n/a
366.84912109375	0.2	751307	298	3	3	0	0	16	13	stimuli\Videos_short_600ms\21.repeated_touch_with_metal_chopstick_short_short_600ms.mp4	21.repeated_touch_with_metal_chopstick_short_short_600ms.mp4	360.2461098727981	360.854423629522	0.6083137567238737	n/a	n/a	n/a	n/a
367.6494140625	0.2	752946	299	3	3	0	0	17	304	stimuli\Videos_short_600ms_vertflip\40.repeated_push_with_finger_short_vertflip_short_600ms.mp4	40.repeated_push_with_finger_short_vertflip_short_600ms.mp4	361.0460950345532	361.6544052723257	0.6083102377724572	n/a	n/a	n/a	n/a
368.44921875	0.2	754584	300	3	3	0	0	18	197	stimuli\Videos_short_600ms_horvertflip\25.single_touch_with_stanley_knife_short_horvertflip_short_600ms.mp4	25.single_touch_with_stanley_knife_short_horvertflip_short_600ms.mp4	361.846072571916	362.4543898475913	0.6083172756752901	n/a	n/a	n/a	n/a
369.2490234375	0.2	756222	301	3	3	0	0	19	354	stimuli\Videos_short_600ms_vertflip\86.touch_top_to_bottom_with_hair_brush_short_vertflip_short_600ms.mp4	86.touch_top_to_bottom_with_hair_brush_short_vertflip_short_600ms.mp4	362.6460606661312	363.2543761823308	0.6083155161995819	n/a	n/a	n/a	n/a
370.04931640625	0.2	757861	302	3	3	0	0	20	62	stimuli\Videos_short_600ms\66.stroke_top_to_bottom_with_sponge_short_short_600ms.mp4	66.stroke_top_to_bottom_with_sponge_short_short_600ms.mp4	363.4460235411953	364.0543584116258	0.6083348704305536	n/a	n/a	n/a	n/a
370.84912109375	0.2	759499	303	3	3	0	0	21	345	stimuli\Videos_short_600ms_vertflip\78.single_stroke_top_to_bottom_with_soft_brush_short_vertflip_short_600ms.mp4	78.single_stroke_top_to_bottom_with_soft_brush_short_vertflip_short_600ms.mp4	364.2459905217038	364.85434709233414	0.6083565706303489	n/a	n/a	n/a	n/a
371.64892578125	0.2	761137	304	3	3	0	0	22	7	stimuli\Videos_short_600ms\16.repeated_touch_with_plastic_brush_short_short_600ms.mp4	16.repeated_touch_with_plastic_brush_short_short_600ms.mp4	365.0459662995909	365.65433401356495	0.6083677139740757	n/a	n/a	n/a	n/a
372.44921875	0.2	762776	305	3	3	0	0	23	20	stimuli\Videos_short_600ms\28.single_injection_with_sharp_needle_short_short_600ms.mp4	28.single_injection_with_sharp_needle_short_short_600ms.mp4	365.84594325046055	366.4543130171569	0.6083697666963417	n/a	n/a	n/a	n/a
373.2490234375	0.2	764414	306	3	3	0	1	24	371	stimuli\Targets_short_600ms_horflip\hand-stroke_short_horflip_short_600ms.mp4	hand-stroke_short_horflip_short_600ms.mp4	366.6459858884191	367.25429729917414	0.60831141075505	n/a	n/a	n/a	n/a
374.048828125	0.2	766052	307	3	3	0	0	25	4	stimuli\Videos_short_600ms\13.single_touch_with_pen_short_short_600ms.mp4	13.single_touch_with_pen_short_short_600ms.mp4	367.44592266459586	368.05428128794665	0.6083586233507958	n/a	n/a	n/a	n/a
374.84912109375	0.2	767691	308	3	3	0	0	26	38	stimuli\Videos_short_600ms\44.pushing_top_to_bottom_with_finger_short_short_600ms.mp4	44.pushing_top_to_bottom_with_finger_short_short_600ms.mp4	368.2459063601218	368.8542453359951	0.6083389758732665	n/a	n/a	n/a	n/a
375.64892578125	0.2	769329	309	3	3	0	0	27	274	stimuli\Videos_short_600ms_vertflip\13.single_touch_with_pen_short_vertflip_short_600ms.mp4	13.single_touch_with_pen_short_vertflip_short_600ms.mp4	369.04588184476233	369.6542384153927	0.6083565706303489	n/a	n/a	n/a	n/a
376.44873046875	0.2	770967	310	3	3	0	0	28	260	stimuli\Videos_short_600ms_horvertflip\82.repeated_touch_with_cotton_bud_short_horvertflip_short_600ms.mp4	82.repeated_touch_with_cotton_bud_short_horvertflip_short_600ms.mp4	369.8458467725486	370.4542408786583	0.6083941061096994	n/a	n/a	n/a	n/a
377.2490234375	0.2	772606	311	3	3	0	0	29	182	stimuli\Videos_short_600ms_horvertflip\11.single_touch_with_lighter_short_horvertflip_short_600ms.mp4	11.single_touch_with_lighter_short_horvertflip_short_600ms.mp4	370.6458325207968	371.2542046334602	0.6083721126633463	n/a	n/a	n/a	n/a
378.048828125	0.2	774244	312	3	3	0	0	30	56	stimuli\Videos_short_600ms\60.single_push_with_tip_of_pencil_short_short_600ms.mp4	60.single_push_with_tip_of_pencil_short_short_600ms.mp4	371.4458393827517	372.05418451679	0.6083451340382453	n/a	n/a	n/a	n/a
378.8486328125	0.2	775882	313	3	3	0	0	31	141	stimuli\Videos_short_600ms_horflip\56.repeated_touch_with_nail_file_short_horflip_short_600ms.mp4	56.repeated_touch_with_nail_file_short_horflip_short_600ms.mp4	372.2458224917864	372.8541802353993	0.6083577436129417	n/a	n/a	n/a	n/a
379.64892578125	0.2	777521	314	3	3	0	0	32	134	stimuli\Videos_short_600ms_horflip\5.repeated_tap_with_finger_moving_from_top_to_bottom_short_horflip_short_600ms.mp4	5.repeated_tap_with_finger_moving_from_top_to_bottom_short_horflip_short_600ms.mp4	373.0458070670502	373.6541777134844	0.6083706464341958	n/a	n/a	n/a	n/a
380.44873046875	0.2	779159	315	3	3	0	0	33	217	stimuli\Videos_short_600ms_horvertflip\43.touch_top_to_bottom_with_sharp_wooden_stick_short_horvertflip_short_600ms.mp4	43.touch_top_to_bottom_with_sharp_wooden_stick_short_horvertflip_short_600ms.mp4	373.8459807859399	374.4541640482239	0.6081832622840011	n/a	n/a	n/a	n/a
381.24853515625	0.2	780797	316	3	3	0	0	34	51	stimuli\Videos_short_600ms\56.repeated_touch_with_nail_file_short_short_600ms.mp4	56.repeated_touch_with_nail_file_short_short_600ms.mp4	374.6457996772533	375.2541536086683	0.6083539314149675	n/a	n/a	n/a	n/a
382.048828125	0.2	782436	317	3	3	0	1	35	362	stimuli\Targets_short_600ms\chopstickwood-tap_short_short_600ms.mp4	chopstickwood-tap_short_short_600ms.mp4	375.4457590333659	376.0541305595379	0.6083715261720499	n/a	n/a	n/a	n/a
382.8486328125	0.2	784074	318	3	3	0	0	36	150	stimuli\Videos_short_600ms_horflip\64.repeated_touch_with_screwdriver_short_horflip_short_600ms.mp4	64.repeated_touch_with_screwdriver_short_horflip_short_600ms.mp4	376.2457427288937	376.8541142550657	0.6083715261720499	n/a	n/a	n/a	n/a
383.6484375	0.2	785712	319	3	3	0	0	37	326	stimuli\Videos_short_600ms_vertflip\60.single_push_with_tip_of_pencil_short_vertflip_short_600ms.mp4	60.single_push_with_tip_of_pencil_short_vertflip_short_600ms.mp4	377.0457270109109	377.654098537083	0.6083715261720499	n/a	n/a	n/a	n/a
384.44873046875	0.2	787351	320	3	3	0	0	38	95	stimuli\Videos_short_600ms_horflip\14.repeated_touch_with_pencil_short_horflip_short_600ms.mp4	14.repeated_touch_with_pencil_short_horflip_short_600ms.mp4	377.8457118794213	378.45408340559334	0.6083715261720499	n/a	n/a	n/a	n/a
385.24853515625	0.2	788989	321	3	3	0	0	39	308	stimuli\Videos_short_600ms_vertflip\44.pushing_top_to_bottom_with_finger_short_vertflip_short_600ms.mp4	44.pushing_top_to_bottom_with_finger_short_vertflip_short_600ms.mp4	378.6456976276695	379.2540671011193	0.608369473449784	n/a	n/a	n/a	n/a
386.04833984375	0.2	790627	322	3	3	0	0	40	299	stimuli\Videos_short_600ms_vertflip\36.single_slap_with_full_hand_short_vertflip_short_600ms.mp4	36.single_slap_with_full_hand_short_vertflip_short_600ms.mp4	379.4457267763137	380.05405196962965	0.6083251933159772	n/a	n/a	n/a	n/a
386.8486328125	0.2	792266	323	3	3	0	0	41	57	stimuli\Videos_short_600ms\61.single_hit_with_rolling_pin_short_short_600ms.mp4	61.single_hit_with_rolling_pin_short_short_600ms.mp4	380.245667657935	380.854041530074	0.6083738721390546	n/a	n/a	n/a	n/a
387.6484375	0.2	793904	324	3	3	0	0	42	64	stimuli\Videos_short_600ms\68.stroke_top_to_bottom_with_shawl_short_short_600ms.mp4	68.stroke_top_to_bottom_with_shawl_short_short_600ms.mp4	381.0456516467075	381.6540225863864	0.6083709396789345	n/a	n/a	n/a	n/a
388.44873046875	0.2	795543	325	3	3	0	0	43	339	stimuli\Videos_short_600ms_vertflip\72.(short)stroke_with_finger_all_over_the_hand_short_vertflip_short_600ms.mp4	72.(short)stroke_with_finger_all_over_the_hand_short_vertflip_short_600ms.mp4	381.8456385679383	382.4540062819142	0.6083677139758947	n/a	n/a	n/a	n/a
389.24853515625	0.2	797181	326	3	3	0	1	44	369	stimuli\Targets_short_600ms_horflip\finger-tap_short_horflip_short_600ms.mp4	finger-tap_short_horflip_short_600ms.mp4	382.64562167697295	383.25398997744014	0.6083683004671911	n/a	n/a	n/a	n/a
390.04833984375	0.2	798819	327	3	3	0	0	45	335	stimuli\Videos_short_600ms_vertflip\69.stroke_with_soft_sock_short_vertflip_short_600ms.mp4	69.stroke_with_soft_sock_short_vertflip_short_600ms.mp4	383.445610650926	384.0539801243758	0.608369473449784	n/a	n/a	n/a	n/a
390.8486328125	0.2	800458	328	3	3	0	0	46	215	stimuli\Videos_short_600ms_horvertflip\41.injection_with_blunt_syringe_short_horvertflip_short_600ms.mp4	41.injection_with_blunt_syringe_short_horvertflip_short_600ms.mp4	384.24559933163255	384.85396030095217	0.6083609693196195	n/a	n/a	n/a	n/a
391.6484375	0.2	802096	329	3	3	0	0	47	229	stimuli\Videos_short_600ms_horvertflip\54.repeated_touch_with_knife_short_horvertflip_short_600ms.mp4	54.repeated_touch_with_knife_short_horvertflip_short_600ms.mp4	385.0455756960109	385.65392346926274	0.6083477732518077	n/a	n/a	n/a	n/a
392.4482421875	0.2	803734	330	3	3	0	0	48	325	stimuli\Videos_short_600ms_vertflip\6.single_touch_with_flat_hand_short_vertflip_short_600ms.mp4	6.single_touch_with_flat_hand_short_vertflip_short_600ms.mp4	385.8455582185543	386.45390863101784	0.608350412463551	n/a	n/a	n/a	n/a
393.24853515625	0.2	805373	331	3	3	0	0	49	207	stimuli\Videos_short_600ms_horvertflip\34.repeated_punch_with_hand_short_horvertflip_short_600ms.mp4	34.repeated_punch_with_hand_short_horvertflip_short_600ms.mp4	386.6455442600473	387.2538923265456	0.6083480664983654	n/a	n/a	n/a	n/a
394.04833984375	0.2	807011	332	3	3	0	0	50	286	stimuli\Videos_short_600ms_vertflip\24.single_stroke_top_to_bottom_with_a_spoon_short_vertflip_short_600ms.mp4	24.single_stroke_top_to_bottom_with_a_spoon_short_vertflip_short_600ms.mp4	387.4455261960975	388.0539009479744	0.6083747518769087	n/a	n/a	n/a	n/a
394.84814453125	0.2	808649	333	3	3	0	0	51	132	stimuli\Videos_short_600ms_horflip\48.single_slap_with_hand_short_horflip_short_600ms.mp4	48.single_slap_with_hand_short_horflip_short_600ms.mp4	388.2455128240835	388.8538910949119	0.6083782708283252	n/a	n/a	n/a	n/a
395.6484375	0.2	810288	334	3	3	0	0	52	262	stimuli\Videos_short_600ms_horvertflip\84.single_touch_with_cotton_bud_short_horvertflip_short_600ms.mp4	84.single_touch_with_cotton_bud_short_horvertflip_short_600ms.mp4	389.04549739934737	389.6538768431601	0.608379443812737	n/a	n/a	n/a	n/a
396.4482421875	0.2	811926	335	3	3	0	0	53	55	stimuli\Videos_short_600ms\6.single_touch_with_flat_hand_short_short_600ms.mp4	6.single_touch_with_flat_hand_short_short_600ms.mp4	389.8454831475956	390.4538520345541	0.6083688869584876	n/a	n/a	n/a	n/a
397.248046875	0.2	813564	336	3	3	0	0	54	81	stimuli\Videos_short_600ms\83.single_stroke_top_to_bottom_with_cotton_bud_short_short_600ms.mp4	83.single_stroke_top_to_bottom_with_cotton_bud_short_short_600ms.mp4	390.64546684312154	391.2538457004411	0.6083788573196216	n/a	n/a	n/a	n/a
398.04833984375	0.2	815203	337	3	3	0	0	55	234	stimuli\Videos_short_600ms_horvertflip\59.single_push_with_long_side_pencil_short_horvertflip_short_600ms.mp4	59.single_push_with_long_side_pencil_short_horvertflip_short_600ms.mp4	391.44568572188473	392.05382206481954	0.608136342934813	n/a	n/a	n/a	n/a
398.84814453125	0.2	816841	338	3	3	0	0	56	39	stimuli\Videos_short_600ms\45.scratching_with_finger_nails_short_short_600ms.mp4	45.scratching_with_finger_nails_short_short_600ms.mp4	392.2454820332605	392.8538054671008	0.608323433840269	n/a	n/a	n/a	n/a
399.64794921875	0.2	818479	339	3	3	0	0	57	138	stimuli\Videos_short_600ms_horflip\53.touch_top_to_bottom_with_knife_short_horflip_short_600ms.mp4	53.touch_top_to_bottom_with_knife_short_horflip_short_600ms.mp4	393.0454317122585	393.65379062885586	0.6083589165973535	n/a	n/a	n/a	n/a
400.4482421875	0.2	820118	340	3	3	0	0	58	337	stimuli\Videos_short_600ms_vertflip\70.(long)stroke_with_finger_all_over_the_hand_short_vertflip_short_600ms.mp4	70.(long)stroke_with_finger_all_over_the_hand_short_vertflip_short_600ms.mp4	393.8454564622152	394.4537746176284	0.6083181554131443	n/a	n/a	n/a	n/a
401.248046875	0.2	821756	341	3	3	0	0	59	311	stimuli\Videos_short_600ms_vertflip\47.(long)scratching_with_finger_nails_short_vertflip_short_600ms.mp4	47.(long)scratching_with_finger_nails_short_vertflip_short_600ms.mp4	394.64543751852943	395.2537597793835	0.6083222608540382	n/a	n/a	n/a	n/a
402.0478515625	0.2	823394	342	3	3	0	0	60	246	stimuli\Videos_short_600ms_horvertflip\7.repeated_touch_with_hairbrush_short_horvertflip_short_600ms.mp4	7.repeated_touch_with_hairbrush_short_horvertflip_short_600ms.mp4	395.4454282519564	396.053743768156	0.6083155161995819	n/a	n/a	n/a	n/a
402.84814453125	0.2	825033	343	3	3	0	0	61	248	stimuli\Videos_short_600ms_horvertflip\71.single_stroke_with_finger_top_to_bottom_short_horvertflip_short_600ms.mp4	71.single_stroke_with_finger_top_to_bottom_short_horvertflip_short_600ms.mp4	396.2453606294457	396.8537324488643	0.6083718194186076	n/a	n/a	n/a	n/a
403.64794921875	0.2	826671	344	3	3	0	0	62	140	stimuli\Videos_short_600ms_horflip\55.touch_top_to_bottom_with_nail_file_short_horflip_short_600ms.mp4	55.touch_top_to_bottom_with_nail_file_short_horflip_short_600ms.mp4	397.04534637769393	397.6537123321923	0.6083659544983675	n/a	n/a	n/a	n/a
404.44775390625	0.2	828309	345	3	3	0	0	63	161	stimuli\Videos_short_600ms_horflip\74.fingers_walking_from_top_to_bottom_short_horflip_short_600ms.mp4	74.fingers_walking_from_top_to_bottom_short_horflip_short_600ms.mp4	397.8453541193867	398.4536998399162	0.6083457205295417	n/a	n/a	n/a	n/a
405.248046875	0.2	829948	346	3	3	0	0	64	70	stimuli\Videos_short_600ms\73.single_stroke_with_flat_hand_short_short_600ms.mp4	73.single_stroke_with_flat_hand_short_short_600ms.mp4	398.6453601016037	399.2536826557043	0.6083225541005959	n/a	n/a	n/a	n/a
406.0478515625	0.2	831586	347	3	3	0	0	65	173	stimuli\Videos_short_600ms_horflip\85.touch_top_to_bottom_with_fabric_short_horflip_short_600ms.mp4	85.touch_top_to_bottom_with_fabric_short_horflip_short_600ms.mp4	399.44534819581895	400.0536537416556	0.6083055458366289	n/a	n/a	n/a	n/a
406.84765625	0.2	833224	348	3	3	0	0	66	31	stimuli\Videos_short_600ms\38.double_slap_with_pencil_short_short_600ms.mp4	38.double_slap_with_pencil_short_short_600ms.mp4	400.2453474333779	400.85363069252526	0.6082832591473561	n/a	n/a	n/a	n/a
407.64794921875	0.2	834863	349	3	3	0	0	67	96	stimuli\Videos_short_600ms_horflip\15.single_stroke_top_to_bottom_with_a_plastic_whisk_short_horflip_short_600ms.mp4	15.single_stroke_top_to_bottom_with_a_plastic_whisk_short_horflip_short_600ms.mp4	401.045314707133	401.6536372612354	0.6083225541024149	n/a	n/a	n/a	n/a
408.44775390625	0.2	836501	350	3	3	0	0	68	316	stimuli\Videos_short_600ms_vertflip\51.repeated_touch_with_hammer_short_vertflip_short_600ms.mp4	51.repeated_touch_with_hammer_short_vertflip_short_600ms.mp4	401.8452544157699	402.4535998430547	0.608345427284803	n/a	n/a	n/a	n/a
409.248046875	0.2	838140	351	3	3	0	0	69	320	stimuli\Videos_short_600ms_vertflip\55.touch_top_to_bottom_with_nail_file_short_vertflip_short_600ms.mp4	55.touch_top_to_bottom_with_nail_file_short_vertflip_short_600ms.mp4	402.6452832711693	403.2536017198272	0.608318448657883	n/a	n/a	n/a	n/a
410.0478515625	0.2	839778	352	3	3	0	0	70	324	stimuli\Videos_short_600ms_vertflip\59.single_push_with_long_side_pencil_short_vertflip_short_600ms.mp4	59.single_push_with_long_side_pencil_short_vertflip_short_600ms.mp4	403.4452666734487	404.0535936262404	0.6083269527916855	n/a	n/a	n/a	n/a
410.84765625	0.2	841416	353	3	3	0	0	71	169	stimuli\Videos_short_600ms_horflip\81.single_stroke_top_to_bottom_with_cotton_pad_short_horflip_short_600ms.mp4	81.single_stroke_top_to_bottom_with_cotton_pad_short_horflip_short_600ms.mp4	404.2452556474018	404.8535500498947	0.608294402492902	n/a	n/a	n/a	n/a
411.64794921875	0.2	843055	354	3	3	0	0	72	158	stimuli\Videos_short_600ms_horflip\71.single_stroke_with_finger_top_to_bottom_short_horflip_short_600ms.mp4	71.single_stroke_with_finger_top_to_bottom_short_horflip_short_600ms.mp4	405.0452472605684	405.6535621902767	0.6083149297082855	n/a	n/a	n/a	n/a
412.44775390625	0.2	844693	355	3	3	0	0	73	214	stimuli\Videos_short_600ms_horvertflip\40.repeated_push_with_finger_short_horvertflip_short_600ms.mp4	40.repeated_push_with_finger_short_horvertflip_short_600ms.mp4	405.84522890337394	406.45355673590166	0.6083278325277206	n/a	n/a	n/a	n/a
413.24755859375	0.2	846331	356	3	3	0	0	74	43	stimuli\Videos_short_600ms\49.repeated_slap_with_hand_short_short_600ms.mp4	49.repeated_slap_with_hand_short_short_600ms.mp4	406.6452123056534	407.2535298745752	0.6083175689218479	n/a	n/a	n/a	n/a
414.0478515625	0.2	847970	357	3	3	0	0	75	257	stimuli\Videos_short_600ms_horvertflip\8.single_touch_with_hairbrush_short_horvertflip_short_600ms.mp4	8.single_touch_with_hairbrush_short_horvertflip_short_600ms.mp4	407.4451913092453	408.05351884852826	0.6083275392829819	n/a	n/a	n/a	n/a
414.84765625	0.2	849608	358	3	3	0	0	76	69	stimuli\Videos_short_600ms\72.(short)stroke_with_finger_all_over_the_hand_short_short_600ms.mp4	72.(short)stroke_with_finger_all_over_the_hand_short_short_600ms.mp4	408.2451914265439	408.8535022508077	0.6083108242637536	n/a	n/a	n/a	n/a
