onset	duration	onsetsample	eventnumber	subjectnr	sequencenumber	blocksequencenumber	istarget	presentationnumber	stimnumber	stim	stimname	time_stimon	time_stimoff	stimdur	cresp	resp	rt	correct
232.33837890625	0.2	475829	0	71	0	0	0	0	163	stimuli\Videos_short_600ms_horflip\76.tickle_with_fingers_from_top_to_bottom_short_horflip_short_600ms.mp4	76.tickle_with_fingers_from_top_to_bottom_short_horflip_short_600ms.mp4	128.67234437997286	129.2806806921874	0.6083363122145329				
233.13818359375	0.2	477467	1	71	0	0	0	1	196	stimuli\Videos_short_600ms_horvertflip\24.single_stroke_top_to_bottom_with_a_spoon_short_horvertflip_short_600ms.mp4	24.single_stroke_top_to_bottom_with_a_spoon_short_horvertflip_short_600ms.mp4	129.47249757119766	130.08064796603753	0.6081503948398677				
233.9384765625	0.2	479106	2	71	0	0	0	2	291	stimuli\Videos_short_600ms_vertflip\29.single_pinch_with_tweezers_short_vertflip_short_600ms.mp4	29.single_pinch_with_tweezers_short_vertflip_short_600ms.mp4	130.27229622913228	130.88059676544822	0.6083005363159373				
234.73828125	0.2	480744	3	71	0	0	0	3	67	stimuli\Videos_short_600ms\70.(long)stroke_with_finger_all_over_the_hand_short_short_600ms.mp4	70.(long)stroke_with_finger_all_over_the_hand_short_short_600ms.mp4	131.07230279782186	131.68059043135474	0.608287633532882				
235.5380859375	0.2	482382	4	71	0	0	0	4	30	stimuli\Videos_short_600ms\37.single_stab_with_nail_file_short_short_600ms.mp4	37.single_stab_with_nail_file_short_short_600ms.mp4	131.87228707988606	132.48056357010626	0.6082764902201916				
236.33837890625	0.2	484021	5	71	0	0	0	5	151	stimuli\Videos_short_600ms_horflip\65.stroke_top_to_bottom_with_stanley_knife_short_horflip_short_600ms.mp4	65.stroke_top_to_bottom_with_stanley_knife_short_horflip_short_600ms.mp4	132.67226930923482	133.28055019813098	0.6082808888961608				
237.13818359375	0.2	485659	6	71	0	0	0	6	64	stimuli\Videos_short_600ms\68.stroke_top_to_bottom_with_shawl_short_short_600ms.mp4	68.stroke_top_to_bottom_with_shawl_short_short_600ms.mp4	133.4722210410963	134.08053653291074	0.6083154918144373				
237.93798828125	0.2	487297	7	71	0	0	0	7	187	stimuli\Videos_short_600ms_horvertflip\16.repeated_touch_with_plastic_brush_short_horvertflip_short_600ms.mp4	16.repeated_touch_with_plastic_brush_short_horvertflip_short_600ms.mp4	134.27223728687318	134.88053987590456	0.608302589031382				
238.73828125	0.2	488936	8	71	0	0	0	8	32	stimuli\Videos_short_600ms\39.single_stab_with_scissors_short_short_600ms.mp4	39.single_stab_with_scissors_short_short_600ms.mp4	135.0721978160867	135.68054057969275	0.6083427636060605				
239.5380859375	0.2	490574	9	71	0	0	0	9	279	stimuli\Videos_short_600ms_vertflip\18.single_stroke_from_top_to_bottom_with_rolling_pin_short_vertflip_short_600ms.mp4	18.single_stroke_from_top_to_bottom_with_rolling_pin_short_vertflip_short_600ms.mp4	135.87220203881566	136.4805204630809	0.6083184242652351				
240.337890625	0.2	492212	10	71	0	0	0	10	159	stimuli\Videos_short_600ms_horflip\72.(short)stroke_with_finger_all_over_the_hand_short_horflip_short_600ms.mp4	72.(short)stroke_with_finger_all_over_the_hand_short_horflip_short_600ms.mp4	136.6722379320123	137.2805170614381	0.6082791294257959				
241.13818359375	0.2	493851	11	71	0	0	0	11	54	stimuli\Videos_short_600ms\59.single_push_with_long_side_pencil_short_short_600ms.mp4	59.single_push_with_long_side_pencil_short_short_600ms.mp4	137.47218995711876	138.0804632216432	0.6082732645244278				
241.93798828125	0.2	495489	12	71	0	0	0	12	197	stimuli\Videos_short_600ms_horvertflip\25.single_touch_with_stanley_knife_short_horvertflip_short_600ms.mp4	25.single_touch_with_stanley_knife_short_horvertflip_short_600ms.mp4	138.27214843361685	138.88047154980313	0.6083231161862841				
242.73779296875	0.2	497127	13	71	0	0	0	13	220	stimuli\Videos_short_600ms_horvertflip\46.scratching_top_to_bottom_with_finger_nails_short_horvertflip_short_600ms.mp4	46.scratching_top_to_bottom_with_finger_nails_short_horvertflip_short_600ms.mp4	139.07213242243597	139.68045553862223	0.6083231161862841				
243.5380859375	0.2	498766	14	71	0	0	0	14	88	stimuli\Videos_short_600ms\9.single_touch_with_hammer_short_short_600ms.mp4	9.single_touch_with_hammer_short_short_600ms.mp4	139.87209529761003	140.48043688823577	0.6083415906257414				
244.337890625	0.2	500404	15	71	0	0	0	15	3	stimuli\Videos_short_600ms\12.repeated_touch_with_nail_file_short_short_600ms.mp4	12.repeated_touch_with_nail_file_short_short_600ms.mp4	140.67205875927425	141.2804223432803	0.6083635840060424				
245.1376953125	0.2	502042	16	71	0	0	0	16	211	stimuli\Videos_short_600ms_horvertflip\38.double_slap_with_pencil_short_horvertflip_short_600ms.mp4	38.double_slap_with_pencil_short_horvertflip_short_600ms.mp4	141.47204949272998	142.08040222666853	0.6083527339385455				
245.93798828125	0.2	503681	17	71	0	0	0	17	267	stimuli\Videos_short_600ms_horvertflip\89.single_touch_with_plastic_brush_short_horvertflip_short_600ms.mp4	89.single_touch_with_plastic_brush_short_horvertflip_short_600ms.mp4	142.27203406803926	142.88036275588195	0.6083286878426861				
246.73779296875	0.2	505319	18	71	0	0	0	18	209	stimuli\Videos_short_600ms_horvertflip\36.single_slap_with_full_hand_short_horvertflip_short_600ms.mp4	36.single_slap_with_full_hand_short_horvertflip_short_600ms.mp4	143.07210133845842	143.68037079079693	0.6082694523385044				
247.53759765625	0.2	506957	19	71	0	0	0	19	118	stimuli\Videos_short_600ms_horflip\35.single_punch_with_hand_short_horflip_short_600ms.mp4	35.single_punch_with_hand_short_horflip_short_600ms.mp4	143.8720738907199	144.48034920795976	0.6082753172398725				
248.337890625	0.2	508596	20	71	0	0	0	20	52	stimuli\Videos_short_600ms\57.single_touch_with_nail_file_short_short_600ms.mp4	57.single_touch_with_nail_file_short_short_600ms.mp4	144.6720059751616	145.2803153088296	0.6083093336679894				
249.1376953125	0.2	510234	21	71	0	0	0	21	131	stimuli\Videos_short_600ms_horflip\47.(long)scratching_with_finger_nails_short_horflip_short_600ms.mp4	47.(long)scratching_with_finger_nails_short_horflip_short_600ms.mp4	145.47200228027373	146.0803007638741	0.6082984836003789				
249.93798828125	0.2	511873	22	71	0	0	0	22	208	stimuli\Videos_short_600ms_horvertflip\35.single_punch_with_hand_short_horvertflip_short_600ms.mp4	35.single_punch_with_hand_short_horvertflip_short_600ms.mp4	146.2719877353181	146.88025660116648	0.6082688658483448				
250.73779296875	0.2	513511	23	71	0	0	0	23	184	stimuli\Videos_short_600ms_horvertflip\13.single_touch_with_pen_short_horvertflip_short_600ms.mp4	13.single_touch_with_pen_short_horvertflip_short_600ms.mp4	147.07201571089786	147.6802655158166	0.6082498049187279				
251.53759765625	0.2	515149	24	71	0	0	1	24	364	stimuli\Targets_short_600ms\hand-pinch_short_short_600ms.mp4	hand-pinch_short_short_600ms.mp4	147.87194955481004	148.48022164635404	0.608272091543995				
252.337890625	0.2	516788	25	71	0	0	0	25	14	stimuli\Videos_short_600ms\22.single_touch_with_metal_chopstick_short_short_600ms.mp4	22.single_touch_with_metal_chopstick_short_short_600ms.mp4	148.67195289780375	149.28020563517327	0.6082527373695257				
253.1376953125	0.2	518426	26	71	0	0	0	26	36	stimuli\Videos_short_600ms\42.single_slap_with_plastic_whisk_short_short_600ms.mp4	42.single_slap_with_plastic_whisk_short_short_600ms.mp4	149.47201137087086	150.08021454982338	0.6082031789525217				
253.9375	0.2	520064	27	71	0	0	0	27	245	stimuli\Videos_short_600ms_horvertflip\69.stroke_with_soft_sock_short_horvertflip_short_600ms.mp4	69.stroke_with_soft_sock_short_horvertflip_short_600ms.mp4	150.27189536312096	150.88020499003403	0.6083096269130692				
254.73779296875	0.2	521703	28	71	0	0	0	28	137	stimuli\Videos_short_600ms_horflip\52.touch_top_to_bottom_with_hammer_short_horflip_short_600ms.mp4	52.touch_top_to_bottom_with_hammer_short_horflip_short_600ms.mp4	151.0718764194894	151.68021947634054	0.6083430568511403				
255.53759765625	0.2	523341	29	71	0	0	0	29	258	stimuli\Videos_short_600ms_horvertflip\80.stroke_with_sharp_stick_all_over_the_hand_short_horvertflip_short_600ms.mp4	80.stroke_with_sharp_stick_all_over_the_hand_short_horvertflip_short_600ms.mp4	151.87184369333954	152.480216954433	0.6083732610934476				
256.33740234375	0.2	524979	30	71	0	0	1	30	373	stimuli\Targets_short_600ms_horvertflip\chopstick-silver-tap_short_vertflip_short_600ms.mp4	chopstick-silver-tap_short_vertflip_short_600ms.mp4	152.67184263765728	153.28022469610278	0.6083820584454998				
257.1376953125	0.2	526618	31	71	0	0	0	31	178	stimuli\Videos_short_600ms_horflip\9.single_touch_with_hammer_short_horflip_short_600ms.mp4	9.single_touch_with_hammer_short_horflip_short_600ms.mp4	153.47182721296656	154.08015032915296	0.6083231161863978				
257.9375	0.2	528256	32	71	0	0	0	32	17	stimuli\Videos_short_600ms\25.single_touch_with_stanley_knife_short_short_600ms.mp4	25.single_touch_with_stanley_knife_short_short_600ms.mp4	154.27177483939704	154.88012640035515	0.6083515609581127				
258.7373046875	0.2	529894	33	71	0	0	0	33	195	stimuli\Videos_short_600ms_horvertflip\23.single_push_with_a_spoon_short_horvertflip_short_600ms.mp4	23.single_push_with_a_spoon_short_horvertflip_short_600ms.mp4	155.07183008676827	155.680108922949	0.6082788361807161				
259.53759765625	0.2	531533	34	71	0	0	0	34	246	stimuli\Videos_short_600ms_horvertflip\7.repeated_touch_with_hairbrush_short_horvertflip_short_600ms.mp4	7.repeated_touch_with_hairbrush_short_horvertflip_short_600ms.mp4	155.87184662579023	156.4800987766696	0.6082521508793661				
260.33740234375	0.2	533171	35	71	0	0	0	35	165	stimuli\Videos_short_600ms_horflip\78.single_stroke_top_to_bottom_with_soft_brush_short_horflip_short_600ms.mp4	78.single_stroke_top_to_bottom_with_soft_brush_short_horflip_short_600ms.mp4	156.67178105619246	157.28008100601824	0.6082999498257777				
261.13720703125	0.2	534809	36	71	0	0	0	36	214	stimuli\Videos_short_600ms_horvertflip\40.repeated_push_with_finger_short_horvertflip_short_600ms.mp4	40.repeated_push_with_finger_short_horvertflip_short_600ms.mp4	157.47170111758635	158.08006206238667	0.6083609448003244				
261.9375	0.2	536448	37	71	0	0	0	37	359	stimuli\Videos_short_600ms_vertflip\90.repeated_touch_with_sponge_short_vertflip_short_600ms.mp4	90.repeated_touch_with_sponge_short_vertflip_short_600ms.mp4	158.27170328759985	158.88004810392135	0.6083448163215053				
262.7373046875	0.2	538086	38	71	0	0	0	38	29	stimuli\Videos_short_600ms\36.single_slap_with_full_hand_short_short_600ms.mp4	36.single_slap_with_full_hand_short_short_600ms.mp4	159.07166293707814	159.68002681432927	0.6083638772511222				
263.537109375	0.2	539724	39	71	0	0	0	39	216	stimuli\Videos_short_600ms_horvertflip\42.single_slap_with_plastic_whisk_short_horvertflip_short_600ms.mp4	42.single_slap_with_plastic_whisk_short_horvertflip_short_600ms.mp4	159.8716739044437	160.47999086248365	0.6083169580399499				
264.33740234375	0.2	541363	40	71	0	0	0	40	219	stimuli\Videos_short_600ms_horvertflip\45.scratching_with_finger_nails_short_horvertflip_short_600ms.mp4	45.scratching_with_finger_nails_short_horvertflip_short_600ms.mp4	160.67168399207412	161.27999156627175	0.6083075741976245				
265.13720703125	0.2	543001	41	71	0	0	0	41	224	stimuli\Videos_short_600ms_horvertflip\5.repeated_tap_with_finger_moving_from_top_to_bottom_short_horvertflip_short_600ms.mp4	5.repeated_tap_with_finger_moving_from_top_to_bottom_short_horvertflip_short_600ms.mp4	161.47166651466796	162.07998669840356	0.6083201837356				
265.93701171875	0.2	544639	42	71	0	0	0	42	250	stimuli\Videos_short_600ms_horvertflip\73.single_stroke_with_flat_hand_short_horvertflip_short_600ms.mp4	73.single_stroke_with_flat_hand_short_horvertflip_short_600ms.mp4	162.2716461048111	162.87991731661998	0.6082712118088693				
266.7373046875	0.2	546278	43	71	0	0	0	43	31	stimuli\Videos_short_600ms\38.double_slap_with_pencil_short_short_600ms.mp4	38.double_slap_with_pencil_short_short_600ms.mp4	163.07169900622182	163.67990042570386	0.6082014194820431				
267.537109375	0.2	547916	44	71	0	0	0	44	37	stimuli\Videos_short_600ms\43.touch_top_to_bottom_with_sharp_wooden_stick_short_short_600ms.mp4	43.touch_top_to_bottom_with_sharp_wooden_stick_short_short_600ms.mp4	163.87163666231982	164.47990728763853	0.6082706253187098				
268.33740234375	0.2	549555	45	71	0	0	0	45	81	stimuli\Videos_short_600ms\83.single_stroke_top_to_bottom_with_cotton_bud_short_short_600ms.mp4	83.single_stroke_top_to_bottom_with_cotton_bud_short_short_600ms.mp4	164.67158634146574	165.27989098321257	0.6083046417468267				
269.13720703125	0.2	551193	46	71	0	0	0	46	287	stimuli\Videos_short_600ms_vertflip\25.single_touch_with_stanley_knife_short_vertflip_short_600ms.mp4	25.single_touch_with_stanley_knife_short_vertflip_short_600ms.mp4	165.47157590194115	166.07987966395285	0.6083037620117011				
269.93701171875	0.2	552831	47	71	0	0	0	47	272	stimuli\Videos_short_600ms_vertflip\11.single_touch_with_lighter_short_vertflip_short_600ms.mp4	11.single_touch_with_lighter_short_vertflip_short_600ms.mp4	166.2715528528787	166.8798715703889	0.6083187175102012				
270.7373046875	0.2	554470	48	71	0	0	0	48	343	stimuli\Videos_short_600ms_vertflip\76.tickle_with_fingers_from_top_to_bottom_short_vertflip_short_600ms.mp4	76.tickle_with_fingers_from_top_to_bottom_short_vertflip_short_600ms.mp4	167.07153508222734	167.6798520402673	0.6083169580399499				
271.537109375	0.2	556108	49	71	0	0	0	49	40	stimuli\Videos_short_600ms\46.scratching_top_to_bottom_with_finger_nails_short_short_600ms.mp4	46.scratching_top_to_bottom_with_finger_nails_short_short_600ms.mp4	167.87151936429166	168.47983720206673	0.6083178377750755				
272.3369140625	0.2	557746	50	71	0	0	0	50	148	stimuli\Videos_short_600ms_horflip\62.touch_top_to_bottom_with_scissors_short_horflip_short_600ms.mp4	62.touch_top_to_bottom_with_scissors_short_horflip_short_600ms.mp4	168.671554084508	169.2798522748633	0.6082981903552991				
273.13720703125	0.2	559385	51	71	0	0	0	51	269	stimuli\Videos_short_600ms_horvertflip\90.repeated_touch_with_sponge_short_horvertflip_short_600ms.mp4	90.repeated_touch_with_sponge_short_horvertflip_short_600ms.mp4	169.471499951468	170.07980459321482	0.6083046417468267				
273.93701171875	0.2	561023	52	71	0	0	0	52	147	stimuli\Videos_short_600ms_horflip\61.single_hit_with_rolling_pin_short_horflip_short_600ms.mp4	61.single_hit_with_rolling_pin_short_horflip_short_600ms.mp4	170.27146136041665	170.87979386044526	0.6083325000286095				
274.73681640625	0.2	562661	53	71	0	0	0	53	191	stimuli\Videos_short_600ms_horvertflip\2.single_touch_with_finger_short_horvertflip_short_600ms.mp4	2.single_touch_with_finger_short_horvertflip_short_600ms.mp4	171.07145795877386	171.67977667628418	0.6083187175103149				
275.537109375	0.2	564300	54	71	0	0	0	54	358	stimuli\Videos_short_600ms_vertflip\9.single_touch_with_hammer_short_vertflip_short_600ms.mp4	9.single_touch_with_hammer_short_vertflip_short_600ms.mp4	171.87141643527184	172.47975421371177	0.6083377784399318				
276.3369140625	0.2	565938	55	71	0	0	0	55	351	stimuli\Videos_short_600ms_vertflip\83.single_stroke_top_to_bottom_with_cotton_bud_short_vertflip_short_600ms.mp4	83.single_stroke_top_to_bottom_with_cotton_bud_short_vertflip_short_600ms.mp4	172.6714482230375	173.2797364430604	0.6082882200229278				
277.13671875	0.2	567576	56	71	0	0	0	56	302	stimuli\Videos_short_600ms_vertflip\39.single_stab_with_scissors_short_vertflip_short_600ms.mp4	39.single_stab_with_scissors_short_vertflip_short_600ms.mp4	173.47138060072427	174.0797195521444	0.6083389514201372				
277.93701171875	0.2	569215	57	71	0	0	0	57	19	stimuli\Videos_short_600ms\27.single_push_with_a_plastic_whisk_short_short_600ms.mp4	27.single_push_with_a_plastic_whisk_short_short_600ms.mp4	174.27145432253496	174.87970735314946	0.6082530306144918				
278.73681640625	0.2	570853	58	71	0	0	0	58	45	stimuli\Videos_short_600ms\50.single_(long)hard_push_with_thumb_short_short_600ms.mp4	50.single_(long)hard_push_with_thumb_short_short_600ms.mp4	175.07146792910623	175.67968870276297	0.6082207736567398				
279.53662109375	0.2	572491	59	71	0	0	0	59	161	stimuli\Videos_short_600ms_horflip\74.fingers_walking_from_top_to_bottom_short_horflip_short_600ms.mp4	74.fingers_walking_from_top_to_bottom_short_horflip_short_600ms.mp4	175.87134107128873	176.4796659469455	0.6083248756567627				
280.3369140625	0.2	574130	60	71	0	0	1	60	379	stimuli\Targets_short_600ms_vertflip\chopstick-silver-tap_short_horvertflip_short_600ms.mp4	chopstick-silver-tap_short_horvertflip_short_600ms.mp4	176.6713118640797	177.2796118139055	0.6082999498257777				
281.13671875	0.2	575768	61	71	0	0	0	61	221	stimuli\Videos_short_600ms_horvertflip\47.(long)scratching_with_finger_nails_short_horvertflip_short_600ms.mp4	47.(long)scratching_with_finger_nails_short_horvertflip_short_600ms.mp4	177.47132341793554	178.0795946297444	0.6082712118088693				
281.9365234375	0.2	577406	62	71	0	0	0	62	117	stimuli\Videos_short_600ms_horflip\34.repeated_punch_with_hand_short_horflip_short_600ms.mp4	34.repeated_punch_with_hand_short_horflip_short_600ms.mp4	178.2712997823828	178.87957832531845	0.6082785429356363				
282.73681640625	0.2	579045	63	71	0	0	0	63	65	stimuli\Videos_short_600ms\69.stroke_with_soft_sock_short_short_600ms.mp4	69.stroke_with_soft_sock_short_short_600ms.mp4	179.07128347795697	179.67956143440244	0.6082779564454768				
283.53662109375	0.2	580683	64	71	0	0	0	64	232	stimuli\Videos_short_600ms_horvertflip\57.single_touch_with_nail_file_short_horvertflip_short_600ms.mp4	57.single_touch_with_nail_file_short_horvertflip_short_600ms.mp4	179.87162141357612	180.4795580327595	0.6079366191834197				
284.33642578125	0.2	582321	65	71	0	0	0	65	92	stimuli\Videos_short_600ms_horflip\11.single_touch_with_lighter_short_horflip_short_600ms.mp4	11.single_touch_with_lighter_short_horflip_short_600ms.mp4	180.67130746540363	181.2795537513815	0.6082462859778843				
285.13671875	0.2	583960	66	71	0	0	0	66	172	stimuli\Videos_short_600ms_horflip\84.single_touch_with_cotton_bud_short_horflip_short_600ms.mp4	84.single_touch_with_cotton_bud_short_horflip_short_600ms.mp4	181.4712137442791	182.0795562146401	0.6083424703609808				
285.9365234375	0.2	585598	67	71	0	0	0	67	56	stimuli\Videos_short_600ms\60.single_push_with_tip_of_pencil_short_short_600ms.mp4	60.single_push_with_tip_of_pencil_short_short_600ms.mp4	182.27119743985327	182.87957128743676	0.6083738475834934				
286.736328125	0.2	587236	68	71	0	0	0	68	104	stimuli\Videos_short_600ms_horflip\22.single_touch_with_metal_chopstick_short_horflip_short_600ms.mp4	22.single_touch_with_metal_chopstick_short_horflip_short_600ms.mp4	183.071200489602	183.67957785612631	0.608377366524337				
287.53662109375	0.2	588875	69	71	0	0	0	69	142	stimuli\Videos_short_600ms_horflip\57.single_touch_with_nail_file_short_horflip_short_600ms.mp4	57.single_touch_with_nail_file_short_horflip_short_600ms.mp4	183.8711806662352	184.47949850401028	0.6083178377750755				
288.33642578125	0.2	590513	70	71	0	0	0	70	134	stimuli\Videos_short_600ms_horflip\5.repeated_tap_with_finger_moving_from_top_to_bottom_short_horflip_short_600ms.mp4	5.repeated_tap_with_finger_moving_from_top_to_bottom_short_horflip_short_600ms.mp4	184.67117697134736	185.27948190633924	0.6083049349919065				
289.13671875	0.2	592152	71	71	0	0	0	71	318	stimuli\Videos_short_600ms_vertflip\53.touch_top_to_bottom_with_knife_short_vertflip_short_600ms.mp4	53.touch_top_to_bottom_with_knife_short_vertflip_short_600ms.mp4	185.4712278200425	186.07946501542324	0.6082371953807524				
289.9365234375	0.2	593790	72	71	0	0	0	72	325	stimuli\Videos_short_600ms_vertflip\6.single_touch_with_flat_hand_short_vertflip_short_600ms.mp4	6.single_touch_with_flat_hand_short_vertflip_short_600ms.mp4	186.27108864593208	186.87944900424236	0.6083603583102786				
290.736328125	0.2	595428	73	71	0	0	0	73	311	stimuli\Videos_short_600ms_vertflip\47.(long)scratching_with_finger_nails_short_vertflip_short_600ms.mp4	47.(long)scratching_with_finger_nails_short_vertflip_short_600ms.mp4	187.0713696920077	187.6794315268362	0.6080618348285043				
291.53662109375	0.2	597067	74	71	0	0	0	74	168	stimuli\Videos_short_600ms_horflip\80.stroke_with_sharp_stick_all_over_the_hand_short_horflip_short_600ms.mp4	80.stroke_with_sharp_stick_all_over_the_hand_short_horflip_short_600ms.mp4	187.87124752611123	188.47941492916516	0.6081674030539261				
292.33642578125	0.2	598705	75	71	0	0	0	75	177	stimuli\Videos_short_600ms_horflip\89.single_touch_with_plastic_brush_short_horflip_short_600ms.mp4	89.single_touch_with_plastic_brush_short_horflip_short_600ms.mp4	188.67103885291908	189.27940126394492	0.608362411025837				
293.13623046875	0.2	600343	76	71	0	0	1	76	366	stimuli\Targets_short_600ms_horflip\brush-stroke_short_horflip_short_600ms.mp4	brush-stroke_short_horflip_short_600ms.mp4	189.47105627167628	190.07938261355844	0.6083263418821616				
293.9365234375	0.2	601982	77	71	0	0	0	77	6	stimuli\Videos_short_600ms\15.single_stroke_top_to_bottom_with_a_plastic_whisk_short_short_600ms.mp4	15.single_stroke_top_to_bottom_with_a_plastic_whisk_short_short_600ms.mp4	190.2710349820842	190.87936806860296	0.608333086518769				
294.736328125	0.2	603620	78	71	0	0	0	78	111	stimuli\Videos_short_600ms_horflip\29.single_pinch_with_tweezers_short_horflip_short_600ms.mp4	29.single_pinch_with_tweezers_short_horflip_short_600ms.mp4	191.07104418997935	191.67932537212064	0.6082811821412406				
295.5361328125	0.2	605258	79	71	0	0	0	79	335	stimuli\Videos_short_600ms_vertflip\69.stroke_with_soft_sock_short_vertflip_short_600ms.mp4	69.stroke_with_soft_sock_short_vertflip_short_600ms.mp4	191.87101234356476	192.479289420275	0.6082770767102375				
296.33642578125	0.2	606897	80	71	0	0	0	80	240	stimuli\Videos_short_600ms_horvertflip\64.repeated_touch_with_screwdriver_short_horvertflip_short_600ms.mp4	64.repeated_touch_with_screwdriver_short_horvertflip_short_600ms.mp4	192.67103943940924	193.2792927632688	0.6082533238595715				
297.13623046875	0.2	608535	81	71	0	0	0	81	11	stimuli\Videos_short_600ms\2.single_touch_with_finger_short_short_600ms.mp4	2.single_touch_with_finger_short_short_600ms.mp4	193.47101639034668	194.07925475870775	0.6082383683610715				
297.93603515625	0.2	610173	82	71	0	0	0	82	225	stimuli\Videos_short_600ms_horvertflip\50.single_(long)hard_push_with_thumb_short_horvertflip_short_600ms.mp4	50.single_(long)hard_push_with_thumb_short_horvertflip_short_600ms.mp4	194.2709827844617	194.87924431918316	0.6082615347214642				
298.736328125	0.2	611812	83	71	0	0	0	83	38	stimuli\Videos_short_600ms\44.pushing_top_to_bottom_with_finger_short_short_600ms.mp4	44.pushing_top_to_bottom_with_finger_short_short_600ms.mp4	195.0709324636075	195.67923006747276	0.6082976038652532				
299.5361328125	0.2	613450	84	71	0	0	1	84	378	stimuli\Targets_short_600ms_vertflip\brush-stroke_short_horvertflip_short_600ms.mp4	brush-stroke_short_horvertflip_short_600ms.mp4	195.87090677533936	196.4792383956328	0.6083316202934839				
300.3359375	0.2	615088	85	71	0	0	0	85	99	stimuli\Videos_short_600ms_horflip\18.single_stroke_from_top_to_bottom_with_rolling_pin_short_horflip_short_600ms.mp4	18.single_stroke_from_top_to_bottom_with_rolling_pin_short_horflip_short_600ms.mp4	196.67091041157823	197.27923646021532	0.6083260486370818				
301.13623046875	0.2	616727	86	71	0	0	0	86	316	stimuli\Videos_short_600ms_vertflip\51.repeated_touch_with_hammer_short_vertflip_short_600ms.mp4	51.repeated_touch_with_hammer_short_vertflip_short_600ms.mp4	197.47093193576643	198.07927968453873	0.608347748772303				
301.93603515625	0.2	618365	87	71	0	0	0	87	23	stimuli\Videos_short_600ms\30.finger_pulling_back_another_finger_short_short_600ms.mp4	30.finger_pulling_back_another_finger_short_short_600ms.mp4	198.2708769229912	198.87919886619727	0.6083219432060787				
302.73583984375	0.2	620003	88	71	0	0	0	88	340	stimuli\Videos_short_600ms_vertflip\73.single_stroke_with_flat_hand_short_vertflip_short_600ms.mp4	73.single_stroke_with_flat_hand_short_vertflip_short_600ms.mp4	199.07086325777095	199.6791813887911	0.6083181310201553				
303.5361328125	0.2	621642	89	71	0	0	0	89	189	stimuli\Videos_short_600ms_horvertflip\18.single_stroke_from_top_to_bottom_with_rolling_pin_short_horvertflip_short_600ms.mp4	18.single_stroke_from_top_to_bottom_with_rolling_pin_short_horvertflip_short_600ms.mp4	199.87083962221823	200.47913194767216	0.608292325453931				
304.3359375	0.2	623280	90	71	0	0	0	90	248	stimuli\Videos_short_600ms_horvertflip\71.single_stroke_with_finger_top_to_bottom_short_horvertflip_short_600ms.mp4	71.single_stroke_with_finger_top_to_bottom_short_horvertflip_short_600ms.mp4	200.67079751222616	201.2791499529195	0.608352440693352				
305.1357421875	0.2	624918	91	71	0	0	0	91	143	stimuli\Videos_short_600ms_horflip\58.single_slap_with_pencil_short_horflip_short_600ms.mp4	58.single_slap_with_pencil_short_horflip_short_600ms.mp4	201.47079469707344	202.07913071604287	0.6083360189694531				
305.93603515625	0.2	626557	92	71	0	0	0	92	180	stimuli\Videos_short_600ms_horvertflip\1.repeated_touch_with_finger_fast_short_horvertflip_short_600ms.mp4	1.repeated_touch_with_finger_fast_short_horvertflip_short_600ms.mp4	202.27075786549256	202.87911529135215	0.6083574258595945				
306.73583984375	0.2	628195	93	71	0	0	0	93	265	stimuli\Videos_short_600ms_horvertflip\87.single_stroke_top_to_bottom_with_plastic_brush_short_horvertflip_short_600ms.mp4	87.single_stroke_top_to_bottom_with_plastic_brush_short_horvertflip_short_600ms.mp4	203.070872055123	203.679097813946	0.6082257588229822				
307.53564453125	0.2	629833	94	71	0	0	0	94	320	stimuli\Videos_short_600ms_vertflip\55.touch_top_to_bottom_with_nail_file_short_vertflip_short_600ms.mp4	55.touch_top_to_bottom_with_nail_file_short_vertflip_short_600ms.mp4	203.8707642582351	204.47907564461863	0.6083113863835479	5.0	5.0	3.624291483254069	1.0
347.259765625	0.2	711188	95	71	1	0	0	0	123	stimuli\Videos_short_600ms_horflip\4.repeated_tap_with_finger_slow_short_horflip_short_600ms.mp4	4.repeated_tap_with_finger_slow_short_horflip_short_600ms.mp4	243.59492328269084	244.20324346642656	0.6083201837357137				
348.0595703125	0.2	712826	96	71	1	0	0	1	193	stimuli\Videos_short_600ms_horvertflip\21.repeated_touch_with_metal_chopstick_short_horvertflip_short_600ms.mp4	21.repeated_touch_with_metal_chopstick_short_horvertflip_short_600ms.mp4	244.39499847072693	245.00322628226536	0.608227811538427				
348.859375	0.2	714464	97	71	1	0	0	2	27	stimuli\Videos_short_600ms\34.repeated_punch_with_hand_short_short_600ms.mp4	34.repeated_punch_with_hand_short_short_600ms.mp4	245.19499477583904	245.8032061656536	0.608211389814528				
349.65966796875	0.2	716103	98	71	1	0	1	3	376	stimuli\Targets_short_600ms_horvertflip\hand-pinch_short_vertflip_short_600ms.mp4	hand-pinch_short_vertflip_short_600ms.mp4	245.99484709762157	246.60319513963896	0.6083480420173828				
350.45947265625	0.2	717741	99	71	1	0	0	4	352	stimuli\Videos_short_600ms_vertflip\84.single_touch_with_cotton_bud_short_vertflip_short_600ms.mp4	84.single_touch_with_cotton_bud_short_vertflip_short_600ms.mp4	246.7948343121365	247.40317238382147	0.6083380716850115				
351.25927734375	0.2	719379	100	71	1	0	0	5	53	stimuli\Videos_short_600ms\58.single_slap_with_pencil_short_short_600ms.mp4	58.single_slap_with_pencil_short_short_600ms.mp4	247.59483354969927	248.20315959833636	0.6083260486370818				
352.0595703125	0.2	721018	101	71	1	0	0	6	174	stimuli\Videos_short_600ms_horflip\86.touch_top_to_bottom_with_hair_brush_short_horflip_short_600ms.mp4	86.touch_top_to_bottom_with_hair_brush_short_horflip_short_600ms.mp4	248.3947981843438	249.00313977496955	0.6083415906257414				
352.859375	0.2	722656	102	71	1	0	0	7	74	stimuli\Videos_short_600ms\77.tapping_with_all_fingers_short_short_600ms.mp4	77.tapping_with_all_fingers_short_short_600ms.mp4	249.19517042963628	249.8031003041831	0.6079298745468122				
353.6591796875	0.2	724294	103	71	1	0	0	8	115	stimuli\Videos_short_600ms_horflip\32.single_(long)pinch_with_fingers_short_horflip_short_600ms.mp4	32.single_(long)pinch_with_fingers_short_horflip_short_600ms.mp4	249.9947837566864	250.6031054066474	0.6083216499609989				
354.45947265625	0.2	725933	104	71	1	0	0	9	256	stimuli\Videos_short_600ms_horvertflip\79.long_with_soft_brush_all_over_the_hand_short_horvertflip_short_600ms.mp4	79.long_with_soft_brush_all_over_the_hand_short_horvertflip_short_600ms.mp4	250.79473021013644	251.4030855832806	0.6083553731441498				
355.25927734375	0.2	727571	105	71	1	0	0	10	284	stimuli\Videos_short_600ms_vertflip\22.single_touch_with_metal_chopstick_short_vertflip_short_600ms.mp4	22.single_touch_with_metal_chopstick_short_vertflip_short_600ms.mp4	251.5947385382965	252.20306663964905	0.6083281013525266				
356.05908203125	0.2	729209	106	71	1	0	0	11	132	stimuli\Videos_short_600ms_horflip\48.single_slap_with_hand_short_horflip_short_600ms.mp4	48.single_slap_with_hand_short_horflip_short_600ms.mp4	252.394777950434	253.00306470423152	0.608286753797529				
356.859375	0.2	730848	107	71	1	0	0	12	105	stimuli\Videos_short_600ms_horflip\23.single_push_with_a_spoon_short_horflip_short_600ms.mp4	23.single_push_with_a_spoon_short_horflip_short_600ms.mp4	253.19472469712912	253.8029932697324	0.6082685726032651				
357.6591796875	0.2	732486	108	71	1	0	1	13	361	stimuli\Targets_short_600ms\chopstick-silver-tap_short_short_600ms.mp4	chopstick-silver-tap_short_short_600ms.mp4	253.9946998885962	254.60299602623604	0.6082961376398544				
358.45947265625	0.2	734125	109	71	1	0	0	14	312	stimuli\Videos_short_600ms_vertflip\48.single_slap_with_hand_short_vertflip_short_600ms.mp4	48.single_slap_with_hand_short_vertflip_short_600ms.mp4	254.79469590046324	255.40295860816505	0.6082627077017833				
359.25927734375	0.2	735763	110	71	1	0	1	15	365	stimuli\Targets_short_600ms\hand-stroke_short_short_600ms.mp4	hand-stroke_short_short_600ms.mp4	255.59466933245983	256.20297309447153	0.6083037620117011				
360.05908203125	0.2	737401	111	71	1	0	0	16	344	stimuli\Videos_short_600ms_vertflip\77.tapping_with_all_fingers_short_vertflip_short_600ms.mp4	77.tapping_with_all_fingers_short_vertflip_short_600ms.mp4	256.3946509753184	257.00295884276113	0.6083078674427043				
360.859375	0.2	739040	112	71	1	0	0	17	212	stimuli\Videos_short_600ms_horvertflip\39.single_stab_with_scissors_short_horvertflip_short_600ms.mp4	39.single_stab_with_scissors_short_horvertflip_short_600ms.mp4	257.1946332046672	257.80295632085347	0.6083231161862841				
361.6591796875	0.2	740678	113	71	1	0	0	18	242	stimuli\Videos_short_600ms_horvertflip\66.stroke_top_to_bottom_with_sponge_short_horvertflip_short_600ms.mp4	66.stroke_top_to_bottom_with_sponge_short_horvertflip_short_600ms.mp4	257.99461396779054	258.6029455880839	0.6083316202933702				
362.458984375	0.2	742316	114	71	1	0	0	19	309	stimuli\Videos_short_600ms_vertflip\45.scratching_with_finger_nails_short_vertflip_short_600ms.mp4	45.scratching_with_finger_nails_short_vertflip_short_600ms.mp4	258.7945753767393	259.4029201930608	0.6083448163215053				
363.25927734375	0.2	743955	115	71	1	0	0	20	305	stimuli\Videos_short_600ms_vertflip\41.injection_with_blunt_syringe_short_vertflip_short_600ms.mp4	41.injection_with_blunt_syringe_short_vertflip_short_600ms.mp4	259.59457959946826	260.2029018359194	0.6083222364511585				
364.05908203125	0.2	745593	116	71	1	0	0	21	206	stimuli\Videos_short_600ms_horvertflip\33.scratch_top_to_bottom_with_scissors_short_horvertflip_short_600ms.mp4	33.scratch_top_to_bottom_with_scissors_short_horvertflip_short_600ms.mp4	260.39456388153246	261.0028867044738	0.608322822941318				
364.85888671875	0.2	747231	117	71	1	0	0	22	334	stimuli\Videos_short_600ms_vertflip\68.stroke_top_to_bottom_with_shawl_short_vertflip_short_600ms.mp4	68.stroke_top_to_bottom_with_shawl_short_vertflip_short_600ms.mp4	261.1945258769714	261.8028692270676	0.6083433500962201				
365.6591796875	0.2	748870	118	71	1	0	0	23	257	stimuli\Videos_short_600ms_horvertflip\8.single_touch_with_hairbrush_short_horvertflip_short_600ms.mp4	8.single_touch_with_hairbrush_short_horvertflip_short_600ms.mp4	261.9945336186412	262.60285292264166	0.6083193040004744				
366.458984375	0.2	750508	119	71	1	0	0	24	349	stimuli\Videos_short_600ms_vertflip\81.single_stroke_top_to_bottom_with_cotton_pad_short_vertflip_short_600ms.mp4	81.single_stroke_top_to_bottom_with_cotton_pad_short_vertflip_short_600ms.mp4	262.7944962005703	263.4028339790101	0.6083377784398181				
367.2587890625	0.2	752146	120	71	1	0	0	25	44	stimuli\Videos_short_600ms\5.repeated_tap_with_finger_moving_from_top_to_bottom_short_short_600ms.mp4	5.repeated_tap_with_finger_moving_from_top_to_bottom_short_short_600ms.mp4	263.59447960289924	264.2028173813392	0.6083377784399318				
368.05908203125	0.2	753785	121	71	1	0	0	26	73	stimuli\Videos_short_600ms\76.tickle_with_fingers_from_top_to_bottom_short_short_600ms.mp4	76.tickle_with_fingers_from_top_to_bottom_short_short_600ms.mp4	264.39464511041706	265.00279755797237	0.6081524475553124				
368.85888671875	0.2	755423	122	71	1	0	0	27	152	stimuli\Videos_short_600ms_horflip\66.stroke_top_to_bottom_with_sponge_short_horflip_short_600ms.mp4	66.stroke_top_to_bottom_with_sponge_short_horflip_short_600ms.mp4	265.19448658213196	265.80276307235204	0.6082764902200779				
369.65869140625	0.2	757061	123	71	1	0	0	28	141	stimuli\Videos_short_600ms_horflip\56.repeated_touch_with_nail_file_short_horflip_short_600ms.mp4	56.repeated_touch_with_nail_file_short_horflip_short_600ms.mp4	265.9946362544159	266.6027672950811	0.608131040665171				
370.458984375	0.2	758700	124	71	1	0	0	29	328	stimuli\Videos_short_600ms_vertflip\62.touch_top_to_bottom_with_scissors_short_vertflip_short_600ms.mp4	62.touch_top_to_bottom_with_scissors_short_vertflip_short_600ms.mp4	266.79445925169136	267.4027542163509	0.6082949646595353				
371.2587890625	0.2	760338	125	71	1	0	0	30	133	stimuli\Videos_short_600ms_horflip\49.repeated_slap_with_hand_short_horflip_short_600ms.mp4	49.repeated_slap_with_hand_short_horflip_short_600ms.mp4	267.5944174349444	268.20272852808273	0.6083110931383544				
372.05859375	0.2	761976	126	71	1	0	0	31	296	stimuli\Videos_short_600ms_vertflip\33.scratch_top_to_bottom_with_scissors_short_vertflip_short_600ms.mp4	33.scratch_top_to_bottom_with_scissors_short_vertflip_short_600ms.mp4	268.39440201025366	269.0026705828568	0.6082685726031514				
372.85888671875	0.2	763615	127	71	1	0	0	32	355	stimuli\Videos_short_600ms_vertflip\87.single_stroke_top_to_bottom_with_plastic_brush_short_vertflip_short_600ms.mp4	87.single_stroke_top_to_bottom_with_plastic_brush_short_vertflip_short_600ms.mp4	269.19433585416573	269.8026519324703	0.6083160783045969				
373.65869140625	0.2	765253	128	71	1	0	0	33	185	stimuli\Videos_short_600ms_horvertflip\14.repeated_touch_with_pencil_short_horvertflip_short_600ms.mp4	14.repeated_touch_with_pencil_short_horvertflip_short_600ms.mp4	269.9944233584947	270.6026365077796	0.608213149284893				
374.45849609375	0.2	766891	129	71	1	0	0	34	217	stimuli\Videos_short_600ms_horvertflip\43.touch_top_to_bottom_with_sharp_wooden_stick_short_horvertflip_short_600ms.mp4	43.touch_top_to_bottom_with_sharp_wooden_stick_short_horvertflip_short_600ms.mp4	270.79434429962373	271.40266858879033	0.6083242891666032				
375.2587890625	0.2	768530	130	71	1	0	0	35	114	stimuli\Videos_short_600ms_horflip\31.hand_grabbing_wrist_short_horflip_short_600ms.mp4	31.hand_grabbing_wrist_short_horflip_short_600ms.mp4	271.5943259424823	272.20262794502355	0.6083020025412225				
376.05859375	0.2	770168	131	71	1	0	0	36	124	stimuli\Videos_short_600ms_horflip\40.repeated_push_with_finger_short_horflip_short_600ms.mp4	40.repeated_push_with_finger_short_horflip_short_600ms.mp4	272.3943134502423	273.0026160392737	0.608302589031382				
376.8583984375	0.2	771806	132	71	1	0	0	37	253	stimuli\Videos_short_600ms_horvertflip\76.tickle_with_fingers_from_top_to_bottom_short_horvertflip_short_600ms.mp4	76.tickle_with_fingers_from_top_to_bottom_short_horvertflip_short_600ms.mp4	273.19431913919675	273.8026413756478	0.6083222364510448				
377.65869140625	0.2	773445	133	71	1	0	1	38	363	stimuli\Targets_short_600ms\finger-tap_short_short_600ms.mp4	finger-tap_short_short_600ms.mp4	273.99427908192	274.60259867916557	0.6083195972455542				
378.45849609375	0.2	775083	134	71	1	0	0	39	231	stimuli\Videos_short_600ms_horvertflip\56.repeated_touch_with_nail_file_short_horvertflip_short_600ms.mp4	56.repeated_touch_with_nail_file_short_horvertflip_short_600ms.mp4	274.79423550570255	275.40258032202416	0.608344816321619				
379.2587890625	0.2	776722	135	71	1	0	1	40	369	stimuli\Targets_short_600ms_horflip\finger-tap_short_horflip_short_600ms.mp4	finger-tap_short_horflip_short_600ms.mp4	275.59425673664566	276.20256079190244	0.6083040552567809				
380.05859375	0.2	778360	136	71	1	0	0	41	86	stimuli\Videos_short_600ms\88.repeated_stroke_with_plastic_brush_short_short_600ms.mp4	88.repeated_stroke_with_plastic_brush_short_short_600ms.mp4	276.3942240104958	277.00254360774136	0.6083195972455542				
380.8583984375	0.2	779998	137	71	1	0	0	42	323	stimuli\Videos_short_600ms_vertflip\58.single_slap_with_pencil_short_vertflip_short_600ms.mp4	58.single_slap_with_pencil_short_vertflip_short_600ms.mp4	277.19420770606996	277.8025270100703	0.6083193040003607				
381.65869140625	0.2	781637	138	71	1	0	0	43	175	stimuli\Videos_short_600ms_horflip\87.single_stroke_top_to_bottom_with_plastic_brush_short_horflip_short_600ms.mp4	87.single_stroke_top_to_bottom_with_plastic_brush_short_horflip_short_600ms.mp4	277.99428963874266	278.602496629881	0.6082069911383314				
382.45849609375	0.2	783275	139	71	1	0	0	44	41	stimuli\Videos_short_600ms\47.(long)scratching_with_finger_nails_short_short_600ms.mp4	47.(long)scratching_with_finger_nails_short_short_600ms.mp4	278.79415691602367	279.40249645393396	0.6083395379102967				
383.25830078125	0.2	784913	140	71	1	0	1	45	375	stimuli\Targets_short_600ms_horvertflip\finger-tap_short_vertflip_short_600ms.mp4	finger-tap_short_vertflip_short_600ms.mp4	279.59413767914714	280.20247985626304	0.608342177115901				
384.05859375	0.2	786552	141	71	1	0	0	46	18	stimuli\Videos_short_600ms\26.single_touch_with_a_blunt_syringe_short_short_600ms.mp4	26.single_touch_with_a_blunt_syringe_short_short_600ms.mp4	280.39409703538036	281.00246120587656	0.608364170496202				
384.8583984375	0.2	788190	142	71	1	0	0	47	61	stimuli\Videos_short_600ms\65.stroke_top_to_bottom_with_stanley_knife_short_short_600ms.mp4	65.stroke_top_to_bottom_with_stanley_knife_short_short_600ms.mp4	281.19411122844167	281.8024504731069	0.6083392446652169				
385.658203125	0.2	789828	143	71	1	0	0	48	16	stimuli\Videos_short_600ms\24.single_stroke_top_to_bottom_with_a_spoon_short_short_600ms.mp4	24.single_stroke_top_to_bottom_with_a_spoon_short_short_600ms.mp4	281.9942397870806	282.6024318227204	0.6081920356398314				
386.45849609375	0.2	791467	144	71	1	0	0	49	262	stimuli\Videos_short_600ms_horvertflip\84.single_touch_with_cotton_bud_short_horvertflip_short_600ms.mp4	84.single_touch_with_cotton_bud_short_horvertflip_short_600ms.mp4	282.79441145274484	283.4023765167002	0.607965063955362				
387.25830078125	0.2	793105	145	71	1	0	0	50	213	stimuli\Videos_short_600ms_horvertflip\4.repeated_tap_with_finger_slow_short_horvertflip_short_600ms.mp4	4.repeated_tap_with_finger_slow_short_horvertflip_short_600ms.mp4	283.59410894113023	284.20234642975595	0.6082374886257185				
388.05810546875	0.2	794743	146	71	1	0	0	51	261	stimuli\Videos_short_600ms_horvertflip\83.single_stroke_top_to_bottom_with_cotton_bud_short_horvertflip_short_600ms.mp4	83.single_stroke_top_to_bottom_with_cotton_bud_short_horvertflip_short_600ms.mp4	284.3946855782368	285.00231839552714	0.6076328172903231				
388.8583984375	0.2	796382	147	71	1	0	0	52	130	stimuli\Videos_short_600ms_horflip\46.scratching_top_to_bottom_with_finger_nails_short_horflip_short_600ms.mp4	46.scratching_top_to_bottom_with_finger_nails_short_horflip_short_600ms.mp4	285.19406254976	285.80231675335483	0.6082542035948109				
389.658203125	0.2	798020	148	71	1	0	0	53	292	stimuli\Videos_short_600ms_vertflip\3.single_push_with_finger_short_vertflip_short_600ms.mp4	3.single_push_with_finger_short_vertflip_short_600ms.mp4	285.9940186802975	286.60230514085004	0.6082864605525629				
390.4580078125	0.2	799658	149	71	1	0	0	54	154	stimuli\Videos_short_600ms_horflip\68.stroke_top_to_bottom_with_shawl_short_horflip_short_600ms.mp4	68.stroke_top_to_bottom_with_shawl_short_horflip_short_600ms.mp4	286.79411586171386	287.4023076041086	0.6081917423947516				
391.25830078125	0.2	801297	150	71	1	0	0	55	21	stimuli\Videos_short_600ms\29.single_pinch_with_tweezers_short_short_600ms.mp4	29.single_pinch_with_tweezers_short_short_600ms.mp4	287.5942684664485	288.20225171159814	0.6079832451496259				
392.05810546875	0.2	802935	151	71	1	0	0	56	90	stimuli\Videos_short_600ms_horflip\1.repeated_touch_with_finger_fast_short_horflip_short_600ms.mp4	1.repeated_touch_with_finger_fast_short_horflip_short_600ms.mp4	288.39400906185915	289.0022708898258	0.6082618279666576				
392.85791015625	0.2	804573	152	71	1	0	0	57	126	stimuli\Videos_short_600ms_horflip\42.single_slap_with_plastic_whisk_short_horflip_short_600ms.mp4	42.single_slap_with_plastic_whisk_short_horflip_short_600ms.mp4	289.19402354816566	289.80227599229	0.6082524441243322				
393.658203125	0.2	806212	153	71	1	0	0	58	1	stimuli\Videos_short_600ms\10.single_touch_with_knife_short_short_600ms.mp4	10.single_touch_with_knife_short_short_600ms.mp4	289.99393627843267	290.6022558756782	0.6083195972455542				
394.4580078125	0.2	807850	154	71	1	0	0	59	58	stimuli\Videos_short_600ms\62.touch_top_to_bottom_with_scissors_short_short_600ms.mp4	62.touch_top_to_bottom_with_scissors_short_short_600ms.mp4	290.7939434336124	291.4022404509875	0.6082970173750937				
395.2578125	0.2	809488	155	71	1	0	0	60	173	stimuli\Videos_short_600ms_horflip\85.touch_top_to_bottom_with_fabric_short_horflip_short_600ms.mp4	85.touch_top_to_bottom_with_fabric_short_horflip_short_600ms.mp4	291.5938787437499	292.20222385331647	0.608345109566585				
396.05810546875	0.2	811127	156	71	1	0	0	61	127	stimuli\Videos_short_600ms_horflip\43.touch_top_to_bottom_with_sharp_wooden_stick_short_horflip_short_600ms.mp4	43.touch_top_to_bottom_with_sharp_wooden_stick_short_horflip_short_600ms.mp4	292.39388560568455	293.0022063759103	0.6083207702257596				
396.85791015625	0.2	812765	157	71	1	0	0	62	205	stimuli\Videos_short_600ms_horvertflip\32.single_(long)pinch_with_fingers_short_horvertflip_short_600ms.mp4	32.single_(long)pinch_with_fingers_short_horvertflip_short_600ms.mp4	293.1938484808586	293.802188898504	0.6083404176454223				
397.658203125	0.2	814404	158	71	1	0	0	63	324	stimuli\Videos_short_600ms_vertflip\59.single_push_with_long_side_pencil_short_vertflip_short_600ms.mp4	59.single_push_with_long_side_pencil_short_vertflip_short_600ms.mp4	293.9943177902694	294.6021723008331	0.6078545105636977				
398.4580078125	0.2	816042	159	71	1	0	0	64	229	stimuli\Videos_short_600ms_horvertflip\54.repeated_touch_with_knife_short_horvertflip_short_600ms.mp4	54.repeated_touch_with_knife_short_horvertflip_short_600ms.mp4	294.79421057987156	295.4021539436917	0.6079433638201408				
399.2578125	0.2	817680	160	71	1	0	0	65	157	stimuli\Videos_short_600ms_horflip\70.(long)stroke_with_finger_all_over_the_hand_short_horflip_short_600ms.mp4	70.(long)stroke_with_finger_all_over_the_hand_short_horflip_short_600ms.mp4	295.5937725890343	296.2021352933052	0.6083627042709168				
400.05810546875	0.2	819319	161	71	1	0	1	66	381	stimuli\Targets_short_600ms_vertflip\finger-tap_short_horvertflip_short_600ms.mp4	finger-tap_short_horvertflip_short_600ms.mp4	296.393758630569	297.0021213348398	0.6083627042708031				
400.85791015625	0.2	820957	162	71	1	0	0	67	350	stimuli\Videos_short_600ms_vertflip\82.repeated_touch_with_cotton_bud_short_vertflip_short_600ms.mp4	82.repeated_touch_with_cotton_bud_short_vertflip_short_600ms.mp4	297.19376549250364	297.8020865559745	0.6083210634708394				
401.65771484375	0.2	822595	163	71	1	0	0	68	260	stimuli\Videos_short_600ms_horvertflip\82.repeated_touch_with_cotton_bud_short_horvertflip_short_600ms.mp4	82.repeated_touch_with_cotton_bud_short_horvertflip_short_600ms.mp4	297.99377030172275	298.6020626271767	0.608292325453931				
402.4580078125	0.2	824234	164	71	1	0	0	69	150	stimuli\Videos_short_600ms_horflip\64.repeated_touch_with_screwdriver_short_horflip_short_600ms.mp4	64.repeated_touch_with_screwdriver_short_horflip_short_600ms.mp4	298.7937296579561	299.4020932419621	0.6083635840060424				
403.2578125	0.2	825872	165	71	1	0	0	70	203	stimuli\Videos_short_600ms_horvertflip\30.finger_pulling_back_another_finger_short_horvertflip_short_600ms.mp4	30.finger_pulling_back_another_finger_short_horvertflip_short_600ms.mp4	299.59373241445974	300.202013596601	0.6082811821412406				
404.0576171875	0.2	827510	166	71	1	0	0	71	315	stimuli\Videos_short_600ms_vertflip\50.single_(long)hard_push_with_thumb_short_vertflip_short_600ms.mp4	50.single_(long)hard_push_with_thumb_short_vertflip_short_600ms.mp4	300.3937196289746	301.0019905475384	0.6082709185637896				
404.85791015625	0.2	829149	167	71	1	0	0	72	76	stimuli\Videos_short_600ms\79.long_with_soft_brush_all_over_the_hand_short_short_600ms.mp4	79.long_with_soft_brush_all_over_the_hand_short_short_600ms.mp4	301.1937024448134	301.8019997554336	0.6082973106201734				
405.65771484375	0.2	830787	168	71	1	0	1	73	382	stimuli\Targets_short_600ms_vertflip\hand-pinch_short_horvertflip_short_600ms.mp4	hand-pinch_short_horvertflip_short_600ms.mp4	301.9939811449285	302.6019497278246	0.6079685828960919				
406.45751953125	0.2	832425	169	71	1	0	0	74	298	stimuli\Videos_short_600ms_vertflip\35.single_punch_with_hand_short_vertflip_short_600ms.mp4	35.single_punch_with_hand_short_vertflip_short_600ms.mp4	302.79369300232224	303.4019876737367	0.6082946714144555				
407.2578125	0.2	834064	170	71	1	0	1	75	377	stimuli\Targets_short_600ms_horvertflip\hand-stroke_short_vertflip_short_600ms.mp4	hand-stroke_short_vertflip_short_600ms.mp4	303.59364708014414	304.2019748882516	0.6083278081074468				
408.0576171875	0.2	835702	171	71	1	0	0	76	43	stimuli\Videos_short_600ms\49.repeated_slap_with_hand_short_short_600ms.mp4	49.repeated_slap_with_hand_short_short_600ms.mp4	304.39362842975765	305.0019550648849	0.6083266351272414				
408.857421875	0.2	837340	172	71	1	0	0	77	5	stimuli\Videos_short_600ms\14.repeated_touch_with_pencil_short_short_600ms.mp4	14.repeated_touch_with_pencil_short_short_600ms.mp4	305.19361681725286	305.8019463848308	0.6083295675779254				
409.65771484375	0.2	838979	173	71	1	0	0	78	84	stimuli\Videos_short_600ms\86.touch_top_to_bottom_with_hair_brush_short_short_600ms.mp4	86.touch_top_to_bottom_with_hair_brush_short_short_600ms.mp4	305.99359464792553	306.6019165911316	0.6083219432060787				
410.45751953125	0.2	840617	174	71	1	0	0	79	179	stimuli\Videos_short_600ms_horflip\90.repeated_touch_with_sponge_short_horflip_short_600ms.mp4	90.repeated_touch_with_sponge_short_horflip_short_600ms.mp4	306.79357892998985	307.401901459686	0.6083225296961245				
411.25732421875	0.2	842255	175	71	1	0	0	80	270	stimuli\Videos_short_600ms_vertflip\1.repeated_touch_with_finger_fast_short_vertflip_short_600ms.mp4	1.repeated_touch_with_finger_fast_short_vertflip_short_600ms.mp4	307.5935928298061	308.2018813430742	0.6082885132681213				
412.0576171875	0.2	843894	176	71	1	0	0	81	188	stimuli\Videos_short_600ms_horvertflip\17.repeated_touch_with_rolling_pin_short_horvertflip_short_600ms.mp4	17.repeated_touch_with_rolling_pin_short_horvertflip_short_600ms.mp4	308.3935334183549	309.00186474540317	0.6083313270482904				
412.857421875	0.2	845532	177	71	1	0	0	82	331	stimuli\Videos_short_600ms_vertflip\65.stroke_top_to_bottom_with_stanley_knife_short_vertflip_short_600ms.mp4	65.stroke_top_to_bottom_with_stanley_knife_short_vertflip_short_600ms.mp4	309.1935062638613	309.8018487342223	0.6083424703609808				
413.6572265625	0.2	847170	178	71	1	0	0	83	201	stimuli\Videos_short_600ms_horvertflip\29.single_pinch_with_tweezers_short_horvertflip_short_600ms.mp4	29.single_pinch_with_tweezers_short_horvertflip_short_600ms.mp4	309.9935304272551	310.6018330162865	0.608302589031382				
414.45751953125	0.2	848809	179	71	1	0	0	84	274	stimuli\Videos_short_600ms_vertflip\13.single_touch_with_pen_short_vertflip_short_600ms.mp4	13.single_touch_with_pen_short_vertflip_short_600ms.mp4	310.7934598724912	311.4018161253705	0.6083562528792754				
415.25732421875	0.2	850447	180	71	1	0	0	85	7	stimuli\Videos_short_600ms\16.repeated_touch_with_plastic_brush_short_short_600ms.mp4	16.repeated_touch_with_plastic_brush_short_short_600ms.mp4	311.59411949795276	312.20179835471924	0.6076788567664835				
416.05712890625	0.2	852085	181	71	1	0	0	86	171	stimuli\Videos_short_600ms_horflip\83.single_stroke_top_to_bottom_with_cotton_bud_short_horflip_short_600ms.mp4	83.single_stroke_top_to_bottom_with_cotton_bud_short_horflip_short_600ms.mp4	312.394174745324	313.00178263678345	0.6076078914594518				
416.857421875	0.2	853724	182	71	1	0	0	87	106	stimuli\Videos_short_600ms_horflip\24.single_stroke_top_to_bottom_with_a_spoon_short_horflip_short_600ms.mp4	24.single_stroke_top_to_bottom_with_a_spoon_short_horflip_short_600ms.mp4	313.19352796399653	313.80173964705614	0.6082116830596078				
417.6572265625	0.2	855362	183	71	1	0	0	88	255	stimuli\Videos_short_600ms_horvertflip\78.single_stroke_top_to_bottom_with_soft_brush_short_horvertflip_short_600ms.mp4	78.single_stroke_top_to_bottom_with_soft_brush_short_horvertflip_short_600ms.mp4	313.9936395144214	314.60172891428647	0.6080893998650936				
418.45751953125	0.2	857001	184	71	1	0	0	89	276	stimuli\Videos_short_600ms_vertflip\15.single_stroke_top_to_bottom_with_a_plastic_whisk_short_vertflip_short_600ms.mp4	15.single_stroke_top_to_bottom_with_a_plastic_whisk_short_vertflip_short_600ms.mp4	314.7934475561982	315.40169413542117	0.6082465792229641				
419.25732421875	0.2	858639	185	71	1	0	0	90	149	stimuli\Videos_short_600ms_horflip\63.stroke_top_to_bottom_with_screwdriver_short_horflip_short_600ms.mp4	63.stroke_top_to_bottom_with_screwdriver_short_horflip_short_600ms.mp4	315.5934538316427	316.2016875080826	0.6082336764399088				
420.05712890625	0.2	860277	186	71	1	0	0	91	156	stimuli\Videos_short_600ms_horflip\7.repeated_touch_with_hairbrush_short_horflip_short_600ms.mp4	7.repeated_touch_with_hairbrush_short_horflip_short_600ms.mp4	316.39340908244503	317.00169466326224	0.6082855808172098				
420.857421875	0.2	861916	187	71	1	0	0	92	330	stimuli\Videos_short_600ms_vertflip\64.repeated_touch_with_screwdriver_short_vertflip_short_600ms.mp4	64.repeated_touch_with_screwdriver_short_vertflip_short_600ms.mp4	317.19335993457116	317.80167220068984	0.6083122661186735				
421.6572265625	0.2	863554	188	71	1	0	0	93	136	stimuli\Videos_short_600ms_horflip\51.repeated_touch_with_hammer_short_horflip_short_600ms.mp4	51.repeated_touch_with_hammer_short_horflip_short_600ms.mp4	317.9933201705396	318.60164797864707	0.6083278081074468				
422.45703125	0.2	865192	189	71	1	0	0	94	336	stimuli\Videos_short_600ms_vertflip\7.repeated_touch_with_hairbrush_short_vertflip_short_600ms.mp4	7.repeated_touch_with_hairbrush_short_vertflip_short_600ms.mp4	318.79332585949396	319.4016674501197	0.6083415906257414				
423.25732421875	0.2	866831	190	71	1	0	0	95	293	stimuli\Videos_short_600ms_vertflip\30.finger_pulling_back_another_finger_short_vertflip_short_600ms.mp4	30.finger_pulling_back_another_finger_short_vertflip_short_600ms.mp4	319.59330779559764	320.2016273928431	0.6083195972454405				
424.05712890625	0.2	868469	191	71	1	0	0	96	26	stimuli\Videos_short_600ms\33.scratch_top_to_bottom_with_scissors_short_short_600ms.mp4	33.scratch_top_to_bottom_with_scissors_short_short_600ms.mp4	320.3933612834985	321.00162017901437	0.6082588955158599				
424.85693359375	0.2	870107	192	71	1	0	0	97	15	stimuli\Videos_short_600ms\23.single_push_with_a_spoon_short_short_600ms.mp4	23.single_push_with_a_spoon_short_short_600ms.mp4	321.19325847177674	321.80159097180535	0.6083325000286095				
425.6572265625	0.2	871746	193	71	1	0	0	98	129	stimuli\Videos_short_600ms_horflip\45.scratching_with_finger_nails_short_horflip_short_600ms.mp4	45.scratching_with_finger_nails_short_horflip_short_600ms.mp4	321.99324832549735	322.6015787728104	0.6083304473130511	9.0	9.0	2.6603090157902898	1.0
460.63916015625	0.2	943389	194	71	2	0	0	0	24	stimuli\Videos_short_600ms\31.hand_grabbing_wrist_short_short_600ms.mp4	31.hand_grabbing_wrist_short_short_600ms.mp4	356.97581842499835	357.5841623615846	0.608343936586266				
461.439453125	0.2	945028	195	71	2	0	0	1	223	stimuli\Videos_short_600ms_horvertflip\49.repeated_slap_with_hand_short_horvertflip_short_600ms.mp4	49.repeated_slap_with_hand_short_horvertflip_short_600ms.mp4	357.7758651682626	358.3841442976883	0.6082791294256822				
462.2392578125	0.2	946666	196	71	2	0	0	2	119	stimuli\Videos_short_600ms_horflip\36.single_slap_with_full_hand_short_horflip_short_600ms.mp4	36.single_slap_with_full_hand_short_horflip_short_600ms.mp4	358.5758330286028	359.18412682028213	0.6082937916793298				
463.0390625	0.2	948304	197	71	2	0	0	3	303	stimuli\Videos_short_600ms_vertflip\4.repeated_tap_with_finger_slow_short_vertflip_short_600ms.mp4	4.repeated_tap_with_finger_slow_short_vertflip_short_600ms.mp4	359.37577801582756	359.98411080910125	0.6083327932736893				
463.83935546875	0.2	949943	198	71	2	0	0	4	297	stimuli\Videos_short_600ms_vertflip\34.repeated_punch_with_hand_short_vertflip_short_600ms.mp4	34.repeated_punch_with_hand_short_vertflip_short_600ms.mp4	360.17577050875377	360.784092745205	0.6083222364511585				
464.63916015625	0.2	951581	199	71	2	0	0	5	294	stimuli\Videos_short_600ms_vertflip\31.hand_grabbing_wrist_short_vertflip_short_600ms.mp4	31.hand_grabbing_wrist_short_vertflip_short_600ms.mp4	360.9757615354547	361.5840740948185	0.6083125593637533				
465.43896484375	0.2	953219	200	71	2	0	0	6	62	stimuli\Videos_short_600ms\66.stroke_top_to_bottom_with_sponge_short_short_600ms.mp4	66.stroke_top_to_bottom_with_sponge_short_short_600ms.mp4	361.77570652267946	362.3840577903925	0.6083512677130329				
466.2392578125	0.2	954858	201	71	2	0	0	7	9	stimuli\Videos_short_600ms\18.single_stroke_from_top_to_bottom_with_rolling_pin_short_short_600ms.mp4	18.single_stroke_from_top_to_bottom_with_rolling_pin_short_short_600ms.mp4	362.5756820073915	363.18404295219193	0.6083609448004381				
467.0390625	0.2	956496	202	71	2	0	0	8	83	stimuli\Videos_short_600ms\85.touch_top_to_bottom_with_fabric_short_short_600ms.mp4	85.touch_top_to_bottom_with_fabric_short_short_600ms.mp4	363.3756950274727	363.98402547478577	0.6083304473130511				
467.8388671875	0.2	958134	203	71	2	0	0	9	307	stimuli\Videos_short_600ms_vertflip\43.touch_top_to_bottom_with_sharp_wooden_stick_short_vertflip_short_600ms.mp4	43.touch_top_to_bottom_with_sharp_wooden_stick_short_vertflip_short_600ms.mp4	364.175767283058	364.78400887711473	0.6082415940567216				
468.63916015625	0.2	959773	204	71	2	0	0	10	204	stimuli\Videos_short_600ms_horvertflip\31.hand_grabbing_wrist_short_horvertflip_short_600ms.mp4	31.hand_grabbing_wrist_short_horvertflip_short_600ms.mp4	364.975896428187	365.5839673536128	0.6080709254257499				
469.43896484375	0.2	961411	205	71	2	0	0	11	39	stimuli\Videos_short_600ms\45.scratching_with_finger_nails_short_short_600ms.mp4	45.scratching_with_finger_nails_short_short_600ms.mp4	365.77565139260616	366.3839489964714	0.6082976038652532				
470.23876953125	0.2	963049	206	71	2	0	0	12	207	stimuli\Videos_short_600ms_horvertflip\34.repeated_punch_with_hand_short_horvertflip_short_600ms.mp4	34.repeated_punch_with_hand_short_horvertflip_short_600ms.mp4	366.5756567883154	367.1839212554877	0.6082644671722619				
471.0390625	0.2	964688	207	71	2	0	0	13	162	stimuli\Videos_short_600ms_horflip\75.(long)stroke_with_fingers_all_over_the_hand_short_horflip_short_600ms.mp4	75.(long)stroke_with_fingers_all_over_the_hand_short_horflip_short_600ms.mp4	367.3756167310388	367.9839149213942	0.6082981903554128				
471.8388671875	0.2	966326	208	71	2	0	0	14	22	stimuli\Videos_short_600ms\3.single_push_with_finger_short_short_600ms.mp4	3.single_push_with_finger_short_short_600ms.mp4	368.1756001333679	368.7839074143204	0.6083072809525447				
472.638671875	0.2	967964	209	71	2	0	0	15	70	stimuli\Videos_short_600ms\73.single_stroke_with_flat_hand_short_short_600ms.mp4	73.single_stroke_with_flat_hand_short_short_600ms.mp4	368.9755905735786	369.58389668155087	0.6083061079723393				
473.43896484375	0.2	969603	210	71	2	0	0	16	34	stimuli\Videos_short_600ms\40.repeated_push_with_finger_short_short_600ms.mp4	40.repeated_push_with_finger_short_short_600ms.mp4	369.77563614386247	370.3838915204376	0.60825537657513				
474.23876953125	0.2	971241	211	71	2	0	0	17	158	stimuli\Videos_short_600ms_horflip\71.single_stroke_with_finger_top_to_bottom_short_horflip_short_600ms.mp4	71.single_stroke_with_finger_top_to_bottom_short_horflip_short_600ms.mp4	370.5756259975831	371.1838702308454	0.6082442332623259				
475.03857421875	0.2	972879	212	71	2	0	0	18	139	stimuli\Videos_short_600ms_horflip\54.repeated_touch_with_knife_short_horflip_short_600ms.mp4	54.repeated_touch_with_knife_short_horflip_short_600ms.mp4	371.3755396075853	371.9838638967519	0.6083242891666032				
475.8388671875	0.2	974518	213	71	2	0	0	19	283	stimuli\Videos_short_600ms_vertflip\21.repeated_touch_with_metal_chopstick_short_vertflip_short_600ms.mp4	21.repeated_touch_with_metal_chopstick_short_vertflip_short_600ms.mp4	372.1754740379875	372.7838338098077	0.608359771820119				
476.638671875	0.2	976156	214	71	2	0	0	20	327	stimuli\Videos_short_600ms_vertflip\61.single_hit_with_rolling_pin_short_vertflip_short_600ms.mp4	61.single_hit_with_rolling_pin_short_vertflip_short_600ms.mp4	372.975475914756	373.5838180918719	0.608342177115901				
477.4384765625	0.2	977794	215	71	2	0	0	21	75	stimuli\Videos_short_600ms\78.single_stroke_top_to_bottom_with_soft_brush_short_short_600ms.mp4	78.single_stroke_top_to_bottom_with_soft_brush_short_short_600ms.mp4	373.7754596103302	374.38380413340656	0.6083445230764255				
478.23876953125	0.2	979433	216	71	2	0	0	22	8	stimuli\Videos_short_600ms\17.repeated_touch_with_rolling_pin_short_short_600ms.mp4	17.repeated_touch_with_rolling_pin_short_short_600ms.mp4	374.5754541559718	375.1837857762651	0.6083316202933702				
479.03857421875	0.2	981071	217	71	2	0	0	23	285	stimuli\Videos_short_600ms_vertflip\23.single_push_with_a_spoon_short_vertflip_short_600ms.mp4	23.single_push_with_a_spoon_short_vertflip_short_600ms.mp4	375.3754794923459	375.9837694718392	0.6082899794932928				
479.8388671875	0.2	982710	218	71	2	0	0	24	68	stimuli\Videos_short_600ms\71.single_stroke_with_finger_top_to_bottom_short_short_600ms.mp4	71.single_stroke_with_finger_top_to_bottom_short_short_600ms.mp4	376.1754570297735	376.7837496484725	0.6082926186990107				
480.638671875	0.2	984348	219	71	2	0	0	25	238	stimuli\Videos_short_600ms_horvertflip\62.touch_top_to_bottom_with_scissors_short_horvertflip_short_600ms.mp4	62.touch_top_to_bottom_with_scissors_short_horvertflip_short_600ms.mp4	376.97537034653067	377.58373070484095	0.6083603583102786				
481.4384765625	0.2	985986	220	71	2	0	0	26	282	stimuli\Videos_short_600ms_vertflip\20.single_touch_with_screwdriver_short_vertflip_short_600ms.mp4	20.single_touch_with_screwdriver_short_vertflip_short_600ms.mp4	377.7753871787977	378.3837167463755	0.6083295675778118				
482.23876953125	0.2	987625	221	71	2	0	0	27	155	stimuli\Videos_short_600ms_horflip\69.stroke_with_soft_sock_short_horflip_short_600ms.mp4	69.stroke_with_soft_sock_short_horflip_short_600ms.mp4	378.5753650094704	379.1837001487046	0.6083351392342138				
483.03857421875	0.2	989263	222	71	2	0	0	28	317	stimuli\Videos_short_600ms_vertflip\52.touch_top_to_bottom_with_hammer_short_vertflip_short_600ms.mp4	52.touch_top_to_bottom_with_hammer_short_vertflip_short_600ms.mp4	379.3753413739177	379.98366419685897	0.608322822941318				
483.83837890625	0.2	990901	223	71	2	0	0	29	153	stimuli\Videos_short_600ms_horflip\67.single_touch_with_sponge_short_horflip_short_600ms.mp4	67.single_touch_with_sponge_short_horflip_short_600ms.mp4	380.1753514615481	380.7836549303147	0.6083034687666213				
484.638671875	0.2	992540	224	71	2	0	0	30	121	stimuli\Videos_short_600ms_horflip\38.double_slap_with_pencil_short_horflip_short_600ms.mp4	38.double_slap_with_pencil_short_horflip_short_600ms.mp4	380.9753380895729	381.5836251366155	0.6082870470426087				
485.4384765625	0.2	994178	225	71	2	0	0	31	299	stimuli\Videos_short_600ms_vertflip\36.single_slap_with_full_hand_short_vertflip_short_600ms.mp4	36.single_slap_with_full_hand_short_vertflip_short_600ms.mp4	381.77530243097226	382.3835850793389	0.6082826483666395				
486.23828125	0.2	995816	226	71	2	0	0	32	50	stimuli\Videos_short_600ms\55.touch_top_to_bottom_with_nail_file_short_short_600ms.mp4	55.touch_top_to_bottom_with_nail_file_short_short_600ms.mp4	382.57538436364496	383.18358402365664	0.6081996600116781				
487.03857421875	0.2	997455	227	71	2	0	0	33	144	stimuli\Videos_short_600ms_horflip\59.single_push_with_long_side_pencil_short_horflip_short_600ms.mp4	59.single_push_with_long_side_pencil_short_horflip_short_600ms.mp4	383.37531527510635	383.9835765165829	0.6082612414764981				
487.83837890625	0.2	999093	228	71	2	0	0	34	326	stimuli\Videos_short_600ms_vertflip\60.single_push_with_tip_of_pencil_short_vertflip_short_600ms.mp4	60.single_push_with_tip_of_pencil_short_vertflip_short_600ms.mp4	384.1753376790298	384.78355933242176	0.6082216533919791				
488.63818359375	0.2	1000731	229	71	2	0	0	35	346	stimuli\Videos_short_600ms_vertflip\79.long_with_soft_brush_all_over_the_hand_short_vertflip_short_600ms.mp4	79.long_with_soft_brush_all_over_the_hand_short_vertflip_short_600ms.mp4	384.97581695877295	385.5835717660127	0.6077548072397576				
489.4384765625	0.2	1002370	230	71	2	0	0	36	46	stimuli\Videos_short_600ms\51.repeated_touch_with_hammer_short_short_600ms.mp4	51.repeated_touch_with_hammer_short_short_600ms.mp4	385.77520771281456	386.3835440250291	0.6083363122145329				
490.23828125	0.2	1004008	231	71	2	0	0	37	35	stimuli\Videos_short_600ms\41.injection_with_blunt_syringe_short_short_600ms.mp4	41.injection_with_blunt_syringe_short_short_600ms.mp4	386.5753368579436	387.1835365179553	0.6081996600116781				
491.0380859375	0.2	1005646	232	71	2	0	0	38	295	stimuli\Videos_short_600ms_vertflip\32.single_(long)pinch_with_fingers_short_vertflip_short_600ms.mp4	32.single_(long)pinch_with_fingers_short_vertflip_short_600ms.mp4	387.3751868337655	387.98350936346174	0.6083225296962382				
491.83837890625	0.2	1007285	233	71	2	0	0	39	192	stimuli\Videos_short_600ms_horvertflip\20.single_touch_with_screwdriver_short_horvertflip_short_600ms.mp4	20.single_touch_with_screwdriver_short_horvertflip_short_600ms.mp4	388.17515938602696	388.78349364552594	0.6083342594989745				
492.63818359375	0.2	1008923	234	71	2	0	0	40	234	stimuli\Videos_short_600ms_horvertflip\59.single_push_with_long_side_pencil_short_horvertflip_short_600ms.mp4	59.single_push_with_long_side_pencil_short_horvertflip_short_600ms.mp4	388.9751867751165	389.58347646136485	0.6082896862483267				
493.43798828125	0.2	1010561	235	71	2	0	0	41	66	stimuli\Videos_short_600ms\7.repeated_touch_with_hairbrush_short_short_600ms.mp4	7.repeated_touch_with_hairbrush_short_short_600ms.mp4	389.77518425320886	390.38346074342905	0.6082764902201916				
494.23828125	0.2	1012200	236	71	2	0	0	42	95	stimuli\Videos_short_600ms_horflip\14.repeated_touch_with_pencil_short_horflip_short_600ms.mp4	14.repeated_touch_with_pencil_short_horflip_short_600ms.mp4	390.57550283465343	391.1834397470821	0.6079369124286131				
495.0380859375	0.2	1013838	237	71	2	0	0	43	222	stimuli\Videos_short_600ms_horvertflip\48.single_slap_with_hand_short_horvertflip_short_600ms.mp4	48.single_slap_with_hand_short_horvertflip_short_600ms.mp4	391.3752621977486	391.98342402914625	0.6081618313976378				
495.837890625	0.2	1015476	238	71	2	0	0	44	300	stimuli\Videos_short_600ms_vertflip\37.single_stab_with_nail_file_short_vertflip_short_600ms.mp4	37.single_stab_with_nail_file_short_vertflip_short_600ms.mp4	392.1750863680044	392.7834130031316	0.6083266351272414				
496.63818359375	0.2	1017115	239	71	2	0	0	45	230	stimuli\Videos_short_600ms_horvertflip\55.touch_top_to_bottom_with_nail_file_short_horvertflip_short_600ms.mp4	55.touch_top_to_bottom_with_nail_file_short_horvertflip_short_600ms.mp4	392.9750260768179	393.58338995406905	0.6083638772511222				
497.43798828125	0.2	1018753	240	71	2	0	0	46	107	stimuli\Videos_short_600ms_horflip\25.single_touch_with_stanley_knife_short_horflip_short_600ms.mp4	25.single_touch_with_stanley_knife_short_horflip_short_600ms.mp4	393.77501006563705	394.3833545887135	0.6083445230764255				
498.23779296875	0.2	1020391	241	71	2	0	0	47	78	stimuli\Videos_short_600ms\80.stroke_with_sharp_stick_all_over_the_hand_short_short_600ms.mp4	80.stroke_with_sharp_stick_all_over_the_hand_short_short_600ms.mp4	394.5750524102252	395.18332860720034	0.6082761969751118				
499.0380859375	0.2	1022030	242	71	2	0	0	48	356	stimuli\Videos_short_600ms_vertflip\88.repeated_stroke_with_plastic_brush_short_vertflip_short_600ms.mp4	88.repeated_stroke_with_plastic_brush_short_vertflip_short_600ms.mp4	395.3751252523007	395.9832926553546	0.6081674030539261				
499.837890625	0.2	1023668	243	71	2	0	0	49	268	stimuli\Videos_short_600ms_horvertflip\9.single_touch_with_hammer_short_horvertflip_short_600ms.mp4	9.single_touch_with_hammer_short_horvertflip_short_600ms.mp4	396.1754277052664	396.7832769374189	0.6078492321524891				
500.63818359375	0.2	1025307	244	71	2	0	0	50	93	stimuli\Videos_short_600ms_horflip\12.repeated_touch_with_nail_file_short_horflip_short_600ms.mp4	12.repeated_touch_with_nail_file_short_horflip_short_600ms.mp4	396.9753325179165	397.5832588735225	0.6079263556059686				
501.43798828125	0.2	1026945	245	71	2	0	0	51	202	stimuli\Videos_short_600ms_horvertflip\3.single_push_with_finger_short_horvertflip_short_600ms.mp4	3.single_push_with_finger_short_horvertflip_short_600ms.mp4	397.77505845107373	398.38326690843746	0.6082084573637303				
502.23779296875	0.2	1028583	246	71	2	0	0	52	200	stimuli\Videos_short_600ms_horvertflip\28.single_injection_with_sharp_needle_short_horvertflip_short_600ms.mp4	28.single_injection_with_sharp_needle_short_horvertflip_short_600ms.mp4	398.57494772173504	399.1832547094425	0.6083069877074649				
503.0380859375	0.2	1030222	247	71	2	0	0	53	218	stimuli\Videos_short_600ms_horvertflip\44.pushing_top_to_bottom_with_finger_short_horvertflip_short_600ms.mp4	44.pushing_top_to_bottom_with_finger_short_horvertflip_short_600ms.mp4	399.37490883743874	399.98324397667295	0.6083351392342138				
503.837890625	0.2	1031860	248	71	2	0	0	54	2	stimuli\Videos_short_600ms\11.single_touch_with_lighter_short_short_600ms.mp4	11.single_touch_with_lighter_short_short_600ms.mp4	400.17491481963816	400.7832429209907	0.6083281013525266				
504.6376953125	0.2	1033498	249	71	2	0	0	55	33	stimuli\Videos_short_600ms\4.repeated_tap_with_finger_slow_short_short_600ms.mp4	4.repeated_tap_with_finger_slow_short_short_600ms.mp4	400.9748988084573	401.5832201651732	0.6083213567159191				
505.43798828125	0.2	1035137	250	71	2	0	0	56	20	stimuli\Videos_short_600ms\28.single_injection_with_sharp_needle_short_short_600ms.mp4	28.single_injection_with_sharp_needle_short_short_600ms.mp4	401.7748596309159	402.3832070864431	0.6083474555272232				
506.23779296875	0.2	1036775	251	71	2	0	0	57	183	stimuli\Videos_short_600ms_horvertflip\12.repeated_touch_with_nail_file_short_horvertflip_short_600ms.mp4	12.repeated_touch_with_nail_file_short_horvertflip_short_600ms.mp4	402.57486268066464	403.18318169142	0.6083190107553946				
507.03759765625	0.2	1038413	252	71	2	0	0	58	288	stimuli\Videos_short_600ms_vertflip\26.single_touch_with_a_blunt_syringe_short_vertflip_short_600ms.mp4	26.single_touch_with_a_blunt_syringe_short_vertflip_short_600ms.mp4	403.3748677831288	403.9831653869941	0.6082976038652532				
507.837890625	0.2	1040052	253	71	2	0	0	59	354	stimuli\Videos_short_600ms_vertflip\86.touch_top_to_bottom_with_hair_brush_short_vertflip_short_600ms.mp4	86.touch_top_to_bottom_with_hair_brush_short_vertflip_short_600ms.mp4	404.17489165327754	404.7831476163428	0.6082559630652895				
508.6376953125	0.2	1041690	254	71	2	0	0	60	339	stimuli\Videos_short_600ms_vertflip\72.(short)stroke_with_finger_all_over_the_hand_short_vertflip_short_600ms.mp4	72.(short)stroke_with_finger_all_over_the_hand_short_vertflip_short_600ms.mp4	404.9747996916235	405.5831313119169	0.6083316202933702				
509.4375	0.2	1043328	255	71	2	0	0	61	190	stimuli\Videos_short_600ms_horvertflip\19.single_touch_with_rolling_pin_short_horvertflip_short_600ms.mp4	19.single_touch_with_rolling_pin_short_horvertflip_short_600ms.mp4	405.7747707776596	406.3831141277558	0.6083433500962201				
510.23779296875	0.2	1044967	256	71	2	0	0	62	97	stimuli\Videos_short_600ms_horflip\16.repeated_touch_with_plastic_brush_short_horflip_short_600ms.mp4	16.repeated_touch_with_plastic_brush_short_horflip_short_600ms.mp4	406.5747656165463	407.18309723683967	0.6083316202933702				
511.03759765625	0.2	1046605	257	71	2	0	0	63	103	stimuli\Videos_short_600ms_horflip\21.repeated_touch_with_metal_chopstick_short_horflip_short_600ms.mp4	21.repeated_touch_with_metal_chopstick_short_horflip_short_600ms.mp4	407.37475048510066	407.98308063916863	0.6083301540679713				
511.83740234375	0.2	1048243	258	71	2	0	0	64	321	stimuli\Videos_short_600ms_vertflip\56.repeated_touch_with_nail_file_short_vertflip_short_600ms.mp4	56.repeated_touch_with_nail_file_short_vertflip_short_600ms.mp4	408.17471277378456	408.78306492123295	0.608352147448386				
512.6376953125	0.2	1049882	259	71	2	0	0	65	194	stimuli\Videos_short_600ms_horvertflip\22.single_touch_with_metal_chopstick_short_horvertflip_short_600ms.mp4	22.single_touch_with_metal_chopstick_short_horvertflip_short_600ms.mp4	408.97472080869954	409.5830468573366	0.6083260486370818				
513.4375	0.2	1051520	260	71	2	0	0	66	280	stimuli\Videos_short_600ms_vertflip\19.single_touch_with_rolling_pin_short_vertflip_short_600ms.mp4	19.single_touch_with_rolling_pin_short_vertflip_short_600ms.mp4	409.77470655698914	410.38303055291067	0.6083239959215234				
514.2373046875	0.2	1053158	261	71	2	0	0	67	42	stimuli\Videos_short_600ms\48.single_slap_with_hand_short_short_600ms.mp4	48.single_slap_with_hand_short_short_600ms.mp4	410.57473042713787	411.18300251868186	0.608272091543995				
515.03759765625	0.2	1054797	262	71	2	0	0	68	102	stimuli\Videos_short_600ms_horflip\20.single_touch_with_screwdriver_short_horflip_short_600ms.mp4	20.single_touch_with_screwdriver_short_horflip_short_600ms.mp4	411.3746783468133	411.98295278431794	0.6082744375046332				
515.83740234375	0.2	1056435	263	71	2	0	0	69	63	stimuli\Videos_short_600ms\67.single_touch_with_sponge_short_short_600ms.mp4	67.single_touch_with_sponge_short_short_600ms.mp4	412.1746406354972	412.7829323744611	0.6082917389638851				
516.63720703125	0.2	1058073	264	71	2	0	0	70	286	stimuli\Videos_short_600ms_vertflip\24.single_stroke_top_to_bottom_with_a_spoon_short_vertflip_short_600ms.mp4	24.single_stroke_top_to_bottom_with_a_spoon_short_vertflip_short_600ms.mp4	412.9746389933249	413.5829234011619	0.6082844078370044				
517.4375	0.2	1059712	265	71	2	0	0	71	138	stimuli\Videos_short_600ms_horflip\53.touch_top_to_bottom_with_knife_short_horflip_short_600ms.mp4	53.touch_top_to_bottom_with_knife_short_horflip_short_600ms.mp4	413.77461007936097	414.38292351846	0.6083134390989926				
518.2373046875	0.2	1061350	266	71	2	0	0	72	237	stimuli\Videos_short_600ms_horvertflip\61.single_hit_with_rolling_pin_short_horvertflip_short_600ms.mp4	61.single_hit_with_rolling_pin_short_horvertflip_short_600ms.mp4	414.5746623942815	415.1829089735045	0.6082465792229641				
519.037109375	0.2	1062988	267	71	2	0	0	73	146	stimuli\Videos_short_600ms_horflip\60.single_push_with_tip_of_pencil_short_horflip_short_600ms.mp4	60.single_push_with_tip_of_pencil_short_horflip_short_600ms.mp4	415.3746493155513	415.98291700841935	0.6082676928680257				
519.83740234375	0.2	1064627	268	71	2	0	0	74	353	stimuli\Videos_short_600ms_vertflip\85.touch_top_to_bottom_with_fabric_short_vertflip_short_600ms.mp4	85.touch_top_to_bottom_with_fabric_short_vertflip_short_600ms.mp4	416.1745775878071	416.78289307962166	0.608315491814551				
520.63720703125	0.2	1066265	269	71	2	0	0	75	347	stimuli\Videos_short_600ms_vertflip\8.single_touch_with_hairbrush_short_vertflip_short_600ms.mp4	8.single_touch_with_hairbrush_short_vertflip_short_600ms.mp4	416.97459588629954	417.5828767751957	0.6082808888961608				
521.4375	0.2	1067904	270	71	2	0	1	76	374	stimuli\Targets_short_600ms_horvertflip\chopstickwood-tap_short_vertflip_short_600ms.mp4	chopstickwood-tap_short_vertflip_short_600ms.mp4	417.7747634465328	418.3828595910346	0.6080961445018147				
522.2373046875	0.2	1069542	271	71	2	0	0	77	4	stimuli\Videos_short_600ms\13.single_touch_with_pen_short_short_600ms.mp4	13.single_touch_with_pen_short_short_600ms.mp4	418.57461547507023	419.1828388879326	0.608223412862344				
523.037109375	0.2	1071180	272	71	2	0	0	78	166	stimuli\Videos_short_600ms_horflip\79.long_with_soft_brush_all_over_the_hand_short_horflip_short_600ms.mp4	79.long_with_soft_brush_all_over_the_hand_short_horflip_short_600ms.mp4	419.37448275235135	419.9828219970166	0.6083392446652169				
523.83740234375	0.2	1072819	273	71	2	0	0	79	310	stimuli\Videos_short_600ms_vertflip\46.scratching_top_to_bottom_with_finger_nails_short_vertflip_short_600ms.mp4	46.scratching_top_to_bottom_with_finger_nails_short_vertflip_short_600ms.mp4	420.1745069157451	420.7828056925906	0.6082987768454586				
524.63720703125	0.2	1074457	274	71	2	0	0	80	10	stimuli\Videos_short_600ms\19.single_touch_with_rolling_pin_short_short_600ms.mp4	19.single_touch_with_rolling_pin_short_short_600ms.mp4	420.97488267997846	421.58278674895905	0.6079040689805879				
525.43701171875	0.2	1076095	275	71	2	0	0	81	112	stimuli\Videos_short_600ms_horflip\3.single_push_with_finger_short_horflip_short_600ms.mp4	3.single_push_with_finger_short_horflip_short_600ms.mp4	421.7744212295355	422.3827704445331	0.6083492149975882				
526.2373046875	0.2	1077734	276	71	2	0	0	82	72	stimuli\Videos_short_600ms\75.(long)stroke_with_fingers_all_over_the_hand_short_short_600ms.mp4	75.(long)stroke_with_fingers_all_over_the_hand_short_short_600ms.mp4	422.5743931953068	423.1827520873917	0.6083588920848797				
527.037109375	0.2	1079372	277	71	2	0	0	83	233	stimuli\Videos_short_600ms_horvertflip\58.single_slap_with_pencil_short_horvertflip_short_600ms.mp4	58.single_slap_with_pencil_short_horvertflip_short_600ms.mp4	423.37444433724704	423.98273842217145	0.6082940849244096				
527.8369140625	0.2	1081010	278	71	2	0	0	84	199	stimuli\Videos_short_600ms_horvertflip\27.single_push_with_a_plastic_whisk_short_horvertflip_short_600ms.mp4	27.single_push_with_a_plastic_whisk_short_horvertflip_short_600ms.mp4	424.1743884447367	424.7826801837005	0.6082917389637714				
528.63720703125	0.2	1082649	279	71	2	0	0	85	290	stimuli\Videos_short_600ms_vertflip\28.single_injection_with_sharp_needle_short_vertflip_short_600ms.mp4	28.single_injection_with_sharp_needle_short_vertflip_short_600ms.mp4	424.9743645159389	425.58268352669427	0.6083190107553946				
529.43701171875	0.2	1084287	280	71	2	0	1	86	371	stimuli\Targets_short_600ms_horflip\hand-stroke_short_horflip_short_600ms.mp4	hand-stroke_short_horflip_short_600ms.mp4	425.7743502642285	426.3826496275641	0.6082993633356182				
530.23681640625	0.2	1085925	281	71	2	0	0	87	170	stimuli\Videos_short_600ms_horflip\82.repeated_touch_with_cotton_bud_short_horflip_short_600ms.mp4	82.repeated_touch_with_cotton_bud_short_horflip_short_600ms.mp4	426.5743533139772	427.18262335280576	0.6082700388285502				
531.037109375	0.2	1087564	282	71	2	0	0	88	259	stimuli\Videos_short_600ms_horvertflip\81.single_stroke_top_to_bottom_with_cotton_pad_short_horvertflip_short_600ms.mp4	81.single_stroke_top_to_bottom_with_cotton_pad_short_horvertflip_short_600ms.mp4	427.3743367163062	427.9826061686447	0.6082694523385044				
531.8369140625	0.2	1089202	283	71	2	0	0	89	82	stimuli\Videos_short_600ms\84.single_touch_with_cotton_bud_short_short_600ms.mp4	84.single_touch_with_cotton_bud_short_short_600ms.mp4	428.174356481024	428.7825960223652	0.6082395413411632				
532.63671875	0.2	1090840	284	71	2	0	0	90	140	stimuli\Videos_short_600ms_horflip\55.touch_top_to_bottom_with_nail_file_short_horflip_short_600ms.mp4	55.touch_top_to_bottom_with_nail_file_short_horflip_short_600ms.mp4	428.9743604105078	429.58259584641814	0.6082354359102737				
533.43701171875	0.2	1092479	285	71	2	0	0	91	278	stimuli\Videos_short_600ms_vertflip\17.repeated_touch_with_rolling_pin_short_vertflip_short_600ms.mp4	17.repeated_touch_with_rolling_pin_short_vertflip_short_600ms.mp4	429.774277832696	430.3826009488824	0.6083231161863978	2.0	2.0	1.9579697705386252	1.0
570.935546875	0.2	1169276	286	71	3	0	0	0	164	stimuli\Videos_short_600ms_horflip\77.tapping_with_all_fingers_short_horflip_short_600ms.mp4	77.tapping_with_all_fingers_short_horflip_short_600ms.mp4	467.2734501484847	467.8817873404344	0.6083371919496585				
571.73583984375	0.2	1170915	287	71	3	0	0	1	87	stimuli\Videos_short_600ms\89.single_touch_with_plastic_brush_short_short_600ms.mp4	89.single_touch_with_plastic_brush_short_short_600ms.mp4	468.0734083317376	468.6817713292535	0.6083629975158829				
572.53564453125	0.2	1172553	288	71	3	0	0	2	308	stimuli\Videos_short_600ms_vertflip\44.pushing_top_to_bottom_with_finger_short_vertflip_short_600ms.mp4	44.pushing_top_to_bottom_with_finger_short_vertflip_short_600ms.mp4	468.8734201788384	469.4817520923768	0.60833191353845				
573.33544921875	0.2	1174191	289	71	3	0	0	3	345	stimuli\Videos_short_600ms_vertflip\78.single_stroke_top_to_bottom_with_soft_brush_short_vertflip_short_600ms.mp4	78.single_stroke_top_to_bottom_with_soft_brush_short_vertflip_short_600ms.mp4	469.67343143944913	470.2816988390721	0.608267399622946				
574.1357421875	0.2	1175830	290	71	3	0	0	4	51	stimuli\Videos_short_600ms\56.repeated_touch_with_nail_file_short_short_600ms.mp4	56.repeated_touch_with_nail_file_short_short_600ms.mp4	470.4734465122458	471.08172505518144	0.6082785429356363				
574.935546875	0.2	1177468	291	71	3	0	0	5	48	stimuli\Videos_short_600ms\53.touch_top_to_bottom_with_knife_short_short_600ms.mp4	53.touch_top_to_bottom_with_knife_short_short_600ms.mp4	471.2733841683438	471.8816782532681	0.6082940849242959				
575.7353515625	0.2	1179106	292	71	3	0	0	6	71	stimuli\Videos_short_600ms\74.fingers_walking_from_top_to_bottom_short_short_600ms.mp4	74.fingers_walking_from_top_to_bottom_short_short_600ms.mp4	472.07337343557424	472.68163995546195	0.6082665198877066				
576.53564453125	0.2	1180745	293	71	3	0	1	7	367	stimuli\Targets_short_600ms_horflip\chopstick-silver-tap_short_horflip_short_600ms.mp4	chopstick-silver-tap_short_horflip_short_600ms.mp4	472.87334657432575	473.4816623593854	0.6083157850596308				
577.33544921875	0.2	1182383	294	71	3	0	0	8	160	stimuli\Videos_short_600ms_horflip\73.single_stroke_with_flat_hand_short_horflip_short_600ms.mp4	73.single_stroke_with_flat_hand_short_horflip_short_600ms.mp4	473.6733273374491	474.2816258210496	0.6082984836004925				
578.13525390625	0.2	1184021	295	71	3	0	0	9	227	stimuli\Videos_short_600ms_horvertflip\52.touch_top_to_bottom_with_hammer_short_horvertflip_short_600ms.mp4	52.touch_top_to_bottom_with_hammer_short_horvertflip_short_600ms.mp4	474.4733503278627	475.0816186072208	0.6082682793580716				
578.935546875	0.2	1185660	296	71	3	0	0	10	338	stimuli\Videos_short_600ms_vertflip\71.single_stroke_with_finger_top_to_bottom_short_vertflip_short_600ms.mp4	71.single_stroke_with_finger_top_to_bottom_short_vertflip_short_600ms.mp4	475.2733920859607	475.8815958514033	0.6082037654425676				
579.7353515625	0.2	1187298	297	71	3	0	0	11	342	stimuli\Videos_short_600ms_vertflip\75.(long)stroke_with_fingers_all_over_the_hand_short_vertflip_short_600ms.mp4	75.(long)stroke_with_fingers_all_over_the_hand_short_vertflip_short_600ms.mp4	476.0733092149038	476.6816006606225	0.6082914457186916				
580.53515625	0.2	1188936	298	71	3	0	0	12	215	stimuli\Videos_short_600ms_horvertflip\41.injection_with_blunt_syringe_short_horvertflip_short_600ms.mp4	41.injection_with_blunt_syringe_short_horvertflip_short_600ms.mp4	476.87325302914826	477.4815881683825	0.6083351392342138				
581.33544921875	0.2	1190575	299	71	3	0	0	13	319	stimuli\Videos_short_600ms_vertflip\54.repeated_touch_with_knife_short_vertflip_short_600ms.mp4	54.repeated_touch_with_knife_short_vertflip_short_600ms.mp4	477.6734980060802	478.28158593972	0.6080879336398084				
582.13525390625	0.2	1192213	300	71	3	0	0	14	264	stimuli\Videos_short_600ms_horvertflip\86.touch_top_to_bottom_with_hair_brush_short_horvertflip_short_600ms.mp4	86.touch_top_to_bottom_with_hair_brush_short_horvertflip_short_600ms.mp4	478.473226871688	479.0815599582067	0.608333086518769				
582.93505859375	0.2	1193851	301	71	3	0	0	15	91	stimuli\Videos_short_600ms_horflip\10.single_touch_with_knife_short_horflip_short_600ms.mp4	10.single_touch_with_knife_short_horflip_short_600ms.mp4	479.273206461831	479.8815336834484	0.6083272216174009				
583.7353515625	0.2	1195490	302	71	3	0	0	16	47	stimuli\Videos_short_600ms\52.touch_top_to_bottom_with_hammer_short_short_600ms.mp4	52.touch_top_to_bottom_with_hammer_short_short_600ms.mp4	480.07319338310094	480.68151210061126	0.6083187175103149				
584.53515625	0.2	1197128	303	71	3	0	0	17	241	stimuli\Videos_short_600ms_horvertflip\65.stroke_top_to_bottom_with_stanley_knife_short_horvertflip_short_600ms.mp4	65.stroke_top_to_bottom_with_stanley_knife_short_horvertflip_short_600ms.mp4	480.873177078675	481.4814934502248	0.6083163715497903				
585.3349609375	0.2	1198766	304	71	3	0	0	18	244	stimuli\Videos_short_600ms_horvertflip\68.stroke_top_to_bottom_with_shawl_short_horvertflip_short_600ms.mp4	68.stroke_top_to_bottom_with_shawl_short_horvertflip_short_600ms.mp4	481.6731431795449	482.28150265812	0.6083594785750392				
586.13525390625	0.2	1200405	305	71	3	0	0	19	94	stimuli\Videos_short_600ms_horflip\13.single_touch_with_pen_short_horflip_short_600ms.mp4	13.single_touch_with_pen_short_horflip_short_600ms.mp4	482.4731878700936	483.0814840077335	0.6082961376398544				
586.93505859375	0.2	1202043	306	71	3	0	0	20	122	stimuli\Videos_short_600ms_horflip\39.single_stab_with_scissors_short_horflip_short_600ms.mp4	39.single_stab_with_scissors_short_horflip_short_600ms.mp4	483.273110570693	483.8814586127104	0.6083480420173828				
587.73486328125	0.2	1203681	307	71	3	0	1	21	380	stimuli\Targets_short_600ms_vertflip\chopstickwood-tap_short_horvertflip_short_600ms.mp4	chopstickwood-tap_short_horvertflip_short_600ms.mp4	484.07306112957417	484.68143116497174	0.6083700353975701				
588.53515625	0.2	1205320	308	71	3	0	0	22	57	stimuli\Videos_short_600ms\61.single_hit_with_rolling_pin_short_short_600ms.mp4	61.single_hit_with_rolling_pin_short_short_600ms.mp4	484.8730462913736	485.48141427405574	0.6083679826821253				
589.3349609375	0.2	1206958	309	71	3	0	0	23	337	stimuli\Videos_short_600ms_vertflip\70.(long)stroke_with_finger_all_over_the_hand_short_vertflip_short_600ms.mp4	70.(long)stroke_with_finger_all_over_the_hand_short_vertflip_short_600ms.mp4	485.6730628303956	486.2813850668467	0.6083222364511585				
590.13525390625	0.2	1208597	310	71	3	0	0	24	85	stimuli\Videos_short_600ms\87.single_stroke_top_to_bottom_with_plastic_brush_short_short_600ms.mp4	87.single_stroke_top_to_bottom_with_plastic_brush_short_short_600ms.mp4	486.473031570471	487.0813637772545	0.6083322067835297				
590.93505859375	0.2	1210235	311	71	3	0	0	25	198	stimuli\Videos_short_600ms_horvertflip\26.single_touch_with_a_blunt_syringe_short_horvertflip_short_600ms.mp4	26.single_touch_with_a_blunt_syringe_short_horvertflip_short_600ms.mp4	487.2730281688282	487.8813375024963	0.6083093336681031				
591.73486328125	0.2	1211873	312	71	3	0	0	26	304	stimuli\Videos_short_600ms_vertflip\40.repeated_push_with_finger_short_vertflip_short_600ms.mp4	40.repeated_push_with_finger_short_vertflip_short_600ms.mp4	488.073068753946	488.6812986181999	0.6082298642538717				
592.53515625	0.2	1213512	313	71	3	0	0	27	314	stimuli\Videos_short_600ms_vertflip\5.repeated_tap_with_finger_moving_from_top_to_bottom_short_vertflip_short_600ms.mp4	5.repeated_tap_with_finger_moving_from_top_to_bottom_short_vertflip_short_600ms.mp4	488.8730726834299	489.48128084754865	0.6082081641187642				
593.3349609375	0.2	1215150	314	71	3	0	0	28	243	stimuli\Videos_short_600ms_horvertflip\67.single_touch_with_sponge_short_horvertflip_short_600ms.mp4	67.single_touch_with_sponge_short_horvertflip_short_600ms.mp4	489.67300535436175	490.2812959203453	0.608290565983566				
594.134765625	0.2	1216788	315	71	3	0	0	29	128	stimuli\Videos_short_600ms_horflip\44.pushing_top_to_bottom_with_finger_short_horflip_short_600ms.mp4	44.pushing_top_to_bottom_with_finger_short_horflip_short_600ms.mp4	490.4729655903302	491.0812793226743	0.6083137323440724				
594.93505859375	0.2	1218427	316	71	3	0	0	30	145	stimuli\Videos_short_600ms_horflip\6.single_touch_with_flat_hand_short_horflip_short_600ms.mp4	6.single_touch_with_flat_hand_short_horflip_short_600ms.mp4	491.27292611954374	491.8812800264625	0.6083539069187509				
595.73486328125	0.2	1220065	317	71	3	0	0	31	271	stimuli\Videos_short_600ms_vertflip\10.single_touch_with_knife_short_vertflip_short_600ms.mp4	10.single_touch_with_knife_short_vertflip_short_600ms.mp4	492.0728928069037	492.6812473003125	0.6083544934087968				
596.53466796875	0.2	1221703	318	71	3	0	0	32	12	stimuli\Videos_short_600ms\20.single_touch_with_screwdriver_short_short_600ms.mp4	20.single_touch_with_screwdriver_short_short_600ms.mp4	492.8732885118018	493.4812295296613	0.6079410178595026				
597.3349609375	0.2	1223342	319	71	3	0	0	33	60	stimuli\Videos_short_600ms\64.repeated_touch_with_screwdriver_short_short_600ms.mp4	64.repeated_touch_with_screwdriver_short_short_600ms.mp4	493.6728675291786	494.2811968035114	0.6083292743328457				
598.134765625	0.2	1224980	320	71	3	0	0	34	0	stimuli\Videos_short_600ms\1.repeated_touch_with_finger_fast_short_short_600ms.mp4	1.repeated_touch_with_finger_fast_short_short_600ms.mp4	494.4728655937612	495.0811711152433	0.6083055214820661				
598.9345703125	0.2	1226618	321	71	3	0	0	35	263	stimuli\Videos_short_600ms_horvertflip\85.touch_top_to_bottom_with_fabric_short_horvertflip_short_600ms.mp4	85.touch_top_to_bottom_with_fabric_short_horvertflip_short_600ms.mp4	495.2728639515888	495.8811436675047	0.6082797159159554				
599.73486328125	0.2	1228257	322	71	3	0	0	36	186	stimuli\Videos_short_600ms_horvertflip\15.single_stroke_top_to_bottom_with_a_plastic_whisk_short_horvertflip_short_600ms.mp4	15.single_stroke_top_to_bottom_with_a_plastic_whisk_short_horvertflip_short_600ms.mp4	496.0728326916643	496.68111944546183	0.608286753797529				
600.53466796875	0.2	1229895	323	71	3	0	0	37	306	stimuli\Videos_short_600ms_vertflip\42.single_slap_with_plastic_whisk_short_vertflip_short_600ms.mp4	42.single_slap_with_plastic_whisk_short_vertflip_short_600ms.mp4	496.87281374803274	497.4811010883204	0.6082873402876885				
601.33447265625	0.2	1231533	324	71	3	0	0	38	108	stimuli\Videos_short_600ms_horflip\26.single_touch_with_a_blunt_syringe_short_horflip_short_600ms.mp4	26.single_touch_with_a_blunt_syringe_short_horflip_short_600ms.mp4	497.6727654798941	498.28106748243533	0.6083020025412225				
602.134765625	0.2	1233172	325	71	3	0	0	39	228	stimuli\Videos_short_600ms_horvertflip\53.touch_top_to_bottom_with_knife_short_horvertflip_short_600ms.mp4	53.touch_top_to_bottom_with_knife_short_horvertflip_short_600ms.mp4	498.4727591458005	499.0810415009221	0.6082823551215597				
602.9345703125	0.2	1234810	326	71	3	0	0	40	125	stimuli\Videos_short_600ms_horflip\41.injection_with_blunt_syringe_short_horflip_short_600ms.mp4	41.injection_with_blunt_syringe_short_horflip_short_600ms.mp4	499.2727334575323	499.881024316761	0.6082908592286458				
603.734375	0.2	1236448	327	71	3	0	0	41	113	stimuli\Videos_short_600ms_horflip\30.finger_pulling_back_another_finger_short_horflip_short_600ms.mp4	30.finger_pulling_back_another_finger_short_horflip_short_600ms.mp4	500.0728884082277	500.6810132907464	0.6081248825187231				
604.53466796875	0.2	1238087	328	71	3	0	0	42	101	stimuli\Videos_short_600ms_horflip\2.single_touch_with_finger_short_horflip_short_600ms.mp4	2.single_touch_with_finger_short_horflip_short_600ms.mp4	500.87282195889463	501.48101428777954	0.6081923288849111				
605.33447265625	0.2	1239725	329	71	3	0	0	43	235	stimuli\Videos_short_600ms_horvertflip\6.single_touch_with_flat_hand_short_horvertflip_short_600ms.mp4	6.single_touch_with_flat_hand_short_horvertflip_short_600ms.mp4	501.6727766232068	502.2809730575227	0.6081964343159143				
606.13427734375	0.2	1241363	330	71	3	0	0	44	341	stimuli\Videos_short_600ms_vertflip\74.fingers_walking_from_top_to_bottom_short_vertflip_short_600ms.mp4	74.fingers_walking_from_top_to_bottom_short_vertflip_short_600ms.mp4	502.4728087042175	503.0809637909784	0.6081550867609167				
606.9345703125	0.2	1243002	331	71	3	0	0	45	301	stimuli\Videos_short_600ms_vertflip\38.double_slap_with_pencil_short_vertflip_short_600ms.mp4	38.double_slap_with_pencil_short_vertflip_short_600ms.mp4	503.2726718760677	503.88093839595535	0.6082665198877066				
607.734375	0.2	1244640	332	71	3	0	0	46	313	stimuli\Videos_short_600ms_vertflip\49.repeated_slap_with_hand_short_vertflip_short_600ms.mp4	49.repeated_slap_with_hand_short_vertflip_short_600ms.mp4	504.07266994065014	504.6809194523238	0.6082495116736482				
608.5341796875	0.2	1246278	333	71	3	0	0	47	176	stimuli\Videos_short_600ms_horflip\88.repeated_stroke_with_plastic_brush_short_horflip_short_600ms.mp4	88.repeated_stroke_with_plastic_brush_short_horflip_short_600ms.mp4	504.87289439042706	505.4809101857795	0.6080157953524576				
609.33447265625	0.2	1247917	334	71	3	0	1	48	372	stimuli\Targets_short_600ms_horvertflip\brush-stroke_short_vertflip_short_600ms.mp4	brush-stroke_short_vertflip_short_600ms.mp4	505.6726132857025	506.28090942334234	0.6082961376398544				
610.13427734375	0.2	1249555	335	71	3	0	0	49	236	stimuli\Videos_short_600ms_horvertflip\60.single_push_with_tip_of_pencil_short_horvertflip_short_600ms.mp4	60.single_push_with_tip_of_pencil_short_horvertflip_short_600ms.mp4	506.4726210273724	507.0808916526911	0.6082706253187098				
610.9345703125	0.2	1251194	336	71	3	0	1	50	360	stimuli\Targets_short_600ms\brush-stroke_short_short_600ms.mp4	brush-stroke_short_short_600ms.mp4	507.27263873937466	507.8808697766089	0.6082310372341908				
611.734375	0.2	1252832	337	71	3	0	0	51	226	stimuli\Videos_short_600ms_horvertflip\51.repeated_touch_with_hammer_short_horvertflip_short_600ms.mp4	51.repeated_touch_with_hammer_short_horvertflip_short_600ms.mp4	508.0726227281938	508.6808511262224	0.6082283980285865				
612.5341796875	0.2	1254470	338	71	3	0	0	52	281	stimuli\Videos_short_600ms_vertflip\2.single_touch_with_finger_short_vertflip_short_600ms.mp4	2.single_touch_with_finger_short_vertflip_short_600ms.mp4	508.8725639032326	509.48083423530625	0.60827033207363				
613.33447265625	0.2	1256109	339	71	3	0	0	53	28	stimuli\Videos_short_600ms\35.single_punch_with_hand_short_short_600ms.mp4	35.single_punch_with_hand_short_short_600ms.mp4	509.6725414406602	510.2808170511451	0.6082756104849523				
614.13427734375	0.2	1257747	340	71	3	0	0	54	110	stimuli\Videos_short_600ms_horflip\28.single_injection_with_sharp_needle_short_horflip_short_600ms.mp4	28.single_injection_with_sharp_needle_short_horflip_short_600ms.mp4	510.4725298281554	511.0808019196995	0.6082720915441087				
614.93408203125	0.2	1259385	341	71	3	0	0	55	98	stimuli\Videos_short_600ms_horflip\17.repeated_touch_with_rolling_pin_short_horflip_short_600ms.mp4	17.repeated_touch_with_rolling_pin_short_horflip_short_600ms.mp4	511.2725255467774	511.8807823895778	0.6082568428004151				
615.734375	0.2	1261024	342	71	3	0	0	56	210	stimuli\Videos_short_600ms_horvertflip\37.single_stab_with_nail_file_short_horvertflip_short_600ms.mp4	37.single_stab_with_nail_file_short_horvertflip_short_600ms.mp4	512.0725256640754	512.6807643256815	0.6082386616060376				
616.5341796875	0.2	1262662	343	71	3	0	0	57	169	stimuli\Videos_short_600ms_horflip\81.single_stroke_top_to_bottom_with_cotton_pad_short_horflip_short_600ms.mp4	81.single_stroke_top_to_bottom_with_cotton_pad_short_horflip_short_600ms.mp4	512.8724600944777	513.4807468482753	0.6082867537976426				
617.333984375	0.2	1264300	344	71	3	0	0	58	333	stimuli\Videos_short_600ms_vertflip\67.single_touch_with_sponge_short_vertflip_short_600ms.mp4	67.single_touch_with_sponge_short_vertflip_short_600ms.mp4	513.6725376284743	514.2807308370944	0.6081932086201505				
618.13427734375	0.2	1265939	345	71	3	0	0	59	69	stimuli\Videos_short_600ms\72.(short)stroke_with_finger_all_over_the_hand_short_short_600ms.mp4	72.(short)stroke_with_finger_all_over_the_hand_short_short_600ms.mp4	514.4724588628484	515.080712186708	0.6082533238595715				
618.93408203125	0.2	1267577	346	71	3	0	0	60	55	stimuli\Videos_short_600ms\6.single_touch_with_flat_hand_short_short_600ms.mp4	6.single_touch_with_flat_hand_short_short_600ms.mp4	515.2724144068957	515.880695589037	0.6082811821413543				
619.73388671875	0.2	1269215	347	71	3	0	0	61	135	stimuli\Videos_short_600ms_horflip\50.single_(long)hard_push_with_thumb_short_horflip_short_600ms.mp4	50.single_(long)hard_push_with_thumb_short_horflip_short_600ms.mp4	516.0724332918783	516.6806886684533	0.6082553765750163				
620.5341796875	0.2	1270854	348	71	3	0	0	62	109	stimuli\Videos_short_600ms_horflip\27.single_push_with_a_plastic_whisk_short_horflip_short_600ms.mp4	27.single_push_with_a_plastic_whisk_short_horflip_short_600ms.mp4	516.8723856102298	517.4806424530302	0.6082568428004151				
621.333984375	0.2	1272492	349	71	3	0	0	63	100	stimuli\Videos_short_600ms_horflip\19.single_touch_with_rolling_pin_short_horflip_short_600ms.mp4	19.single_touch_with_rolling_pin_short_horflip_short_600ms.mp4	517.6723825018321	518.2806452095338	0.6082627077016696				
622.1337890625	0.2	1274130	350	71	3	0	0	64	249	stimuli\Videos_short_600ms_horvertflip\72.(short)stroke_with_finger_all_over_the_hand_short_horvertflip_short_600ms.mp4	72.(short)stroke_with_finger_all_over_the_hand_short_horvertflip_short_600ms.mp4	518.4723409783301	519.0806060319924	0.6082650536623078				
622.93408203125	0.2	1275769	351	71	3	0	0	65	332	stimuli\Videos_short_600ms_vertflip\66.stroke_top_to_bottom_with_sponge_short_vertflip_short_600ms.mp4	66.stroke_top_to_bottom_with_sponge_short_vertflip_short_600ms.mp4	519.2723531186759	519.8805911937918	0.608238075115878				
623.73388671875	0.2	1277407	352	71	3	0	0	66	273	stimuli\Videos_short_600ms_vertflip\12.repeated_touch_with_nail_file_short_vertflip_short_600ms.mp4	12.repeated_touch_with_nail_file_short_vertflip_short_600ms.mp4	520.0723203925261	520.6805857394336	0.6082653469075012				
624.53369140625	0.2	1279045	353	71	3	0	0	67	96	stimuli\Videos_short_600ms_horflip\15.single_stroke_top_to_bottom_with_a_plastic_whisk_short_horflip_short_600ms.mp4	15.single_stroke_top_to_bottom_with_a_plastic_whisk_short_horflip_short_600ms.mp4	520.8724023251989	521.480579112095	0.6081767868961379				
625.333984375	0.2	1280684	354	71	3	0	0	68	120	stimuli\Videos_short_600ms_horflip\37.single_stab_with_nail_file_short_horflip_short_600ms.mp4	37.single_stab_with_nail_file_short_horflip_short_600ms.mp4	521.6723317704348	522.2805698455509	0.6082380751161054				
626.1337890625	0.2	1282322	355	71	3	0	0	69	275	stimuli\Videos_short_600ms_vertflip\14.repeated_touch_with_pencil_short_vertflip_short_600ms.mp4	14.repeated_touch_with_pencil_short_vertflip_short_600ms.mp4	522.4723286620372	523.0806007535812	0.608272091543995				
626.93359375	0.2	1283960	356	71	3	0	0	70	182	stimuli\Videos_short_600ms_horvertflip\11.single_touch_with_lighter_short_horvertflip_short_600ms.mp4	11.single_touch_with_lighter_short_horvertflip_short_600ms.mp4	523.2722328881971	523.8805741855779	0.6083412973807754				
627.73388671875	0.2	1285599	357	71	3	0	0	71	239	stimuli\Videos_short_600ms_horvertflip\63.stroke_top_to_bottom_with_screwdriver_short_horvertflip_short_600ms.mp4	63.stroke_top_to_bottom_with_screwdriver_short_horvertflip_short_600ms.mp4	524.0722121850952	524.6805567081717	0.6083445230765392				
628.53369140625	0.2	1287237	358	71	3	0	0	72	80	stimuli\Videos_short_600ms\82.repeated_touch_with_cotton_bud_short_short_600ms.mp4	82.repeated_touch_with_cotton_bud_short_short_600ms.mp4	524.8722043847763	525.4805365915597	0.608332206783416				
629.33349609375	0.2	1288875	359	71	3	0	0	73	25	stimuli\Videos_short_600ms\32.single_(long)pinch_with_fingers_short_short_600ms.mp4	32.single_(long)pinch_with_fingers_short_short_600ms.mp4	525.6727560960519	526.2805226330945	0.6077665370426075				
630.1337890625	0.2	1290514	360	71	3	0	0	74	322	stimuli\Videos_short_600ms_vertflip\57.single_touch_with_nail_file_short_vertflip_short_600ms.mp4	57.single_touch_with_nail_file_short_vertflip_short_600ms.mp4	526.4722641481217	527.0805019299924	0.6082377818706846				
630.93359375	0.2	1292152	361	71	3	0	0	75	357	stimuli\Videos_short_600ms_vertflip\89.single_touch_with_plastic_brush_short_vertflip_short_600ms.mp4	89.single_touch_with_plastic_brush_short_vertflip_short_600ms.mp4	527.2721836230253	527.8804841593412	0.6083005363159373				
631.73388671875	0.2	1293791	362	71	3	0	0	76	247	stimuli\Videos_short_600ms_horvertflip\70.(long)stroke_with_finger_all_over_the_hand_short_horvertflip_short_600ms.mp4	70.(long)stroke_with_finger_all_over_the_hand_short_horvertflip_short_600ms.mp4	528.0721318359458	528.6804728400814	0.6083410041355819				
632.53369140625	0.2	1295429	363	71	3	0	0	77	49	stimuli\Videos_short_600ms\54.repeated_touch_with_knife_short_short_600ms.mp4	54.repeated_touch_with_knife_short_short_600ms.mp4	528.8721442695369	529.4804492045287	0.6083049349917928				
633.33349609375	0.2	1297067	364	71	3	0	0	78	254	stimuli\Videos_short_600ms_horvertflip\77.tapping_with_all_fingers_short_horvertflip_short_600ms.mp4	77.tapping_with_all_fingers_short_horvertflip_short_600ms.mp4	529.6722056750546	530.2804320203677	0.6082263453131418				
634.1337890625	0.2	1298706	365	71	3	0	0	79	79	stimuli\Videos_short_600ms\81.single_stroke_top_to_bottom_with_cotton_pad_short_short_600ms.mp4	81.single_stroke_top_to_bottom_with_cotton_pad_short_short_600ms.mp4	530.4721134201554	531.0804148362065	0.6083014160510629				
634.93359375	0.2	1300344	366	71	3	0	0	80	277	stimuli\Videos_short_600ms_vertflip\16.repeated_touch_with_plastic_brush_short_vertflip_short_600ms.mp4	16.repeated_touch_with_plastic_brush_short_vertflip_short_600ms.mp4	531.2720399329407	531.8803733127045	0.6083333797637351				
635.7333984375	0.2	1301982	367	71	3	0	0	81	252	stimuli\Videos_short_600ms_horvertflip\75.(long)stroke_with_fingers_all_over_the_hand_short_horvertflip_short_600ms.mp4	75.(long)stroke_with_fingers_all_over_the_hand_short_horvertflip_short_600ms.mp4	532.0722488407289	532.6803364811237	0.6080876403948423				
636.53369140625	0.2	1303621	368	71	3	0	0	82	329	stimuli\Videos_short_600ms_vertflip\63.stroke_top_to_bottom_with_screwdriver_short_vertflip_short_600ms.mp4	63.stroke_top_to_bottom_with_screwdriver_short_vertflip_short_600ms.mp4	532.8726114089341	533.4803412903427	0.6077298814086589				
637.33349609375	0.2	1305259	369	71	3	0	0	83	59	stimuli\Videos_short_600ms\63.stroke_top_to_bottom_with_screwdriver_short_short_600ms.mp4	63.stroke_top_to_bottom_with_screwdriver_short_short_600ms.mp4	533.6720062684067	534.2802988871056	0.6082926186988971				
638.13330078125	0.2	1306897	370	71	3	0	0	84	89	stimuli\Videos_short_600ms\90.repeated_touch_with_sponge_short_short_600ms.mp4	90.repeated_touch_with_sponge_short_short_600ms.mp4	534.4720087316653	535.0803069220206	0.6082981903552991				
638.93359375	0.2	1308536	371	71	3	0	0	85	77	stimuli\Videos_short_600ms\8.single_touch_with_hairbrush_short_short_600ms.mp4	8.single_touch_with_hairbrush_short_short_600ms.mp4	535.2719897880336	535.8802970689862	0.6083072809526584				
639.7333984375	0.2	1310174	372	71	3	0	0	86	181	stimuli\Videos_short_600ms_horvertflip\10.single_touch_with_knife_short_horvertflip_short_600ms.mp4	10.single_touch_with_knife_short_horvertflip_short_600ms.mp4	536.0719717241373	536.6802995322448	0.6083278081075605				
640.533203125	0.2	1311812	373	71	3	0	0	87	13	stimuli\Videos_short_600ms\21.repeated_touch_with_metal_chopstick_short_short_600ms.mp4	21.repeated_touch_with_metal_chopstick_short_short_600ms.mp4	536.871912019441	537.4802873332499	0.6083753138088923				
