onset	duration	onsetsample	eventnumber	subjectnr	sequencenumber	blocksequencenumber	istarget	presentationnumber	stimnumber	stim	stimname	time_stimon	time_stimoff	stimdur	cresp	resp	rt	correct
33.48876953125	0.2	68585	0	2	0	0	0	0	58	stimuli\Videos_short_600ms\62.touch_top_to_bottom_with_scissors_short_short_600ms.mp4	62.touch_top_to_bottom_with_scissors_short_short_600ms.mp4	333.5389205560148	334.1503044169044	0.6113838608896458	n/a	n/a	n/a	n/a
34.28857421875	0.2	70223	1	2	0	0	1	1	360	stimuli\Targets_short_600ms\brush-stroke_short_short_600ms.mp4	brush-stroke_short_short_600ms.mp4	334.34192050381716	334.95028629440685	0.6083657905896871	n/a	n/a	n/a	n/a
35.08837890625	0.2	71861	2	2	0	0	0	2	162	stimuli\Videos_short_600ms_horflip\75.(long)stroke_with_fingers_all_over_the_hand_short_horflip_short_600ms.mp4	75.(long)stroke_with_fingers_all_over_the_hand_short_horflip_short_600ms.mp4	335.14189944887676	335.7502637732448	0.6083643243680399	n/a	n/a	n/a	n/a
35.888671875	0.2	73500	3	2	0	0	0	3	64	stimuli\Videos_short_600ms\68.stroke_top_to_bottom_with_shawl_short_short_600ms.mp4	68.stroke_top_to_bottom_with_shawl_short_short_600ms.mp4	335.9419159292063	336.5502430115487	0.6083270823423845	n/a	n/a	n/a	n/a
36.6884765625	0.2	75138	4	2	0	0	0	4	1	stimuli\Videos_short_600ms\10.single_touch_with_knife_short_short_600ms.mp4	10.single_touch_with_knife_short_short_600ms.mp4	336.74187669311937	337.3502248890511	0.6083481959317396	n/a	n/a	n/a	n/a
37.48828125	0.2	76776	5	2	0	0	0	5	80	stimuli\Videos_short_600ms\82.repeated_touch_with_cotton_bud_short_short_600ms.mp4	82.repeated_touch_with_cotton_bud_short_short_600ms.mp4	337.54188203016565	338.1501976759805	0.6083156458148551	n/a	n/a	n/a	n/a
38.28857421875	0.2	78415	6	2	0	0	0	6	236	stimuli\Videos_short_600ms_horvertflip\60.single_push_with_tip_of_pencil_short_horvertflip_short_600ms.mp4	60.single_push_with_tip_of_pencil_short_horvertflip_short_600ms.mp4	338.3418753441956	338.9501877643231	0.6083124201275041	n/a	n/a	n/a	n/a
39.08837890625	0.2	80053	7	2	0	0	0	7	182	stimuli\Videos_short_600ms_horvertflip\11.single_touch_with_lighter_short_horvertflip_short_600ms.mp4	11.single_touch_with_lighter_short_horvertflip_short_600ms.mp4	339.14184666490337	339.75011773758524	0.6082710726818732	n/a	n/a	n/a	n/a
39.888671875	0.2	81692	8	2	0	0	0	8	59	stimuli\Videos_short_600ms\63.stroke_top_to_bottom_with_screwdriver_short_short_600ms.mp4	63.stroke_top_to_bottom_with_screwdriver_short_short_600ms.mp4	339.9418370464905	340.5501192624556	0.6082822159651187	n/a	n/a	n/a	n/a
40.6884765625	0.2	83330	9	2	0	0	0	9	312	stimuli\Videos_short_600ms_vertflip\48.single_slap_with_hand_short_vertflip_short_600ms.mp4	48.single_slap_with_hand_short_vertflip_short_600ms.mp4	340.7418051415111	341.3501093507982	0.6083042092870983	n/a	n/a	n/a	n/a
41.48828125	0.2	84968	10	2	0	0	0	10	267	stimuli\Videos_short_600ms_horvertflip\89.single_touch_with_plastic_brush_short_horvertflip_short_600ms.mp4	89.single_touch_with_plastic_brush_short_horvertflip_short_600ms.mp4	341.54178467305906	342.15010999593574	0.6083253228766807	n/a	n/a	n/a	n/a
42.28857421875	0.2	86607	11	2	0	0	0	11	298	stimuli\Videos_short_600ms_vertflip\35.single_punch_with_hand_short_vertflip_short_600ms.mp4	35.single_punch_with_hand_short_vertflip_short_600ms.mp4	342.3417785735778	342.9500871815294	0.6083086079515851	n/a	n/a	n/a	n/a
43.08837890625	0.2	88245	12	2	0	0	0	12	177	stimuli\Videos_short_600ms_horflip\89.single_touch_with_plastic_brush_short_horflip_short_600ms.mp4	89.single_touch_with_plastic_brush_short_horflip_short_600ms.mp4	343.1417469618425	343.75007140498633	0.6083244431438288	n/a	n/a	n/a	n/a
43.88818359375	0.2	89883	13	2	0	0	0	13	318	stimuli\Videos_short_600ms_vertflip\53.touch_top_to_bottom_with_knife_short_vertflip_short_600ms.mp4	53.touch_top_to_bottom_with_knife_short_vertflip_short_600ms.mp4	343.94172678663494	344.55004595138143	0.6083191647464901	n/a	n/a	n/a	n/a
44.6884765625	0.2	91522	14	2	0	0	0	14	353	stimuli\Videos_short_600ms_vertflip\85.touch_top_to_bottom_with_fabric_short_vertflip_short_600ms.mp4	85.touch_top_to_bottom_with_fabric_short_vertflip_short_600ms.mp4	344.7417066114274	345.35002636266245	0.608319751235058	n/a	n/a	n/a	n/a
45.48828125	0.2	93160	15	2	0	0	0	15	306	stimuli\Videos_short_600ms_vertflip\42.single_slap_with_plastic_whisk_short_vertflip_short_600ms.mp4	42.single_slap_with_plastic_whisk_short_vertflip_short_600ms.mp4	345.5416887821741	346.15000677394346	0.6083179917693542	n/a	n/a	n/a	n/a
46.2880859375	0.2	94798	16	2	0	0	0	16	158	stimuli\Videos_short_600ms_horflip\71.single_stroke_with_finger_top_to_bottom_short_horflip_short_600ms.mp4	71.single_stroke_with_finger_top_to_bottom_short_horflip_short_600ms.mp4	346.34167241914247	346.9499886514459	0.608316232303423	n/a	n/a	n/a	n/a
47.08837890625	0.2	96437	17	2	0	0	0	17	264	stimuli\Videos_short_600ms_horvertflip\86.touch_top_to_bottom_with_hair_brush_short_horvertflip_short_600ms.mp4	86.touch_top_to_bottom_with_hair_brush_short_horvertflip_short_600ms.mp4	347.14164960473613	347.74996788974954	0.6083182850134108	n/a	n/a	n/a	n/a
47.88818359375	0.2	98075	18	2	0	0	0	18	226	stimuli\Videos_short_600ms_horvertflip\51.repeated_touch_with_hammer_short_horvertflip_short_600ms.mp4	51.repeated_touch_with_hammer_short_horvertflip_short_600ms.mp4	347.9416267903298	348.5499488875191	0.6083220971893297	n/a	n/a	n/a	n/a
48.68798828125	0.2	99713	19	2	0	0	0	19	8	stimuli\Videos_short_600ms\17.repeated_touch_with_rolling_pin_short_short_600ms.mp4	17.repeated_touch_with_rolling_pin_short_short_600ms.mp4	348.74160661512224	349.34993135151035	0.6083247363881128	n/a	n/a	n/a	n/a
49.48828125	0.2	101352	20	2	0	0	0	20	342	stimuli\Videos_short_600ms_vertflip\75.(long)stroke_with_fingers_all_over_the_hand_short_vertflip_short_600ms.mp4	75.(long)stroke_with_fingers_all_over_the_hand_short_vertflip_short_600ms.mp4	349.5415483181562	350.14990941683686	0.6083610986806889	n/a	n/a	n/a	n/a
50.2880859375	0.2	102990	21	2	0	0	0	21	45	stimuli\Videos_short_600ms\50.single_(long)hard_push_with_thumb_short_short_600ms.mp4	50.single_(long)hard_push_with_thumb_short_short_600ms.mp4	350.34154984302654	350.949891001095	0.6083411580684697	n/a	n/a	n/a	n/a
51.087890625	0.2	104628	22	2	0	0	0	22	263	stimuli\Videos_short_600ms_horvertflip\85.touch_top_to_bottom_with_fabric_short_horvertflip_short_600ms.mp4	85.touch_top_to_bottom_with_fabric_short_horvertflip_short_600ms.mp4	351.1415411043465	351.7498717056203	0.6083306012737921	n/a	n/a	n/a	n/a
51.88818359375	0.2	106267	23	2	0	0	0	23	39	stimuli\Videos_short_600ms\45.scratching_with_finger_nails_short_short_600ms.mp4	45.scratching_with_finger_nails_short_short_600ms.mp4	351.9414751830286	352.5498383344195	0.608363151390904	n/a	n/a	n/a	n/a
52.68798828125	0.2	107905	24	2	0	0	0	24	325	stimuli\Videos_short_600ms_vertflip\6.single_touch_with_flat_hand_short_vertflip_short_600ms.mp4	6.single_touch_with_flat_hand_short_vertflip_short_600ms.mp4	352.74150925801587	353.34982812951785	0.6083188715019787	n/a	n/a	n/a	n/a
53.48779296875	0.2	109543	25	2	0	0	0	25	16	stimuli\Videos_short_600ms\24.single_stroke_top_to_bottom_with_a_spoon_short_short_600ms.mp4	24.single_stroke_top_to_bottom_with_a_spoon_short_short_600ms.mp4	353.5414990531142	354.1497674865973	0.6082684334830901	n/a	n/a	n/a	n/a
54.2880859375	0.2	111182	26	2	0	0	0	26	71	stimuli\Videos_short_600ms\74.fingers_walking_from_top_to_bottom_short_short_600ms.mp4	74.fingers_walking_from_top_to_bottom_short_short_600ms.mp4	354.3414759454638	354.94976871822337	0.6082927727595688	n/a	n/a	n/a	n/a
55.087890625	0.2	112820	27	2	0	0	0	27	293	stimuli\Videos_short_600ms_vertflip\30.finger_pulling_back_another_finger_short_vertflip_short_600ms.mp4	30.finger_pulling_back_another_finger_short_vertflip_short_600ms.mp4	355.1414642743407	355.749754701146	0.6082904268052971	n/a	n/a	n/a	n/a
55.8876953125	0.2	114458	28	2	0	0	0	28	193	stimuli\Videos_short_600ms_horvertflip\21.repeated_touch_with_metal_chopstick_short_horvertflip_short_600ms.mp4	21.repeated_touch_with_metal_chopstick_short_horvertflip_short_600ms.mp4	355.94140920306177	356.5497377516258	0.6083285485640317	n/a	n/a	n/a	n/a
56.68798828125	0.2	116097	29	2	0	0	0	29	128	stimuli\Videos_short_600ms_horflip\44.pushing_top_to_bottom_with_finger_short_horflip_short_600ms.mp4	44.pushing_top_to_bottom_with_finger_short_horflip_short_600ms.mp4	356.7414036900691	357.34972256157107	0.6083188715019787	n/a	n/a	n/a	n/a
57.48779296875	0.2	117735	30	2	0	0	0	30	107	stimuli\Videos_short_600ms_horflip\25.single_touch_with_stanley_knife_short_horflip_short_600ms.mp4	25.single_touch_with_stanley_knife_short_horflip_short_600ms.mp4	357.5413978838319	358.1497255526631	0.6083276688311798	n/a	n/a	n/a	n/a
58.28759765625	0.2	119373	31	2	0	0	1	31	365	stimuli\Targets_short_600ms\hand-stroke_short_short_600ms.mp4	hand-stroke_short_short_600ms.mp4	358.3413782951129	358.9497039112339	0.6083256161209647	n/a	n/a	n/a	n/a
59.087890625	0.2	121012	32	2	0	0	0	32	187	stimuli\Videos_short_600ms_horvertflip\16.repeated_touch_with_plastic_brush_short_horvertflip_short_600ms.mp4	16.repeated_touch_with_plastic_brush_short_horvertflip_short_600ms.mp4	359.14136105234843	359.74967904411756	0.6083179917691268	n/a	n/a	n/a	n/a
59.8876953125	0.2	122650	33	2	0	0	0	33	235	stimuli\Videos_short_600ms_horvertflip\6.single_touch_with_flat_hand_short_horvertflip_short_600ms.mp4	6.single_touch_with_flat_hand_short_horvertflip_short_600ms.mp4	359.941346155538	360.5496579891771	0.6083118336391635	n/a	n/a	n/a	n/a
60.68798828125	0.2	124289	34	2	0	0	0	34	129	stimuli\Videos_short_600ms_horflip\45.scratching_with_finger_nails_short_horflip_short_600ms.mp4	45.scratching_with_finger_nails_short_horflip_short_600ms.mp4	360.7413189424674	361.3496386937025	0.608319751235058	n/a	n/a	n/a	n/a
61.48779296875	0.2	125927	35	2	0	0	1	35	367	stimuli\Targets_short_600ms_horflip\chopstick-silver-tap_short_horflip_short_600ms.mp4	chopstick-silver-tap_short_horflip_short_600ms.mp4	361.5413040456572	362.14961881173895	0.6083147660817758	n/a	n/a	n/a	n/a
62.28759765625	0.2	127565	36	2	0	0	0	36	167	stimuli\Videos_short_600ms_horflip\8.single_touch_with_hairbrush_short_horflip_short_600ms.mp4	8.single_touch_with_hairbrush_short_horflip_short_600ms.mp4	362.34128299071654	362.9496003959973	0.6083174052807863	n/a	n/a	n/a	n/a
63.087890625	0.2	129204	37	2	0	0	0	37	195	stimuli\Videos_short_600ms_horvertflip\23.single_push_with_a_spoon_short_horvertflip_short_600ms.mp4	23.single_push_with_a_spoon_short_horvertflip_short_600ms.mp4	363.14124551409554	363.74957992754526	0.6083344134497111	n/a	n/a	n/a	n/a
63.8876953125	0.2	130842	38	2	0	0	0	38	243	stimuli\Videos_short_600ms_horvertflip\67.single_touch_with_sponge_short_horvertflip_short_600ms.mp4	67.single_touch_with_sponge_short_horvertflip_short_600ms.mp4	363.9412716714867	364.549562098292	0.6082904268052971	n/a	n/a	n/a	n/a
64.6875	0.2	132480	39	2	0	0	0	39	300	stimuli\Videos_short_600ms_vertflip\37.single_stab_with_nail_file_short_vertflip_short_600ms.mp4	37.single_stab_with_nail_file_short_vertflip_short_600ms.mp4	364.7411775987164	365.3495410433515	0.608363444635188	n/a	n/a	n/a	n/a
65.48779296875	0.2	134119	40	2	0	0	0	40	153	stimuli\Videos_short_600ms_horflip\67.single_touch_with_sponge_short_horflip_short_600ms.mp4	67.single_touch_with_sponge_short_horflip_short_600ms.mp4	365.54116094244046	366.14952233436543	0.6083613919249728	n/a	n/a	n/a	n/a
66.28759765625	0.2	135757	41	2	0	0	0	41	111	stimuli\Videos_short_600ms_horflip\29.single_pinch_with_tweezers_short_horflip_short_600ms.mp4	29.single_pinch_with_tweezers_short_horflip_short_600ms.mp4	366.341188566053	366.949503332135	0.6083147660820032	n/a	n/a	n/a	n/a
67.08740234375	0.2	137395	42	2	0	0	0	42	189	stimuli\Videos_short_600ms_horvertflip\18.single_stroke_from_top_to_bottom_with_rolling_pin_short_horvertflip_short_600ms.mp4	18.single_stroke_from_top_to_bottom_with_rolling_pin_short_horvertflip_short_600ms.mp4	367.1411628192038	367.7494605771167	0.608297757912851	n/a	n/a	n/a	n/a
67.8876953125	0.2	139034	43	2	0	0	0	43	256	stimuli\Videos_short_600ms_horvertflip\79.long_with_soft_brush_all_over_the_hand_short_horvertflip_short_600ms.mp4	79.long_with_soft_brush_all_over_the_hand_short_horvertflip_short_600ms.mp4	367.94115906567686	368.5494398154203	0.6082807497434715	n/a	n/a	n/a	n/a
68.6875	0.2	140672	44	2	0	0	1	44	364	stimuli\Targets_short_600ms\hand-pinch_short_short_600ms.mp4	hand-pinch_short_short_600ms.mp4	368.7411306796289	369.3493994063562	0.6082687267273741	n/a	n/a	n/a	n/a
69.4873046875	0.2	142310	45	2	0	0	0	45	85	stimuli\Videos_short_600ms\87.single_stroke_top_to_bottom_with_plastic_brush_short_short_600ms.mp4	87.single_stroke_top_to_bottom_with_plastic_brush_short_short_600ms.mp4	369.541107278734	370.1493789379044	0.6082716591704411	n/a	n/a	n/a	n/a
70.28759765625	0.2	143949	46	2	0	0	0	46	66	stimuli\Videos_short_600ms\7.repeated_touch_with_hairbrush_short_short_600ms.mp4	7.repeated_touch_with_hairbrush_short_short_600ms.mp4	370.34109678058826	370.9493628681171	0.6082660875288184	n/a	n/a	n/a	n/a
71.08740234375	0.2	145587	47	2	0	0	0	47	137	stimuli\Videos_short_600ms_horflip\52.touch_top_to_bottom_with_hammer_short_horflip_short_600ms.mp4	52.touch_top_to_bottom_with_hammer_short_horflip_short_600ms.mp4	371.141073086449	371.7493737768048	0.6083006903556907	n/a	n/a	n/a	n/a
71.88720703125	0.2	147225	48	2	0	0	0	48	74	stimuli\Videos_short_600ms\77.tapping_with_all_fingers_short_short_600ms.mp4	77.tapping_with_all_fingers_short_short_600ms.mp4	371.9410775437625	372.5493571205288	0.6082795767663356	n/a	n/a	n/a	n/a
72.6875	0.2	148864	49	2	0	0	0	49	116	stimuli\Videos_short_600ms_horflip\33.scratch_top_to_bottom_with_scissors_short_horflip_short_600ms.mp4	33.scratch_top_to_bottom_with_scissors_short_horflip_short_600ms.mp4	372.7410324427897	373.3493583521549	0.6083259093652487	n/a	n/a	n/a	n/a
73.4873046875	0.2	150502	50	2	0	0	0	50	176	stimuli\Videos_short_600ms_horflip\88.repeated_stroke_with_plastic_brush_short_horflip_short_600ms.mp4	88.repeated_stroke_with_plastic_brush_short_horflip_short_600ms.mp4	373.54101080136047	374.14933465801573	0.6083238566552609	n/a	n/a	n/a	n/a
74.287109375	0.2	152140	51	2	0	0	0	51	280	stimuli\Videos_short_600ms_vertflip\19.single_touch_with_rolling_pin_short_vertflip_short_600ms.mp4	19.single_touch_with_rolling_pin_short_vertflip_short_600ms.mp4	374.34099385184027	374.94930891116655	0.6083150593262872	n/a	n/a	n/a	n/a
75.08740234375	0.2	153779	52	2	0	0	0	52	323	stimuli\Videos_short_600ms_vertflip\58.single_slap_with_pencil_short_vertflip_short_600ms.mp4	58.single_slap_with_pencil_short_vertflip_short_600ms.mp4	375.1409707441896	375.74928902920306	0.6083182850134108	n/a	n/a	n/a	n/a
75.88720703125	0.2	155417	53	2	0	0	0	53	237	stimuli\Videos_short_600ms_horvertflip\61.single_hit_with_rolling_pin_short_horvertflip_short_600ms.mp4	61.single_hit_with_rolling_pin_short_horvertflip_short_600ms.mp4	375.94098194612184	376.5492703202169	0.608288374095082	n/a	n/a	n/a	n/a
76.68701171875	0.2	157055	54	2	0	0	0	54	216	stimuli\Videos_short_600ms_horvertflip\42.single_slap_with_plastic_whisk_short_horvertflip_short_600ms.mp4	42.single_slap_with_plastic_whisk_short_horvertflip_short_600ms.mp4	376.7409324464845	377.3492533706967	0.6083209242121939	n/a	n/a	n/a	n/a
77.4873046875	0.2	158694	55	2	0	0	0	55	33	stimuli\Videos_short_600ms\4.repeated_tap_with_finger_slow_short_short_600ms.mp4	4.repeated_tap_with_finger_slow_short_short_600ms.mp4	377.5409181361629	378.1492320225118	0.6083138863489239	n/a	n/a	n/a	n/a
78.287109375	0.2	160332	56	2	0	0	0	56	34	stimuli\Videos_short_600ms\40.repeated_push_with_finger_short_short_600ms.mp4	40.repeated_push_with_finger_short_short_600ms.mp4	378.3408915095806	378.9492127270371	0.6083212174564778	n/a	n/a	n/a	n/a
79.0869140625	0.2	161970	57	2	0	0	0	57	350	stimuli\Videos_short_600ms_vertflip\82.repeated_touch_with_cotton_bud_short_vertflip_short_600ms.mp4	82.repeated_touch_with_cotton_bud_short_vertflip_short_600ms.mp4	379.1408607775784	379.7491951910283	0.6083344134499384	n/a	n/a	n/a	n/a
79.88720703125	0.2	163609	58	2	0	0	0	58	115	stimuli\Videos_short_600ms_horflip\32.single_(long)pinch_with_fingers_short_horflip_short_600ms.mp4	32.single_(long)pinch_with_fingers_short_horflip_short_600ms.mp4	379.94081421038413	380.54917530906505	0.6083610986809163	n/a	n/a	n/a	n/a
80.68701171875	0.2	165247	59	2	0	0	0	59	77	stimuli\Videos_short_600ms\8.single_touch_with_hairbrush_short_short_600ms.mp4	8.single_touch_with_hairbrush_short_short_600ms.mp4	380.74084271372976	381.34915572034583	0.608313006616072	n/a	n/a	n/a	n/a
81.4873046875	0.2	166886	60	2	0	0	0	60	254	stimuli\Videos_short_600ms_horvertflip\77.tapping_with_all_fingers_short_horvertflip_short_600ms.mp4	77.tapping_with_all_fingers_short_horvertflip_short_600ms.mp4	381.540788815428	382.1491337856726	0.608344970244616	n/a	n/a	n/a	n/a
82.287109375	0.2	168524	61	2	0	0	0	61	19	stimuli\Videos_short_600ms\27.single_push_with_a_plastic_whisk_short_short_600ms.mp4	27.single_push_with_a_plastic_whisk_short_short_600ms.mp4	382.340780956481	382.94911302397645	0.6083320674954393	n/a	n/a	n/a	n/a
83.0869140625	0.2	170162	62	2	0	0	1	62	374	stimuli\Targets_short_600ms_horvertflip\chopstickwood-tap_short_vertflip_short_600ms.mp4	chopstickwood-tap_short_vertflip_short_600ms.mp4	383.1407716313122	383.7490987136546	0.6083270823423845	n/a	n/a	n/a	n/a
83.88720703125	0.2	171801	63	2	0	0	0	63	214	stimuli\Videos_short_600ms_horvertflip\40.repeated_push_with_finger_short_horvertflip_short_600ms.mp4	40.repeated_push_with_finger_short_horvertflip_short_600ms.mp4	383.94076934400687	384.5490805911573	0.6083112471503682	n/a	n/a	n/a	n/a
84.68701171875	0.2	173439	64	2	0	0	0	64	250	stimuli\Videos_short_600ms_horvertflip\73.single_stroke_with_flat_hand_short_horvertflip_short_600ms.mp4	73.single_stroke_with_flat_hand_short_horvertflip_short_600ms.mp4	384.740742130936	385.34903636991726	0.608294238981216	n/a	n/a	n/a	n/a
85.48681640625	0.2	175077	65	2	0	0	0	65	86	stimuli\Videos_short_600ms\88.repeated_stroke_with_plastic_brush_short_short_600ms.mp4	88.repeated_stroke_with_plastic_brush_short_short_600ms.mp4	385.5407322192789	386.1490153149769	0.6082830956979706	n/a	n/a	n/a	n/a
86.287109375	0.2	176716	66	2	0	0	0	66	225	stimuli\Videos_short_600ms_horvertflip\50.single_(long)hard_push_with_thumb_short_horvertflip_short_600ms.mp4	50.single_(long)hard_push_with_thumb_short_horvertflip_short_600ms.mp4	386.3407032467423	386.9490051100752	0.6083018633328265	n/a	n/a	n/a	n/a
87.0869140625	0.2	178354	67	2	0	0	0	67	53	stimuli\Videos_short_600ms\58.single_slap_with_pencil_short_short_600ms.mp4	58.single_slap_with_pencil_short_short_600ms.mp4	387.14068571073335	387.7490054619684	0.608319751235058	n/a	n/a	n/a	n/a
87.88671875	0.2	179992	68	2	0	0	0	68	215	stimuli\Videos_short_600ms_horvertflip\41.injection_with_blunt_syringe_short_horvertflip_short_600ms.mp4	41.injection_with_blunt_syringe_short_horvertflip_short_600ms.mp4	387.94067491934334	388.54899144489104	0.608316525547707	n/a	n/a	n/a	n/a
88.68701171875	0.2	181631	69	2	0	0	0	69	251	stimuli\Videos_short_600ms_horvertflip\74.fingers_walking_from_top_to_bottom_short_horvertflip_short_600ms.mp4	74.fingers_walking_from_top_to_bottom_short_horvertflip_short_600ms.mp4	388.74062893863766	389.3489747886149	0.6083458499772405	n/a	n/a	n/a	n/a
89.48681640625	0.2	183269	70	2	0	0	0	70	10	stimuli\Videos_short_600ms\19.single_touch_with_rolling_pin_short_short_600ms.mp4	19.single_touch_with_rolling_pin_short_short_600ms.mp4	389.5406251851107	390.14894405661266	0.6083188715019787	n/a	n/a	n/a	n/a
90.28662109375	0.2	184907	71	2	0	0	0	71	332	stimuli\Videos_short_600ms_vertflip\66.stroke_top_to_bottom_with_sponge_short_vertflip_short_600ms.mp4	66.stroke_top_to_bottom_with_sponge_short_vertflip_short_600ms.mp4	390.3406076491017	390.94892300167226	0.6083153525705711	n/a	n/a	n/a	n/a
91.0869140625	0.2	186546	72	2	0	0	0	72	109	stimuli\Videos_short_600ms_horflip\27.single_push_with_a_plastic_whisk_short_horflip_short_600ms.mp4	27.single_push_with_a_plastic_whisk_short_horflip_short_600ms.mp4	391.1405863009168	391.7489042926861	0.6083179917693542	n/a	n/a	n/a	n/a
91.88671875	0.2	188184	73	2	0	0	0	73	27	stimuli\Videos_short_600ms\34.repeated_punch_with_hand_short_short_600ms.mp4	34.repeated_punch_with_hand_short_short_600ms.mp4	391.9405690581523	392.5488902756088	0.6083212174564778	n/a	n/a	n/a	n/a
92.6865234375	0.2	189822	74	2	0	0	0	74	122	stimuli\Videos_short_600ms_horflip\39.single_stab_with_scissors_short_horflip_short_600ms.mp4	39.single_stab_with_scissors_short_horflip_short_600ms.mp4	392.7405506424104	393.3488674612024	0.608316818791991	n/a	n/a	n/a	n/a
93.48681640625	0.2	191461	75	2	0	0	0	75	220	stimuli\Videos_short_600ms_horvertflip\46.scratching_top_to_bottom_with_finger_nails_short_horvertflip_short_600ms.mp4	46.scratching_top_to_bottom_with_finger_nails_short_horvertflip_short_600ms.mp4	393.54051463201085	394.148846406262	0.6083317742511554	n/a	n/a	n/a	n/a
94.28662109375	0.2	193099	76	2	0	0	1	76	378	stimuli\Targets_short_600ms_vertflip\brush-stroke_short_horvertflip_short_600ms.mp4	brush-stroke_short_horvertflip_short_600ms.mp4	394.3404686513052	394.9488332689175	0.6083646176123239	n/a	n/a	n/a	n/a
95.08642578125	0.2	194737	77	2	0	0	0	77	20	stimuli\Videos_short_600ms\28.single_injection_with_sharp_needle_short_short_600ms.mp4	28.single_injection_with_sharp_needle_short_short_600ms.mp4	395.1404563936935	395.7488098680226	0.6083534743290784	n/a	n/a	n/a	n/a
95.88671875	0.2	196376	78	2	0	0	0	78	171	stimuli\Videos_short_600ms_horflip\83.single_stroke_top_to_bottom_with_cotton_bud_short_horflip_short_600ms.mp4	83.single_stroke_top_to_bottom_with_cotton_bud_short_horflip_short_600ms.mp4	395.9404268346684	396.5487902793036	0.608363444635188	n/a	n/a	n/a	n/a
96.6865234375	0.2	198014	79	2	0	0	0	79	140	stimuli\Videos_short_600ms_horflip\55.touch_top_to_bottom_with_nail_file_short_horflip_short_600ms.mp4	55.touch_top_to_bottom_with_nail_file_short_horflip_short_600ms.mp4	396.74042161492	397.3487721568061	0.6083505418860113	n/a	n/a	n/a	n/a
97.486328125	0.2	199652	80	2	0	0	0	80	61	stimuli\Videos_short_600ms\65.stroke_top_to_bottom_with_stanley_knife_short_short_600ms.mp4	65.stroke_top_to_bottom_with_stanley_knife_short_short_600ms.mp4	397.5404210870802	398.14875256808705	0.6083314810068714	n/a	n/a	n/a	n/a
98.28662109375	0.2	201291	81	2	0	0	0	81	246	stimuli\Videos_short_600ms_horvertflip\7.repeated_touch_with_hairbrush_short_horvertflip_short_600ms.mp4	7.repeated_touch_with_hairbrush_short_horvertflip_short_600ms.mp4	398.3404058970257	398.9487095198242	0.6083036227985303	n/a	n/a	n/a	n/a
99.08642578125	0.2	202929	82	2	0	0	1	82	379	stimuli\Targets_short_600ms_vertflip\chopstick-silver-tap_short_horvertflip_short_600ms.mp4	chopstick-silver-tap_short_horvertflip_short_600ms.mp4	399.1404077151403	399.7486685242716	0.6082608091312522	n/a	n/a	n/a	n/a
99.88671875	0.2	204568	83	2	0	0	0	83	331	stimuli\Videos_short_600ms_vertflip\65.stroke_top_to_bottom_with_stanley_knife_short_vertflip_short_600ms.mp4	65.stroke_top_to_bottom_with_stanley_knife_short_vertflip_short_600ms.mp4	399.9403749304279	400.5486589058587	0.6082839754308225	n/a	n/a	n/a	n/a
100.6865234375	0.2	206206	84	2	0	0	0	84	301	stimuli\Videos_short_600ms_vertflip\38.double_slap_with_pencil_short_vertflip_short_600ms.mp4	38.double_slap_with_pencil_short_vertflip_short_600ms.mp4	400.74036237957193	401.34867274698945	0.6083103674175163	n/a	n/a	n/a	n/a
101.486328125	0.2	207844	85	2	0	0	1	85	373	stimuli\Targets_short_600ms_horvertflip\chopstick-silver-tap_short_vertflip_short_600ms.mp4	chopstick-silver-tap_short_vertflip_short_600ms.mp4	401.5403398584101	402.1486437744529	0.6083039160428143	n/a	n/a	n/a	n/a
102.28662109375	0.2	209483	86	2	0	0	0	86	127	stimuli\Videos_short_600ms_horflip\43.touch_top_to_bottom_with_sharp_wooden_stick_short_horflip_short_600ms.mp4	43.touch_top_to_bottom_with_sharp_wooden_stick_short_horflip_short_600ms.mp4	402.3403202696911	402.9486197870697	0.6082995173785548	n/a	n/a	n/a	n/a
103.08642578125	0.2	211121	87	2	0	0	0	87	186	stimuli\Videos_short_600ms_horvertflip\15.single_stroke_top_to_bottom_with_a_plastic_whisk_short_horvertflip_short_600ms.mp4	15.single_stroke_top_to_bottom_with_a_plastic_whisk_short_horvertflip_short_600ms.mp4	403.1402992147505	403.7486242443829	0.6083250296323968	n/a	n/a	n/a	n/a
103.88623046875	0.2	212759	88	2	0	0	0	88	3	stimuli\Videos_short_600ms\12.repeated_touch_with_nail_file_short_short_600ms.mp4	12.repeated_touch_with_nail_file_short_short_600ms.mp4	403.9402796260315	404.54860700161817	0.6083273755866685	n/a	n/a	n/a	n/a
104.6865234375	0.2	214398	89	2	0	0	0	89	234	stimuli\Videos_short_600ms_horvertflip\59.single_push_with_long_side_pencil_short_horvertflip_short_600ms.mp4	59.single_push_with_long_side_pencil_short_horvertflip_short_600ms.mp4	404.7402620900225	405.3485794953033	0.6083174052807863	n/a	n/a	n/a	n/a
105.486328125	0.2	216036	90	2	0	0	0	90	286	stimuli\Videos_short_600ms_vertflip\24.single_stroke_top_to_bottom_with_a_spoon_short_vertflip_short_600ms.mp4	24.single_stroke_top_to_bottom_with_a_spoon_short_vertflip_short_600ms.mp4	405.5402433810363	406.1485613728057	0.6083179917693542	n/a	n/a	n/a	n/a
106.2861328125	0.2	217674	91	2	0	0	0	91	25	stimuli\Videos_short_600ms\32.single_(long)pinch_with_fingers_short_short_600ms.mp4	32.single_(long)pinch_with_fingers_short_short_600ms.mp4	406.3402270180047	406.9485409043539	0.6083138863491513	n/a	n/a	n/a	n/a
107.08642578125	0.2	219313	92	2	0	0	0	92	110	stimuli\Videos_short_600ms_horflip\28.single_injection_with_sharp_needle_short_horflip_short_600ms.mp4	28.single_injection_with_sharp_needle_short_horflip_short_600ms.mp4	407.1402065495529	407.7485216088792	0.6083150593262872	n/a	n/a	n/a	n/a
107.88623046875	0.2	220951	93	2	0	0	0	93	268	stimuli\Videos_short_600ms_horvertflip\9.single_touch_with_hammer_short_horvertflip_short_600ms.mp4	9.single_touch_with_hammer_short_horvertflip_short_600ms.mp4	407.940181095948	408.5485031931373	0.6083220971893297	n/a	n/a	n/a	n/a
108.68603515625	0.2	222589	94	2	0	0	0	94	172	stimuli\Videos_short_600ms_horflip\84.single_touch_with_cotton_bud_short_horflip_short_600ms.mp4	84.single_touch_with_cotton_bud_short_horflip_short_600ms.mp4	408.7401799816196	409.34848712334974	0.6083071417301653	n/a	n/a	n/a	n/a
109.486328125	0.2	224228	95	2	0	0	0	95	355	stimuli\Videos_short_600ms_vertflip\87.single_stroke_top_to_bottom_with_plastic_brush_short_vertflip_short_600ms.mp4	87.single_stroke_top_to_bottom_with_plastic_brush_short_vertflip_short_600ms.mp4	409.5401337076696	410.14846342921055	0.6083297215409402	n/a	n/a	n/a	n/a
110.2861328125	0.2	225866	96	2	0	0	0	96	271	stimuli\Videos_short_600ms_vertflip\10.single_touch_with_knife_short_vertflip_short_600ms.mp4	10.single_touch_with_knife_short_vertflip_short_600ms.mp4	410.34008332829944	410.9484473594232	0.6083640311237559	n/a	n/a	n/a	n/a
111.0859375	0.2	227504	97	2	0	0	0	97	155	stimuli\Videos_short_600ms_horflip\69.stroke_with_soft_sock_short_horflip_short_600ms.mp4	69.stroke_with_soft_sock_short_horflip_short_600ms.mp4	411.1401059667592	411.7484277707042	0.6083218039450458	8.0	8.0	2.5198397361270963	1.0
146.6767578125	0.2	300394	98	2	1	0	0	0	206	stimuli\Videos_short_600ms_horvertflip\33.scratch_top_to_bottom_with_scissors_short_horvertflip_short_600ms.mp4	33.scratch_top_to_bottom_with_scissors_short_horvertflip_short_600ms.mp4	447.5309076556116	448.139225940625	0.6083182850134108	n/a	n/a	n/a	n/a
147.4765625	0.2	302032	99	2	1	0	0	1	46	stimuli\Videos_short_600ms\51.repeated_touch_with_hammer_short_short_600ms.mp4	51.repeated_touch_with_hammer_short_short_600ms.mp4	448.330891585824	448.939211043815	0.6083194579910014	n/a	n/a	n/a	n/a
148.2763671875	0.2	303670	100	2	1	0	0	2	299	stimuli\Videos_short_600ms_vertflip\36.single_slap_with_full_hand_short_vertflip_short_600ms.mp4	36.single_slap_with_full_hand_short_vertflip_short_600ms.mp4	449.1308667187079	449.73918822940846	0.6083215107005344	n/a	n/a	n/a	n/a
149.07666015625	0.2	305309	101	2	1	0	0	3	174	stimuli\Videos_short_600ms_horflip\86.touch_top_to_bottom_with_hair_brush_short_horflip_short_600ms.mp4	86.touch_top_to_bottom_with_hair_brush_short_horflip_short_600ms.mp4	449.9308462502561	450.53916893393375	0.6083226836776703	n/a	n/a	n/a	n/a
149.87646484375	0.2	306947	102	2	1	0	0	4	83	stimuli\Videos_short_600ms\85.touch_top_to_bottom_with_fabric_short_short_600ms.mp4	85.touch_top_to_bottom_with_fabric_short_short_600ms.mp4	450.730816691231	451.33914963845905	0.6083329472280639	n/a	n/a	n/a	n/a
150.6767578125	0.2	308586	103	2	1	0	0	5	120	stimuli\Videos_short_600ms_horflip\37.single_stab_with_nail_file_short_horflip_short_600ms.mp4	37.single_stab_with_nail_file_short_horflip_short_600ms.mp4	451.530790357893	452.13913004974006	0.6083396918470498	n/a	n/a	n/a	n/a
151.4765625	0.2	310224	104	2	1	0	1	6	366	stimuli\Targets_short_600ms_horflip\brush-stroke_short_horflip_short_600ms.mp4	brush-stroke_short_horflip_short_600ms.mp4	452.33077018268546	452.9391128069758	0.6083426242903442	n/a	n/a	n/a	n/a
152.2763671875	0.2	311862	105	2	1	0	0	7	119	stimuli\Videos_short_600ms_horflip\36.single_slap_with_full_hand_short_horflip_short_600ms.mp4	36.single_slap_with_full_hand_short_horflip_short_600ms.mp4	453.1307588048069	453.7390879398593	0.6083291350523723	n/a	n/a	n/a	n/a
153.07666015625	0.2	313501	106	2	1	0	0	8	327	stimuli\Videos_short_600ms_vertflip\61.single_hit_with_rolling_pin_short_vertflip_short_600ms.mp4	61.single_hit_with_rolling_pin_short_vertflip_short_600ms.mp4	453.93074537421785	454.539068057896	0.608322683678125	n/a	n/a	n/a	n/a
153.87646484375	0.2	315139	107	2	1	0	0	9	12	stimuli\Videos_short_600ms\20.single_touch_with_screwdriver_short_short_600ms.mp4	20.single_touch_with_screwdriver_short_short_600ms.mp4	454.73073956798066	455.3390519881084	0.6083124201277315	n/a	n/a	n/a	n/a
154.67626953125	0.2	316777	108	2	1	0	0	10	348	stimuli\Videos_short_600ms_vertflip\80.stroke_with_sharp_stick_all_over_the_hand_short_vertflip_short_600ms.mp4	80.stroke_with_sharp_stick_all_over_the_hand_short_vertflip_short_600ms.mp4	455.5307293630792	456.13903973049696	0.6083103674177437	n/a	n/a	n/a	n/a
155.4765625	0.2	318416	109	2	1	0	0	11	142	stimuli\Videos_short_600ms_horflip\57.single_touch_with_nail_file_short_horflip_short_600ms.mp4	57.single_touch_with_nail_file_short_horflip_short_600ms.mp4	456.33069892432127	456.9389914038368	0.6082924795155122	n/a	n/a	n/a	n/a
156.2763671875	0.2	320054	110	2	1	0	0	12	62	stimuli\Videos_short_600ms\66.stroke_top_to_bottom_with_sponge_short_short_600ms.mp4	66.stroke_top_to_bottom_with_sponge_short_short_600ms.mp4	457.1306922383512	457.7389732813392	0.6082810429879828	n/a	n/a	n/a	n/a
157.076171875	0.2	321692	111	2	1	0	0	13	283	stimuli\Videos_short_600ms_vertflip\21.repeated_touch_with_metal_chopstick_short_vertflip_short_600ms.mp4	21.repeated_touch_with_metal_chopstick_short_vertflip_short_600ms.mp4	457.93064655089006	458.5389648359034	0.6083182850134108	n/a	n/a	n/a	n/a
157.87646484375	0.2	323331	112	2	1	0	0	14	266	stimuli\Videos_short_600ms_horvertflip\88.repeated_stroke_with_plastic_brush_short_horvertflip_short_600ms.mp4	88.repeated_stroke_with_plastic_brush_short_horvertflip_short_600ms.mp4	458.7306416243857	459.3389602026439	0.6083185782581495	n/a	n/a	n/a	n/a
158.67626953125	0.2	324969	113	2	1	0	0	15	307	stimuli\Videos_short_600ms_vertflip\43.touch_top_to_bottom_with_sharp_wooden_stick_short_vertflip_short_600ms.mp4	43.touch_top_to_bottom_with_sharp_wooden_stick_short_vertflip_short_600ms.mp4	459.53062144917817	460.13894471934486	0.608323270166693	n/a	n/a	n/a	n/a
159.47607421875	0.2	326607	114	2	1	0	0	16	289	stimuli\Videos_short_600ms_vertflip\27.single_push_with_a_plastic_whisk_short_vertflip_short_600ms.mp4	27.single_push_with_a_plastic_whisk_short_vertflip_short_600ms.mp4	460.330577814427	460.9389485901695	0.6083707757425145	n/a	n/a	n/a	n/a
160.2763671875	0.2	328246	115	2	1	0	0	17	359	stimuli\Videos_short_600ms_vertflip\90.repeated_touch_with_sponge_short_vertflip_short_600ms.mp4	90.repeated_touch_with_sponge_short_vertflip_short_600ms.mp4	461.1316083335339	461.7389046621741	0.6072963286401318	n/a	n/a	n/a	n/a
161.076171875	0.2	329884	116	2	1	0	0	18	258	stimuli\Videos_short_600ms_horvertflip\80.stroke_with_sharp_stick_all_over_the_hand_short_horvertflip_short_600ms.mp4	80.stroke_with_sharp_stick_all_over_the_hand_short_horvertflip_short_600ms.mp4	461.9305430356533	462.538882434256	0.6083393986027659	n/a	n/a	n/a	n/a
161.8759765625	0.2	331522	117	2	1	0	0	19	28	stimuli\Videos_short_600ms\35.single_punch_with_hand_short_short_600ms.mp4	35.single_punch_with_hand_short_short_600ms.mp4	462.73054426727936	463.33886284553705	0.6083185782576948	n/a	n/a	n/a	n/a
162.67626953125	0.2	333161	118	2	1	0	0	20	197	stimuli\Videos_short_600ms_horvertflip\25.single_touch_with_stanley_knife_short_horvertflip_short_600ms.mp4	25.single_touch_with_stanley_knife_short_horvertflip_short_600ms.mp4	463.5305235055832	464.1388476554828	0.6083241498995449	n/a	n/a	n/a	n/a
163.47607421875	0.2	334799	119	2	1	0	0	21	93	stimuli\Videos_short_600ms_horflip\12.repeated_touch_with_nail_file_short_horflip_short_600ms.mp4	12.repeated_touch_with_nail_file_short_horflip_short_600ms.mp4	464.3305033303757	464.9388245478319	0.6083212174562505	n/a	n/a	n/a	n/a
164.27587890625	0.2	336437	120	2	1	0	0	22	117	stimuli\Videos_short_600ms_horflip\34.repeated_punch_with_hand_short_horflip_short_600ms.mp4	34.repeated_punch_with_hand_short_horflip_short_600ms.mp4	465.13048462138954	465.7388073050672	0.6083226836776703	n/a	n/a	n/a	n/a
165.076171875	0.2	338076	121	2	1	0	0	23	22	stimuli\Videos_short_600ms\3.single_push_with_finger_short_short_600ms.mp4	3.single_push_with_finger_short_short_600ms.mp4	465.9304641529377	466.53878742310394	0.6083232701662382	n/a	n/a	n/a	n/a
165.8759765625	0.2	339714	122	2	1	0	0	24	161	stimuli\Videos_short_600ms_horflip\74.fingers_walking_from_top_to_bottom_short_horflip_short_600ms.mp4	74.fingers_walking_from_top_to_bottom_short_horflip_short_600ms.mp4	466.7304269695608	467.3387695938511	0.6083426242903442	n/a	n/a	n/a	n/a
166.67578125	0.2	341352	123	2	1	0	0	25	159	stimuli\Videos_short_600ms_horflip\72.(short)stroke_with_finger_all_over_the_hand_short_horflip_short_600ms.mp4	72.(short)stroke_with_finger_all_over_the_hand_short_horflip_short_600ms.mp4	467.53038773347384	468.1387494186431	0.6083616851692568	n/a	n/a	n/a	n/a
167.47607421875	0.2	342991	124	2	1	0	0	26	275	stimuli\Videos_short_600ms_vertflip\14.repeated_touch_with_pencil_short_vertflip_short_600ms.mp4	14.repeated_touch_with_pencil_short_vertflip_short_600ms.mp4	468.3303983489174	468.9387283637027	0.6083300147852242	n/a	n/a	n/a	n/a
168.27587890625	0.2	344629	125	2	1	0	0	27	96	stimuli\Videos_short_600ms_horflip\15.single_stroke_top_to_bottom_with_a_plastic_whisk_short_horflip_short_600ms.mp4	15.single_stroke_top_to_bottom_with_a_plastic_whisk_short_horflip_short_600ms.mp4	469.13037758722135	469.7387105344494	0.6083329472280639	n/a	n/a	n/a	n/a
169.07568359375	0.2	346267	126	2	1	0	0	28	239	stimuli\Videos_short_600ms_horvertflip\63.stroke_top_to_bottom_with_screwdriver_short_horvertflip_short_600ms.mp4	63.stroke_top_to_bottom_with_screwdriver_short_horvertflip_short_600ms.mp4	469.930379405336	470.5386683659197	0.6082889605836499	n/a	n/a	n/a	n/a
169.8759765625	0.2	347906	127	2	1	0	0	29	102	stimuli\Videos_short_600ms_horflip\20.single_touch_with_screwdriver_short_horflip_short_600ms.mp4	20.single_touch_with_screwdriver_short_horflip_short_600ms.mp4	470.7303650950141	471.3386528826211	0.6082877876069688	n/a	n/a	n/a	n/a
170.67578125	0.2	349544	128	2	1	0	0	30	101	stimuli\Videos_short_600ms_horflip\2.single_touch_with_finger_short_horflip_short_600ms.mp4	2.single_touch_with_finger_short_horflip_short_600ms.mp4	471.53033993465374	472.1386303614588	0.6082904268050697	n/a	n/a	n/a	n/a
171.47607421875	0.2	351183	129	2	1	0	0	31	147	stimuli\Videos_short_600ms_horflip\61.single_hit_with_rolling_pin_short_horflip_short_600ms.mp4	61.single_hit_with_rolling_pin_short_horflip_short_600ms.mp4	472.3303285567747	472.938630713352	0.6083021565773379	n/a	n/a	n/a	n/a
172.27587890625	0.2	352821	130	2	1	0	0	32	241	stimuli\Videos_short_600ms_horvertflip\65.stroke_top_to_bottom_with_stanley_knife_short_horvertflip_short_600ms.mp4	65.stroke_top_to_bottom_with_stanley_knife_short_horvertflip_short_600ms.mp4	473.1302784706488	473.73859763539554	0.6083191647467174	n/a	n/a	n/a	n/a
173.07568359375	0.2	354459	131	2	1	0	0	33	326	stimuli\Videos_short_600ms_vertflip\60.single_push_with_tip_of_pencil_short_vertflip_short_600ms.mp4	60.single_push_with_tip_of_pencil_short_vertflip_short_600ms.mp4	473.93027676983206	474.5385821520965	0.6083053822644615	n/a	n/a	n/a	n/a
173.8759765625	0.2	356098	132	2	1	0	0	34	125	stimuli\Videos_short_600ms_horflip\41.injection_with_blunt_syringe_short_horflip_short_600ms.mp4	41.injection_with_blunt_syringe_short_horflip_short_600ms.mp4	474.7302604068002	475.3385719471951	0.6083115403948796	n/a	n/a	n/a	n/a
174.67578125	0.2	357736	133	2	1	0	0	35	224	stimuli\Videos_short_600ms_horvertflip\5.repeated_tap_with_finger_moving_from_top_to_bottom_short_horvertflip_short_600ms.mp4	5.repeated_tap_with_finger_moving_from_top_to_bottom_short_horvertflip_short_600ms.mp4	475.5302047490329	476.1385661409579	0.6083613919249728	n/a	n/a	n/a	n/a
175.4755859375	0.2	359374	134	2	1	0	0	36	55	stimuli\Videos_short_600ms\6.single_touch_with_flat_hand_short_short_600ms.mp4	6.single_touch_with_flat_hand_short_short_600ms.mp4	476.3302238685608	476.9385401008642	0.608316232303423	n/a	n/a	n/a	n/a
176.27587890625	0.2	361013	135	2	1	0	0	37	38	stimuli\Videos_short_600ms\44.pushing_top_to_bottom_with_finger_short_short_600ms.mp4	44.pushing_top_to_bottom_with_finger_short_short_600ms.mp4	477.13020515957464	477.7385208053895	0.6083156458148551	n/a	n/a	n/a	n/a
177.07568359375	0.2	362651	136	2	1	0	1	38	372	stimuli\Targets_short_600ms_horvertflip\brush-stroke_short_vertflip_short_600ms.mp4	brush-stroke_short_vertflip_short_600ms.mp4	477.93018351814567	478.53850033693766	0.608316818791991	n/a	n/a	n/a	n/a
177.87548828125	0.2	364289	137	2	1	0	0	39	132	stimuli\Videos_short_600ms_horflip\48.single_slap_with_hand_short_horflip_short_600ms.mp4	48.single_slap_with_hand_short_horflip_short_600ms.mp4	478.73016891458	479.3384819211958	0.6083130066158446	n/a	n/a	n/a	n/a
178.67578125	0.2	365928	138	2	1	0	1	40	381	stimuli\Targets_short_600ms_vertflip\finger-tap_short_horvertflip_short_600ms.mp4	finger-tap_short_horvertflip_short_600ms.mp4	479.5301422879977	480.13846438518726	0.6083220971895571	n/a	n/a	n/a	n/a
179.4755859375	0.2	367566	139	2	1	0	0	41	88	stimuli\Videos_short_600ms\9.single_touch_with_hammer_short_short_600ms.mp4	9.single_touch_with_hammer_short_short_600ms.mp4	480.33011771412544	480.9384424505135	0.6083247363881128	n/a	n/a	n/a	n/a
180.275390625	0.2	369204	140	2	1	0	0	42	41	stimuli\Videos_short_600ms\47.(long)scratching_with_finger_nails_short_short_600ms.mp4	47.(long)scratching_with_finger_nails_short_short_600ms.mp4	481.1300937267422	481.7384272604593	0.6083335337170865	n/a	n/a	n/a	n/a
181.07568359375	0.2	370843	141	2	1	0	0	43	183	stimuli\Videos_short_600ms_horvertflip\12.repeated_touch_with_nail_file_short_horvertflip_short_600ms.mp4	12.repeated_touch_with_nail_file_short_horvertflip_short_600ms.mp4	481.9300679798928	482.5384044460527	0.6083364661599262	n/a	n/a	n/a	n/a
181.87548828125	0.2	372481	142	2	1	0	0	44	265	stimuli\Videos_short_600ms_horvertflip\87.single_stroke_top_to_bottom_with_plastic_brush_short_horvertflip_short_600ms.mp4	87.single_stroke_top_to_bottom_with_plastic_brush_short_horvertflip_short_600ms.mp4	482.7300240518973	483.338387203288	0.6083631513906766	n/a	n/a	n/a	n/a
182.67529296875	0.2	374119	143	2	1	0	0	45	60	stimuli\Videos_short_600ms\64.repeated_touch_with_screwdriver_short_short_600ms.mp4	64.repeated_touch_with_screwdriver_short_short_600ms.mp4	483.530021764592	484.138365561859	0.6083437972670254	n/a	n/a	n/a	n/a
183.4755859375	0.2	375758	144	2	1	0	0	46	70	stimuli\Videos_short_600ms\73.single_stroke_with_flat_hand_short_short_600ms.mp4	73.single_stroke_with_flat_hand_short_short_600ms.mp4	484.3300165448434	484.93834538665146	0.6083288418080883	n/a	n/a	n/a	n/a
184.275390625	0.2	377396	145	2	1	0	0	47	104	stimuli\Videos_short_600ms_horflip\22.single_touch_with_metal_chopstick_short_horflip_short_600ms.mp4	22.single_touch_with_metal_chopstick_short_horflip_short_600ms.mp4	485.1300022345215	485.7383304898415	0.6083282553199751	n/a	n/a	n/a	n/a
185.0751953125	0.2	379034	146	2	1	0	0	48	57	stimuli\Videos_short_600ms\61.single_hit_with_rolling_pin_short_short_600ms.mp4	61.single_hit_with_rolling_pin_short_short_600ms.mp4	485.930000826949	486.53829506593024	0.608294238981216	n/a	n/a	n/a	n/a
185.87548828125	0.2	380673	147	2	1	0	0	49	121	stimuli\Videos_short_600ms_horflip\38.double_slap_with_pencil_short_horflip_short_600ms.mp4	38.double_slap_with_pencil_short_horflip_short_600ms.mp4	486.7299768395658	487.338268439348	0.6082915997822056	n/a	n/a	n/a	n/a
186.67529296875	0.2	382311	148	2	1	0	0	50	281	stimuli\Videos_short_600ms_vertflip\2.single_touch_with_finger_short_vertflip_short_600ms.mp4	2.single_touch_with_finger_short_vertflip_short_600ms.mp4	487.5299613562668	488.13824973036185	0.608288374095082	n/a	n/a	n/a	n/a
187.47509765625	0.2	383949	149	2	1	0	0	51	277	stimuli\Videos_short_600ms_vertflip\16.repeated_touch_with_plastic_brush_short_vertflip_short_600ms.mp4	16.repeated_touch_with_plastic_brush_short_vertflip_short_600ms.mp4	488.3299400080821	488.9382374727504	0.6082974646683397	n/a	n/a	n/a	n/a
188.275390625	0.2	385588	150	2	1	0	0	52	294	stimuli\Videos_short_600ms_vertflip\31.hand_grabbing_wrist_short_vertflip_short_600ms.mp4	31.hand_grabbing_wrist_short_vertflip_short_600ms.mp4	489.1299160206984	489.7382178840314	0.6083018633330539	n/a	n/a	n/a	n/a
189.0751953125	0.2	387226	151	2	1	0	0	53	90	stimuli\Videos_short_600ms_horflip\1.repeated_touch_with_finger_fast_short_horflip_short_600ms.mp4	1.repeated_touch_with_finger_fast_short_horflip_short_600ms.mp4	489.9298978982008	490.5382211683675	0.608323270166693	n/a	n/a	n/a	n/a
189.87548828125	0.2	388865	152	2	1	0	0	54	2	stimuli\Videos_short_600ms\11.single_touch_with_lighter_short_short_600ms.mp4	11.single_touch_with_lighter_short_short_600ms.mp4	490.7298791892146	491.338207737779	0.6083285485642591	n/a	n/a	n/a	n/a
190.67529296875	0.2	390503	153	2	1	0	0	55	130	stimuli\Videos_short_600ms_horflip\46.scratching_top_to_bottom_with_finger_nails_short_horflip_short_600ms.mp4	46.scratching_top_to_bottom_with_finger_nails_short_horflip_short_600ms.mp4	491.52987191675606	492.13817524631054	0.6083033295544737	n/a	n/a	n/a	n/a
191.47509765625	0.2	392141	154	2	1	0	0	56	295	stimuli\Videos_short_600ms_vertflip\32.single_(long)pinch_with_fingers_short_vertflip_short_600ms.mp4	32.single_(long)pinch_with_fingers_short_vertflip_short_600ms.mp4	492.32984265097525	492.938159763012	0.6083171120367297	n/a	n/a	n/a	n/a
192.275390625	0.2	393780	155	2	1	0	0	57	313	stimuli\Videos_short_600ms_vertflip\49.repeated_slap_with_hand_short_vertflip_short_600ms.mp4	49.repeated_slap_with_hand_short_vertflip_short_600ms.mp4	493.129825408211	493.7381407607816	0.6083153525705711	n/a	n/a	n/a	n/a
193.0751953125	0.2	395418	156	2	1	0	0	58	262	stimuli\Videos_short_600ms_horvertflip\84.single_touch_with_cotton_bud_short_horvertflip_short_600ms.mp4	84.single_touch_with_cotton_bud_short_horvertflip_short_600ms.mp4	493.929801127583	494.5381220517954	0.6083209242124212	n/a	n/a	n/a	n/a
193.875	0.2	397056	157	2	1	0	0	59	169	stimuli\Videos_short_600ms_horflip\81.single_stroke_top_to_bottom_with_cotton_pad_short_horflip_short_600ms.mp4	81.single_stroke_top_to_bottom_with_cotton_pad_short_horflip_short_600ms.mp4	494.72976071851895	495.3381033428093	0.6083426242903442	n/a	n/a	n/a	n/a
194.67529296875	0.2	398695	158	2	1	0	0	60	309	stimuli\Videos_short_600ms_vertflip\45.scratching_with_finger_nails_short_vertflip_short_600ms.mp4	45.scratching_with_finger_nails_short_vertflip_short_600ms.mp4	495.5297481676632	496.1380825811132	0.6083344134499384	n/a	n/a	n/a	n/a
195.47509765625	0.2	400333	159	2	1	0	0	61	217	stimuli\Videos_short_600ms_horvertflip\43.touch_top_to_bottom_with_sharp_wooden_stick_short_horvertflip_short_600ms.mp4	43.touch_top_to_bottom_with_sharp_wooden_stick_short_horvertflip_short_600ms.mp4	496.3297476398236	496.93806563159274	0.6083179917691268	n/a	n/a	n/a	n/a
196.27490234375	0.2	401971	160	2	1	0	0	62	17	stimuli\Videos_short_600ms\25.single_touch_with_stanley_knife_short_short_600ms.mp4	25.single_touch_with_stanley_knife_short_short_600ms.mp4	497.1297057645377	497.7380445766523	0.6083388121146527	n/a	n/a	n/a	n/a
197.0751953125	0.2	403610	161	2	1	0	0	63	205	stimuli\Videos_short_600ms_horvertflip\32.single_(long)pinch_with_fingers_short_horvertflip_short_600ms.mp4	32.single_(long)pinch_with_fingers_short_horvertflip_short_600ms.mp4	497.9296855893301	498.5380270406433	0.6083414513132084	n/a	n/a	n/a	n/a
197.875	0.2	405248	162	2	1	0	0	64	9	stimuli\Videos_short_600ms\18.single_stroke_from_top_to_bottom_with_rolling_pin_short_short_600ms.mp4	18.single_stroke_from_top_to_bottom_with_rolling_pin_short_short_600ms.mp4	498.72965339110647	499.33801097085575	0.6083575797492813	n/a	n/a	n/a	n/a
198.6748046875	0.2	406886	163	2	1	0	0	65	144	stimuli\Videos_short_600ms_horflip\59.single_push_with_long_side_pencil_short_horflip_short_600ms.mp4	59.single_push_with_long_side_pencil_short_horflip_short_600ms.mp4	499.5296534497554	500.13798287805207	0.6083294282966563	n/a	n/a	n/a	n/a
199.47509765625	0.2	408525	164	2	1	0	0	66	72	stimuli\Videos_short_600ms\75.(long)stroke_with_fingers_all_over_the_hand_short_short_600ms.mp4	75.(long)stroke_with_fingers_all_over_the_hand_short_short_600ms.mp4	500.3296347407693	500.9379647555545	0.6083300147852242	n/a	n/a	n/a	n/a
200.27490234375	0.2	410163	165	2	1	0	0	67	248	stimuli\Videos_short_600ms_horvertflip\71.single_stroke_with_finger_top_to_bottom_short_horvertflip_short_600ms.mp4	71.single_stroke_with_finger_top_to_bottom_short_horvertflip_short_600ms.mp4	501.1296394913268	501.73793109110943	0.6082915997826603	n/a	n/a	n/a	n/a
201.07470703125	0.2	411801	166	2	1	0	0	68	260	stimuli\Videos_short_600ms_horvertflip\82.repeated_touch_with_cotton_bud_short_horvertflip_short_600ms.mp4	82.repeated_touch_with_cotton_bud_short_horvertflip_short_600ms.mp4	501.92961198501166	502.53790681048145	0.608294825469784	n/a	n/a	n/a	n/a
201.875	0.2	413440	167	2	1	0	0	69	126	stimuli\Videos_short_600ms_horflip\42.single_slap_with_plastic_whisk_short_horflip_short_600ms.mp4	42.single_slap_with_plastic_whisk_short_horflip_short_600ms.mp4	502.7295938625141	503.33789777855714	0.6083039160430417	n/a	n/a	n/a	n/a
202.6748046875	0.2	415078	168	2	1	0	0	70	139	stimuli\Videos_short_600ms_horflip\54.repeated_touch_with_knife_short_horflip_short_600ms.mp4	54.repeated_touch_with_knife_short_horflip_short_600ms.mp4	503.529575740017	504.1378714452196	0.6082957052026359	n/a	n/a	n/a	n/a
203.474609375	0.2	416716	169	2	1	0	0	71	249	stimuli\Videos_short_600ms_horvertflip\72.(short)stroke_with_finger_all_over_the_hand_short_horvertflip_short_600ms.mp4	72.(short)stroke_with_finger_all_over_the_hand_short_horvertflip_short_600ms.mp4	504.3295546850761	504.9378797147085	0.6083250296323968	n/a	n/a	n/a	n/a
204.27490234375	0.2	418355	170	2	1	0	0	72	35	stimuli\Videos_short_600ms\41.injection_with_blunt_syringe_short_short_600ms.mp4	41.injection_with_blunt_syringe_short_short_600ms.mp4	505.1295374423114	505.7378334407588	0.6082959984473746	n/a	n/a	n/a	n/a
205.07470703125	0.2	419993	171	2	1	0	0	73	261	stimuli\Videos_short_600ms_horvertflip\83.single_stroke_top_to_bottom_with_cotton_bud_short_horvertflip_short_600ms.mp4	83.single_stroke_top_to_bottom_with_cotton_bud_short_horvertflip_short_600ms.mp4	505.9295158008824	506.5377707451282	0.6082549442458003	n/a	n/a	n/a	n/a
205.87451171875	0.2	421631	172	2	1	0	1	74	375	stimuli\Targets_short_600ms_horvertflip\finger-tap_short_vertflip_short_600ms.mp4	finger-tap_short_vertflip_short_600ms.mp4	506.7294970918963	507.3378156701544	0.6083185782581495	n/a	n/a	n/a	n/a
206.6748046875	0.2	423270	173	2	1	0	0	75	175	stimuli\Videos_short_600ms_horflip\87.single_stroke_top_to_bottom_with_plastic_brush_short_horflip_short_600ms.mp4	87.single_stroke_top_to_bottom_with_plastic_brush_short_horflip_short_600ms.mp4	507.52948131535345	508.1378072247187	0.6083259093652487	n/a	n/a	n/a	n/a
207.474609375	0.2	424908	174	2	1	0	0	76	317	stimuli\Videos_short_600ms_vertflip\52.touch_top_to_bottom_with_hammer_short_vertflip_short_600ms.mp4	52.touch_top_to_bottom_with_hammer_short_vertflip_short_600ms.mp4	508.32945732796975	508.9377761994717	0.6083188715019787	n/a	n/a	n/a	n/a
208.27490234375	0.2	426547	175	2	1	0	0	77	180	stimuli\Videos_short_600ms_horvertflip\1.repeated_touch_with_finger_fast_short_horvertflip_short_600ms.mp4	1.repeated_touch_with_finger_fast_short_horvertflip_short_600ms.mp4	509.1294271824561	509.7377601296846	0.6083329472285186	n/a	n/a	n/a	n/a
209.07470703125	0.2	428185	176	2	1	0	0	78	349	stimuli\Videos_short_600ms_vertflip\81.single_stroke_top_to_bottom_with_cotton_pad_short_vertflip_short_600ms.mp4	81.single_stroke_top_to_bottom_with_cotton_pad_short_vertflip_short_600ms.mp4	509.9294175640432	510.53773702203375	0.6083194579905467	n/a	n/a	n/a	n/a
209.87451171875	0.2	429823	177	2	1	0	0	79	324	stimuli\Videos_short_600ms_vertflip\59.single_push_with_long_side_pencil_short_vertflip_short_600ms.mp4	59.single_push_with_long_side_pencil_short_vertflip_short_600ms.mp4	510.72938741852954	511.33771801980333	0.6083306012737921	n/a	n/a	n/a	n/a
210.6748046875	0.2	431462	178	2	1	0	0	80	196	stimuli\Videos_short_600ms_horvertflip\24.single_stroke_top_to_bottom_with_a_spoon_short_horvertflip_short_600ms.mp4	24.single_stroke_top_to_bottom_with_a_spoon_short_horvertflip_short_600ms.mp4	511.5293452499998	512.1377007770391	0.6083555270392935	n/a	n/a	n/a	n/a
211.474609375	0.2	433100	179	2	1	0	0	81	42	stimuli\Videos_short_600ms\48.single_slap_with_hand_short_short_600ms.mp4	48.single_slap_with_hand_short_short_600ms.mp4	512.3293614370848	512.9376817748087	0.6083203377238533	n/a	n/a	n/a	n/a
212.2744140625	0.2	434738	180	2	1	0	0	82	97	stimuli\Videos_short_600ms_horflip\16.repeated_touch_with_plastic_brush_short_horflip_short_600ms.mp4	16.repeated_touch_with_plastic_brush_short_horflip_short_600ms.mp4	513.1293309983269	513.7376627725782	0.6083317742513827	n/a	n/a	n/a	n/a
213.07470703125	0.2	436377	181	2	1	0	0	83	292	stimuli\Videos_short_600ms_vertflip\3.single_push_with_finger_short_vertflip_short_600ms.mp4	3.single_push_with_finger_short_vertflip_short_600ms.mp4	513.9293023190346	514.5376428906145	0.6083405715799017	n/a	n/a	n/a	n/a
213.87451171875	0.2	438015	182	2	1	0	0	84	160	stimuli\Videos_short_600ms_horflip\73.single_stroke_with_flat_hand_short_horflip_short_600ms.mp4	73.single_stroke_with_flat_hand_short_horflip_short_600ms.mp4	514.7292938735989	515.3376197829641	0.6083259093652487	n/a	n/a	n/a	n/a
214.67431640625	0.2	439653	183	2	1	0	0	85	315	stimuli\Videos_short_600ms_vertflip\50.single_(long)hard_push_with_thumb_short_vertflip_short_600ms.mp4	50.single_(long)hard_push_with_thumb_short_vertflip_short_600ms.mp4	515.5292675402609	516.1376001942451	0.6083326539842346	n/a	n/a	n/a	n/a
215.474609375	0.2	441292	184	2	1	0	0	86	257	stimuli\Videos_short_600ms_horvertflip\8.single_touch_with_hairbrush_short_horvertflip_short_600ms.mp4	8.single_touch_with_hairbrush_short_horvertflip_short_600ms.mp4	516.3292761029945	516.9375993731612	0.608323270166693	n/a	n/a	n/a	n/a
216.2744140625	0.2	442930	185	2	1	0	0	87	89	stimuli\Videos_short_600ms\90.repeated_touch_with_sponge_short_short_600ms.mp4	90.repeated_touch_with_sponge_short_short_600ms.mp4	517.1292474237023	517.737526120736	0.6082786970337111	n/a	n/a	n/a	n/a
217.07421875	0.2	444568	186	2	1	0	0	88	308	stimuli\Videos_short_600ms_vertflip\44.pushing_top_to_bottom_with_finger_short_vertflip_short_600ms.mp4	44.pushing_top_to_bottom_with_finger_short_vertflip_short_600ms.mp4	517.9291803294075	518.5375478794624	0.6083675500549361	n/a	n/a	n/a	n/a
217.87451171875	0.2	446207	187	2	1	0	1	89	361	stimuli\Targets_short_600ms\chopstick-silver-tap_short_short_600ms.mp4	chopstick-silver-tap_short_short_600ms.mp4	518.7292091259972	519.3375095231088	0.6083003971116341	n/a	n/a	n/a	n/a
218.67431640625	0.2	447845	188	2	1	0	0	90	213	stimuli\Videos_short_600ms_horvertflip\4.repeated_tap_with_finger_slow_short_horvertflip_short_600ms.mp4	4.repeated_tap_with_finger_slow_short_horvertflip_short_600ms.mp4	519.529190417011	520.1374899343898	0.6082995173787822	n/a	n/a	n/a	n/a
219.47412109375	0.2	449483	189	2	1	0	0	91	166	stimuli\Videos_short_600ms_horflip\79.long_with_soft_brush_all_over_the_hand_short_horflip_short_600ms.mp4	79.long_with_soft_brush_all_over_the_hand_short_horflip_short_600ms.mp4	520.329170828292	520.9374806092212	0.6083097809291758	n/a	n/a	n/a	n/a
220.2744140625	0.2	451122	190	2	1	0	0	92	79	stimuli\Videos_short_600ms\81.single_stroke_top_to_bottom_with_cotton_pad_short_short_600ms.mp4	81.single_stroke_top_to_bottom_with_cotton_pad_short_short_600ms.mp4	521.129153292283	521.7374765624497	0.608323270166693	n/a	n/a	n/a	n/a
221.07421875	0.2	452760	191	2	1	0	0	93	291	stimuli\Videos_short_600ms_vertflip\29.single_pinch_with_tweezers_short_vertflip_short_600ms.mp4	29.single_pinch_with_tweezers_short_vertflip_short_600ms.mp4	521.9291339968083	522.5374543345322	0.6083203377238533	n/a	n/a	n/a	n/a
221.8740234375	0.2	454398	192	2	1	0	0	94	202	stimuli\Videos_short_600ms_horvertflip\3.single_push_with_finger_short_horvertflip_short_600ms.mp4	3.single_push_with_finger_short_horvertflip_short_600ms.mp4	522.7291149945779	523.3374450093636	0.6083300147856789	5.0	5.0	1.529163438535761	1.0
256.5732421875	0.2	525462	193	2	2	0	0	0	269	stimuli\Videos_short_600ms_horvertflip\90.repeated_touch_with_sponge_short_horvertflip_short_600ms.mp4	90.repeated_touch_with_sponge_short_horvertflip_short_600ms.mp4	557.4282912127003	558.0366033395833	0.6083121268829927	n/a	n/a	n/a	n/a
257.373046875	0.2	527100	194	2	2	0	0	1	335	stimuli\Videos_short_600ms_vertflip\69.stroke_with_soft_sock_short_vertflip_short_600ms.mp4	69.stroke_with_soft_sock_short_vertflip_short_600ms.mp4	558.2282232386722	558.8365863900633	0.6083631513911314	n/a	n/a	n/a	n/a
258.1728515625	0.2	528738	195	2	2	0	0	2	84	stimuli\Videos_short_600ms\86.touch_top_to_bottom_with_hair_brush_short_short_600ms.mp4	86.touch_top_to_bottom_with_hair_brush_short_short_600ms.mp4	559.0282109810607	559.6365653351224	0.6083543540617029	n/a	n/a	n/a	n/a
258.97314453125	0.2	530377	196	2	2	0	0	3	14	stimuli\Videos_short_600ms\22.single_touch_with_metal_chopstick_short_short_600ms.mp4	22.single_touch_with_metal_chopstick_short_short_600ms.mp4	559.8281831815013	560.4365475058696	0.6083643243682673	n/a	n/a	n/a	n/a
259.77294921875	0.2	532015	197	2	2	0	0	4	156	stimuli\Videos_short_600ms_horflip\7.repeated_touch_with_hairbrush_short_horflip_short_600ms.mp4	7.repeated_touch_with_hairbrush_short_horflip_short_600ms.mp4	560.6281935037007	561.2365238117302	0.6083303080295082	n/a	n/a	n/a	n/a
260.57275390625	0.2	533653	198	2	2	0	0	5	227	stimuli\Videos_short_600ms_horvertflip\52.touch_top_to_bottom_with_hammer_short_horvertflip_short_600ms.mp4	52.touch_top_to_bottom_with_hammer_short_horvertflip_short_600ms.mp4	561.4281712757827	562.0365027567898	0.6083314810070988	n/a	n/a	n/a	n/a
261.373046875	0.2	535292	199	2	2	0	1	6	362	stimuli\Targets_short_600ms\chopstickwood-tap_short_short_600ms.mp4	chopstickwood-tap_short_short_600ms.mp4	562.2281766128292	562.836469385589	0.6082927727597962	n/a	n/a	n/a	n/a
262.1728515625	0.2	536930	200	2	2	0	0	7	148	stimuli\Videos_short_600ms_horflip\62.touch_top_to_bottom_with_scissors_short_horflip_short_600ms.mp4	62.touch_top_to_bottom_with_scissors_short_horflip_short_600ms.mp4	563.0281488132698	563.6364439319839	0.6082951187140679	n/a	n/a	n/a	n/a
262.97314453125	0.2	538569	201	2	2	0	0	8	181	stimuli\Videos_short_600ms_horvertflip\10.single_touch_with_knife_short_horvertflip_short_600ms.mp4	10.single_touch_with_knife_short_horvertflip_short_600ms.mp4	563.8281321569937	564.4364249297535	0.6082927727597962	n/a	n/a	n/a	n/a
263.77294921875	0.2	540207	202	2	2	0	0	9	231	stimuli\Videos_short_600ms_horvertflip\56.repeated_touch_with_nail_file_short_horvertflip_short_600ms.mp4	56.repeated_touch_with_nail_file_short_horvertflip_short_600ms.mp4	564.6280823641121	565.2364047545459	0.6083223904338411	n/a	n/a	n/a	n/a
264.57275390625	0.2	541845	203	2	2	0	1	10	377	stimuli\Targets_short_600ms_horvertflip\hand-stroke_short_vertflip_short_600ms.mp4	hand-stroke_short_vertflip_short_600ms.mp4	565.4281029498618	566.0363933766673	0.6082904268055245	n/a	n/a	n/a	n/a
265.373046875	0.2	543484	204	2	2	0	0	11	65	stimuli\Videos_short_600ms\69.stroke_with_soft_sock_short_short_600ms.mp4	69.stroke_with_soft_sock_short_short_600ms.mp4	566.2280786692338	566.8364007664234	0.6083220971895571	n/a	n/a	n/a	n/a
266.1728515625	0.2	545122	205	2	2	0	0	12	185	stimuli\Videos_short_600ms_horvertflip\14.repeated_touch_with_pencil_short_horvertflip_short_600ms.mp4	14.repeated_touch_with_pencil_short_horvertflip_short_600ms.mp4	567.0280282898641	567.636377658773	0.6083493689088755	n/a	n/a	n/a	n/a
266.97265625	0.2	546760	206	2	2	0	0	13	274	stimuli\Videos_short_600ms_vertflip\13.single_touch_with_pen_short_vertflip_short_600ms.mp4	13.single_touch_with_pen_short_vertflip_short_600ms.mp4	567.828034506643	568.4363536713893	0.6083191647462627	n/a	n/a	n/a	n/a
267.77294921875	0.2	548399	207	2	2	0	0	14	191	stimuli\Videos_short_600ms_horvertflip\2.single_touch_with_finger_short_horvertflip_short_600ms.mp4	2.single_touch_with_finger_short_horvertflip_short_600ms.mp4	568.6280152111683	569.2363455191978	0.6083303080295082	n/a	n/a	n/a	n/a
268.57275390625	0.2	550037	208	2	2	0	0	15	338	stimuli\Videos_short_600ms_vertflip\71.single_stroke_with_finger_top_to_bottom_short_vertflip_short_600ms.mp4	71.single_stroke_with_finger_top_to_bottom_short_vertflip_short_600ms.mp4	569.427999434625	570.0363185993717	0.6083191647467174	n/a	n/a	n/a	n/a
269.37255859375	0.2	551675	209	2	2	0	0	16	47	stimuli\Videos_short_600ms\52.touch_top_to_bottom_with_hammer_short_short_600ms.mp4	52.touch_top_to_bottom_with_hammer_short_short_600ms.mp4	570.2279774999517	570.8362940254995	0.608316525547707	n/a	n/a	n/a	n/a
270.1728515625	0.2	553314	210	2	2	0	0	17	114	stimuli\Videos_short_600ms_horflip\31.hand_grabbing_wrist_short_horflip_short_600ms.mp4	31.hand_grabbing_wrist_short_horflip_short_600ms.mp4	571.027960257187	571.6362767827347	0.608316525547707	n/a	n/a	n/a	n/a
270.97265625	0.2	554952	211	2	2	0	0	18	75	stimuli\Videos_short_600ms\78.single_stroke_top_to_bottom_with_soft_brush_short_short_600ms.mp4	78.single_stroke_top_to_bottom_with_soft_brush_short_short_600ms.mp4	571.8279221940772	572.4362533818401	0.6083311877628148	n/a	n/a	n/a	n/a
271.7724609375	0.2	556590	212	2	2	0	0	19	337	stimuli\Videos_short_600ms_vertflip\70.(long)stroke_with_finger_all_over_the_hand_short_vertflip_short_600ms.mp4	70.(long)stroke_with_finger_all_over_the_hand_short_vertflip_short_600ms.mp4	572.627885303945	573.2362373120525	0.6083520081074312	n/a	n/a	n/a	n/a
272.57275390625	0.2	558229	213	2	2	0	0	20	52	stimuli\Videos_short_600ms\57.single_touch_with_nail_file_short_short_600ms.mp4	57.single_touch_with_nail_file_short_short_600ms.mp4	573.4278566246528	574.0362177233335	0.6083610986806889	n/a	n/a	n/a	n/a
273.37255859375	0.2	559867	214	2	2	0	0	21	134	stimuli\Videos_short_600ms_horflip\5.repeated_tap_with_finger_moving_from_top_to_bottom_short_horflip_short_600ms.mp4	5.repeated_tap_with_finger_moving_from_top_to_bottom_short_horflip_short_600ms.mp4	574.2278373291781	574.8361969616374	0.608359632459269	n/a	n/a	n/a	n/a
274.17236328125	0.2	561505	215	2	2	0	0	22	67	stimuli\Videos_short_600ms\70.(long)stroke_with_finger_all_over_the_hand_short_short_600ms.mp4	70.(long)stroke_with_finger_all_over_the_hand_short_short_600ms.mp4	575.0278177404591	575.6361800121169	0.6083622716578247	n/a	n/a	n/a	n/a
274.97265625	0.2	563144	216	2	2	0	0	23	188	stimuli\Videos_short_600ms_horvertflip\17.repeated_touch_with_rolling_pin_short_horvertflip_short_600ms.mp4	17.repeated_touch_with_rolling_pin_short_horvertflip_short_600ms.mp4	575.8278148666648	576.4361566112223	0.6083417445574923	n/a	n/a	n/a	n/a
275.7724609375	0.2	564782	217	2	2	0	0	24	78	stimuli\Videos_short_600ms\80.stroke_with_sharp_stick_all_over_the_hand_short_short_600ms.mp4	80.stroke_with_sharp_stick_all_over_the_hand_short_short_600ms.mp4	576.6278125793594	577.2361379022361	0.6083253228766807	n/a	n/a	n/a	n/a
276.572265625	0.2	566420	218	2	2	0	0	25	145	stimuli\Videos_short_600ms_horflip\6.single_touch_with_flat_hand_short_horflip_short_600ms.mp4	6.single_touch_with_flat_hand_short_horflip_short_600ms.mp4	577.4278173299169	578.0361356149303	0.6083182850134108	n/a	n/a	n/a	n/a
277.37255859375	0.2	568059	219	2	2	0	0	26	232	stimuli\Videos_short_600ms_horvertflip\57.single_touch_with_nail_file_short_horvertflip_short_600ms.mp4	57.single_touch_with_nail_file_short_horvertflip_short_600ms.mp4	578.2277907033347	578.8360781976974	0.6082874943626848	n/a	n/a	n/a	n/a
278.17236328125	0.2	569697	220	2	2	0	0	27	0	stimuli\Videos_short_600ms\1.repeated_touch_with_finger_fast_short_short_600ms.mp4	1.repeated_touch_with_finger_fast_short_short_600ms.mp4	579.0277661294629	579.6360609549326	0.608294825469784	n/a	n/a	n/a	n/a
278.97216796875	0.2	571335	221	2	2	0	0	28	81	stimuli\Videos_short_600ms\83.single_stroke_top_to_bottom_with_cotton_bud_short_short_600ms.mp4	83.single_stroke_top_to_bottom_with_cotton_bud_short_short_600ms.mp4	579.8277506461638	580.4360434189236	0.6082927727597962	n/a	n/a	n/a	n/a
279.7724609375	0.2	572974	222	2	2	0	0	29	151	stimuli\Videos_short_600ms_horflip\65.stroke_top_to_bottom_with_stanley_knife_short_horflip_short_600ms.mp4	65.stroke_top_to_bottom_with_stanley_knife_short_horflip_short_600ms.mp4	580.6277275385135	581.2360255896704	0.6082980511569076	n/a	n/a	n/a	n/a
280.572265625	0.2	574612	223	2	2	0	0	30	303	stimuli\Videos_short_600ms_vertflip\4.repeated_tap_with_finger_slow_short_vertflip_short_600ms.mp4	4.repeated_tap_with_finger_slow_short_vertflip_short_600ms.mp4	581.4277082430388	582.0360112793489	0.6083030363101898	n/a	n/a	n/a	n/a
281.37255859375	0.2	576251	224	2	2	0	0	31	24	stimuli\Videos_short_600ms\31.hand_grabbing_wrist_short_short_600ms.mp4	31.hand_grabbing_wrist_short_short_600ms.mp4	582.2276880678312	582.8360172028836	0.6083291350523723	n/a	n/a	n/a	n/a
282.17236328125	0.2	577889	225	2	2	0	0	32	345	stimuli\Videos_short_600ms_vertflip\78.single_stroke_top_to_bottom_with_soft_brush_short_vertflip_short_600ms.mp4	78.single_stroke_top_to_bottom_with_soft_brush_short_vertflip_short_600ms.mp4	583.0276265451778	583.6359896965685	0.6083631513906766	n/a	n/a	n/a	n/a
282.97216796875	0.2	579527	226	2	2	0	0	33	112	stimuli\Videos_short_600ms_horflip\3.single_push_with_finger_short_horflip_short_600ms.mp4	3.single_push_with_finger_short_horflip_short_600ms.mp4	583.8276550485232	584.4359780254456	0.608322976922409	n/a	n/a	n/a	n/a
283.7724609375	0.2	581166	227	2	2	0	0	34	68	stimuli\Videos_short_600ms\71.single_stroke_with_finger_top_to_bottom_short_short_600ms.mp4	71.single_stroke_with_finger_top_to_bottom_short_short_600ms.mp4	584.6276433774003	585.2359487596648	0.6083053822644615	n/a	n/a	n/a	n/a
284.572265625	0.2	582804	228	2	2	0	0	35	118	stimuli\Videos_short_600ms_horflip\35.single_punch_with_hand_short_horflip_short_600ms.mp4	35.single_punch_with_hand_short_horflip_short_600ms.mp4	585.4276132318867	586.0359300506786	0.608316818791991	n/a	n/a	n/a	n/a
285.3720703125	0.2	584442	229	2	2	0	1	36	369	stimuli\Targets_short_600ms_horflip\finger-tap_short_horflip_short_600ms.mp4	finger-tap_short_horflip_short_600ms.mp4	586.2275904174801	586.8359107552039	0.6083203377238533	n/a	n/a	n/a	n/a
286.17236328125	0.2	586081	230	2	2	0	0	37	40	stimuli\Videos_short_600ms\46.scratching_top_to_bottom_with_finger_nails_short_short_600ms.mp4	46.scratching_top_to_bottom_with_finger_nails_short_short_600ms.mp4	587.0275596854779	587.6358935124392	0.6083338269613705	n/a	n/a	n/a	n/a
286.97216796875	0.2	587719	231	2	2	0	0	38	149	stimuli\Videos_short_600ms_horflip\63.stroke_top_to_bottom_with_screwdriver_short_horflip_short_600ms.mp4	63.stroke_top_to_bottom_with_screwdriver_short_horflip_short_600ms.mp4	587.8275292467199	588.4358733372317	0.6083440905117641	n/a	n/a	n/a	n/a
287.77197265625	0.2	589357	232	2	2	0	0	39	173	stimuli\Videos_short_600ms_horflip\85.touch_top_to_bottom_with_fabric_short_horflip_short_600ms.mp4	85.touch_top_to_bottom_with_fabric_short_horflip_short_600ms.mp4	588.627510830978	589.2358162132425	0.6083053822644615	n/a	n/a	n/a	n/a
288.572265625	0.2	590996	233	2	2	0	0	40	357	stimuli\Videos_short_600ms_vertflip\89.single_touch_with_plastic_brush_short_vertflip_short_600ms.mp4	89.single_touch_with_plastic_brush_short_vertflip_short_600ms.mp4	589.4274713016468	590.0358338665494	0.6083625649025635	n/a	n/a	n/a	n/a
289.3720703125	0.2	592634	234	2	2	0	0	41	29	stimuli\Videos_short_600ms\36.single_slap_with_full_hand_short_short_600ms.mp4	36.single_slap_with_full_hand_short_short_600ms.mp4	590.2274511264393	590.8358163305404	0.6083652041011192	n/a	n/a	n/a	n/a
290.171875	0.2	594272	235	2	2	0	0	42	210	stimuli\Videos_short_600ms_horvertflip\37.single_stab_with_nail_file_short_horvertflip_short_600ms.mp4	37.single_stab_with_nail_file_short_horvertflip_short_600ms.mp4	591.0274611553943	591.6357929296457	0.6083317742513827	n/a	n/a	n/a	n/a
290.97216796875	0.2	595911	236	2	2	0	0	43	11	stimuli\Videos_short_600ms\2.single_touch_with_finger_short_short_600ms.mp4	2.single_touch_with_finger_short_short_600ms.mp4	591.8274494842715	592.4357557462688	0.6083062619973134	n/a	n/a	n/a	n/a
291.77197265625	0.2	597549	237	2	2	0	0	44	305	stimuli\Videos_short_600ms_vertflip\41.injection_with_blunt_syringe_short_vertflip_short_600ms.mp4	41.injection_with_blunt_syringe_short_vertflip_short_600ms.mp4	592.6274498361647	593.235751406253	0.6083015700883152	n/a	n/a	n/a	n/a
292.57177734375	0.2	599187	238	2	2	0	0	45	95	stimuli\Videos_short_600ms_horflip\14.repeated_touch_with_pencil_short_horflip_short_600ms.mp4	14.repeated_touch_with_pencil_short_horflip_short_600ms.mp4	593.4274281947353	594.035715689098	0.6082874943626848	n/a	n/a	n/a	n/a
293.3720703125	0.2	600826	239	2	2	0	1	46	383	stimuli\Targets_short_600ms_vertflip\hand-stroke_short_horvertflip_short_600ms.mp4	hand-stroke_short_horvertflip_short_600ms.mp4	594.2274012749092	594.8356963936233	0.6082951187140679	n/a	n/a	n/a	n/a
294.171875	0.2	602464	240	2	2	0	0	47	21	stimuli\Videos_short_600ms\29.single_pinch_with_tweezers_short_short_600ms.mp4	29.single_pinch_with_tweezers_short_short_600ms.mp4	595.0273819794345	595.6356759251714	0.6082939457369321	n/a	n/a	n/a	n/a
294.9716796875	0.2	604102	241	2	2	0	0	48	152	stimuli\Videos_short_600ms_horflip\66.stroke_top_to_bottom_with_sponge_short_horflip_short_600ms.mp4	66.stroke_top_to_bottom_with_sponge_short_horflip_short_600ms.mp4	595.8273620974712	596.435661028361	0.6082989308897595	n/a	n/a	n/a	n/a
295.77197265625	0.2	605741	242	2	2	0	0	49	247	stimuli\Videos_short_600ms_horvertflip\70.(long)stroke_with_finger_all_over_the_hand_short_horvertflip_short_600ms.mp4	70.(long)stroke_with_finger_all_over_the_hand_short_horvertflip_short_600ms.mp4	596.6273433884851	597.235645545062	0.6083021565768831	n/a	n/a	n/a	n/a
296.57177734375	0.2	607379	243	2	2	0	0	50	87	stimuli\Videos_short_600ms\89.single_touch_with_plastic_brush_short_short_600ms.mp4	89.single_touch_with_plastic_brush_short_short_600ms.mp4	597.4273243862547	598.0356508821085	0.6083264958538166	n/a	n/a	n/a	n/a
297.37158203125	0.2	609017	244	2	2	0	0	51	179	stimuli\Videos_short_600ms_horflip\90.repeated_touch_with_sponge_short_horflip_short_600ms.mp4	90.repeated_touch_with_sponge_short_horflip_short_600ms.mp4	598.2273150610856	598.8356236690377	0.6083086079520399	n/a	n/a	n/a	n/a
298.171875	0.2	610656	245	2	2	0	0	52	49	stimuli\Videos_short_600ms\54.repeated_touch_with_knife_short_short_600ms.mp4	54.repeated_touch_with_knife_short_short_600ms.mp4	599.027284915572	599.6356152236019	0.6083303080299629	n/a	n/a	n/a	n/a
298.9716796875	0.2	612294	246	2	2	0	0	53	194	stimuli\Videos_short_600ms_horvertflip\22.single_touch_with_metal_chopstick_short_horvertflip_short_600ms.mp4	22.single_touch_with_metal_chopstick_short_horvertflip_short_600ms.mp4	599.827265326853	600.4355836118668	0.6083182850138655	n/a	n/a	n/a	n/a
299.771484375	0.2	613932	247	2	2	0	0	54	133	stimuli\Videos_short_600ms_horflip\49.repeated_slap_with_hand_short_horflip_short_600ms.mp4	49.repeated_slap_with_hand_short_horflip_short_600ms.mp4	600.6272495503101	601.2355643163921	0.6083147660820032	n/a	n/a	n/a	n/a
300.57177734375	0.2	615571	248	2	2	0	0	55	136	stimuli\Videos_short_600ms_horflip\51.repeated_touch_with_hammer_short_horflip_short_600ms.mp4	51.repeated_touch_with_hammer_short_horflip_short_600ms.mp4	601.4272232169722	602.0355467803831	0.6083235634109769	n/a	n/a	n/a	n/a
301.37158203125	0.2	617209	249	2	2	0	1	56	382	stimuli\Targets_short_600ms_vertflip\hand-pinch_short_horvertflip_short_600ms.mp4	hand-pinch_short_horvertflip_short_600ms.mp4	602.2271892592828	602.8355254321984	0.6083361729156422	n/a	n/a	n/a	n/a
302.171875	0.2	618848	250	2	2	0	0	57	344	stimuli\Videos_short_600ms_vertflip\77.tapping_with_all_fingers_short_vertflip_short_600ms.mp4	77.tapping_with_all_fingers_short_vertflip_short_600ms.mp4	603.0271951828174	603.6355046705019	0.608309487684437	n/a	n/a	n/a	n/a
302.9716796875	0.2	620486	251	2	2	0	0	58	32	stimuli\Videos_short_600ms\39.single_stab_with_scissors_short_short_600ms.mp4	39.single_stab_with_scissors_short_short_600ms.mp4	603.8271817522284	604.4354874277376	0.6083056755092002	n/a	n/a	n/a	n/a
303.771484375	0.2	622124	252	2	2	0	0	59	211	stimuli\Videos_short_600ms_horvertflip\38.double_slap_with_pencil_short_horvertflip_short_600ms.mp4	38.double_slap_with_pencil_short_horvertflip_short_600ms.mp4	604.627105274116	605.2354675457739	0.6083622716578247	n/a	n/a	n/a	n/a
304.57177734375	0.2	623763	253	2	2	0	0	60	143	stimuli\Videos_short_600ms_horflip\58.single_slap_with_pencil_short_horflip_short_600ms.mp4	58.single_slap_with_pencil_short_horflip_short_600ms.mp4	605.4271082652078	606.0354476638106	0.6083393986027659	n/a	n/a	n/a	n/a
305.37158203125	0.2	625401	254	2	2	0	0	61	252	stimuli\Videos_short_600ms_horvertflip\75.(long)stroke_with_fingers_all_over_the_hand_short_horvertflip_short_600ms.mp4	75.(long)stroke_with_fingers_all_over_the_hand_short_horvertflip_short_600ms.mp4	606.2270954211078	606.835429541313	0.6083341202051997	n/a	n/a	n/a	n/a
306.17138671875	0.2	627039	255	2	2	0	0	62	131	stimuli\Videos_short_600ms_horflip\47.(long)scratching_with_finger_nails_short_horflip_short_600ms.mp4	47.(long)scratching_with_finger_nails_short_horflip_short_600ms.mp4	607.0270814040302	607.6354073133955	0.6083259093652487	n/a	n/a	n/a	n/a
306.9716796875	0.2	628678	256	2	2	0	0	63	341	stimuli\Videos_short_600ms_vertflip\74.fingers_walking_from_top_to_bottom_short_vertflip_short_600ms.mp4	74.fingers_walking_from_top_to_bottom_short_vertflip_short_600ms.mp4	607.8270832221449	608.4353976949826	0.6083144728377192	n/a	n/a	n/a	n/a
307.771484375	0.2	630316	257	2	2	0	0	64	50	stimuli\Videos_short_600ms\55.touch_top_to_bottom_with_nail_file_short_short_600ms.mp4	55.touch_top_to_bottom_with_nail_file_short_short_600ms.mp4	608.6270618739602	609.2353490750781	0.6082872011179461	n/a	n/a	n/a	n/a
308.5712890625	0.2	631954	258	2	2	0	0	65	255	stimuli\Videos_short_600ms_horvertflip\78.single_stroke_top_to_bottom_with_soft_brush_short_horvertflip_short_600ms.mp4	78.single_stroke_top_to_bottom_with_soft_brush_short_horvertflip_short_600ms.mp4	609.4270334879122	610.0353300728477	0.6082965849354878	n/a	n/a	n/a	n/a
309.37158203125	0.2	633593	259	2	2	0	0	66	209	stimuli\Videos_short_600ms_horvertflip\36.single_slap_with_full_hand_short_horvertflip_short_600ms.mp4	36.single_slap_with_full_hand_short_horvertflip_short_600ms.mp4	610.2270180046132	610.8353289585195	0.6083109539063116	n/a	n/a	n/a	n/a
310.17138671875	0.2	635231	260	2	2	0	0	67	106	stimuli\Videos_short_600ms_horflip\24.single_stroke_top_to_bottom_with_a_spoon_short_horflip_short_600ms.mp4	24.single_stroke_top_to_bottom_with_a_spoon_short_horflip_short_600ms.mp4	611.02699606994	611.6353169941524	0.6083209242124212	n/a	n/a	n/a	n/a
310.97119140625	0.2	636869	261	2	2	0	0	68	15	stimuli\Videos_short_600ms\23.single_push_with_a_spoon_short_short_600ms.mp4	23.single_push_with_a_spoon_short_short_600ms.mp4	611.8269779474424	612.4352965257006	0.6083185782581495	n/a	n/a	n/a	n/a
311.771484375	0.2	638508	262	2	2	0	0	69	339	stimuli\Videos_short_600ms_vertflip\72.(short)stroke_with_finger_all_over_the_hand_short_vertflip_short_600ms.mp4	72.(short)stroke_with_finger_all_over_the_hand_short_vertflip_short_600ms.mp4	612.6269571857463	613.2352839748444	0.6083267890981006	n/a	n/a	n/a	n/a
312.5712890625	0.2	640146	263	2	2	0	0	70	340	stimuli\Videos_short_600ms_vertflip\73.single_stroke_with_flat_hand_short_vertflip_short_600ms.mp4	73.single_stroke_with_flat_hand_short_vertflip_short_600ms.mp4	613.4269364240502	614.0352582279954	0.6083218039452731	n/a	n/a	n/a	n/a
313.37109375	0.2	641784	264	2	2	0	0	71	73	stimuli\Videos_short_600ms\76.tickle_with_fingers_from_top_to_bottom_short_short_600ms.mp4	76.tickle_with_fingers_from_top_to_bottom_short_short_600ms.mp4	614.2269200610183	614.8352409852307	0.6083209242124212	n/a	n/a	n/a	n/a
314.17138671875	0.2	643423	265	2	2	0	0	72	204	stimuli\Videos_short_600ms_horvertflip\31.hand_grabbing_wrist_short_horvertflip_short_600ms.mp4	31.hand_grabbing_wrist_short_horvertflip_short_600ms.mp4	615.0268995925665	615.6352211032674	0.6083215107009892	n/a	n/a	n/a	n/a
314.97119140625	0.2	645061	266	2	2	0	0	73	51	stimuli\Videos_short_600ms\56.repeated_touch_with_nail_file_short_short_600ms.mp4	56.repeated_touch_with_nail_file_short_short_600ms.mp4	615.8268797106032	616.4351982888609	0.6083185782576948	n/a	n/a	n/a	n/a
315.77099609375	0.2	646699	267	2	2	0	0	74	285	stimuli\Videos_short_600ms_vertflip\23.single_push_with_a_spoon_short_vertflip_short_600ms.mp4	23.single_push_with_a_spoon_short_vertflip_short_600ms.mp4	616.6268692124574	617.2351792866305	0.608310074173005	n/a	n/a	n/a	n/a
316.5712890625	0.2	648338	268	2	2	0	0	75	184	stimuli\Videos_short_600ms_horvertflip\13.single_touch_with_pen_short_horvertflip_short_600ms.mp4	13.single_touch_with_pen_short_horvertflip_short_600ms.mp4	617.426843465608	618.0351608708886	0.6083174052805589	n/a	n/a	n/a	n/a
317.37109375	0.2	649976	269	2	2	0	0	76	290	stimuli\Videos_short_600ms_vertflip\28.single_injection_with_sharp_needle_short_vertflip_short_600ms.mp4	28.single_injection_with_sharp_needle_short_vertflip_short_600ms.mp4	618.2268203579576	618.8351412821696	0.6083209242119665	n/a	n/a	n/a	n/a
318.1708984375	0.2	651614	270	2	2	0	0	77	92	stimuli\Videos_short_600ms_horflip\11.single_touch_with_lighter_short_horflip_short_600ms.mp4	11.single_touch_with_lighter_short_horflip_short_600ms.mp4	619.026779362405	619.6351225731835	0.6083432107784574	n/a	n/a	n/a	n/a
318.97119140625	0.2	653253	271	2	2	0	0	78	108	stimuli\Videos_short_600ms_horflip\26.single_touch_with_a_blunt_syringe_short_horflip_short_600ms.mp4	26.single_touch_with_a_blunt_syringe_short_horflip_short_600ms.mp4	619.826770623725	620.4351018114874	0.6083311877623601	n/a	n/a	n/a	n/a
319.77099609375	0.2	654891	272	2	2	0	0	79	163	stimuli\Videos_short_600ms_horflip\76.tickle_with_fingers_from_top_to_bottom_short_horflip_short_600ms.mp4	76.tickle_with_fingers_from_top_to_bottom_short_horflip_short_600ms.mp4	620.6267416511885	621.2350822227684	0.6083405715799017	n/a	n/a	n/a	n/a
320.5712890625	0.2	656530	273	2	2	0	0	80	259	stimuli\Videos_short_600ms_horvertflip\81.single_stroke_top_to_bottom_with_cotton_pad_short_horvertflip_short_600ms.mp4	81.single_stroke_top_to_bottom_with_cotton_pad_short_horvertflip_short_600ms.mp4	621.4267326192642	622.035063220538	0.6083306012737921	n/a	n/a	n/a	n/a
321.37109375	0.2	658168	274	2	2	0	0	81	328	stimuli\Videos_short_600ms_vertflip\62.touch_top_to_bottom_with_scissors_short_vertflip_short_600ms.mp4	62.touch_top_to_bottom_with_scissors_short_vertflip_short_600ms.mp4	622.2267086318805	622.8350406993761	0.6083320674956667	n/a	n/a	n/a	n/a
322.1708984375	0.2	659806	275	2	2	0	0	82	69	stimuli\Videos_short_600ms\72.(short)stroke_with_finger_all_over_the_hand_short_short_600ms.mp4	72.(short)stroke_with_finger_all_over_the_hand_short_short_600ms.mp4	623.0267130891937	623.6350120200839	0.6082989308902143	n/a	n/a	n/a	n/a
322.97119140625	0.2	661445	276	2	2	0	0	83	26	stimuli\Videos_short_600ms\33.scratch_top_to_bottom_with_scissors_short_short_600ms.mp4	33.scratch_top_to_bottom_with_scissors_short_short_600ms.mp4	623.8266952599408	624.4349809948374	0.6082857348965263	n/a	n/a	n/a	n/a
323.77099609375	0.2	663083	277	2	2	0	0	84	343	stimuli\Videos_short_600ms_vertflip\76.tickle_with_fingers_from_top_to_bottom_short_vertflip_short_600ms.mp4	76.tickle_with_fingers_from_top_to_bottom_short_vertflip_short_600ms.mp4	624.6266689266029	625.2349713764245	0.6083024498216218	n/a	n/a	n/a	n/a
324.57080078125	0.2	664721	278	2	2	0	0	85	278	stimuli\Videos_short_600ms_vertflip\17.repeated_touch_with_rolling_pin_short_vertflip_short_600ms.mp4	17.repeated_touch_with_rolling_pin_short_vertflip_short_600ms.mp4	625.426650510861	626.0349476822851	0.6082971714240557	n/a	n/a	n/a	n/a
325.37109375	0.2	666360	279	2	2	0	0	86	358	stimuli\Videos_short_600ms_vertflip\9.single_touch_with_hammer_short_vertflip_short_600ms.mp4	9.single_touch_with_hammer_short_vertflip_short_600ms.mp4	626.2266274032106	626.8349515531097	0.6083241498990901	n/a	n/a	n/a	n/a
326.1708984375	0.2	667998	280	2	2	0	0	87	5	stimuli\Videos_short_600ms\14.repeated_touch_with_pencil_short_short_600ms.mp4	14.repeated_touch_with_pencil_short_short_600ms.mp4	627.0266107469345	627.6349108508014	0.6083001038668954	n/a	n/a	n/a	n/a
326.970703125	0.2	669636	281	2	2	0	0	88	141	stimuli\Videos_short_600ms_horflip\56.repeated_touch_with_nail_file_short_horflip_short_600ms.mp4	56.repeated_touch_with_nail_file_short_horflip_short_600ms.mp4	627.8265899852383	628.4349156013593	0.6083256161209647	n/a	n/a	n/a	n/a
327.77099609375	0.2	671275	282	2	2	0	0	89	304	stimuli\Videos_short_600ms_vertflip\40.repeated_push_with_finger_short_vertflip_short_600ms.mp4	40.repeated_push_with_finger_short_vertflip_short_600ms.mp4	628.6265706897636	629.2348916139756	0.6083209242119665	n/a	n/a	n/a	n/a
328.57080078125	0.2	672913	283	2	2	0	0	90	244	stimuli\Videos_short_600ms_horvertflip\68.stroke_top_to_bottom_with_shawl_short_horvertflip_short_600ms.mp4	68.stroke_top_to_bottom_with_shawl_short_horvertflip_short_600ms.mp4	629.4265563794418	630.0348720252566	0.6083156458148551	n/a	n/a	n/a	n/a
329.37060546875	0.2	674551	284	2	2	0	0	91	334	stimuli\Videos_short_600ms_vertflip\68.stroke_top_to_bottom_with_shawl_short_vertflip_short_600ms.mp4	68.stroke_top_to_bottom_with_shawl_short_vertflip_short_600ms.mp4	630.2265350312571	630.8348497973391	0.6083147660820032	n/a	n/a	n/a	n/a
330.1708984375	0.2	676190	285	2	2	0	0	92	178	stimuli\Videos_short_600ms_horflip\9.single_touch_with_hammer_short_horflip_short_600ms.mp4	9.single_touch_with_hammer_short_horflip_short_600ms.mp4	631.0265224804014	631.6348360735058	0.6083135931044126	n/a	n/a	n/a	n/a
330.970703125	0.2	677828	286	2	2	0	0	93	37	stimuli\Videos_short_600ms\43.touch_top_to_bottom_with_sharp_wooden_stick_short_short_600ms.mp4	43.touch_top_to_bottom_with_sharp_wooden_stick_short_short_600ms.mp4	631.8264979065291	632.4348109131454	0.6083130066162994	n/a	n/a	n/a	n/a
331.7705078125	0.2	679466	287	2	2	0	0	94	94	stimuli\Videos_short_600ms_horflip\13.single_touch_with_pen_short_horflip_short_600ms.mp4	13.single_touch_with_pen_short_horflip_short_600ms.mp4	632.6264736259011	633.2347986555335	0.6083250296323968	5.0	5.0	5.526088185597473	1.0
370.09423828125	0.2	757953	288	2	3	0	0	0	208	stimuli\Videos_short_600ms_horvertflip\35.single_punch_with_hand_short_horvertflip_short_600ms.mp4	35.single_punch_with_hand_short_horvertflip_short_600ms.mp4	670.9505525602283	671.5588204072226	0.6082678469942948	n/a	n/a	n/a	n/a
370.89453125	0.2	759592	289	2	3	0	0	1	44	stimuli\Videos_short_600ms\5.repeated_tap_with_finger_moving_from_top_to_bottom_short_short_600ms.mp4	5.repeated_tap_with_finger_moving_from_top_to_bottom_short_short_600ms.mp4	671.7505250539132	672.3588333686205	0.6083083147073012	n/a	n/a	n/a	n/a
371.6943359375	0.2	761230	290	2	3	0	0	2	230	stimuli\Videos_short_600ms_horvertflip\55.touch_top_to_bottom_with_nail_file_short_horvertflip_short_600ms.mp4	55.touch_top_to_bottom_with_nail_file_short_horvertflip_short_600ms.mp4	672.5505051719499	673.1588087947487	0.6083036227987577	n/a	n/a	n/a	n/a
372.494140625	0.2	762868	291	2	3	0	0	3	7	stimuli\Videos_short_600ms\16.repeated_touch_with_plastic_brush_short_short_600ms.mp4	16.repeated_touch_with_plastic_brush_short_short_600ms.mp4	673.3504855832309	673.9588114925962	0.6083259093652487	n/a	n/a	n/a	n/a
373.29443359375	0.2	764507	292	2	3	0	0	4	279	stimuli\Videos_short_600ms_vertflip\18.single_stroke_from_top_to_bottom_with_rolling_pin_short_vertflip_short_600ms.mp4	18.single_stroke_from_top_to_bottom_with_rolling_pin_short_vertflip_short_600ms.mp4	674.1504466403883	674.7587936633429	0.6083470229546037	n/a	n/a	n/a	n/a
374.09423828125	0.2	766145	293	2	3	0	0	5	63	stimuli\Videos_short_600ms\67.single_touch_with_sponge_short_short_600ms.mp4	67.single_touch_with_sponge_short_short_600ms.mp4	674.9504487517472	675.5587699692035	0.6083212174562505	n/a	n/a	n/a	n/a
374.89453125	0.2	767784	294	2	3	0	0	6	43	stimuli\Videos_short_600ms\49.repeated_slap_with_hand_short_short_600ms.mp4	49.repeated_slap_with_hand_short_short_600ms.mp4	675.7504309224939	676.3587492075073	0.6083182850134108	n/a	n/a	n/a	n/a
375.6943359375	0.2	769422	295	2	3	0	0	7	223	stimuli\Videos_short_600ms_horvertflip\49.repeated_slap_with_hand_short_horvertflip_short_600ms.mp4	49.repeated_slap_with_hand_short_horvertflip_short_600ms.mp4	676.5504072283545	677.1587296187884	0.6083223904338411	n/a	n/a	n/a	n/a
376.494140625	0.2	771060	296	2	3	0	0	8	330	stimuli\Videos_short_600ms_vertflip\64.repeated_touch_with_screwdriver_short_vertflip_short_600ms.mp4	64.repeated_touch_with_screwdriver_short_vertflip_short_600ms.mp4	677.3503712179552	677.9587117895351	0.6083405715799017	n/a	n/a	n/a	n/a
377.29443359375	0.2	772699	297	2	3	0	0	9	99	stimuli\Videos_short_600ms_horflip\18.single_stroke_from_top_to_bottom_with_rolling_pin_short_horflip_short_600ms.mp4	18.single_stroke_from_top_to_bottom_with_rolling_pin_short_horflip_short_600ms.mp4	678.1503730360698	678.7586913210832	0.6083182850134108	n/a	n/a	n/a	n/a
378.09423828125	0.2	774337	298	2	3	0	0	10	272	stimuli\Videos_short_600ms_vertflip\11.single_touch_with_lighter_short_vertflip_short_600ms.mp4	11.single_touch_with_lighter_short_vertflip_short_600ms.mp4	678.9503522743737	679.5586699728985	0.6083176985248429	n/a	n/a	n/a	n/a
378.89404296875	0.2	775975	299	2	3	0	0	11	138	stimuli\Videos_short_600ms_horflip\53.touch_top_to_bottom_with_knife_short_horflip_short_600ms.mp4	53.touch_top_to_bottom_with_knife_short_horflip_short_600ms.mp4	679.7503332721433	680.3586550760881	0.6083218039448184	n/a	n/a	n/a	n/a
379.6943359375	0.2	777614	300	2	3	0	0	12	322	stimuli\Videos_short_600ms_vertflip\57.single_touch_with_nail_file_short_vertflip_short_600ms.mp4	57.single_touch_with_nail_file_short_vertflip_short_600ms.mp4	680.5502758549098	681.1586313819491	0.6083555270392935	n/a	n/a	n/a	n/a
380.494140625	0.2	779252	301	2	3	0	1	13	380	stimuli\Targets_short_600ms_vertflip\chopstickwood-tap_short_horvertflip_short_600ms.mp4	chopstickwood-tap_short_horvertflip_short_600ms.mp4	681.3502721013831	681.9586129662073	0.6083408648241857	n/a	n/a	n/a	n/a
381.2939453125	0.2	780890	302	2	3	0	0	14	219	stimuli\Videos_short_600ms_horvertflip\45.scratching_with_finger_nails_short_horvertflip_short_600ms.mp4	45.scratching_with_finger_nails_short_horvertflip_short_600ms.mp4	682.1502481139994	682.7585945504654	0.6083464364660358	n/a	n/a	n/a	n/a
382.09423828125	0.2	782529	303	2	3	0	0	15	316	stimuli\Videos_short_600ms_vertflip\51.repeated_touch_with_hammer_short_vertflip_short_600ms.mp4	51.repeated_touch_with_hammer_short_vertflip_short_600ms.mp4	682.9502373226094	683.558560006287	0.6083226836776703	n/a	n/a	n/a	n/a
382.89404296875	0.2	784167	304	2	3	0	0	16	222	stimuli\Videos_short_600ms_horvertflip\48.single_slap_with_hand_short_horvertflip_short_600ms.mp4	48.single_slap_with_hand_short_horvertflip_short_600ms.mp4	683.7502362082812	684.3585553730275	0.6083191647462627	n/a	n/a	n/a	n/a
383.69384765625	0.2	785805	305	2	3	0	0	17	36	stimuli\Videos_short_600ms\42.single_slap_with_plastic_whisk_short_short_600ms.mp4	42.single_slap_with_plastic_whisk_short_short_600ms.mp4	684.5502019573471	685.1584915044198	0.6082895470726726	n/a	n/a	n/a	n/a
384.494140625	0.2	787444	306	2	3	0	0	18	48	stimuli\Videos_short_600ms\53.touch_top_to_bottom_with_knife_short_short_600ms.mp4	53.touch_top_to_bottom_with_knife_short_short_600ms.mp4	685.3501964443542	685.9584710359675	0.6082745916132808	n/a	n/a	n/a	n/a
385.2939453125	0.2	789082	307	2	3	0	1	19	371	stimuli\Targets_short_600ms_horflip\hand-stroke_short_horflip_short_600ms.mp4	hand-stroke_short_horflip_short_600ms.mp4	686.1501956232703	686.7584731473264	0.6082775240561205	n/a	n/a	n/a	n/a
386.09375	0.2	790720	308	2	3	0	0	20	31	stimuli\Videos_short_600ms\38.double_slap_with_pencil_short_short_600ms.mp4	38.double_slap_with_pencil_short_short_600ms.mp4	686.9501387925259	687.5584828830372	0.6083440905113093	n/a	n/a	n/a	n/a
386.89404296875	0.2	792359	309	2	3	0	0	21	282	stimuli\Videos_short_600ms_vertflip\20.single_touch_with_screwdriver_short_vertflip_short_600ms.mp4	20.single_touch_with_screwdriver_short_vertflip_short_600ms.mp4	687.7501180308293	688.3584465793936	0.6083285485642591	n/a	n/a	n/a	n/a
387.69384765625	0.2	793997	310	2	3	0	1	22	376	stimuli\Targets_short_600ms_horvertflip\hand-pinch_short_vertflip_short_600ms.mp4	hand-pinch_short_vertflip_short_600ms.mp4	688.5501183827225	689.1584469312863	0.6083285485638044	n/a	n/a	n/a	n/a
388.49365234375	0.2	795635	311	2	3	0	0	23	276	stimuli\Videos_short_600ms_vertflip\15.single_stroke_top_to_bottom_with_a_plastic_whisk_short_vertflip_short_600ms.mp4	15.single_stroke_top_to_bottom_with_a_plastic_whisk_short_vertflip_short_600ms.mp4	689.3500976210264	689.9584264628345	0.6083288418080883	n/a	n/a	n/a	n/a
389.2939453125	0.2	797274	312	2	3	0	0	24	240	stimuli\Videos_short_600ms_horvertflip\64.repeated_touch_with_screwdriver_short_horvertflip_short_600ms.mp4	64.repeated_touch_with_screwdriver_short_horvertflip_short_600ms.mp4	690.1500780323074	690.7584007159855	0.608322683678125	n/a	n/a	n/a	n/a
390.09375	0.2	798912	313	2	3	0	0	25	221	stimuli\Videos_short_600ms_horvertflip\47.(long)scratching_with_finger_nails_short_horvertflip_short_600ms.mp4	47.(long)scratching_with_finger_nails_short_horvertflip_short_600ms.mp4	690.9500593233213	691.5583817137551	0.6083223904338411	n/a	n/a	n/a	n/a
390.8935546875	0.2	800550	314	2	3	0	0	26	98	stimuli\Videos_short_600ms_horflip\17.repeated_touch_with_rolling_pin_short_horflip_short_600ms.mp4	17.repeated_touch_with_rolling_pin_short_horflip_short_600ms.mp4	691.7500192075015	692.3583591925928	0.6083399850913338	n/a	n/a	n/a	n/a
391.69384765625	0.2	802189	315	2	3	0	0	27	91	stimuli\Videos_short_600ms_horflip\10.single_touch_with_knife_short_horflip_short_600ms.mp4	10.single_touch_with_knife_short_horflip_short_600ms.mp4	692.5500204391276	693.1583422430729	0.6083218039452731	n/a	n/a	n/a	n/a
392.49365234375	0.2	803827	316	2	3	0	0	28	229	stimuli\Videos_short_600ms_horvertflip\54.repeated_touch_with_knife_short_horvertflip_short_600ms.mp4	54.repeated_touch_with_knife_short_horvertflip_short_600ms.mp4	693.3500008504086	693.9583232408424	0.6083223904338411	n/a	n/a	n/a	n/a
393.2939453125	0.2	805466	317	2	3	0	0	29	288	stimuli\Videos_short_600ms_vertflip\26.single_touch_with_a_blunt_syringe_short_vertflip_short_600ms.mp4	26.single_touch_with_a_blunt_syringe_short_vertflip_short_600ms.mp4	694.1499818481782	694.7583018926573	0.6083200444791146	n/a	n/a	n/a	n/a
394.09375	0.2	807104	318	2	3	0	0	30	253	stimuli\Videos_short_600ms_horvertflip\76.tickle_with_fingers_from_top_to_bottom_short_horvertflip_short_600ms.mp4	76.tickle_with_fingers_from_top_to_bottom_short_horvertflip_short_600ms.mp4	694.9499505296874	695.558284063404	0.6083335337166318	n/a	n/a	n/a	n/a
394.8935546875	0.2	808742	319	2	3	0	0	31	346	stimuli\Videos_short_600ms_vertflip\79.long_with_soft_brush_all_over_the_hand_short_vertflip_short_600ms.mp4	79.long_with_soft_brush_all_over_the_hand_short_vertflip_short_600ms.mp4	695.7499024962715	696.3582630084636	0.608360512192121	n/a	n/a	n/a	n/a
395.69384765625	0.2	810381	320	2	3	0	0	32	18	stimuli\Videos_short_600ms\26.single_touch_with_a_blunt_syringe_short_short_600ms.mp4	26.single_touch_with_a_blunt_syringe_short_short_600ms.mp4	696.5498834940411	697.1582472319208	0.6083637378796993	n/a	n/a	n/a	n/a
396.49365234375	0.2	812019	321	2	3	0	0	33	297	stimuli\Videos_short_600ms_vertflip\34.repeated_punch_with_hand_short_vertflip_short_600ms.mp4	34.repeated_punch_with_hand_short_vertflip_short_600ms.mp4	697.3498867783771	697.9582214850714	0.6083347066942224	n/a	n/a	n/a	n/a
397.29345703125	0.2	813657	322	2	3	0	0	34	329	stimuli\Videos_short_600ms_vertflip\63.stroke_top_to_bottom_with_screwdriver_short_vertflip_short_600ms.mp4	63.stroke_top_to_bottom_with_screwdriver_short_vertflip_short_600ms.mp4	698.1498668964139	698.7582083477271	0.6083414513132084	n/a	n/a	n/a	n/a
398.09375	0.2	815296	323	2	3	0	0	35	113	stimuli\Videos_short_600ms_horflip\30.finger_pulling_back_another_finger_short_horflip_short_600ms.mp4	30.finger_pulling_back_another_finger_short_horflip_short_600ms.mp4	698.9498669550628	699.5581887590076	0.6083218039448184	n/a	n/a	n/a	n/a
398.8935546875	0.2	816934	324	2	3	0	0	36	218	stimuli\Videos_short_600ms_horvertflip\44.pushing_top_to_bottom_with_finger_short_horvertflip_short_600ms.mp4	44.pushing_top_to_bottom_with_finger_short_horvertflip_short_600ms.mp4	699.7498634947799	700.3581216647128	0.6082581699329239	n/a	n/a	n/a	n/a
399.693359375	0.2	818572	325	2	3	0	0	37	199	stimuli\Videos_short_600ms_horvertflip\27.single_push_with_a_plastic_whisk_short_horvertflip_short_600ms.mp4	27.single_push_with_a_plastic_whisk_short_horvertflip_short_600ms.mp4	700.5498107694555	701.1581305206907	0.6083197512352854	n/a	n/a	n/a	n/a
400.49365234375	0.2	820211	326	2	3	0	0	38	311	stimuli\Videos_short_600ms_vertflip\47.(long)scratching_with_finger_nails_short_vertflip_short_600ms.mp4	47.(long)scratching_with_finger_nails_short_vertflip_short_600ms.mp4	701.349816106502	701.9581041873528	0.608288080850798	n/a	n/a	n/a	n/a
401.29345703125	0.2	821849	327	2	3	0	0	39	351	stimuli\Videos_short_600ms_vertflip\83.single_stroke_top_to_bottom_with_cotton_bud_short_vertflip_short_600ms.mp4	83.single_stroke_top_to_bottom_with_cotton_bud_short_vertflip_short_600ms.mp4	702.1497968110268	702.7580931027185	0.6082962916916586	n/a	n/a	n/a	n/a
402.09326171875	0.2	823487	328	2	3	0	0	40	13	stimuli\Videos_short_600ms\21.repeated_touch_with_metal_chopstick_short_short_600ms.mp4	21.repeated_touch_with_metal_chopstick_short_short_600ms.mp4	702.9497520032985	703.5580776194195	0.6083256161209647	n/a	n/a	n/a	n/a
402.8935546875	0.2	825126	329	2	3	0	0	41	354	stimuli\Videos_short_600ms_vertflip\86.touch_top_to_bottom_with_hair_brush_short_vertflip_short_600ms.mp4	86.touch_top_to_bottom_with_hair_brush_short_vertflip_short_600ms.mp4	703.7497324145795	704.3580729861594	0.6083405715799017	n/a	n/a	n/a	n/a
403.693359375	0.2	826764	330	2	3	0	0	42	23	stimuli\Videos_short_600ms\30.finger_pulling_back_another_finger_short_short_600ms.mp4	30.finger_pulling_back_another_finger_short_short_600ms.mp4	704.5497424435346	705.1580613150365	0.6083188715019787	n/a	n/a	n/a	n/a
404.4931640625	0.2	828402	331	2	3	0	0	43	321	stimuli\Videos_short_600ms_vertflip\56.repeated_touch_with_nail_file_short_vertflip_short_600ms.mp4	56.repeated_touch_with_nail_file_short_vertflip_short_600ms.mp4	705.349690597943	705.9580332222329	0.6083426242898895	n/a	n/a	n/a	n/a
405.29345703125	0.2	830041	332	2	3	0	0	44	150	stimuli\Videos_short_600ms_horflip\64.repeated_touch_with_screwdriver_short_horflip_short_600ms.mp4	64.repeated_touch_with_screwdriver_short_horflip_short_600ms.mp4	706.149671009224	706.7580139267582	0.6083429175341735	n/a	n/a	n/a	n/a
406.09326171875	0.2	831679	333	2	3	0	0	45	135	stimuli\Videos_short_600ms_horflip\50.single_(long)hard_push_with_thumb_short_horflip_short_600ms.mp4	50.single_(long)hard_push_with_thumb_short_horflip_short_600ms.mp4	706.9496499542831	707.5579919920849	0.6083420378017763	n/a	n/a	n/a	n/a
406.89306640625	0.2	833317	334	2	3	0	0	46	356	stimuli\Videos_short_600ms_vertflip\88.repeated_stroke_with_plastic_brush_short_vertflip_short_600ms.mp4	88.repeated_stroke_with_plastic_brush_short_vertflip_short_600ms.mp4	707.749631245297	708.3579724033659	0.6083411580689244	n/a	n/a	n/a	n/a
407.693359375	0.2	834956	335	2	3	0	0	47	124	stimuli\Videos_short_600ms_horflip\40.repeated_push_with_finger_short_horflip_short_600ms.mp4	40.repeated_push_with_finger_short_horflip_short_600ms.mp4	708.5496134160442	709.1579762741906	0.6083628581463927	n/a	n/a	n/a	n/a
408.4931640625	0.2	836594	336	2	3	0	0	48	54	stimuli\Videos_short_600ms\59.single_push_with_long_side_pencil_short_short_600ms.mp4	59.single_push_with_long_side_pencil_short_short_600ms.mp4	709.3495958800352	709.9579376245922	0.6083417445570376	n/a	n/a	n/a	n/a
409.29296875	0.2	838232	337	2	3	0	0	49	154	stimuli\Videos_short_600ms_horflip\68.stroke_top_to_bottom_with_shawl_short_horflip_short_600ms.mp4	68.stroke_top_to_bottom_with_shawl_short_horflip_short_600ms.mp4	710.1495701331858	710.7579153966747	0.6083452634889	n/a	n/a	n/a	n/a
410.09326171875	0.2	839871	338	2	3	0	0	50	30	stimuli\Videos_short_600ms\37.single_stab_with_nail_file_short_short_600ms.mp4	37.single_stab_with_nail_file_short_short_600ms.mp4	710.9495564093529	711.55789404849	0.6083376391370621	n/a	n/a	n/a	n/a
410.89306640625	0.2	841509	339	2	3	0	0	51	157	stimuli\Videos_short_600ms_horflip\70.(long)stroke_with_finger_all_over_the_hand_short_horflip_short_600ms.mp4	70.(long)stroke_with_finger_all_over_the_hand_short_horflip_short_600ms.mp4	711.7495142408227	712.3578747530153	0.6083605121925757	n/a	n/a	n/a	n/a
411.69287109375	0.2	843147	340	2	3	0	0	52	212	stimuli\Videos_short_600ms_horvertflip\39.single_stab_with_scissors_short_horvertflip_short_600ms.mp4	39.single_stab_with_scissors_short_horvertflip_short_600ms.mp4	712.5495166454259	713.157854871052	0.6083382256260847	n/a	n/a	n/a	n/a
412.4931640625	0.2	844786	341	2	3	0	0	53	198	stimuli\Videos_short_600ms_horvertflip\26.single_touch_with_a_blunt_syringe_short_horvertflip_short_600ms.mp4	26.single_touch_with_a_blunt_syringe_short_horvertflip_short_600ms.mp4	713.3494994026616	713.9578370417987	0.6083376391370621	n/a	n/a	n/a	n/a
413.29296875	0.2	846424	342	2	3	0	1	54	368	stimuli\Targets_short_600ms_horflip\chopstickwood-tap_short_horflip_short_600ms.mp4	chopstickwood-tap_short_horflip_short_600ms.mp4	714.1494947694016	714.7577887151385	0.6082939457369321	n/a	n/a	n/a	n/a
414.09326171875	0.2	848063	343	2	3	0	0	55	6	stimuli\Videos_short_600ms\15.single_stroke_top_to_bottom_with_a_plastic_whisk_short_short_600ms.mp4	15.single_stroke_top_to_bottom_with_a_plastic_whisk_short_short_600ms.mp4	714.9494848577444	715.5577764575271	0.6082915997826603	n/a	n/a	n/a	n/a
414.89306640625	0.2	849701	344	2	3	0	0	56	165	stimuli\Videos_short_600ms_horflip\78.single_stroke_top_to_bottom_with_soft_brush_short_horflip_short_600ms.mp4	78.single_stroke_top_to_bottom_with_soft_brush_short_horflip_short_600ms.mp4	715.7494415162375	716.3577771026642	0.6083355864266196	n/a	n/a	n/a	n/a
415.69287109375	0.2	851339	345	2	3	0	0	57	201	stimuli\Videos_short_600ms_horvertflip\29.single_pinch_with_tweezers_short_horvertflip_short_600ms.mp4	29.single_pinch_with_tweezers_short_horvertflip_short_600ms.mp4	716.5499852498122	717.1577346408901	0.6077493910779594	n/a	n/a	n/a	n/a
416.4931640625	0.2	852978	346	2	3	0	0	58	302	stimuli\Videos_short_600ms_vertflip\39.single_stab_with_scissors_short_vertflip_short_600ms.mp4	39.single_stab_with_scissors_short_vertflip_short_600ms.mp4	717.349426678076	717.9577217967901	0.6082951187140679	n/a	n/a	n/a	n/a
417.29296875	0.2	854616	347	2	3	0	0	59	82	stimuli\Videos_short_600ms\84.single_touch_with_cotton_bud_short_short_600ms.mp4	84.single_touch_with_cotton_bud_short_short_600ms.mp4	718.1494062096242	718.757730066279	0.6083238566548061	n/a	n/a	n/a	n/a
418.0927734375	0.2	856254	348	2	3	0	0	60	192	stimuli\Videos_short_600ms_horvertflip\20.single_touch_with_screwdriver_short_horvertflip_short_600ms.mp4	20.single_touch_with_screwdriver_short_horvertflip_short_600ms.mp4	718.9493848614391	719.5576890707264	0.6083042092873256	n/a	n/a	n/a	n/a
418.89306640625	0.2	857893	349	2	3	0	0	61	296	stimuli\Videos_short_600ms_vertflip\33.scratch_top_to_bottom_with_scissors_short_vertflip_short_600ms.mp4	33.scratch_top_to_bottom_with_scissors_short_vertflip_short_600ms.mp4	719.7493629267658	720.3576923550625	0.6083294282966563	n/a	n/a	n/a	n/a
419.69287109375	0.2	859531	350	2	3	0	0	62	203	stimuli\Videos_short_600ms_horvertflip\30.finger_pulling_back_another_finger_short_horvertflip_short_600ms.mp4	30.finger_pulling_back_another_finger_short_horvertflip_short_600ms.mp4	720.5493436312911	721.1576625027931	0.6083188715019787	n/a	n/a	n/a	n/a
420.49267578125	0.2	861169	351	2	3	0	0	63	76	stimuli\Videos_short_600ms\79.long_with_soft_brush_all_over_the_hand_short_short_600ms.mp4	79.long_with_soft_brush_all_over_the_hand_short_short_600ms.mp4	721.3493225763507	721.9576440870512	0.6083215107005344	n/a	n/a	n/a	n/a
421.29296875	0.2	862808	352	2	3	0	0	64	273	stimuli\Videos_short_600ms_vertflip\12.repeated_touch_with_nail_file_short_vertflip_short_600ms.mp4	12.repeated_touch_with_nail_file_short_vertflip_short_600ms.mp4	722.1493067998074	722.7576233253551	0.608316525547707	n/a	n/a	n/a	n/a
422.0927734375	0.2	864446	353	2	3	0	0	65	200	stimuli\Videos_short_600ms_horvertflip\28.single_injection_with_sharp_needle_short_horvertflip_short_600ms.mp4	28.single_injection_with_sharp_needle_short_horvertflip_short_600ms.mp4	722.949268150209	723.5576040298804	0.6083358796713583	n/a	n/a	n/a	n/a
422.892578125	0.2	866084	354	2	3	0	0	66	56	stimuli\Videos_short_600ms\60.single_push_with_tip_of_pencil_short_short_600ms.mp4	60.single_push_with_tip_of_pencil_short_short_600ms.mp4	723.749266156148	724.3575873736047	0.6083212174567052	n/a	n/a	n/a	n/a
423.69287109375	0.2	867723	355	2	3	0	1	67	363	stimuli\Targets_short_600ms\finger-tap_short_short_600ms.mp4	finger-tap_short_short_600ms.mp4	724.549244514719	725.1575660254196	0.6083215107005344	n/a	n/a	n/a	n/a
424.49267578125	0.2	869361	356	2	3	0	0	68	105	stimuli\Videos_short_600ms_horflip\23.single_push_with_a_spoon_short_horflip_short_600ms.mp4	23.single_push_with_a_spoon_short_horflip_short_600ms.mp4	725.3491639311862	725.9575452637234	0.6083813325371921	n/a	n/a	n/a	n/a
425.29248046875	0.2	870999	357	2	3	0	0	69	319	stimuli\Videos_short_600ms_vertflip\54.repeated_touch_with_knife_short_vertflip_short_600ms.mp4	54.repeated_touch_with_knife_short_vertflip_short_600ms.mp4	726.1491499141086	726.7575268479816	0.6083769338729326	n/a	n/a	n/a	n/a
426.0927734375	0.2	872638	358	2	3	0	0	70	310	stimuli\Videos_short_600ms_vertflip\46.scratching_top_to_bottom_with_finger_nails_short_vertflip_short_600ms.mp4	46.scratching_top_to_bottom_with_finger_nails_short_vertflip_short_600ms.mp4	726.9491725525684	727.5575057930412	0.6083332404728026	n/a	n/a	n/a	n/a
426.892578125	0.2	874276	359	2	3	0	0	71	314	stimuli\Videos_short_600ms_vertflip\5.repeated_tap_with_finger_moving_from_top_to_bottom_short_vertflip_short_600ms.mp4	5.repeated_tap_with_finger_moving_from_top_to_bottom_short_vertflip_short_600ms.mp4	727.7491397678561	728.357487084055	0.6083473161988877	n/a	n/a	n/a	n/a
427.6923828125	0.2	875914	360	2	3	0	0	72	228	stimuli\Videos_short_600ms_horvertflip\53.touch_top_to_bottom_with_knife_short_horvertflip_short_600ms.mp4	53.touch_top_to_bottom_with_knife_short_horvertflip_short_600ms.mp4	728.5491342548632	729.1574677885803	0.6083335337170865	n/a	n/a	n/a	n/a
428.49267578125	0.2	877553	361	2	3	0	0	73	347	stimuli\Videos_short_600ms_vertflip\8.single_touch_with_hairbrush_short_vertflip_short_600ms.mp4	8.single_touch_with_hairbrush_short_vertflip_short_600ms.mp4	729.3491205310304	729.9574438011971	0.608323270166693	n/a	n/a	n/a	n/a
