onset	duration	onsetsample	eventnumber	subjectnr	sequencenumber	blocksequencenumber	istarget	presentationnumber	stimnumber	stim	stimname	time_stimon	time_stimoff	stimdur	cresp	resp	rt	correct
27.53857421875	0.2	56399	0	37	0	0	0	0	77	stimuli\Videos_short_600ms\8.single_touch_with_hairbrush_short_short_600ms.mp4	8.single_touch_with_hairbrush_short_short_600ms.mp4	90.50468780332449	91.11300814104813	0.6083203377236259				
28.33837890625	0.2	58037	1	37	0	0	0	1	359	stimuli\Videos_short_600ms_vertflip\90.repeated_touch_with_sponge_short_vertflip_short_600ms.mp4	90.repeated_touch_with_sponge_short_vertflip_short_600ms.mp4	91.3046177765866	91.91298649961914	0.6083687230325268				
29.138671875	0.2	59676	2	37	0	0	0	2	46	stimuli\Videos_short_600ms\51.repeated_touch_with_hammer_short_short_600ms.mp4	51.repeated_touch_with_hammer_short_short_600ms.mp4	92.10465654348263	92.7129739487632	0.6083174052805589				
29.9384765625	0.2	61314	3	37	0	0	0	3	10	stimuli\Videos_short_600ms\19.single_touch_with_rolling_pin_short_short_600ms.mp4	19.single_touch_with_rolling_pin_short_short_600ms.mp4	92.90462962365608	93.51295142760114	0.6083218039450458				
30.73828125	0.2	62952	4	37	0	0	0	4	340	stimuli\Videos_short_600ms_vertflip\73.single_stroke_with_flat_hand_short_vertflip_short_600ms.mp4	73.single_stroke_with_flat_hand_short_vertflip_short_600ms.mp4	93.7046117944028	94.31293242537072	0.6083206309679099				
31.53857421875	0.2	64591	5	37	0	0	0	5	242	stimuli\Videos_short_600ms_horvertflip\66.stroke_top_to_bottom_with_sponge_short_horvertflip_short_600ms.mp4	66.stroke_top_to_bottom_with_sponge_short_horvertflip_short_600ms.mp4	94.50459220568382	95.11291518260624	0.608322976922409				
32.33837890625	0.2	66229	6	37	0	0	0	6	48	stimuli\Videos_short_600ms\53.touch_top_to_bottom_with_knife_short_short_600ms.mp4	53.touch_top_to_bottom_with_knife_short_short_600ms.mp4	95.30457642914077	95.91289559388724	0.6083191647464901				
33.13818359375	0.2	67867	7	37	0	0	0	7	88	stimuli\Videos_short_600ms\9.single_touch_with_hammer_short_short_600ms.mp4	9.single_touch_with_hammer_short_short_600ms.mp4	96.10455684042176	96.7128730727252	0.608316232303423				
33.9384765625	0.2	69506	8	37	0	0	0	8	171	stimuli\Videos_short_600ms_horflip\83.single_stroke_top_to_bottom_with_cotton_bud_short_horflip_short_600ms.mp4	83.single_stroke_top_to_bottom_with_cotton_bud_short_horflip_short_600ms.mp4	96.90454516929869	97.51286081511353	0.6083156458148551				
34.73828125	0.2	71144	9	37	0	0	0	9	345	stimuli\Videos_short_600ms_vertflip\78.single_stroke_top_to_bottom_with_soft_brush_short_vertflip_short_600ms.mp4	78.single_stroke_top_to_bottom_with_soft_brush_short_vertflip_short_600ms.mp4	97.70469536902738	98.31284826425758	0.6081528952302051				
35.5380859375	0.2	72782	10	37	0	0	0	10	259	stimuli\Videos_short_600ms_horvertflip\81.single_stroke_top_to_bottom_with_cotton_pad_short_horvertflip_short_600ms.mp4	81.single_stroke_top_to_bottom_with_cotton_pad_short_horvertflip_short_600ms.mp4	98.50450129995193	99.11281723901106	0.608315939059139				
36.33837890625	0.2	74421	11	37	0	0	0	11	344	stimuli\Videos_short_600ms_vertflip\77.tapping_with_all_fingers_short_vertflip_short_600ms.mp4	77.tapping_with_all_fingers_short_vertflip_short_600ms.mp4	99.30448112474436	99.91279940975778	0.6083182850134108				
37.13818359375	0.2	76059	12	37	0	0	0	12	278	stimuli\Videos_short_600ms_vertflip\17.repeated_touch_with_rolling_pin_short_vertflip_short_600ms.mp4	17.repeated_touch_with_rolling_pin_short_vertflip_short_600ms.mp4	100.10446505495702	100.71278509943612	0.6083200444791146				
37.93798828125	0.2	77697	13	37	0	0	0	13	145	stimuli\Videos_short_600ms_horflip\6.single_touch_with_flat_hand_short_horflip_short_600ms.mp4	6.single_touch_with_flat_hand_short_horflip_short_600ms.mp4	100.9044454662378	101.51276902964878	0.6083235634109769				
38.73828125	0.2	79336	14	37	0	0	0	14	284	stimuli\Videos_short_600ms_vertflip\22.single_touch_with_metal_chopstick_short_vertflip_short_600ms.mp4	22.single_touch_with_metal_chopstick_short_vertflip_short_600ms.mp4	101.70442968969472	102.31275765176996	0.6083279620752364				
39.5380859375	0.2	80974	15	37	0	0	0	15	192	stimuli\Videos_short_600ms_horvertflip\20.single_touch_with_screwdriver_short_horvertflip_short_600ms.mp4	20.single_touch_with_screwdriver_short_horvertflip_short_600ms.mp4	102.50442593616776	103.1127277995006	0.6083018633328265				
40.337890625	0.2	82612	16	37	0	0	0	16	152	stimuli\Videos_short_600ms_horflip\66.stroke_top_to_bottom_with_sponge_short_horflip_short_600ms.mp4	66.stroke_top_to_bottom_with_sponge_short_horflip_short_600ms.mp4	103.30438904603534	103.9127082107816	0.6083191647462627				
41.13818359375	0.2	84251	17	37	0	0	0	17	115	stimuli\Videos_short_600ms_horflip\32.single_(long)pinch_with_fingers_short_horflip_short_600ms.mp4	32.single_(long)pinch_with_fingers_short_horflip_short_600ms.mp4	104.10436887082756	104.7126930207271	0.6083241498995449				
41.93798828125	0.2	85889	18	37	0	0	0	18	177	stimuli\Videos_short_600ms_horflip\89.single_touch_with_plastic_brush_short_horflip_short_600ms.mp4	89.single_touch_with_plastic_brush_short_horflip_short_600ms.mp4	104.90435368077306	105.51267049956505	0.608316818791991				
42.73779296875	0.2	87527	19	37	0	0	0	19	220	stimuli\Videos_short_600ms_horvertflip\46.scratching_top_to_bottom_with_finger_nails_short_horvertflip_short_600ms.mp4	46.scratching_top_to_bottom_with_finger_nails_short_horvertflip_short_600ms.mp4	105.70433643800834	106.3126544297777	0.6083179917693542				
43.5380859375	0.2	89166	20	37	0	0	0	20	199	stimuli\Videos_short_600ms_horvertflip\27.single_push_with_a_plastic_whisk_short_horvertflip_short_600ms.mp4	27.single_push_with_a_plastic_whisk_short_horvertflip_short_600ms.mp4	106.50431567631222	107.11263894647892	0.608323270166693				
44.337890625	0.2	90804	21	37	0	0	1	21	375	stimuli\Targets_short_600ms_horvertflip\finger-tap_short_vertflip_short_600ms.mp4	finger-tap_short_vertflip_short_600ms.mp4	107.30429227541732	107.91261877127111	0.6083264958538166				
45.1376953125	0.2	92442	22	37	0	0	0	22	314	stimuli\Videos_short_600ms_vertflip\5.repeated_tap_with_finger_moving_from_top_to_bottom_short_vertflip_short_600ms.mp4	5.repeated_tap_with_finger_moving_from_top_to_bottom_short_vertflip_short_600ms.mp4	108.10428177727158	108.71259742308644	0.6083156458148551				
45.93798828125	0.2	94081	23	37	0	0	0	23	82	stimuli\Videos_short_600ms\84.single_touch_with_cotton_bud_short_short_600ms.mp4	84.single_touch_with_cotton_bud_short_short_600ms.mp4	108.90430676168558	109.51258223303194	0.6082754713463601				
46.73779296875	0.2	95719	24	37	0	0	0	24	44	stimuli\Videos_short_600ms\5.repeated_tap_with_finger_moving_from_top_to_bottom_short_short_600ms.mp4	5.repeated_tap_with_finger_moving_from_top_to_bottom_short_short_600ms.mp4	109.70514843146566	110.31256059160272	0.6074121601370734				
47.5380859375	0.2	97358	25	37	0	0	0	25	37	stimuli\Videos_short_600ms\43.touch_top_to_bottom_with_sharp_wooden_stick_short_short_600ms.mp4	43.touch_top_to_bottom_with_sharp_wooden_stick_short_short_600ms.mp4	110.50420570970095	111.11254070963946	0.6083349999385064				
48.337890625	0.2	98996	26	37	0	0	0	26	260	stimuli\Videos_short_600ms_horvertflip\82.repeated_touch_with_cotton_bud_short_horvertflip_short_600ms.mp4	82.repeated_touch_with_cotton_bud_short_horvertflip_short_600ms.mp4	111.30420664808275	111.91253314393656	0.6083264958538166				
49.1376953125	0.2	100634	27	37	0	0	0	27	254	stimuli\Videos_short_600ms_horvertflip\77.tapping_with_all_fingers_short_horvertflip_short_600ms.mp4	77.tapping_with_all_fingers_short_horvertflip_short_600ms.mp4	112.1041926310054	112.7125032916672	0.6083106606618003				
49.93798828125	0.2	102273	28	37	0	0	0	28	162	stimuli\Videos_short_600ms_horflip\75.(long)stroke_with_fingers_all_over_the_hand_short_horflip_short_600ms.mp4	75.(long)stroke_with_fingers_all_over_the_hand_short_horflip_short_600ms.mp4	112.9041654179348	113.51248956783412	0.6083241498993175				
50.73779296875	0.2	103911	29	37	0	0	0	29	71	stimuli\Videos_short_600ms\74.fingers_walking_from_top_to_bottom_short_short_600ms.mp4	74.fingers_walking_from_top_to_bottom_short_short_600ms.mp4	113.70414817517008	114.31246792640512	0.608319751235058				
51.53759765625	0.2	105549	30	37	0	0	0	30	175	stimuli\Videos_short_600ms_horflip\87.single_stroke_top_to_bottom_with_plastic_brush_short_horflip_short_600ms.mp4	87.single_stroke_top_to_bottom_with_plastic_brush_short_horflip_short_600ms.mp4	114.5041564446592	115.1124509768847	0.6082945322255				
52.337890625	0.2	107188	31	37	0	0	1	31	381	stimuli\Targets_short_600ms_vertflip\finger-tap_short_horvertflip_short_600ms.mp4	finger-tap_short_horvertflip_short_600ms.mp4	115.30411955452678	115.91243871927304	0.6083191647462627				
53.1376953125	0.2	108826	32	37	0	0	0	32	53	stimuli\Videos_short_600ms\58.single_slap_with_pencil_short_short_600ms.mp4	58.single_slap_with_pencil_short_short_600ms.mp4	116.10410113878493	116.71241443864528	0.608313299860356				
53.9375	0.2	110464	33	37	0	0	0	33	95	stimuli\Videos_short_600ms_horflip\14.repeated_touch_with_pencil_short_horflip_short_600ms.mp4	14.repeated_touch_with_pencil_short_horflip_short_600ms.mp4	116.90407245949268	117.51240423374384	0.6083317742511554				
54.73779296875	0.2	112103	34	37	0	0	0	34	64	stimuli\Videos_short_600ms\68.stroke_top_to_bottom_with_shawl_short_short_600ms.mp4	68.stroke_top_to_bottom_with_shawl_short_short_600ms.mp4	117.70405609646104	118.31237643418444	0.6083203377233986				
55.53759765625	0.2	113741	35	37	0	0	0	35	197	stimuli\Videos_short_600ms_horvertflip\25.single_touch_with_stanley_knife_short_horvertflip_short_600ms.mp4	25.single_touch_with_stanley_knife_short_horvertflip_short_600ms.mp4	118.50403826720776	119.11236095088566	0.6083226836778977				
56.33740234375	0.2	115379	36	37	0	0	0	36	54	stimuli\Videos_short_600ms\59.single_push_with_long_side_pencil_short_short_600ms.mp4	59.single_push_with_long_side_pencil_short_short_600ms.mp4	119.30401897173306	119.91233872296812	0.608319751235058				
57.1376953125	0.2	117018	37	37	0	0	0	37	116	stimuli\Videos_short_600ms_horflip\33.scratch_top_to_bottom_with_scissors_short_horflip_short_600ms.mp4	33.scratch_top_to_bottom_with_scissors_short_horflip_short_600ms.mp4	120.1040005559912	120.7123197207377	0.6083191647464901				
57.9375	0.2	118656	38	37	0	0	0	38	134	stimuli\Videos_short_600ms_horflip\5.repeated_tap_with_finger_moving_from_top_to_bottom_short_horflip_short_600ms.mp4	5.repeated_tap_with_finger_moving_from_top_to_bottom_short_horflip_short_600ms.mp4	120.90398096727222	121.51230365095012	0.6083226836778977				
58.7373046875	0.2	120294	39	37	0	0	0	39	139	stimuli\Videos_short_600ms_horflip\54.repeated_touch_with_knife_short_horflip_short_600ms.mp4	54.repeated_touch_with_knife_short_horflip_short_600ms.mp4	121.70398073267664	122.31228259600972	0.6083018633330539				
59.53759765625	0.2	121933	40	37	0	0	0	40	315	stimuli\Videos_short_600ms_vertflip\50.single_(long)hard_push_with_thumb_short_vertflip_short_600ms.mp4	50.single_(long)hard_push_with_thumb_short_vertflip_short_600ms.mp4	122.50394091010116	123.11226975190948	0.6083288418083157				
60.33740234375	0.2	123571	41	37	0	0	1	41	372	stimuli\Targets_short_600ms_horvertflip\brush-stroke_short_vertflip_short_600ms.mp4	brush-stroke_short_vertflip_short_600ms.mp4	123.3042301076266	123.91224723074744	0.6080171231208169				
61.13720703125	0.2	125209	42	37	0	0	0	42	293	stimuli\Videos_short_600ms_vertflip\30.finger_pulling_back_another_finger_short_vertflip_short_600ms.mp4	30.finger_pulling_back_another_finger_short_vertflip_short_600ms.mp4	124.1039037853734	124.71222793527272	0.6083241498993175				
61.9375	0.2	126848	43	37	0	0	0	43	158	stimuli\Videos_short_600ms_horflip\71.single_stroke_with_finger_top_to_bottom_short_horflip_short_600ms.mp4	71.single_stroke_with_finger_top_to_bottom_short_horflip_short_600ms.mp4	124.90389915211335	125.51221010601944	0.6083109539060843				
62.7373046875	0.2	128486	44	37	0	0	0	44	21	stimuli\Videos_short_600ms\29.single_pinch_with_tweezers_short_short_600ms.mp4	29.single_pinch_with_tweezers_short_short_600ms.mp4	125.7038713525542	126.31219081054472	0.6083194579905467				
63.537109375	0.2	130124	45	37	0	0	0	45	216	stimuli\Videos_short_600ms_horvertflip\42.single_slap_with_plastic_whisk_short_horvertflip_short_600ms.mp4	42.single_slap_with_plastic_whisk_short_horvertflip_short_600ms.mp4	126.50385469627804	127.1121726880474	0.6083179917693542				
64.33740234375	0.2	131763	46	37	0	0	0	46	2	stimuli\Videos_short_600ms\11.single_touch_with_lighter_short_short_600ms.mp4	11.single_touch_with_lighter_short_short_600ms.mp4	127.3038383332464	127.91215779123696	0.6083194579905467				
65.13720703125	0.2	133401	47	37	0	0	0	47	350	stimuli\Videos_short_600ms_vertflip\82.repeated_touch_with_cotton_bud_short_vertflip_short_600ms.mp4	82.repeated_touch_with_cotton_bud_short_vertflip_short_600ms.mp4	128.10382197021454	128.71214230793817	0.6083203377236259				
65.9375	0.2	135040	48	37	0	0	0	48	212	stimuli\Videos_short_600ms_horvertflip\39.single_stab_with_scissors_short_horvertflip_short_600ms.mp4	39.single_stab_with_scissors_short_horvertflip_short_600ms.mp4	128.90379827607535	129.5120916353237	0.6082933592483641				
66.7373046875	0.2	136678	49	37	0	0	0	49	310	stimuli\Videos_short_600ms_vertflip\46.scratching_top_to_bottom_with_finger_nails_short_vertflip_short_600ms.mp4	46.scratching_top_to_bottom_with_finger_nails_short_vertflip_short_600ms.mp4	129.70378308602085	130.3121087021418	0.6083256161209647				
67.537109375	0.2	138316	50	37	0	0	0	50	267	stimuli\Videos_short_600ms_horvertflip\89.single_touch_with_plastic_brush_short_horvertflip_short_600ms.mp4	89.single_touch_with_plastic_brush_short_horvertflip_short_600ms.mp4	130.50376232432473	131.1120879404457	0.6083256161209647				
68.33740234375	0.2	139955	51	37	0	0	0	51	252	stimuli\Videos_short_600ms_horvertflip\75.(long)stroke_with_fingers_all_over_the_hand_short_horvertflip_short_600ms.mp4	75.(long)stroke_with_fingers_all_over_the_hand_short_horvertflip_short_600ms.mp4	131.3037433220943	131.91206571252792	0.6083223904336137				
69.13720703125	0.2	141593	52	37	0	0	0	52	286	stimuli\Videos_short_600ms_vertflip\24.single_stroke_top_to_bottom_with_a_spoon_short_vertflip_short_600ms.mp4	24.single_stroke_top_to_bottom_with_a_spoon_short_vertflip_short_600ms.mp4	132.10372285364247	132.71204553732036	0.6083226836778977				
69.93701171875	0.2	143231	53	37	0	0	0	53	291	stimuli\Videos_short_600ms_vertflip\29.single_pinch_with_tweezers_short_vertflip_short_600ms.mp4	29.single_pinch_with_tweezers_short_vertflip_short_600ms.mp4	132.90370737034343	133.5120332797087	0.6083259093652487				
70.7373046875	0.2	144870	54	37	0	0	1	54	370	stimuli\Targets_short_600ms_horflip\hand-pinch_short_horflip_short_600ms.mp4	hand-pinch_short_horflip_short_600ms.mp4	133.70367634509694	134.31201310450115	0.6083367594042102				
71.537109375	0.2	146508	55	37	0	0	0	55	121	stimuli\Videos_short_600ms_horflip\38.double_slap_with_pencil_short_horflip_short_600ms.mp4	38.double_slap_with_pencil_short_horflip_short_600ms.mp4	134.50366731317263	135.1119888238734	0.6083215107007618				
72.3369140625	0.2	148146	56	37	0	0	0	56	16	stimuli\Videos_short_600ms\24.single_stroke_top_to_bottom_with_a_spoon_short_short_600ms.mp4	24.single_stroke_top_to_bottom_with_a_spoon_short_short_600ms.mp4	135.30364919067506	135.9119346323273	0.6082854416522423				
73.13720703125	0.2	149785	57	37	0	0	0	57	272	stimuli\Videos_short_600ms_vertflip\11.single_touch_with_lighter_short_vertflip_short_600ms.mp4	11.single_touch_with_lighter_short_vertflip_short_600ms.mp4	136.10359294641898	136.71194847345828	0.6083555270392935				
73.93701171875	0.2	151423	58	37	0	0	0	58	292	stimuli\Videos_short_600ms_vertflip\3.single_push_with_finger_short_vertflip_short_600ms.mp4	3.single_push_with_finger_short_vertflip_short_600ms.mp4	136.9036117727028	137.51193299015927	0.6083212174564778				
74.73681640625	0.2	153061	59	37	0	0	0	59	150	stimuli\Videos_short_600ms_horflip\64.repeated_touch_with_screwdriver_short_horflip_short_600ms.mp4	64.repeated_touch_with_screwdriver_short_horflip_short_600ms.mp4	137.70359540967115	138.31191574739478	0.6083203377236259				
75.537109375	0.2	154700	60	37	0	0	0	60	335	stimuli\Videos_short_600ms_vertflip\69.stroke_with_soft_sock_short_vertflip_short_600ms.mp4	69.stroke_with_soft_sock_short_vertflip_short_600ms.mp4	138.50355148167546	139.111895572187	0.6083440905115367				
76.3369140625	0.2	156338	61	37	0	0	0	61	328	stimuli\Videos_short_600ms_vertflip\62.touch_top_to_bottom_with_scissors_short_vertflip_short_600ms.mp4	62.touch_top_to_bottom_with_scissors_short_vertflip_short_600ms.mp4	139.3035535930344	139.91187803617822	0.6083244431438288				
77.13671875	0.2	157976	62	37	0	0	0	62	213	stimuli\Videos_short_600ms_horvertflip\4.repeated_tap_with_finger_slow_short_horvertflip_short_600ms.mp4	4.repeated_tap_with_finger_slow_short_horvertflip_short_600ms.mp4	140.10354485435437	140.71186196639064	0.6083171120362749				
77.93701171875	0.2	159615	63	37	0	0	1	63	382	stimuli\Targets_short_600ms_vertflip\hand-pinch_short_horvertflip_short_600ms.mp4	hand-pinch_short_horvertflip_short_600ms.mp4	140.90357482392142	141.51184003171738	0.6082652077959665				
78.73681640625	0.2	161253	64	37	0	0	0	64	222	stimuli\Videos_short_600ms_horvertflip\48.single_slap_with_hand_short_horvertflip_short_600ms.mp4	48.single_slap_with_hand_short_horvertflip_short_600ms.mp4	141.70350479718354	142.31182132273125	0.608316525547707				
79.53662109375	0.2	162891	65	37	0	0	0	65	228	stimuli\Videos_short_600ms_horvertflip\53.touch_top_to_bottom_with_knife_short_horvertflip_short_600ms.mp4	53.touch_top_to_bottom_with_knife_short_horvertflip_short_600ms.mp4	142.50351922480286	143.1118011475237	0.6082819227208347				
80.3369140625	0.2	164530	66	37	0	0	1	66	361	stimuli\Targets_short_600ms\chopstick-silver-tap_short_short_600ms.mp4	chopstick-silver-tap_short_short_600ms.mp4	143.30347412383003	143.91178801017918	0.6083138863491513				
81.13671875	0.2	166168	67	37	0	0	0	67	157	stimuli\Videos_short_600ms_horflip\70.(long)stroke_with_finger_all_over_the_hand_short_horflip_short_600ms.mp4	70.(long)stroke_with_finger_all_over_the_hand_short_horflip_short_600ms.mp4	144.10344720400371	144.71176695523857	0.6083197512348306				
81.9365234375	0.2	167806	68	37	0	0	0	68	42	stimuli\Videos_short_600ms\48.single_slap_with_hand_short_short_600ms.mp4	48.single_slap_with_hand_short_short_600ms.mp4	144.90343054772757	145.5117546976271	0.6083241498995449				
82.73681640625	0.2	169445	69	37	0	0	0	69	355	stimuli\Videos_short_600ms_vertflip\87.single_stroke_top_to_bottom_with_plastic_brush_short_vertflip_short_600ms.mp4	87.single_stroke_top_to_bottom_with_plastic_brush_short_vertflip_short_600ms.mp4	145.70341183874143	146.31170607772265	0.608294238981216				
83.53662109375	0.2	171083	70	37	0	0	0	70	126	stimuli\Videos_short_600ms_horflip\42.single_slap_with_plastic_whisk_short_horflip_short_600ms.mp4	42.single_slap_with_plastic_whisk_short_horflip_short_600ms.mp4	146.50339400948815	147.11171669316627	0.608322683678125				
84.3369140625	0.2	172722	71	37	0	0	1	71	377	stimuli\Targets_short_600ms_horvertflip\hand-stroke_short_vertflip_short_600ms.mp4	hand-stroke_short_vertflip_short_600ms.mp4	147.30339641409137	147.9116944652485	0.608298051157135				
85.13671875	0.2	174360	72	37	0	0	0	72	93	stimuli\Videos_short_600ms_horflip\12.repeated_touch_with_nail_file_short_horflip_short_600ms.mp4	12.repeated_touch_with_nail_file_short_horflip_short_600ms.mp4	148.10335541853874	148.71168484683562	0.6083294282968836				
85.9365234375	0.2	175998	73	37	0	0	0	73	218	stimuli\Videos_short_600ms_horvertflip\44.pushing_top_to_bottom_with_finger_short_horvertflip_short_600ms.mp4	44.pushing_top_to_bottom_with_finger_short_horvertflip_short_600ms.mp4	148.90333612306404	149.51165616754338	0.608320044479342				
86.73681640625	0.2	177637	74	37	0	0	0	74	219	stimuli\Videos_short_600ms_horvertflip\45.scratching_with_finger_nails_short_horvertflip_short_600ms.mp4	45.scratching_with_finger_nails_short_horvertflip_short_600ms.mp4	149.70331946678812	150.311650947795	0.6083314810068714				
87.53662109375	0.2	179275	75	37	0	0	0	75	83	stimuli\Videos_short_600ms\85.touch_top_to_bottom_with_fabric_short_short_600ms.mp4	85.touch_top_to_bottom_with_fabric_short_short_600ms.mp4	150.50329870509177	151.1116228549913	0.6083241498995449				
88.33642578125	0.2	180913	76	37	0	0	0	76	153	stimuli\Videos_short_600ms_horflip\67.single_touch_with_sponge_short_horflip_short_600ms.mp4	67.single_touch_with_sponge_short_horflip_short_600ms.mp4	151.3032808758387	151.9115997473407	0.6083188715019787				
89.13671875	0.2	182552	77	37	0	0	0	77	233	stimuli\Videos_short_600ms_horvertflip\58.single_slap_with_pencil_short_horvertflip_short_600ms.mp4	58.single_slap_with_pencil_short_horvertflip_short_600ms.mp4	152.10326480605113	152.71158367755334	0.6083188715022061				
89.9365234375	0.2	184190	78	37	0	0	0	78	185	stimuli\Videos_short_600ms_horvertflip\14.repeated_touch_with_pencil_short_horvertflip_short_600ms.mp4	14.repeated_touch_with_pencil_short_horvertflip_short_600ms.mp4	152.9032443375993	153.51156203612413	0.6083176985248429				
90.736328125	0.2	185828	79	37	0	0	0	79	229	stimuli\Videos_short_600ms_horvertflip\54.repeated_touch_with_knife_short_horvertflip_short_600ms.mp4	54.repeated_touch_with_knife_short_horvertflip_short_600ms.mp4	153.70327372067777	154.3115453798482	0.6082716591704411				
91.53662109375	0.2	187467	80	37	0	0	0	80	227	stimuli\Videos_short_600ms_horvertflip\52.touch_top_to_bottom_with_hammer_short_horvertflip_short_600ms.mp4	52.touch_top_to_bottom_with_hammer_short_horvertflip_short_600ms.mp4	154.50321014531437	155.11153077628228	0.6083206309679099				
92.33642578125	0.2	189105	81	37	0	0	0	81	67	stimuli\Videos_short_600ms\70.(long)stroke_with_finger_all_over_the_hand_short_short_600ms.mp4	70.(long)stroke_with_finger_all_over_the_hand_short_short_600ms.mp4	155.30318879712945	155.91150913485308	0.6083203377236259				
93.13623046875	0.2	190743	82	37	0	0	0	82	128	stimuli\Videos_short_600ms_horflip\44.pushing_top_to_bottom_with_finger_short_horflip_short_600ms.mp4	44.pushing_top_to_bottom_with_finger_short_horflip_short_600ms.mp4	156.10314545562255	156.71149247857693	0.6083470229543764				
93.9365234375	0.2	192382	83	37	0	0	0	83	207	stimuli\Videos_short_600ms_horvertflip\34.repeated_punch_with_hand_short_horvertflip_short_600ms.mp4	34.repeated_punch_with_hand_short_horvertflip_short_600ms.mp4	156.90315196564575	157.51147464932387	0.608322683678125				
94.736328125	0.2	194020	84	37	0	0	0	84	182	stimuli\Videos_short_600ms_horvertflip\11.single_touch_with_lighter_short_horvertflip_short_600ms.mp4	11.single_touch_with_lighter_short_horvertflip_short_600ms.mp4	157.703107744406	158.31145212816182	0.6083443837558207				
95.5361328125	0.2	195658	85	37	0	0	0	85	155	stimuli\Videos_short_600ms_horflip\69.stroke_with_soft_sock_short_horflip_short_600ms.mp4	69.stroke_with_soft_sock_short_horflip_short_600ms.mp4	158.5031183598494	159.11141553127368	0.6082971714242831				
96.33642578125	0.2	197297	86	37	0	0	0	86	319	stimuli\Videos_short_600ms_vertflip\54.repeated_touch_with_knife_short_vertflip_short_600ms.mp4	54.repeated_touch_with_knife_short_vertflip_short_600ms.mp4	159.30310258330633	159.91142086831974	0.6083182850134108				
97.13623046875	0.2	198935	87	37	0	0	0	87	110	stimuli\Videos_short_600ms_horflip\28.single_injection_with_sharp_needle_short_horflip_short_600ms.mp4	28.single_injection_with_sharp_needle_short_horflip_short_600ms.mp4	160.10308035538856	160.71139688093626	0.608316525547707				
97.93603515625	0.2	200573	88	37	0	0	0	88	279	stimuli\Videos_short_600ms_vertflip\18.single_stroke_from_top_to_bottom_with_rolling_pin_short_vertflip_short_600ms.mp4	18.single_stroke_from_top_to_bottom_with_rolling_pin_short_vertflip_short_600ms.mp4	160.90306047342528	161.51137993141606	0.608319457990774				
98.736328125	0.2	202212	89	37	0	0	0	89	282	stimuli\Videos_short_600ms_vertflip\20.single_touch_with_screwdriver_short_vertflip_short_600ms.mp4	20.single_touch_with_screwdriver_short_vertflip_short_600ms.mp4	161.7030432306608	162.3113533048338	0.608310074173005				
99.5361328125	0.2	203850	90	37	0	0	0	90	333	stimuli\Videos_short_600ms_vertflip\67.single_touch_with_sponge_short_vertflip_short_600ms.mp4	67.single_touch_with_sponge_short_vertflip_short_600ms.mp4	162.50302598789608	163.1113480850854	0.6083220971893297				
100.3359375	0.2	205488	91	37	0	0	0	91	47	stimuli\Videos_short_600ms\52.touch_top_to_bottom_with_hammer_short_short_600ms.mp4	52.touch_top_to_bottom_with_hammer_short_short_600ms.mp4	163.3030037599783	163.91132556392336	0.6083218039450458				
101.13623046875	0.2	207127	92	37	0	0	0	92	80	stimuli\Videos_short_600ms\82.repeated_touch_with_cotton_bud_short_short_600ms.mp4	82.repeated_touch_with_cotton_bud_short_short_600ms.mp4	164.10362813573465	164.71131477253334	0.6076866367986895				
101.9443359375	0.2	208782	93	37	0	0	0	93	25	stimuli\Videos_short_600ms\32.single_(long)pinch_with_fingers_short_short_600ms.mp4	32.single_(long)pinch_with_fingers_short_short_600ms.mp4	164.9113185260603	165.51962273534764	0.6083042092873256				
102.74462890625	0.2	210421	94	37	0	0	0	94	38	stimuli\Videos_short_600ms\44.pushing_top_to_bottom_with_finger_short_short_600ms.mp4	44.pushing_top_to_bottom_with_finger_short_short_600ms.mp4	165.71129072650092	166.3195981614756	0.6083074349746767				
103.54443359375	0.2	212059	95	37	0	0	0	95	49	stimuli\Videos_short_600ms\54.repeated_touch_with_knife_short_short_600ms.mp4	54.repeated_touch_with_knife_short_short_600ms.mp4	166.5112655661403	167.11958590386394	0.6083203377236259				
104.34423828125	0.2	213697	96	37	0	0	0	96	52	stimuli\Videos_short_600ms\57.single_touch_with_nail_file_short_short_600ms.mp4	57.single_touch_with_nail_file_short_short_600ms.mp4	167.31124832337582	167.9195671948778	0.6083188715019787	7.0	7.0	3.0470322797455083	1.0
141.0517578125	0.2	288874	97	37	1	0	0	0	4	stimuli\Videos_short_600ms\13.single_touch_with_pen_short_short_600ms.mp4	13.single_touch_with_pen_short_short_600ms.mp4	204.0196969261547	204.62705424960836	0.607357323453698				
141.8515625	0.2	290512	98	37	1	0	0	1	141	stimuli\Videos_short_600ms_horflip\56.repeated_touch_with_nail_file_short_horflip_short_600ms.mp4	56.repeated_touch_with_nail_file_short_horflip_short_600ms.mp4	204.8187638814518	205.42703935279815	0.6082754713463601				
142.6513671875	0.2	292150	99	37	1	0	0	2	245	stimuli\Videos_short_600ms_horvertflip\69.stroke_with_soft_sock_short_horvertflip_short_600ms.mp4	69.stroke_with_soft_sock_short_horvertflip_short_600ms.mp4	205.6187003060884	206.22701595190324	0.6083156458148551				
143.45166015625	0.2	293789	100	37	1	0	0	3	320	stimuli\Videos_short_600ms_vertflip\55.touch_top_to_bottom_with_nail_file_short_vertflip_short_600ms.mp4	55.touch_top_to_bottom_with_nail_file_short_vertflip_short_600ms.mp4	206.4186804241251	207.02700838620035	0.6083279620752364				
144.25146484375	0.2	295427	101	37	1	0	0	4	26	stimuli\Videos_short_600ms\33.scratch_top_to_bottom_with_scissors_short_short_600ms.mp4	33.scratch_top_to_bottom_with_scissors_short_short_600ms.mp4	207.2186620083833	207.8269791204195	0.6083171120362749				
145.05126953125	0.2	297065	102	37	1	0	0	5	288	stimuli\Videos_short_600ms_vertflip\26.single_touch_with_a_blunt_syringe_short_vertflip_short_600ms.mp4	26.single_touch_with_a_blunt_syringe_short_vertflip_short_600ms.mp4	208.01862834393796	208.6269645168536	0.6083361729156422				
145.8515625	0.2	298704	103	37	1	0	0	6	164	stimuli\Videos_short_600ms_horflip\77.tapping_with_all_fingers_short_horflip_short_600ms.mp4	77.tapping_with_all_fingers_short_horflip_short_600ms.mp4	208.81862928231976	209.42693964973728	0.6083103674175163				
146.6513671875	0.2	300342	104	37	1	0	0	7	311	stimuli\Videos_short_600ms_vertflip\47.(long)scratching_with_finger_nails_short_vertflip_short_600ms.mp4	47.(long)scratching_with_finger_nails_short_vertflip_short_600ms.mp4	209.6186135057767	210.22692299346113	0.608309487684437				
147.451171875	0.2	301980	105	37	1	0	0	8	40	stimuli\Videos_short_600ms\46.scratching_top_to_bottom_with_finger_nails_short_short_600ms.mp4	46.scratching_top_to_bottom_with_finger_nails_short_short_600ms.mp4	210.41859098461464	211.0269048709638	0.6083138863491513				
148.25146484375	0.2	303619	106	37	1	0	0	9	187	stimuli\Videos_short_600ms_horvertflip\16.repeated_touch_with_plastic_brush_short_horvertflip_short_600ms.mp4	16.repeated_touch_with_plastic_brush_short_horvertflip_short_600ms.mp4	211.2185749148273	211.8268864552219	0.6083115403946522				
149.05126953125	0.2	305257	107	37	1	0	0	10	151	stimuli\Videos_short_600ms_horflip\65.stroke_top_to_bottom_with_stanley_knife_short_horflip_short_600ms.mp4	65.stroke_top_to_bottom_with_stanley_knife_short_horflip_short_600ms.mp4	212.01854975446645	212.62686862596863	0.6083188715022061				
149.85107421875	0.2	306895	108	37	1	0	0	11	45	stimuli\Videos_short_600ms\50.single_(long)hard_push_with_thumb_short_short_600ms.mp4	50.single_(long)hard_push_with_thumb_short_short_600ms.mp4	212.8185093454024	213.42684903724967	0.6083396918472772				
150.6513671875	0.2	308534	109	37	1	0	0	12	56	stimuli\Videos_short_600ms\60.single_push_with_tip_of_pencil_short_short_600ms.mp4	60.single_push_with_tip_of_pencil_short_short_600ms.mp4	213.61851468244868	214.2268312079964	0.608316525547707				
151.451171875	0.2	310172	110	37	1	0	0	13	106	stimuli\Videos_short_600ms_horflip\24.single_stroke_top_to_bottom_with_a_spoon_short_horflip_short_600ms.mp4	24.single_stroke_top_to_bottom_with_a_spoon_short_horflip_short_600ms.mp4	214.41850183834845	215.02683742477552	0.6083355864270743				
152.2509765625	0.2	311810	111	37	1	0	0	14	298	stimuli\Videos_short_600ms_vertflip\35.single_punch_with_hand_short_vertflip_short_600ms.mp4	35.single_punch_with_hand_short_vertflip_short_600ms.mp4	215.21848400909516	215.82679877517717	0.6083147660820032				
153.05126953125	0.2	313449	112	37	1	0	0	15	7	stimuli\Videos_short_600ms\16.repeated_touch_with_plastic_brush_short_short_600ms.mp4	16.repeated_touch_with_plastic_brush_short_short_600ms.mp4	216.01847087175088	216.6267586593574	0.608287787606514				
153.85107421875	0.2	315087	113	37	1	0	0	16	273	stimuli\Videos_short_600ms_vertflip\12.repeated_touch_with_nail_file_short_vertflip_short_600ms.mp4	12.repeated_touch_with_nail_file_short_vertflip_short_600ms.mp4	216.81844189921435	217.42675666529635	0.6083147660820032				
154.6513671875	0.2	316726	114	37	1	0	0	17	55	stimuli\Videos_short_600ms\6.single_touch_with_flat_hand_short_short_600ms.mp4	6.single_touch_with_flat_hand_short_short_600ms.mp4	217.6184237767168	218.2268007105895	0.6083769338727052				
155.451171875	0.2	318364	115	37	1	0	1	18	378	stimuli\Targets_short_600ms_vertflip\brush-stroke_short_horvertflip_short_600ms.mp4	brush-stroke_short_horvertflip_short_600ms.mp4	218.41840536097493	219.02672130003407	0.608315939059139				
156.2509765625	0.2	320002	116	37	1	0	0	19	70	stimuli\Videos_short_600ms\73.single_stroke_with_flat_hand_short_short_600ms.mp4	73.single_stroke_with_flat_hand_short_short_600ms.mp4	219.21838723847736	219.82670435051364	0.6083171120362749				
157.05126953125	0.2	321641	117	37	1	0	0	20	186	stimuli\Videos_short_600ms_horvertflip\15.single_stroke_top_to_bottom_with_a_plastic_whisk_short_horvertflip_short_600ms.mp4	15.single_stroke_top_to_bottom_with_a_plastic_whisk_short_horvertflip_short_600ms.mp4	220.0183688227355	220.62669062668056	0.6083218039450458				
157.85107421875	0.2	323279	118	37	1	0	0	21	348	stimuli\Videos_short_600ms_vertflip\80.stroke_with_sharp_stick_all_over_the_hand_short_vertflip_short_600ms.mp4	80.stroke_with_sharp_stick_all_over_the_hand_short_vertflip_short_600ms.mp4	220.81835157997105	221.42667191769465	0.6083203377236259				
158.65087890625	0.2	324917	119	37	1	0	0	22	305	stimuli\Videos_short_600ms_vertflip\41.injection_with_blunt_syringe_short_vertflip_short_600ms.mp4	41.injection_with_blunt_syringe_short_vertflip_short_600ms.mp4	221.61833228449632	222.22664793031117	0.6083156458148551				
159.451171875	0.2	326556	120	37	1	0	0	23	257	stimuli\Videos_short_600ms_horvertflip\8.single_touch_with_hairbrush_short_horvertflip_short_600ms.mp4	8.single_touch_with_hairbrush_short_horvertflip_short_600ms.mp4	222.41831416199875	223.0266271686148	0.608313006616072				
160.2509765625	0.2	328194	121	37	1	0	0	24	167	stimuli\Videos_short_600ms_horflip\8.single_touch_with_hairbrush_short_horflip_short_600ms.mp4	8.single_touch_with_hairbrush_short_horflip_short_600ms.mp4	223.2182934003024	223.82660933936177	0.6083159390593664				
161.05078125	0.2	329832	122	37	1	0	0	25	104	stimuli\Videos_short_600ms_horflip\22.single_touch_with_metal_chopstick_short_horflip_short_600ms.mp4	22.single_touch_with_metal_chopstick_short_horflip_short_600ms.mp4	224.0182749845608	224.62659180335277	0.608316818791991				
161.85107421875	0.2	331471	123	37	1	0	0	26	295	stimuli\Videos_short_600ms_vertflip\32.single_(long)pinch_with_fingers_short_vertflip_short_600ms.mp4	32.single_(long)pinch_with_fingers_short_vertflip_short_600ms.mp4	224.8182568620632	225.42657397409948	0.6083171120362749				
162.65087890625	0.2	333109	124	37	1	0	1	27	364	stimuli\Targets_short_600ms\hand-pinch_short_short_600ms.mp4	hand-pinch_short_short_600ms.mp4	225.6182475368946	226.2265540921362	0.6083065552415974				
163.45068359375	0.2	334747	125	37	1	0	0	28	263	stimuli\Videos_short_600ms_horvertflip\85.touch_top_to_bottom_with_fabric_short_horvertflip_short_600ms.mp4	85.touch_top_to_bottom_with_fabric_short_horvertflip_short_600ms.mp4	226.41822882790848	227.02654564670047	0.608316818791991				
164.2509765625	0.2	336386	126	37	1	0	0	29	79	stimuli\Videos_short_600ms\81.single_stroke_top_to_bottom_with_cotton_pad_short_short_600ms.mp4	81.single_stroke_top_to_bottom_with_cotton_pad_short_short_600ms.mp4	227.21820806621213	227.82653045664597	0.6083223904338411				
165.05078125	0.2	338024	127	37	1	0	0	30	217	stimuli\Videos_short_600ms_horvertflip\43.touch_top_to_bottom_with_sharp_wooden_stick_short_horvertflip_short_600ms.mp4	43.touch_top_to_bottom_with_sharp_wooden_stick_short_horvertflip_short_600ms.mp4	228.01818290585152	228.62649884491063	0.608315939059139				
165.8505859375	0.2	339662	128	37	1	0	0	31	294	stimuli\Videos_short_600ms_vertflip\31.hand_grabbing_wrist_short_vertflip_short_600ms.mp4	31.hand_grabbing_wrist_short_vertflip_short_600ms.mp4	228.8181659563313	229.42647954943595	0.60831359310464				
166.65087890625	0.2	341301	129	37	1	0	0	32	299	stimuli\Videos_short_600ms_vertflip\36.single_slap_with_full_hand_short_vertflip_short_600ms.mp4	36.single_slap_with_full_hand_short_vertflip_short_600ms.mp4	229.6181460743678	230.2264614269384	0.6083153525705711				
167.45068359375	0.2	342939	130	37	1	0	0	33	358	stimuli\Videos_short_600ms_vertflip\9.single_touch_with_hammer_short_vertflip_short_600ms.mp4	9.single_touch_with_hammer_short_vertflip_short_600ms.mp4	230.41813880190944	231.02648465188668	0.6083458499772405				
168.25048828125	0.2	344577	131	37	1	0	0	34	244	stimuli\Videos_short_600ms_horvertflip\68.stroke_top_to_bottom_with_shawl_short_horvertflip_short_600ms.mp4	68.stroke_top_to_bottom_with_shawl_short_horvertflip_short_600ms.mp4	231.218103964487	231.82640377510984	0.6082998106228388				
169.05078125	0.2	346216	132	37	1	0	0	35	170	stimuli\Videos_short_600ms_horflip\82.repeated_touch_with_cotton_bud_short_horflip_short_600ms.mp4	82.repeated_touch_with_cotton_bud_short_horflip_short_600ms.mp4	232.01809375958533	232.6264193757063	0.6083256161209647				
169.85888671875	0.2	347871	133	37	1	0	0	36	234	stimuli\Videos_short_600ms_horvertflip\59.single_push_with_long_side_pencil_short_horvertflip_short_600ms.mp4	59.single_push_with_long_side_pencil_short_horvertflip_short_600ms.mp4	232.82642107652327	233.4347270452763	0.6083059687530294				
170.6591796875	0.2	349510	134	37	1	0	0	37	297	stimuli\Videos_short_600ms_vertflip\34.repeated_punch_with_hand_short_vertflip_short_600ms.mp4	34.repeated_punch_with_hand_short_vertflip_short_600ms.mp4	233.62638477287945	234.23471097548895	0.6083262026095326				
171.458984375	0.2	351148	135	37	1	0	0	38	318	stimuli\Videos_short_600ms_vertflip\53.touch_top_to_bottom_with_knife_short_vertflip_short_600ms.mp4	53.touch_top_to_bottom_with_knife_short_vertflip_short_600ms.mp4	234.4263675301147	235.0346866948612	0.6083191647464901				
172.2587890625	0.2	352786	136	37	1	0	0	39	119	stimuli\Videos_short_600ms_horflip\36.single_slap_with_full_hand_short_horflip_short_600ms.mp4	36.single_slap_with_full_hand_short_horflip_short_600ms.mp4	235.22709600759617	235.83467238453952	0.6075763769433706				
173.05908203125	0.2	354425	137	37	1	0	0	40	146	stimuli\Videos_short_600ms_horflip\60.single_push_with_tip_of_pencil_short_horflip_short_600ms.mp4	60.single_push_with_tip_of_pencil_short_horflip_short_600ms.mp4	236.0264913965057	236.63465250257605	0.6081611060703835				
173.85888671875	0.2	356063	138	37	1	0	1	41	363	stimuli\Targets_short_600ms\finger-tap_short_short_600ms.mp4	finger-tap_short_short_600ms.mp4	236.82631814777528	237.43460769484773	0.6082895470724452				
174.6669921875	0.2	357718	139	37	1	0	0	42	201	stimuli\Videos_short_600ms_horvertflip\29.single_pinch_with_tweezers_short_horvertflip_short_600ms.mp4	29.single_pinch_with_tweezers_short_horvertflip_short_600ms.mp4	237.63464634444583	238.2429485010232	0.6083021565773379				
175.46728515625	0.2	359357	140	37	1	0	0	43	195	stimuli\Videos_short_600ms_horvertflip\23.single_push_with_a_spoon_short_horvertflip_short_600ms.mp4	23.single_push_with_a_spoon_short_horvertflip_short_600ms.mp4	238.4346056421375	239.04293155150276	0.6083259093652487				
176.26708984375	0.2	360995	141	37	1	0	0	44	238	stimuli\Videos_short_600ms_horvertflip\62.touch_top_to_bottom_with_scissors_short_horvertflip_short_600ms.mp4	62.touch_top_to_bottom_with_scissors_short_horvertflip_short_600ms.mp4	239.2345910385716	239.84291078980664	0.608319751235058				
177.06689453125	0.2	362633	142	37	1	0	0	45	308	stimuli\Videos_short_600ms_vertflip\44.pushing_top_to_bottom_with_finger_short_vertflip_short_600ms.mp4	44.pushing_top_to_bottom_with_finger_short_vertflip_short_600ms.mp4	240.03457643500565	240.64289853219495	0.6083220971893297				
177.8671875	0.2	364272	143	37	1	0	0	46	156	stimuli\Videos_short_600ms_horflip\7.repeated_touch_with_hairbrush_short_horflip_short_600ms.mp4	7.repeated_touch_with_hairbrush_short_horflip_short_600ms.mp4	240.83455860575236	241.44287659752172	0.6083179917693542				
178.6669921875	0.2	365910	144	37	1	0	0	47	209	stimuli\Videos_short_600ms_horvertflip\36.single_slap_with_full_hand_short_horvertflip_short_600ms.mp4	36.single_slap_with_full_hand_short_horvertflip_short_600ms.mp4	241.6345469346295	242.24285495609251	0.6083080214630172				
179.466796875	0.2	367548	145	37	1	0	0	48	231	stimuli\Videos_short_600ms_horvertflip\56.repeated_touch_with_nail_file_short_horvertflip_short_600ms.mp4	56.repeated_touch_with_nail_file_short_horvertflip_short_600ms.mp4	242.43452265400177	243.04283507412924	0.6083124201275041				
180.26708984375	0.2	369187	146	37	1	0	0	49	235	stimuli\Videos_short_600ms_horvertflip\6.single_touch_with_flat_hand_short_horvertflip_short_600ms.mp4	6.single_touch_with_flat_hand_short_horvertflip_short_600ms.mp4	243.23450893016863	243.8428286814035	0.6083197512348306				
181.06689453125	0.2	370825	147	37	1	0	0	50	27	stimuli\Videos_short_600ms\34.repeated_punch_with_hand_short_short_600ms.mp4	34.repeated_punch_with_hand_short_short_600ms.mp4	244.0345007779772	244.6427982426455	0.6082974646683397				
181.86669921875	0.2	372463	148	37	1	0	0	51	101	stimuli\Videos_short_600ms_horflip\2.single_touch_with_finger_short_horflip_short_600ms.mp4	2.single_touch_with_finger_short_horflip_short_600ms.mp4	244.83446623379905	245.44278246610247	0.608316232303423				
182.6669921875	0.2	374102	149	37	1	0	0	52	247	stimuli\Videos_short_600ms_horvertflip\70.(long)stroke_with_finger_all_over_the_hand_short_horvertflip_short_600ms.mp4	70.(long)stroke_with_finger_all_over_the_hand_short_horvertflip_short_600ms.mp4	245.6344460585915	246.2427725544453	0.6083264958538166				
183.466796875	0.2	375740	150	37	1	0	0	53	280	stimuli\Videos_short_600ms_vertflip\19.single_touch_with_rolling_pin_short_vertflip_short_600ms.mp4	19.single_touch_with_rolling_pin_short_vertflip_short_600ms.mp4	246.43442764284964	247.0427503265275	0.6083226836778977				
184.26708984375	0.2	377379	151	37	1	0	0	54	109	stimuli\Videos_short_600ms_horflip\27.single_push_with_a_plastic_whisk_short_horflip_short_600ms.mp4	27.single_push_with_a_plastic_whisk_short_horflip_short_600ms.mp4	247.23441303928348	247.8427275121212	0.6083144728377192				
185.06689453125	0.2	379017	152	37	1	0	0	55	149	stimuli\Videos_short_600ms_horflip\63.stroke_top_to_bottom_with_screwdriver_short_horflip_short_600ms.mp4	63.stroke_top_to_bottom_with_screwdriver_short_horflip_short_600ms.mp4	248.0343899316331	248.64271085584528	0.6083209242121939				
185.86669921875	0.2	380655	153	37	1	0	0	56	117	stimuli\Videos_short_600ms_horflip\34.repeated_punch_with_hand_short_horflip_short_600ms.mp4	34.repeated_punch_with_hand_short_horflip_short_600ms.mp4	248.83437327535697	249.4426918536149	0.6083185782579221				
186.6669921875	0.2	382294	154	37	1	0	0	57	309	stimuli\Videos_short_600ms_vertflip\45.scratching_with_finger_nails_short_vertflip_short_600ms.mp4	45.scratching_with_finger_nails_short_vertflip_short_600ms.mp4	249.63435427312652	250.24267226489587	0.6083179917693542				
187.466796875	0.2	383932	155	37	1	0	0	58	281	stimuli\Videos_short_600ms_vertflip\2.single_touch_with_finger_short_vertflip_short_600ms.mp4	2.single_touch_with_finger_short_vertflip_short_600ms.mp4	250.43434465471364	251.04265326266545	0.6083086079518125				
188.2666015625	0.2	385570	156	37	1	0	0	59	143	stimuli\Videos_short_600ms_horflip\58.single_slap_with_pencil_short_horflip_short_600ms.mp4	58.single_slap_with_pencil_short_horflip_short_600ms.mp4	251.23429104965612	251.84263543341217	0.608344383756048				
189.06689453125	0.2	387209	157	37	1	0	1	60	373	stimuli\Targets_short_600ms_horvertflip\chopstick-silver-tap_short_vertflip_short_600ms.mp4	chopstick-silver-tap_short_vertflip_short_600ms.mp4	252.03428084475468	252.6426176041589	0.6083367594042102				
189.86669921875	0.2	388847	158	37	1	0	0	61	264	stimuli\Videos_short_600ms_horvertflip\86.touch_top_to_bottom_with_hair_brush_short_horvertflip_short_600ms.mp4	86.touch_top_to_bottom_with_hair_brush_short_horvertflip_short_600ms.mp4	252.83425656412692	253.44259742895133	0.6083408648244131				
190.66650390625	0.2	390485	159	37	1	0	0	62	174	stimuli\Videos_short_600ms_horflip\86.touch_top_to_bottom_with_hair_brush_short_horflip_short_600ms.mp4	86.touch_top_to_bottom_with_hair_brush_short_horflip_short_600ms.mp4	253.63423668216365	254.24257901320948	0.6083423310458329				
191.466796875	0.2	392124	160	37	1	0	0	63	277	stimuli\Videos_short_600ms_vertflip\16.repeated_touch_with_plastic_brush_short_vertflip_short_600ms.mp4	16.repeated_touch_with_plastic_brush_short_vertflip_short_600ms.mp4	254.4342182664218	255.04256265017784	0.608344383756048				
192.2666015625	0.2	393762	161	37	1	0	0	64	289	stimuli\Videos_short_600ms_vertflip\27.single_push_with_a_plastic_whisk_short_vertflip_short_600ms.mp4	27.single_push_with_a_plastic_whisk_short_vertflip_short_600ms.mp4	255.2342397319044	255.8425424749701	0.6083027430656784				
193.06640625	0.2	395400	162	37	1	0	0	65	306	stimuli\Videos_short_600ms_vertflip\42.single_slap_with_plastic_whisk_short_vertflip_short_600ms.mp4	42.single_slap_with_plastic_whisk_short_vertflip_short_600ms.mp4	256.0342142782995	256.64253197682433	0.6083176985248429				
193.86669921875	0.2	397039	163	37	1	0	0	66	198	stimuli\Videos_short_600ms_horvertflip\26.single_touch_with_a_blunt_syringe_short_horvertflip_short_600ms.mp4	26.single_touch_with_a_blunt_syringe_short_horvertflip_short_600ms.mp4	256.83419351660314	257.4425012448221	0.6083077282189606				
194.66650390625	0.2	398677	164	37	1	0	1	67	365	stimuli\Targets_short_600ms\hand-stroke_short_short_600ms.mp4	hand-stroke_short_short_600ms.mp4	257.63417627383865	258.2424620087352	0.6082857348965263				
195.46630859375	0.2	400315	165	37	1	0	0	68	276	stimuli\Videos_short_600ms_vertflip\15.single_stroke_top_to_bottom_with_a_plastic_whisk_short_vertflip_short_600ms.mp4	15.single_stroke_top_to_bottom_with_a_plastic_whisk_short_vertflip_short_600ms.mp4	258.4341519932109	259.04244916463495	0.6082971714240557				
196.2666015625	0.2	401954	166	37	1	0	0	69	189	stimuli\Videos_short_600ms_horvertflip\18.single_stroke_from_top_to_bottom_with_rolling_pin_short_horvertflip_short_600ms.mp4	18.single_stroke_from_top_to_bottom_with_rolling_pin_short_horvertflip_short_600ms.mp4	259.23413093827025	259.8424471705737	0.608316232303423				
197.06640625	0.2	403592	167	37	1	0	1	70	369	stimuli\Targets_short_600ms_horflip\finger-tap_short_horflip_short_600ms.mp4	finger-tap_short_horflip_short_600ms.mp4	260.0341131090172	260.6424331534963	0.6083200444791146				
197.8662109375	0.2	405230	168	37	1	0	0	71	43	stimuli\Videos_short_600ms\49.repeated_slap_with_hand_short_short_600ms.mp4	49.repeated_slap_with_hand_short_short_600ms.mp4	260.83409850545104	261.4424267607708	0.6083282553197478				
198.66650390625	0.2	406869	169	37	1	0	0	72	287	stimuli\Videos_short_600ms_vertflip\25.single_touch_with_stanley_knife_short_vertflip_short_600ms.mp4	25.single_touch_with_stanley_knife_short_vertflip_short_600ms.mp4	261.6340765707778	262.2424033598759	0.6083267890981006				
199.46630859375	0.2	408507	170	37	1	0	0	73	159	stimuli\Videos_short_600ms_horflip\72.(short)stroke_with_finger_all_over_the_hand_short_horflip_short_600ms.mp4	72.(short)stroke_with_finger_all_over_the_hand_short_horflip_short_600ms.mp4	262.43405786179164	263.04237819951527	0.6083203377236259				
200.26611328125	0.2	410145	171	37	1	0	1	74	371	stimuli\Targets_short_600ms_horflip\hand-stroke_short_horflip_short_600ms.mp4	hand-stroke_short_horflip_short_600ms.mp4	263.2340432582257	263.8423779649197	0.608334706693995				
201.06640625	0.2	411784	172	37	1	0	0	75	72	stimuli\Videos_short_600ms\75.(long)stroke_with_fingers_all_over_the_hand_short_short_600ms.mp4	75.(long)stroke_with_fingers_all_over_the_hand_short_short_600ms.mp4	264.0340204438194	264.64233990181015	0.608319457990774				
201.8662109375	0.2	413422	173	37	1	0	0	76	176	stimuli\Videos_short_600ms_horflip\88.repeated_stroke_with_plastic_brush_short_horflip_short_600ms.mp4	88.repeated_stroke_with_plastic_brush_short_horflip_short_600ms.mp4	264.83403604441605	265.4423255914885	0.6082895470724452				
202.66650390625	0.2	415061	174	37	1	0	0	77	165	stimuli\Videos_short_600ms_horflip\78.single_stroke_top_to_bottom_with_soft_brush_short_horflip_short_600ms.mp4	78.single_stroke_top_to_bottom_with_soft_brush_short_horflip_short_600ms.mp4	265.6339909434432	266.242303656815	0.608312713371788				
203.46630859375	0.2	416699	175	37	1	0	0	78	163	stimuli\Videos_short_600ms_horflip\76.tickle_with_fingers_from_top_to_bottom_short_horflip_short_600ms.mp4	76.tickle_with_fingers_from_top_to_bottom_short_horflip_short_600ms.mp4	266.4339654898381	267.042284068096	0.6083185782579221				
204.26611328125	0.2	418337	176	37	1	0	1	79	366	stimuli\Targets_short_600ms_horflip\brush-stroke_short_horflip_short_600ms.mp4	brush-stroke_short_horflip_short_600ms.mp4	267.2339488335622	267.84226447937704	0.6083156458148551				
205.06640625	0.2	419976	177	37	1	0	0	80	94	stimuli\Videos_short_600ms_horflip\13.single_touch_with_pen_short_horflip_short_600ms.mp4	13.single_touch_with_pen_short_horflip_short_600ms.mp4	268.0339310043089	268.6422457703909	0.6083147660820032				
205.8662109375	0.2	421614	178	37	1	0	0	81	191	stimuli\Videos_short_600ms_horvertflip\2.single_touch_with_finger_short_horvertflip_short_600ms.mp4	2.single_touch_with_finger_short_horvertflip_short_600ms.mp4	268.8338856100918	269.44222970060355	0.6083440905117641				
206.666015625	0.2	423252	179	37	1	0	0	82	268	stimuli\Videos_short_600ms_horvertflip\9.single_touch_with_hammer_short_horvertflip_short_600ms.mp4	9.single_touch_with_hammer_short_horvertflip_short_600ms.mp4	269.63389329309234	270.242211578106	0.6083182850136382				
207.46630859375	0.2	424891	180	37	1	0	0	83	123	stimuli\Videos_short_600ms_horflip\4.repeated_tap_with_finger_slow_short_horflip_short_600ms.mp4	4.repeated_tap_with_finger_slow_short_horflip_short_600ms.mp4	270.43387047868623	271.0421914028982	0.6083209242119665				
208.26611328125	0.2	426529	181	37	1	0	0	84	96	stimuli\Videos_short_600ms_horflip\15.single_stroke_top_to_bottom_with_a_plastic_whisk_short_horflip_short_600ms.mp4	15.single_stroke_top_to_bottom_with_a_plastic_whisk_short_horflip_short_600ms.mp4	271.23382801691196	271.84217093444636	0.6083429175344008				
209.06591796875	0.2	428167	182	37	1	0	0	85	120	stimuli\Videos_short_600ms_horflip\37.single_stab_with_nail_file_short_horflip_short_600ms.mp4	37.single_stab_with_nail_file_short_horflip_short_600ms.mp4	272.03384361750864	272.6421551579033	0.6083115403946522				
209.8662109375	0.2	429806	183	37	1	0	0	86	239	stimuli\Videos_short_600ms_horvertflip\63.stroke_top_to_bottom_with_screwdriver_short_horvertflip_short_600ms.mp4	63.stroke_top_to_bottom_with_screwdriver_short_horvertflip_short_600ms.mp4	272.83381992336945	273.44213410296265	0.6083141795932079				
210.666015625	0.2	431444	184	37	1	0	0	87	283	stimuli\Videos_short_600ms_vertflip\21.repeated_touch_with_metal_chopstick_short_vertflip_short_600ms.mp4	21.repeated_touch_with_metal_chopstick_short_vertflip_short_600ms.mp4	273.63380033465046	274.24210307771614	0.6083027430656784				
211.4658203125	0.2	433082	185	37	1	0	1	88	374	stimuli\Targets_short_600ms_horvertflip\chopstickwood-tap_short_vertflip_short_600ms.mp4	chopstickwood-tap_short_vertflip_short_600ms.mp4	274.43376520398374	275.04209991067773	0.608334706693995				
212.26611328125	0.2	434721	186	37	1	0	0	89	188	stimuli\Videos_short_600ms_horvertflip\17.repeated_touch_with_rolling_pin_short_horvertflip_short_600ms.mp4	17.repeated_touch_with_rolling_pin_short_horvertflip_short_600ms.mp4	275.2337599842351	275.8420709381412	0.6083109539060843				
213.06591796875	0.2	436359	187	37	1	0	0	90	202	stimuli\Videos_short_600ms_horvertflip\3.single_push_with_finger_short_horvertflip_short_600ms.mp4	3.single_push_with_finger_short_horvertflip_short_600ms.mp4	276.03374215498206	276.6420636656828	0.6083215107007618				
213.86572265625	0.2	437997	188	37	1	0	0	91	68	stimuli\Videos_short_600ms\71.single_stroke_with_finger_top_to_bottom_short_short_600ms.mp4	71.single_stroke_with_finger_top_to_bottom_short_short_600ms.mp4	276.8337014526735	277.4420065416937	0.6083050890201775				
214.666015625	0.2	439636	189	37	1	0	0	92	258	stimuli\Videos_short_600ms_horvertflip\80.stroke_with_sharp_stick_all_over_the_hand_short_horvertflip_short_600ms.mp4	80.stroke_with_sharp_stick_all_over_the_hand_short_horvertflip_short_600ms.mp4	277.6337050302541	278.2420250747334	0.608320044479342				
215.4658203125	0.2	441274	190	37	1	0	0	93	253	stimuli\Videos_short_600ms_horvertflip\76.tickle_with_fingers_from_top_to_bottom_short_horvertflip_short_600ms.mp4	76.tickle_with_fingers_from_top_to_bottom_short_horvertflip_short_600ms.mp4	278.43368162935917	279.042006072503	0.6083244431438288				
216.265625	0.2	442912	191	37	1	0	0	94	132	stimuli\Videos_short_600ms_horflip\48.single_slap_with_hand_short_horflip_short_600ms.mp4	48.single_slap_with_hand_short_horflip_short_600ms.mp4	279.23367494338913	279.8419864837838	0.6083115403946522				
217.06591796875	0.2	444551	192	37	1	0	0	95	251	stimuli\Videos_short_600ms_horvertflip\74.fingers_walking_from_top_to_bottom_short_horvertflip_short_600ms.mp4	74.fingers_walking_from_top_to_bottom_short_horvertflip_short_600ms.mp4	280.03366121955605	280.6419707072407	0.6083094876846644				
217.86572265625	0.2	446189	193	37	1	0	0	96	330	stimuli\Videos_short_600ms_vertflip\64.repeated_touch_with_screwdriver_short_vertflip_short_600ms.mp4	64.repeated_touch_with_screwdriver_short_vertflip_short_600ms.mp4	280.8336310740424	281.44195082527744	0.608319751235058				
218.67431640625	0.2	447845	194	37	1	0	0	97	323	stimuli\Videos_short_600ms_vertflip\58.single_slap_with_pencil_short_vertflip_short_600ms.mp4	58.single_slap_with_pencil_short_vertflip_short_600ms.mp4	281.6419648423548	282.25027051786356	0.6083056755087455				
219.47412109375	0.2	449483	195	37	1	0	0	98	122	stimuli\Videos_short_600ms_horflip\39.single_stab_with_scissors_short_horflip_short_600ms.mp4	39.single_stab_with_scissors_short_horflip_short_600ms.mp4	282.4419091845873	283.05024946292315	0.6083402783358451	9.0	9.0	2.354890992297669	1.0
253.69775390625	0.2	519573	196	37	2	0	0	0	161	stimuli\Videos_short_600ms_horflip\74.fingers_walking_from_top_to_bottom_short_horflip_short_600ms.mp4	74.fingers_walking_from_top_to_bottom_short_horflip_short_600ms.mp4	316.6661396089178	317.27445232228956	0.608312713371788				
254.498046875	0.2	521212	197	37	2	0	1	1	362	stimuli\Targets_short_600ms\chopstickwood-tap_short_short_600ms.mp4	chopstickwood-tap_short_short_600ms.mp4	317.4661176742443	318.0744385984565	0.6083209242121939				
255.2978515625	0.2	522850	198	37	2	0	0	2	36	stimuli\Videos_short_600ms\42.single_slap_with_plastic_whisk_short_short_600ms.mp4	42.single_slap_with_plastic_whisk_short_short_600ms.mp4	318.26610922880855	318.8744160772944	0.6083068484858813				
256.09814453125	0.2	524489	199	37	2	0	0	3	261	stimuli\Videos_short_600ms_horvertflip\83.single_stroke_top_to_bottom_with_cotton_bud_short_horvertflip_short_600ms.mp4	83.single_stroke_top_to_bottom_with_cotton_bud_short_horvertflip_short_600ms.mp4	319.06606148863716	319.6743967818197	0.608335293182563				
256.89794921875	0.2	526127	200	37	2	0	0	4	74	stimuli\Videos_short_600ms\77.tapping_with_all_fingers_short_short_600ms.mp4	77.tapping_with_all_fingers_short_short_600ms.mp4	319.86606887839343	320.4743777795893	0.6083089011958691				
257.69775390625	0.2	527765	201	37	2	0	0	5	356	stimuli\Videos_short_600ms_vertflip\88.repeated_stroke_with_plastic_brush_short_vertflip_short_600ms.mp4	88.repeated_stroke_with_plastic_brush_short_vertflip_short_600ms.mp4	320.6660416653226	321.2743640557562	0.6083223904336137				
258.498046875	0.2	529404	202	37	2	0	0	6	275	stimuli\Videos_short_600ms_vertflip\14.repeated_touch_with_pencil_short_vertflip_short_600ms.mp4	14.repeated_touch_with_pencil_short_vertflip_short_600ms.mp4	321.46599979003713	322.07434681299173	0.6083470229546037				
259.2978515625	0.2	531042	203	37	2	0	0	7	208	stimuli\Videos_short_600ms_horvertflip\35.single_punch_with_hand_short_horvertflip_short_600ms.mp4	35.single_punch_with_hand_short_horvertflip_short_600ms.mp4	322.2660068865491	322.8743213593866	0.6083144728374918				
260.09765625	0.2	532680	204	37	2	0	0	8	124	stimuli\Videos_short_600ms_horflip\40.repeated_push_with_finger_short_horflip_short_600ms.mp4	40.repeated_push_with_finger_short_horflip_short_600ms.mp4	323.06598671134157	323.674304996355	0.6083182850134108				
260.89794921875	0.2	534319	205	37	2	0	0	9	172	stimuli\Videos_short_600ms_horflip\84.single_touch_with_cotton_bud_short_horflip_short_600ms.mp4	84.single_touch_with_cotton_bud_short_horflip_short_600ms.mp4	323.8661929207308	324.4742669332452	0.6080740125144075				
261.69775390625	0.2	535957	206	37	2	0	0	10	29	stimuli\Videos_short_600ms\36.single_slap_with_full_hand_short_short_600ms.mp4	36.single_slap_with_full_hand_short_short_600ms.mp4	324.665959850164	325.27426875135984	0.6083089011958691				
262.49755859375	0.2	537595	207	37	2	0	0	11	169	stimuli\Videos_short_600ms_horflip\81.single_stroke_top_to_bottom_with_cotton_pad_short_horflip_short_600ms.mp4	81.single_stroke_top_to_bottom_with_cotton_pad_short_horflip_short_600ms.mp4	325.46593527629193	326.0742262895858	0.608291013293865				
263.2978515625	0.2	539234	208	37	2	0	0	12	250	stimuli\Videos_short_600ms_horvertflip\73.single_stroke_with_flat_hand_short_horvertflip_short_600ms.mp4	73.single_stroke_with_flat_hand_short_horvertflip_short_600ms.mp4	326.2659127551299	326.8741864670103	0.6082737118804289				
264.10595703125	0.2	540889	209	37	2	0	0	13	23	stimuli\Videos_short_600ms\30.finger_pulling_back_another_finger_short_short_600ms.mp4	30.finger_pulling_back_another_finger_short_short_600ms.mp4	327.07417614481096	327.6825510259739	0.6083748811629448				
264.90576171875	0.2	542527	210	37	2	0	1	14	379	stimuli\Targets_short_600ms_vertflip\chopstick-silver-tap_short_horvertflip_short_600ms.mp4	chopstick-silver-tap_short_horvertflip_short_600ms.mp4	327.8742090468211	328.482529677789	0.6083206309679099				
265.7060546875	0.2	544166	211	37	2	0	0	15	205	stimuli\Videos_short_600ms_horvertflip\32.single_(long)pinch_with_fingers_short_horvertflip_short_600ms.mp4	32.single_(long)pinch_with_fingers_short_horvertflip_short_600ms.mp4	328.6741938567666	329.2825018782298	0.6083080214632446				
266.505859375	0.2	545804	212	37	2	0	0	16	138	stimuli\Videos_short_600ms_horflip\53.touch_top_to_bottom_with_knife_short_horflip_short_600ms.mp4	53.touch_top_to_bottom_with_knife_short_horflip_short_600ms.mp4	329.47417925320065	330.08247173271593	0.6082924795152849				
267.3056640625	0.2	547442	213	37	2	0	0	17	317	stimuli\Videos_short_600ms_vertflip\52.touch_top_to_bottom_with_hammer_short_vertflip_short_600ms.mp4	52.touch_top_to_bottom_with_hammer_short_vertflip_short_600ms.mp4	330.27414998741983	330.882472964342	0.6083229769221816				
268.10595703125	0.2	549081	214	37	2	0	0	18	0	stimuli\Videos_short_600ms\1.repeated_touch_with_finger_fast_short_short_600ms.mp4	1.repeated_touch_with_finger_fast_short_short_600ms.mp4	331.07429784119404	331.6824299160794	0.6081320748853614				
268.90576171875	0.2	550719	215	37	2	0	0	19	183	stimuli\Videos_short_600ms_horvertflip\12.repeated_touch_with_nail_file_short_horvertflip_short_600ms.mp4	12.repeated_touch_with_nail_file_short_horvertflip_short_600ms.mp4	331.8741122762033	332.48243554636974	0.6083232701664656				
269.70556640625	0.2	552357	216	37	2	0	0	20	154	stimuli\Videos_short_600ms_horflip\68.stroke_top_to_bottom_with_shawl_short_horflip_short_600ms.mp4	68.stroke_top_to_bottom_with_shawl_short_horflip_short_600ms.mp4	332.6740947401943	333.2823951373057	0.6083003971114067				
270.505859375	0.2	553996	217	37	2	0	0	21	237	stimuli\Videos_short_600ms_horvertflip\61.single_hit_with_rolling_pin_short_horvertflip_short_600ms.mp4	61.single_hit_with_rolling_pin_short_horvertflip_short_600ms.mp4	333.4740546243745	334.08240047435197	0.6083458499774679				
271.3056640625	0.2	555634	218	37	2	0	0	22	69	stimuli\Videos_short_600ms\72.(short)stroke_with_finger_all_over_the_hand_short_short_600ms.mp4	72.(short)stroke_with_finger_all_over_the_hand_short_short_600ms.mp4	334.274057322222	334.8823767802128	0.608319457990774				
272.10595703125	0.2	557273	219	37	2	0	0	23	30	stimuli\Videos_short_600ms\37.single_stab_with_nail_file_short_short_600ms.mp4	37.single_stab_with_nail_file_short_short_600ms.mp4	335.0740365605259	335.68236246989113	0.6083259093652487				
272.90576171875	0.2	558911	220	37	2	0	0	24	224	stimuli\Videos_short_600ms_horvertflip\5.repeated_tap_with_finger_moving_from_top_to_bottom_short_horvertflip_short_600ms.mp4	5.repeated_tap_with_finger_moving_from_top_to_bottom_short_horvertflip_short_600ms.mp4	335.87402049073853	336.48234024197336	0.6083197512348306				
273.70556640625	0.2	560549	221	37	2	0	0	25	131	stimuli\Videos_short_600ms_horflip\47.(long)scratching_with_finger_nails_short_horflip_short_600ms.mp4	47.(long)scratching_with_finger_nails_short_horflip_short_600ms.mp4	336.67400060877526	337.2823229992089	0.6083223904336137				
274.505859375	0.2	562188	222	37	2	0	0	26	14	stimuli\Videos_short_600ms\22.single_touch_with_metal_chopstick_short_short_600ms.mp4	22.single_touch_with_metal_chopstick_short_short_600ms.mp4	337.4739821930334	338.08230399697845	0.6083218039450458				
275.3056640625	0.2	563826	223	37	2	0	0	27	236	stimuli\Videos_short_600ms_horvertflip\60.single_push_with_tip_of_pencil_short_horvertflip_short_600ms.mp4	60.single_push_with_tip_of_pencil_short_horvertflip_short_600ms.mp4	338.2739626043144	338.8822873407023	0.6083247363878854				
276.10546875	0.2	565464	224	37	2	0	0	28	31	stimuli\Videos_short_600ms\38.double_slap_with_pencil_short_short_600ms.mp4	38.double_slap_with_pencil_short_short_600ms.mp4	339.073903134371	339.68226687225047	0.608363737879472				
276.90576171875	0.2	567103	225	37	2	0	0	29	325	stimuli\Videos_short_600ms_vertflip\6.single_touch_with_flat_hand_short_vertflip_short_600ms.mp4	6.single_touch_with_flat_hand_short_vertflip_short_600ms.mp4	339.87393310393804	340.4822510957074	0.6083179917693542				
277.70556640625	0.2	568741	226	37	2	0	0	30	111	stimuli\Videos_short_600ms_horflip\29.single_pinch_with_tweezers_short_horflip_short_600ms.mp4	29.single_pinch_with_tweezers_short_horflip_short_600ms.mp4	340.67388712323236	341.28223297320983	0.6083458499774679				
278.50537109375	0.2	570379	227	37	2	0	0	31	142	stimuli\Videos_short_600ms_horflip\57.single_touch_with_nail_file_short_horflip_short_600ms.mp4	57.single_touch_with_nail_file_short_horflip_short_600ms.mp4	341.473890994057	342.08220898582636	0.6083179917693542				
279.3056640625	0.2	572018	228	37	2	0	0	32	98	stimuli\Videos_short_600ms_horflip\17.repeated_touch_with_rolling_pin_short_horflip_short_600ms.mp4	17.repeated_touch_with_rolling_pin_short_horflip_short_600ms.mp4	342.2738494120158	342.88219320928306	0.6083437972672527				
280.10546875	0.2	573656	229	37	2	0	0	33	221	stimuli\Videos_short_600ms_horvertflip\47.(long)scratching_with_finger_nails_short_horvertflip_short_600ms.mp4	47.(long)scratching_with_finger_nails_short_horvertflip_short_600ms.mp4	343.07385152337497	343.68218065842734	0.6083291350523723				
280.9052734375	0.2	575294	230	37	2	0	0	34	180	stimuli\Videos_short_600ms_horvertflip\1.repeated_touch_with_finger_fast_short_horvertflip_short_600ms.mp4	1.repeated_touch_with_finger_fast_short_horvertflip_short_600ms.mp4	343.8738407319845	344.48213614394285	0.6082954119583519				
281.70556640625	0.2	576933	231	37	2	0	0	35	5	stimuli\Videos_short_600ms\14.repeated_touch_with_pencil_short_short_600ms.mp4	14.repeated_touch_with_pencil_short_short_600ms.mp4	344.6739349220527	345.28214030801223	0.6082053859595362				
282.50537109375	0.2	578571	232	37	2	0	0	36	326	stimuli\Videos_short_600ms_vertflip\60.single_push_with_tip_of_pencil_short_vertflip_short_600ms.mp4	60.single_push_with_tip_of_pencil_short_vertflip_short_600ms.mp4	345.4737581543907	346.0820925678406	0.6083344134499384				
283.30517578125	0.2	580209	233	37	2	0	0	37	184	stimuli\Videos_short_600ms_horvertflip\13.single_touch_with_pen_short_horvertflip_short_600ms.mp4	13.single_touch_with_pen_short_horvertflip_short_600ms.mp4	346.2737807928504	346.88207473858733	0.6082939457369321				
284.10546875	0.2	581848	234	37	2	0	0	38	223	stimuli\Videos_short_600ms_horvertflip\49.repeated_slap_with_hand_short_horvertflip_short_600ms.mp4	49.repeated_slap_with_hand_short_horvertflip_short_600ms.mp4	347.0737612041314	347.6820783161677	0.6083171120362749				
284.9052734375	0.2	583486	235	37	2	0	0	39	20	stimuli\Videos_short_600ms\28.single_injection_with_sharp_needle_short_short_600ms.mp4	28.single_injection_with_sharp_needle_short_short_600ms.mp4	347.87374132216814	348.482065765312	0.6083244431438288				
285.705078125	0.2	585124	236	37	2	0	0	40	137	stimuli\Videos_short_600ms_horflip\52.touch_top_to_bottom_with_hammer_short_horflip_short_600ms.mp4	52.touch_top_to_bottom_with_hammer_short_horflip_short_600ms.mp4	348.673720560472	349.28204500361585	0.6083244431438288				
286.50537109375	0.2	586763	237	37	2	0	0	41	60	stimuli\Videos_short_600ms\64.repeated_touch_with_screwdriver_short_short_600ms.mp4	64.repeated_touch_with_screwdriver_short_short_600ms.mp4	349.4737015582416	350.08203538520297	0.6083338269613705				
287.30517578125	0.2	588401	238	37	2	0	0	42	173	stimuli\Videos_short_600ms_horflip\85.touch_top_to_bottom_with_fabric_short_horflip_short_600ms.mp4	85.touch_top_to_bottom_with_fabric_short_horflip_short_600ms.mp4	350.2736843154769	350.88200641266644	0.6083220971895571				
288.10498046875	0.2	590039	239	37	2	0	0	43	100	stimuli\Videos_short_600ms_horflip\19.single_touch_with_rolling_pin_short_horflip_short_600ms.mp4	19.single_touch_with_rolling_pin_short_horflip_short_600ms.mp4	351.07366560649075	351.68200089967354	0.6083352931827903				
288.9052734375	0.2	591678	240	37	2	0	0	44	130	stimuli\Videos_short_600ms_horflip\46.scratching_top_to_bottom_with_finger_nails_short_horflip_short_600ms.mp4	46.scratching_top_to_bottom_with_finger_nails_short_horflip_short_600ms.mp4	351.8736521759022	352.481969874427	0.6083176985248429				
289.705078125	0.2	593316	241	37	2	0	1	45	367	stimuli\Targets_short_600ms_horflip\chopstick-silver-tap_short_horflip_short_600ms.mp4	chopstick-silver-tap_short_horflip_short_600ms.mp4	352.6736278952742	353.281956443838	0.6083285485638044				
290.50537109375	0.2	594955	242	37	2	0	0	46	256	stimuli\Videos_short_600ms_horvertflip\79.long_with_soft_brush_all_over_the_hand_short_horvertflip_short_600ms.mp4	79.long_with_soft_brush_all_over_the_hand_short_horvertflip_short_600ms.mp4	353.4736097727766	354.08193099023333	0.6083212174567052				
291.30517578125	0.2	596593	243	37	2	0	0	47	62	stimuli\Videos_short_600ms\66.stroke_top_to_bottom_with_sponge_short_short_600ms.mp4	66.stroke_top_to_bottom_with_sponge_short_short_600ms.mp4	354.27359165027906	354.88191286773576	0.6083212174567052				
292.10498046875	0.2	598231	244	37	2	0	0	48	327	stimuli\Videos_short_600ms_vertflip\61.single_hit_with_rolling_pin_short_vertflip_short_600ms.mp4	61.single_hit_with_rolling_pin_short_vertflip_short_600ms.mp4	355.0735632642311	355.68189386550534	0.6083306012742469				
292.9052734375	0.2	599870	245	37	2	0	0	49	127	stimuli\Videos_short_600ms_horflip\43.touch_top_to_bottom_with_sharp_wooden_stick_short_horflip_short_600ms.mp4	43.touch_top_to_bottom_with_sharp_wooden_stick_short_horflip_short_600ms.mp4	355.8735600971929	356.48187808896205	0.6083179917691268				
293.705078125	0.2	601508	246	37	2	0	0	50	339	stimuli\Videos_short_600ms_vertflip\72.(short)stroke_with_finger_all_over_the_hand_short_vertflip_short_600ms.mp4	72.(short)stroke_with_finger_all_over_the_hand_short_vertflip_short_600ms.mp4	356.6735390422525	357.2818576205102	0.6083185782576948				
294.5048828125	0.2	603146	247	37	2	0	0	51	12	stimuli\Videos_short_600ms\20.single_touch_with_screwdriver_short_short_600ms.mp4	20.single_touch_with_screwdriver_short_short_600ms.mp4	357.4736015619362	358.0818389115241	0.6082373495878528				
295.30517578125	0.2	604785	248	37	2	0	0	52	11	stimuli\Videos_short_600ms\2.single_touch_with_finger_short_short_600ms.mp4	2.single_touch_with_finger_short_short_600ms.mp4	358.27349693237124	358.88182166875936	0.6083247363881128				
296.10498046875	0.2	606423	249	37	2	0	0	53	266	stimuli\Videos_short_600ms_horvertflip\88.repeated_stroke_with_plastic_brush_short_horvertflip_short_600ms.mp4	88.repeated_stroke_with_plastic_brush_short_horvertflip_short_600ms.mp4	359.0734931788445	359.68180032057467	0.6083071417301653				
296.90478515625	0.2	608061	250	37	2	0	0	54	102	stimuli\Videos_short_600ms_horflip\20.single_touch_with_screwdriver_short_horflip_short_600ms.mp4	20.single_touch_with_screwdriver_short_horflip_short_600ms.mp4	359.8734618603537	360.48178278456567	0.6083209242119665				
297.705078125	0.2	609700	251	37	2	0	0	55	50	stimuli\Videos_short_600ms\55.touch_top_to_bottom_with_nail_file_short_short_600ms.mp4	55.touch_top_to_bottom_with_nail_file_short_short_600ms.mp4	360.6734478432761	361.2817382700816	0.6082904268055245				
298.5048828125	0.2	611338	252	37	2	0	0	56	105	stimuli\Videos_short_600ms_horflip\23.single_push_with_a_spoon_short_horflip_short_600ms.mp4	23.single_push_with_a_spoon_short_horflip_short_600ms.mp4	361.4734235626486	362.08172220029405	0.6082986376454755				
299.3046875	0.2	612976	253	37	2	0	0	57	334	stimuli\Videos_short_600ms_vertflip\68.stroke_top_to_bottom_with_shawl_short_vertflip_short_600ms.mp4	68.stroke_top_to_bottom_with_shawl_short_vertflip_short_600ms.mp4	362.2734315388932	362.88172665760726	0.6082951187140679				
300.10498046875	0.2	614615	254	37	2	0	1	58	380	stimuli\Targets_short_600ms_vertflip\chopstickwood-tap_short_horvertflip_short_600ms.mp4	chopstickwood-tap_short_horvertflip_short_600ms.mp4	363.07336884326264	363.68170736213256	0.608338518869914				
300.90478515625	0.2	616253	255	37	2	0	0	59	89	stimuli\Videos_short_600ms\90.repeated_touch_with_sponge_short_short_600ms.mp4	90.repeated_touch_with_sponge_short_short_600ms.mp4	363.8733665559573	364.4816907058564	0.6083241498990901				
301.70458984375	0.2	617891	256	37	2	0	0	60	211	stimuli\Videos_short_600ms_horvertflip\38.double_slap_with_pencil_short_horvertflip_short_600ms.mp4	38.double_slap_with_pencil_short_horvertflip_short_600ms.mp4	364.67366132512393	365.2816807941993	0.608019469075316				
302.5048828125	0.2	619530	257	37	2	0	0	61	290	stimuli\Videos_short_600ms_vertflip\28.single_injection_with_sharp_needle_short_vertflip_short_600ms.mp4	28.single_injection_with_sharp_needle_short_vertflip_short_600ms.mp4	365.47333060420647	366.0816535811289	0.608322976922409				
303.3046875	0.2	621168	258	37	2	0	0	62	75	stimuli\Videos_short_600ms\78.single_stroke_top_to_bottom_with_soft_brush_short_short_600ms.mp4	78.single_stroke_top_to_bottom_with_soft_brush_short_short_600ms.mp4	366.2733139479303	366.8816419100056	0.6083279620752364				
304.1044921875	0.2	622806	259	37	2	0	0	63	41	stimuli\Videos_short_600ms\47.(long)scratching_with_finger_nails_short_short_600ms.mp4	47.(long)scratching_with_finger_nails_short_short_600ms.mp4	367.073298171387	367.68161528342375	0.6083171120367297				
304.90478515625	0.2	624445	260	37	2	0	0	64	114	stimuli\Videos_short_600ms_horflip\31.hand_grabbing_wrist_short_horflip_short_600ms.mp4	31.hand_grabbing_wrist_short_horflip_short_600ms.mp4	367.8732750637366	368.4815965744376	0.6083215107009892				
305.70458984375	0.2	626083	261	37	2	0	0	65	329	stimuli\Videos_short_600ms_vertflip\63.stroke_top_to_bottom_with_screwdriver_short_vertflip_short_600ms.mp4	63.stroke_top_to_bottom_with_screwdriver_short_vertflip_short_600ms.mp4	368.6732560615062	369.2815755194968	0.6083194579905467				
306.50439453125	0.2	627721	262	37	2	0	0	66	24	stimuli\Videos_short_600ms\31.hand_grabbing_wrist_short_short_600ms.mp4	31.hand_grabbing_wrist_short_short_600ms.mp4	369.4732355930544	370.0815576902439	0.6083220971895571				
307.3046875	0.2	629360	263	37	2	0	1	67	368	stimuli\Targets_short_600ms_horflip\chopstickwood-tap_short_horflip_short_600ms.mp4	chopstickwood-tap_short_horflip_short_600ms.mp4	370.273203688075	370.8815422069449	0.608338518869914				
308.1044921875	0.2	630998	264	37	2	0	0	68	3	stimuli\Videos_short_600ms\12.repeated_touch_with_nail_file_short_short_600ms.mp4	12.repeated_touch_with_nail_file_short_short_600ms.mp4	371.0731838061118	371.6815208587602	0.6083370526484941				
308.90478515625	0.2	632637	265	37	2	0	0	69	99	stimuli\Videos_short_600ms_horflip\18.single_stroke_from_top_to_bottom_with_rolling_pin_short_horflip_short_600ms.mp4	18.single_stroke_from_top_to_bottom_with_rolling_pin_short_horflip_short_600ms.mp4	371.87317799987454	372.4815059619498	0.6083279620752364				
309.70458984375	0.2	634275	266	37	2	0	0	70	17	stimuli\Videos_short_600ms\25.single_touch_with_stanley_knife_short_short_600ms.mp4	25.single_touch_with_stanley_knife_short_short_600ms.mp4	372.67316896795023	373.28148695971936	0.6083179917691268				
310.50439453125	0.2	635913	267	37	2	0	0	71	148	stimuli\Videos_short_600ms_horflip\62.touch_top_to_bottom_with_scissors_short_horflip_short_600ms.mp4	62.touch_top_to_bottom_with_scissors_short_horflip_short_600ms.mp4	373.47314615354367	374.0814635588247	0.6083174052810136				
311.3046875	0.2	637552	268	37	2	0	0	72	301	stimuli\Videos_short_600ms_vertflip\38.double_slap_with_pencil_short_vertflip_short_600ms.mp4	38.double_slap_with_pencil_short_vertflip_short_600ms.mp4	374.27313008375654	374.88144660930425	0.608316525547707				
312.1044921875	0.2	639190	269	37	2	0	0	73	59	stimuli\Videos_short_600ms\63.stroke_top_to_bottom_with_screwdriver_short_short_600ms.mp4	63.stroke_top_to_bottom_with_screwdriver_short_short_600ms.mp4	375.07311401396896	375.6814334719595	0.6083194579905467				
312.904296875	0.2	640828	270	37	2	0	0	74	230	stimuli\Videos_short_600ms_horvertflip\55.touch_top_to_bottom_with_nail_file_short_horvertflip_short_600ms.mp4	55.touch_top_to_bottom_with_nail_file_short_horvertflip_short_600ms.mp4	375.8731017563575	376.4813833858336	0.608281629476096				
313.70458984375	0.2	642467	271	37	2	0	1	75	383	stimuli\Targets_short_600ms_vertflip\hand-stroke_short_horvertflip_short_600ms.mp4	hand-stroke_short_horvertflip_short_600ms.mp4	376.6730730770653	377.2813901891016	0.6083171120362749				
314.50439453125	0.2	644105	272	37	2	0	0	76	28	stimuli\Videos_short_600ms\35.single_punch_with_hand_short_short_600ms.mp4	35.single_punch_with_hand_short_short_600ms.mp4	377.4730523153691	378.0813453813728	0.6082930660036254				
315.30419921875	0.2	645743	273	37	2	0	0	77	354	stimuli\Videos_short_600ms_vertflip\86.touch_top_to_bottom_with_hair_brush_short_vertflip_short_600ms.mp4	86.touch_top_to_bottom_with_hair_brush_short_vertflip_short_600ms.mp4	378.2730318469173	378.88136186170254	0.6083300147852242				
316.1044921875	0.2	647382	274	37	2	0	0	78	324	stimuli\Videos_short_600ms_vertflip\59.single_push_with_long_side_pencil_short_vertflip_short_600ms.mp4	59.single_push_with_long_side_pencil_short_vertflip_short_600ms.mp4	379.07301548388546	379.6813422729835	0.6083267890981006				
316.904296875	0.2	649020	275	37	2	0	0	79	196	stimuli\Videos_short_600ms_horvertflip\24.single_stroke_top_to_bottom_with_a_spoon_short_horvertflip_short_600ms.mp4	24.single_stroke_top_to_bottom_with_a_spoon_short_horvertflip_short_600ms.mp4	379.87299472218933	380.4813171126227	0.6083223904333863				
317.7041015625	0.2	650658	276	37	2	0	0	80	337	stimuli\Videos_short_600ms_vertflip\70.(long)stroke_with_finger_all_over_the_hand_short_vertflip_short_600ms.mp4	70.(long)stroke_with_finger_all_over_the_hand_short_vertflip_short_600ms.mp4	380.6729730807599	381.2813028023013	0.608329721541395				
318.50439453125	0.2	652297	277	37	2	0	0	81	302	stimuli\Videos_short_600ms_vertflip\39.single_stab_with_scissors_short_vertflip_short_600ms.mp4	39.single_stab_with_scissors_short_vertflip_short_600ms.mp4	381.47295730421706	382.0812773486962	0.6083200444791146				
319.30419921875	0.2	653935	278	37	2	0	0	82	1	stimuli\Videos_short_600ms\10.single_touch_with_knife_short_short_600ms.mp4	10.single_touch_with_knife_short_short_600ms.mp4	382.27293654252094	382.8812598126872	0.6083232701662382				
320.10400390625	0.2	655573	279	37	2	0	0	83	342	stimuli\Videos_short_600ms_vertflip\75.(long)stroke_with_fingers_all_over_the_hand_short_vertflip_short_600ms.mp4	75.(long)stroke_with_fingers_all_over_the_hand_short_vertflip_short_600ms.mp4	383.0729228186876	383.6812413969453	0.6083185782576948				
320.904296875	0.2	657212	280	37	2	0	0	84	271	stimuli\Videos_short_600ms_vertflip\10.single_touch_with_knife_short_vertflip_short_600ms.mp4	10.single_touch_with_knife_short_vertflip_short_600ms.mp4	383.87290469619006	384.4812223947149	0.6083176985248429				
321.7041015625	0.2	658850	281	37	2	0	0	85	66	stimuli\Videos_short_600ms\7.repeated_touch_with_hairbrush_short_short_600ms.mp4	7.repeated_touch_with_hairbrush_short_short_600ms.mp4	384.6728889196468	385.2812048587059	0.608315939059139				
322.50390625	0.2	660488	282	37	2	0	0	86	129	stimuli\Videos_short_600ms_horflip\45.scratching_with_finger_nails_short_horflip_short_600ms.mp4	45.scratching_with_finger_nails_short_horflip_short_600ms.mp4	385.4728652255078	386.08118644296405	0.6083212174562505				
323.30419921875	0.2	662127	283	37	2	0	0	87	338	stimuli\Videos_short_600ms_vertflip\71.single_stroke_with_finger_top_to_bottom_short_vertflip_short_600ms.mp4	71.single_stroke_with_finger_top_to_bottom_short_vertflip_short_600ms.mp4	386.2728289218637	386.88116509477936	0.6083361729156422				
324.10400390625	0.2	663765	284	37	2	0	0	88	194	stimuli\Videos_short_600ms_horvertflip\22.single_touch_with_metal_chopstick_short_horvertflip_short_600ms.mp4	22.single_touch_with_metal_chopstick_short_horvertflip_short_600ms.mp4	387.0728040547476	387.6811472655261	0.6083432107784574				
324.90380859375	0.2	665403	285	37	2	0	0	89	300	stimuli\Videos_short_600ms_vertflip\37.single_stab_with_nail_file_short_vertflip_short_600ms.mp4	37.single_stab_with_nail_file_short_vertflip_short_600ms.mp4	387.8728058728623	388.4811306092504	0.6083247363881128				
325.7041015625	0.2	667042	286	37	2	0	0	90	18	stimuli\Videos_short_600ms\26.single_touch_with_a_blunt_syringe_short_short_600ms.mp4	26.single_touch_with_a_blunt_syringe_short_short_600ms.mp4	388.6727924422733	389.2811092610653	0.608316818791991				
326.50390625	0.2	668680	287	37	2	0	0	91	108	stimuli\Videos_short_600ms_horflip\26.single_touch_with_a_blunt_syringe_short_horflip_short_600ms.mp4	26.single_touch_with_a_blunt_syringe_short_horflip_short_600ms.mp4	389.47277490626425	390.0810911385681	0.6083162323038778				
327.30419921875	0.2	670319	288	37	2	0	0	92	135	stimuli\Videos_short_600ms_horflip\50.single_(long)hard_push_with_thumb_short_horflip_short_600ms.mp4	50.single_(long)hard_push_with_thumb_short_horflip_short_600ms.mp4	390.2727605959428	390.88107067011583	0.608310074173005				
328.10400390625	0.2	671957	289	37	2	0	0	93	76	stimuli\Videos_short_600ms\79.long_with_soft_brush_all_over_the_hand_short_short_600ms.mp4	79.long_with_soft_brush_all_over_the_hand_short_short_600ms.mp4	391.0727474585981	391.6810267421204	0.608279283522279				
328.90380859375	0.2	673595	290	37	2	0	0	94	190	stimuli\Videos_short_600ms_horvertflip\19.single_touch_with_rolling_pin_short_horvertflip_short_600ms.mp4	19.single_touch_with_rolling_pin_short_horvertflip_short_600ms.mp4	391.8727161401073	392.4810338386326	0.6083176985252976				
329.7041015625	0.2	675234	291	37	2	0	0	95	214	stimuli\Videos_short_600ms_horvertflip\40.repeated_push_with_finger_short_horvertflip_short_600ms.mp4	40.repeated_push_with_finger_short_horvertflip_short_600ms.mp4	392.6727082811601	393.2809913768581	0.6082830956979706	6.0	6.0	2.386569880409297	1.0
364.52783203125	0.2	746553	292	37	3	0	1	0	360	stimuli\Targets_short_600ms\brush-stroke_short_short_600ms.mp4	brush-stroke_short_short_600ms.mp4	427.4968825198832	428.10519992516424	0.6083174052810136				
365.32763671875	0.2	748191	293	37	3	0	0	1	144	stimuli\Videos_short_600ms_horflip\59.single_push_with_long_side_pencil_short_horflip_short_600ms.mp4	59.single_push_with_long_side_pencil_short_horflip_short_600ms.mp4	428.2968594122328	428.9051818026667	0.6083223904338411				
366.1279296875	0.2	749830	294	37	3	0	0	2	168	stimuli\Videos_short_600ms_horflip\80.stroke_with_sharp_stick_all_over_the_hand_short_horflip_short_600ms.mp4	80.stroke_with_sharp_stick_all_over_the_hand_short_horflip_short_600ms.mp4	429.0968415829795	429.7051616274591	0.6083200444795693				
366.927734375	0.2	751468	295	37	3	0	0	3	147	stimuli\Videos_short_600ms_horflip\61.single_hit_with_rolling_pin_short_horflip_short_600ms.mp4	61.single_hit_with_rolling_pin_short_horflip_short_600ms.mp4	429.8968249267034	430.5051435049615	0.6083185782581495				
367.7275390625	0.2	753106	296	37	3	0	0	4	347	stimuli\Videos_short_600ms_vertflip\8.single_touch_with_hairbrush_short_vertflip_short_600ms.mp4	8.single_touch_with_hairbrush_short_vertflip_short_600ms.mp4	430.6968050447402	431.3051250892197	0.6083200444795693				
368.52783203125	0.2	754745	297	37	3	0	0	5	336	stimuli\Videos_short_600ms_vertflip\7.repeated_touch_with_hairbrush_short_vertflip_short_600ms.mp4	7.repeated_touch_with_hairbrush_short_vertflip_short_600ms.mp4	431.4967866289983	432.1051040342793	0.6083174052810136				
369.32763671875	0.2	756383	298	37	3	0	0	6	270	stimuli\Videos_short_600ms_vertflip\1.repeated_touch_with_finger_fast_short_vertflip_short_600ms.mp4	1.repeated_touch_with_finger_fast_short_vertflip_short_600ms.mp4	432.2967394753157	432.9050859117817	0.6083464364660358				
370.12744140625	0.2	758021	299	37	3	0	0	7	246	stimuli\Videos_short_600ms_horvertflip\7.repeated_touch_with_hairbrush_short_horvertflip_short_600ms.mp4	7.repeated_touch_with_hairbrush_short_horvertflip_short_600ms.mp4	433.09676123404256	433.7050669095513	0.6083056755087455				
370.927734375	0.2	759660	300	37	3	0	0	8	39	stimuli\Videos_short_600ms\45.scratching_with_finger_nails_short_short_600ms.mp4	45.scratching_with_finger_nails_short_short_600ms.mp4	433.89672932906274	434.5050493735423	0.6083200444795693				
371.7275390625	0.2	761298	301	37	3	0	0	9	341	stimuli\Videos_short_600ms_vertflip\74.fingers_walking_from_top_to_bottom_short_vertflip_short_600ms.mp4	74.fingers_walking_from_top_to_bottom_short_vertflip_short_600ms.mp4	434.6967009430152	435.3050280253576	0.6083270823423845				
372.52734375	0.2	762936	302	37	3	0	0	10	357	stimuli\Videos_short_600ms_vertflip\89.single_touch_with_plastic_brush_short_vertflip_short_600ms.mp4	89.single_touch_with_plastic_brush_short_vertflip_short_600ms.mp4	435.4966942570452	436.1050060906839	0.6083118336387088				
373.32763671875	0.2	764575	303	37	3	0	0	11	269	stimuli\Videos_short_600ms_horvertflip\90.repeated_touch_with_sponge_short_horvertflip_short_600ms.mp4	90.repeated_touch_with_sponge_short_horvertflip_short_600ms.mp4	436.29669812786983	436.90499441956104	0.6082962916912038				
374.12744140625	0.2	766213	304	37	3	0	0	12	307	stimuli\Videos_short_600ms_vertflip\43.touch_top_to_bottom_with_sharp_wooden_stick_short_vertflip_short_600ms.mp4	43.touch_top_to_bottom_with_sharp_wooden_stick_short_vertflip_short_600ms.mp4	437.0966650499133	437.7049724848878	0.6083074349744493				
374.92724609375	0.2	767851	305	37	3	0	0	13	316	stimuli\Videos_short_600ms_vertflip\51.repeated_touch_with_hammer_short_vertflip_short_600ms.mp4	51.repeated_touch_with_hammer_short_vertflip_short_600ms.mp4	437.8966349043992	438.50494908399264	0.6083141795934353				
375.7275390625	0.2	769490	306	37	3	0	0	14	63	stimuli\Videos_short_600ms\67.single_touch_with_sponge_short_short_600ms.mp4	67.single_touch_with_sponge_short_short_600ms.mp4	438.6966164886578	439.3049300817622	0.6083135931044126				
376.52734375	0.2	771128	307	37	3	0	0	15	255	stimuli\Videos_short_600ms_horvertflip\78.single_stroke_top_to_bottom_with_soft_brush_short_horvertflip_short_600ms.mp4	78.single_stroke_top_to_bottom_with_soft_brush_short_horvertflip_short_600ms.mp4	439.49659543371695	440.1048893794539	0.6082939457369321				
377.3271484375	0.2	772766	308	37	3	0	0	16	179	stimuli\Videos_short_600ms_horflip\90.repeated_touch_with_sponge_short_horflip_short_600ms.mp4	90.repeated_touch_with_sponge_short_horflip_short_600ms.mp4	440.29657877744125	440.9049023408518	0.6083235634105222				
378.12744140625	0.2	774405	309	37	3	0	0	17	86	stimuli\Videos_short_600ms\88.repeated_stroke_with_plastic_brush_short_short_600ms.mp4	88.repeated_stroke_with_plastic_brush_short_short_600ms.mp4	441.096560948188	441.70487806022425	0.6083171120362749				
378.92724609375	0.2	776043	310	37	3	0	0	18	103	stimuli\Videos_short_600ms_horflip\21.repeated_touch_with_metal_chopstick_short_horflip_short_600ms.mp4	21.repeated_touch_with_metal_chopstick_short_horflip_short_600ms.mp4	441.89654047973613	442.5048578850167	0.6083174052805589				
379.72705078125	0.2	777681	311	37	3	0	0	19	303	stimuli\Videos_short_600ms_vertflip\4.repeated_tap_with_finger_slow_short_vertflip_short_600ms.mp4	4.repeated_tap_with_finger_slow_short_vertflip_short_600ms.mp4	442.6965252896814	443.3048397625191	0.6083144728377192				
380.52734375	0.2	779320	312	37	3	0	0	20	225	stimuli\Videos_short_600ms_horvertflip\50.single_(long)hard_push_with_thumb_short_horvertflip_short_600ms.mp4	50.single_(long)hard_push_with_thumb_short_horvertflip_short_600ms.mp4	443.4965015955424	444.1048330765491	0.608331481006644				
381.3271484375	0.2	780958	313	37	3	0	0	21	232	stimuli\Videos_short_600ms_horvertflip\57.single_touch_with_nail_file_short_horvertflip_short_600ms.mp4	57.single_touch_with_nail_file_short_horvertflip_short_600ms.mp4	444.2964843527777	444.9048029310354	0.6083185782576948				
382.12744140625	0.2	782597	314	37	3	0	0	22	193	stimuli\Videos_short_600ms_horvertflip\21.repeated_touch_with_metal_chopstick_short_horvertflip_short_600ms.mp4	21.repeated_touch_with_metal_chopstick_short_horvertflip_short_600ms.mp4	445.0964674032573	445.70478480853785	0.6083174052805589				
382.92724609375	0.2	784235	315	37	3	0	0	23	112	stimuli\Videos_short_600ms_horflip\3.single_push_with_finger_short_horflip_short_600ms.mp4	3.single_push_with_finger_short_horflip_short_600ms.mp4	445.89644693480545	446.5047678590174	0.6083209242119665				
383.72705078125	0.2	785873	316	37	3	0	0	24	15	stimuli\Videos_short_600ms\23.single_push_with_a_spoon_short_short_600ms.mp4	23.single_push_with_a_spoon_short_short_600ms.mp4	446.69642910555217	447.3047611730474	0.608332067495212				
384.52734375	0.2	787512	317	37	3	0	1	25	376	stimuli\Targets_short_600ms_horvertflip\hand-pinch_short_vertflip_short_600ms.mp4	hand-pinch_short_vertflip_short_600ms.mp4	447.49638635053384	448.10472662886946	0.6083402783356178				
385.3271484375	0.2	789150	318	37	3	0	0	26	322	stimuli\Videos_short_600ms_vertflip\57.single_touch_with_nail_file_short_vertflip_short_600ms.mp4	57.single_touch_with_nail_file_short_vertflip_short_600ms.mp4	448.2968429905525	448.9047099725933	0.6078669820408322				
386.126953125	0.2	790788	319	37	3	0	0	27	210	stimuli\Videos_short_600ms_horvertflip\37.single_stab_with_nail_file_short_horvertflip_short_600ms.mp4	37.single_stab_with_nail_file_short_horvertflip_short_600ms.mp4	449.0963433609197	449.7046886244086	0.6083452634889				
386.92724609375	0.2	792427	320	37	3	0	1	28	368	stimuli\Targets_short_600ms_horflip\chopstickwood-tap_short_horflip_short_600ms.mp4	chopstickwood-tap_short_horflip_short_600ms.mp4	449.8963264113993	450.5046696221782	0.6083432107789122				
387.72705078125	0.2	794065	321	37	3	0	0	29	178	stimuli\Videos_short_600ms_horflip\9.single_touch_with_hammer_short_horflip_short_600ms.mp4	9.single_touch_with_hammer_short_horflip_short_600ms.mp4	450.6963320416901	451.30465149968063	0.6083194579905467				
388.52685546875	0.2	795703	322	37	3	0	0	30	87	stimuli\Videos_short_600ms\89.single_touch_with_plastic_brush_short_short_600ms.mp4	89.single_touch_with_plastic_brush_short_short_600ms.mp4	451.49632330301006	452.1046327906945	0.608309487684437				
389.3271484375	0.2	797342	323	37	3	0	0	31	203	stimuli\Videos_short_600ms_horvertflip\30.finger_pulling_back_another_finger_short_horvertflip_short_600ms.mp4	30.finger_pulling_back_another_finger_short_horvertflip_short_600ms.mp4	452.2962952102064	452.9046082168227	0.6083130066162994				
390.126953125	0.2	798980	324	37	3	0	0	32	200	stimuli\Videos_short_600ms_horvertflip\28.single_injection_with_sharp_needle_short_horvertflip_short_600ms.mp4	28.single_injection_with_sharp_needle_short_horvertflip_short_600ms.mp4	453.0962841255721	453.7045988916536	0.6083147660815484				
390.9267578125	0.2	800618	325	37	3	0	0	33	313	stimuli\Videos_short_600ms_vertflip\49.repeated_slap_with_hand_short_vertflip_short_600ms.mp4	49.repeated_slap_with_hand_short_vertflip_short_600ms.mp4	453.8962583787227	454.50455994881145	0.60830157008877				
391.72705078125	0.2	802257	326	37	3	0	0	34	248	stimuli\Videos_short_600ms_horvertflip\71.single_stroke_with_finger_top_to_bottom_short_horvertflip_short_600ms.mp4	71.single_stroke_with_finger_top_to_bottom_short_horvertflip_short_600ms.mp4	454.696239083248	455.3045526763528	0.6083135931048673				
392.52685546875	0.2	803895	327	37	3	0	0	35	133	stimuli\Videos_short_600ms_horflip\49.repeated_slap_with_hand_short_horflip_short_600ms.mp4	49.repeated_slap_with_hand_short_horflip_short_600ms.mp4	455.4962200810175	456.1045360200767	0.608315939059139				
393.32666015625	0.2	805533	328	37	3	0	1	36	365	stimuli\Targets_short_600ms\hand-stroke_short_short_600ms.mp4	hand-stroke_short_short_600ms.mp4	456.2961996125657	456.9045249354424	0.6083253228766807				
394.126953125	0.2	807172	329	37	3	0	0	37	353	stimuli\Videos_short_600ms_vertflip\85.touch_top_to_bottom_with_fabric_short_vertflip_short_600ms.mp4	85.touch_top_to_bottom_with_fabric_short_vertflip_short_600ms.mp4	457.0961841292667	457.7045094521434	0.6083253228766807				
394.9267578125	0.2	808810	330	37	3	0	0	38	34	stimuli\Videos_short_600ms\40.repeated_push_with_finger_short_short_600ms.mp4	40.repeated_push_with_finger_short_short_600ms.mp4	457.896162781082	458.504483705294	0.6083209242119665				
395.7265625	0.2	810448	331	37	3	0	0	39	90	stimuli\Videos_short_600ms_horflip\1.repeated_touch_with_finger_fast_short_horflip_short_600ms.mp4	1.repeated_touch_with_finger_fast_short_horflip_short_600ms.mp4	458.6961437788516	459.3044658760411	0.6083220971895571				
396.52685546875	0.2	812087	332	37	3	0	0	40	78	stimuli\Videos_short_600ms\80.stroke_with_sharp_stick_all_over_the_hand_short_short_600ms.mp4	80.stroke_with_sharp_stick_all_over_the_hand_short_short_600ms.mp4	459.4961238968883	460.1044442346117	0.6083203377233986				
397.32666015625	0.2	813725	333	37	3	0	1	41	372	stimuli\Targets_short_600ms_horvertflip\brush-stroke_short_vertflip_short_600ms.mp4	brush-stroke_short_vertflip_short_600ms.mp4	460.29610548114647	460.90442611211415	0.6083206309676825				
398.12646484375	0.2	815363	334	37	3	0	0	42	61	stimuli\Videos_short_600ms\65.stroke_top_to_bottom_with_stanley_knife_short_short_600ms.mp4	65.stroke_top_to_bottom_with_stanley_knife_short_short_600ms.mp4	461.0960885316261	461.7044065233952	0.6083179917691268				
398.9267578125	0.2	817002	335	37	3	0	0	43	166	stimuli\Videos_short_600ms_horflip\79.long_with_soft_brush_all_over_the_hand_short_horflip_short_600ms.mp4	79.long_with_soft_brush_all_over_the_hand_short_horflip_short_600ms.mp4	461.8960683564185	462.50438898738616	0.6083206309676825				
399.7265625	0.2	818640	336	37	3	0	0	44	97	stimuli\Videos_short_600ms_horflip\16.repeated_touch_with_plastic_brush_short_horflip_short_600ms.mp4	16.repeated_touch_with_plastic_brush_short_horflip_short_600ms.mp4	462.69605316636375	463.3043688121786	0.6083156458148551				
400.52685546875	0.2	820279	337	37	3	0	0	45	57	stimuli\Videos_short_600ms\61.single_hit_with_rolling_pin_short_short_600ms.mp4	61.single_hit_with_rolling_pin_short_short_600ms.mp4	463.4960324046676	464.10434687750535	0.6083144728377192				
401.32666015625	0.2	821917	338	37	3	0	0	46	140	stimuli\Videos_short_600ms_horflip\55.touch_top_to_bottom_with_nail_file_short_horflip_short_600ms.mp4	55.touch_top_to_bottom_with_nail_file_short_horflip_short_600ms.mp4	464.2960116429715	464.90433110096205	0.6083194579905467				
402.12646484375	0.2	823555	339	37	3	0	0	47	265	stimuli\Videos_short_600ms_horvertflip\87.single_stroke_top_to_bottom_with_plastic_brush_short_horvertflip_short_600ms.mp4	87.single_stroke_top_to_bottom_with_plastic_brush_short_horvertflip_short_600ms.mp4	465.09603574765265	465.7043106325102	0.6082748848575648				
402.9267578125	0.2	825194	340	37	3	0	0	48	73	stimuli\Videos_short_600ms\76.tickle_with_fingers_from_top_to_bottom_short_short_600ms.mp4	76.tickle_with_fingers_from_top_to_bottom_short_short_600ms.mp4	465.8959715858007	466.5042930965012	0.6083215107005344				
403.7265625	0.2	826832	341	37	3	0	0	49	81	stimuli\Videos_short_600ms\83.single_stroke_top_to_bottom_with_cotton_bud_short_short_600ms.mp4	83.single_stroke_top_to_bottom_with_cotton_bud_short_short_600ms.mp4	466.6959660728078	467.3042743875151	0.6083083147073012				
404.5263671875	0.2	828470	342	37	3	0	1	50	380	stimuli\Targets_short_600ms_vertflip\chopstickwood-tap_short_horvertflip_short_600ms.mp4	chopstickwood-tap_short_horvertflip_short_600ms.mp4	467.4959611463039	468.1042357379172	0.6082745916132808				
405.32666015625	0.2	830109	343	37	3	0	0	51	206	stimuli\Videos_short_600ms_horvertflip\33.scratch_top_to_bottom_with_scissors_short_horvertflip_short_600ms.mp4	33.scratch_top_to_bottom_with_scissors_short_horvertflip_short_600ms.mp4	468.2959263088812	468.9042363830547	0.6083100741734597				
406.12646484375	0.2	831747	344	37	3	0	0	52	107	stimuli\Videos_short_600ms_horflip\25.single_touch_with_stanley_knife_short_horflip_short_600ms.mp4	25.single_touch_with_stanley_knife_short_horflip_short_600ms.mp4	469.095897629589	469.7041912820816	0.6082936524926481				
406.92626953125	0.2	833385	345	37	3	0	0	53	304	stimuli\Videos_short_600ms_vertflip\40.repeated_push_with_finger_short_vertflip_short_600ms.mp4	40.repeated_push_with_finger_short_vertflip_short_600ms.mp4	469.8958771611371	470.50419837859386	0.6083212174567052				
407.7265625	0.2	835024	346	37	3	0	0	54	181	stimuli\Videos_short_600ms_horvertflip\10.single_touch_with_knife_short_horvertflip_short_600ms.mp4	10.single_touch_with_knife_short_horvertflip_short_600ms.mp4	470.69585933188387	471.3041817223177	0.6083223904338411				
408.5263671875	0.2	836662	347	37	3	0	0	55	65	stimuli\Videos_short_600ms\69.stroke_with_soft_sock_short_short_600ms.mp4	69.stroke_with_soft_sock_short_short_600ms.mp4	471.49584414182914	472.10416154711015	0.6083174052810136				
409.326171875	0.2	838300	348	37	3	0	0	56	85	stimuli\Videos_short_600ms\87.single_stroke_top_to_bottom_with_plastic_brush_short_short_600ms.mp4	87.single_stroke_top_to_bottom_with_plastic_brush_short_short_600ms.mp4	472.29582074093446	472.9041531016744	0.6083323607399507				
410.12646484375	0.2	839939	349	37	3	0	0	57	285	stimuli\Videos_short_600ms_vertflip\23.single_push_with_a_spoon_short_vertflip_short_600ms.mp4	23.single_push_with_a_spoon_short_vertflip_short_600ms.mp4	473.09580320492546	473.7041258886036	0.608322683678125				
410.92626953125	0.2	841577	350	37	3	0	0	58	262	stimuli\Videos_short_600ms_horvertflip\84.single_touch_with_cotton_bud_short_horvertflip_short_600ms.mp4	84.single_touch_with_cotton_bud_short_horvertflip_short_600ms.mp4	473.8957830297179	474.50410219446417	0.6083191647462627				
411.72607421875	0.2	843215	351	37	3	0	0	59	35	stimuli\Videos_short_600ms\41.injection_with_blunt_syringe_short_short_600ms.mp4	41.injection_with_blunt_syringe_short_short_600ms.mp4	474.6957660801975	475.30408788414275	0.6083218039452731				
412.5263671875	0.2	844854	352	37	3	0	0	60	22	stimuli\Videos_short_600ms\3.single_push_with_finger_short_short_600ms.mp4	3.single_push_with_finger_short_short_600ms.mp4	475.49574707796705	476.1040656562252	0.6083185782581495				
413.326171875	0.2	846492	353	37	3	0	0	61	9	stimuli\Videos_short_600ms\18.single_stroke_from_top_to_bottom_with_rolling_pin_short_short_600ms.mp4	18.single_stroke_from_top_to_bottom_with_rolling_pin_short_short_600ms.mp4	476.2957257297824	476.9040466539948	0.6083209242124212				
414.1259765625	0.2	848130	354	37	3	0	0	62	204	stimuli\Videos_short_600ms_horvertflip\31.hand_grabbing_wrist_short_horvertflip_short_600ms.mp4	31.hand_grabbing_wrist_short_horvertflip_short_600ms.mp4	477.09570819377336	477.7040270652758	0.6083188715024335				
414.92626953125	0.2	849769	355	37	3	0	0	63	249	stimuli\Videos_short_600ms_horvertflip\72.(short)stroke_with_finger_all_over_the_hand_short_horvertflip_short_600ms.mp4	72.(short)stroke_with_finger_all_over_the_hand_short_horvertflip_short_600ms.mp4	477.8956874320773	478.5040112887325	0.6083238566552609				
415.72607421875	0.2	851407	356	37	3	0	0	64	13	stimuli\Videos_short_600ms\21.repeated_touch_with_metal_chopstick_short_short_600ms.mp4	21.repeated_touch_with_metal_chopstick_short_short_600ms.mp4	478.6956772271758	479.3039905270364	0.6083132998605834				
416.52587890625	0.2	853045	357	37	3	0	0	65	331	stimuli\Videos_short_600ms_vertflip\65.stroke_top_to_bottom_with_stanley_knife_short_vertflip_short_600ms.mp4	65.stroke_top_to_bottom_with_stanley_knife_short_vertflip_short_600ms.mp4	479.4956517735706	480.103969472096	0.6083176985252976				
417.326171875	0.2	854684	358	37	3	0	0	66	352	stimuli\Videos_short_600ms_vertflip\84.single_touch_with_cotton_bud_short_vertflip_short_600ms.mp4	84.single_touch_with_cotton_bud_short_vertflip_short_600ms.mp4	480.2956383429821	480.90395017662127	0.6083118336391635				
418.1259765625	0.2	856322	359	37	3	0	0	67	215	stimuli\Videos_short_600ms_horvertflip\41.injection_with_blunt_syringe_short_horvertflip_short_600ms.mp4	41.injection_with_blunt_syringe_short_horvertflip_short_600ms.mp4	481.0956120096441	481.70393146763513	0.6083194579910014				
418.92626953125	0.2	857961	360	37	3	0	0	68	226	stimuli\Videos_short_600ms_horvertflip\51.repeated_touch_with_hammer_short_horvertflip_short_600ms.mp4	51.repeated_touch_with_hammer_short_horvertflip_short_600ms.mp4	481.89559447363513	482.50390161536575	0.6083071417306201				
419.72607421875	0.2	859599	361	37	3	0	0	69	136	stimuli\Videos_short_600ms_horflip\51.repeated_touch_with_hammer_short_horflip_short_600ms.mp4	51.repeated_touch_with_hammer_short_horflip_short_600ms.mp4	482.69558280251226	483.30387410905064	0.6082913065383764				
420.52587890625	0.2	861237	362	37	3	0	0	70	343	stimuli\Videos_short_600ms_vertflip\76.tickle_with_fingers_from_top_to_bottom_short_vertflip_short_600ms.mp4	76.tickle_with_fingers_from_top_to_bottom_short_vertflip_short_600ms.mp4	483.4955635070376	484.1038521743769	0.6082886673393659				
421.326171875	0.2	862876	363	37	3	0	0	71	6	stimuli\Videos_short_600ms\15.single_stroke_top_to_bottom_with_a_plastic_whisk_short_short_600ms.mp4	15.single_stroke_top_to_bottom_with_a_plastic_whisk_short_short_600ms.mp4	484.29554069263145	484.90383229241365	0.6082915997822056				
422.13427734375	0.2	864531	364	37	3	0	0	72	92	stimuli\Videos_short_600ms_horflip\11.single_touch_with_lighter_short_horflip_short_600ms.mp4	11.single_touch_with_lighter_short_horflip_short_600ms.mp4	485.10385188113264	485.7121672337032	0.6083153525705711				
422.93408203125	0.2	866169	365	37	3	0	0	73	113	stimuli\Videos_short_600ms_horflip\30.finger_pulling_back_another_finger_short_horflip_short_600ms.mp4	30.finger_pulling_back_another_finger_short_horflip_short_600ms.mp4	485.903815577489	486.5121491112056	0.6083335337166318				
423.734375	0.2	867808	366	37	3	0	0	74	58	stimuli\Videos_short_600ms\62.touch_top_to_bottom_with_scissors_short_short_600ms.mp4	62.touch_top_to_bottom_with_scissors_short_short_600ms.mp4	486.7038050793433	487.3121301089752	0.608325029631942				
424.5341796875	0.2	869446	367	37	3	0	0	75	125	stimuli\Videos_short_600ms_horflip\41.injection_with_blunt_syringe_short_horflip_short_600ms.mp4	41.injection_with_blunt_syringe_short_horflip_short_600ms.mp4	487.503808070435	488.1121131594553	0.6083050890201775				
425.333984375	0.2	871084	368	37	3	0	0	76	91	stimuli\Videos_short_600ms_horflip\10.single_touch_with_knife_short_horflip_short_600ms.mp4	10.single_touch_with_knife_short_horflip_short_600ms.mp4	488.3037811506086	488.9120900518044	0.6083089011958691				
426.13427734375	0.2	872723	369	37	3	0	0	77	19	stimuli\Videos_short_600ms\27.single_push_with_a_plastic_whisk_short_short_600ms.mp4	27.single_push_with_a_plastic_whisk_short_short_600ms.mp4	489.10375774971385	489.7120508157175	0.6082930660036254				
426.93408203125	0.2	874361	370	37	3	0	0	78	349	stimuli\Videos_short_600ms_vertflip\81.single_stroke_top_to_bottom_with_cotton_pad_short_vertflip_short_600ms.mp4	81.single_stroke_top_to_bottom_with_cotton_pad_short_vertflip_short_600ms.mp4	489.9037525299652	490.5120543932983	0.6083018633330539				
427.73388671875	0.2	875999	371	37	3	0	0	79	296	stimuli\Videos_short_600ms_vertflip\33.scratch_top_to_bottom_with_scissors_short_vertflip_short_600ms.mp4	33.scratch_top_to_bottom_with_scissors_short_vertflip_short_600ms.mp4	490.70371827903114	491.3120362708007	0.6083179917695816				
428.5341796875	0.2	877638	372	37	3	0	0	80	243	stimuli\Videos_short_600ms_horvertflip\67.single_touch_with_sponge_short_horvertflip_short_600ms.mp4	67.single_touch_with_sponge_short_horvertflip_short_600ms.mp4	491.5037013295112	492.11201521585986	0.6083138863486965				
429.333984375	0.2	879276	373	37	3	0	0	81	33	stimuli\Videos_short_600ms\4.repeated_tap_with_finger_slow_short_short_600ms.mp4	4.repeated_tap_with_finger_slow_short_short_600ms.mp4	492.30448552340863	492.9119976798513	0.6075121564426809				
430.1337890625	0.2	880914	374	37	3	0	1	82	366	stimuli\Targets_short_600ms_horflip\brush-stroke_short_horflip_short_600ms.mp4	brush-stroke_short_horflip_short_600ms.mp4	493.1036812129521	493.7119821965523	0.608300983600202				
430.93408203125	0.2	882553	375	37	3	0	0	83	118	stimuli\Videos_short_600ms_horflip\35.single_punch_with_hand_short_horflip_short_600ms.mp4	35.single_punch_with_hand_short_horflip_short_600ms.mp4	493.9036463755299	494.5119590889019	0.6083127133720154				
