onset	duration	onsetsample	eventnumber	subjectnr	sequencenumber	blocksequencenumber	istarget	presentationnumber	stimnumber	stim	stimname	time_stimon	time_stimoff	stimdur	cresp	resp	rt	correct
49.51513671875	0.2	101407	0	22	0	0	0	0	117	stimuli\Videos_short_600ms_horflip\34.repeated_punch_with_hand_short_horflip_short_600ms.mp4	34.repeated_punch_with_hand_short_horflip_short_600ms.mp4	80.49430734668204	81.10261057090247	0.6083032242204354				
50.3154296875	0.2	103046	1	22	0	0	0	1	322	stimuli\Videos_short_600ms_vertflip\57.single_touch_with_nail_file_short_vertflip_short_600ms.mp4	57.single_touch_with_nail_file_short_vertflip_short_600ms.mp4	81.29427608657352	81.90259397313275	0.6083178865592345				
51.115234375	0.2	104684	2	22	0	0	0	2	314	stimuli\Videos_short_600ms_vertflip\5.repeated_tap_with_finger_moving_from_top_to_bottom_short_vertflip_short_600ms.mp4	5.repeated_tap_with_finger_moving_from_top_to_bottom_short_vertflip_short_600ms.mp4	82.09425919556088	82.70258236056179	0.6083231650009111				
51.9150390625	0.2	106322	3	22	0	0	0	3	161	stimuli\Videos_short_600ms_horflip\74.fingers_walking_from_top_to_bottom_short_horflip_short_600ms.mp4	74.fingers_walking_from_top_to_bottom_short_horflip_short_600ms.mp4	82.89424670324661	83.50257221421998	0.6083255109733727				
52.71533203125	0.2	107961	4	22	0	0	0	4	79	stimuli\Videos_short_600ms\81.single_stroke_top_to_bottom_with_cotton_pad_short_short_600ms.mp4	81.single_stroke_top_to_bottom_with_cotton_pad_short_short_600ms.mp4	83.69424036911369	84.3025556164539	0.6083152473402151				
53.51513671875	0.2	109599	5	22	0	0	0	5	349	stimuli\Videos_short_600ms_vertflip\81.single_stroke_top_to_bottom_with_cotton_pad_short_vertflip_short_600ms.mp4	81.single_stroke_top_to_bottom_with_cotton_pad_short_vertflip_short_600ms.mp4	84.49422435784072	85.10254664310196	0.608322285261238				
54.31494140625	0.2	111237	6	22	0	0	0	6	287	stimuli\Videos_short_600ms_vertflip\25.single_touch_with_stanley_knife_short_vertflip_short_600ms.mp4	25.single_touch_with_stanley_knife_short_vertflip_short_600ms.mp4	85.29420746682445	85.90253121831847	0.6083237514940265				
55.115234375	0.2	112876	7	22	0	0	0	7	178	stimuli\Videos_short_600ms_horflip\9.single_touch_with_hammer_short_horflip_short_600ms.mp4	9.single_touch_with_hammer_short_horflip_short_600ms.mp4	86.09419350827739	86.70251638003174	0.6083228717543534				
55.9150390625	0.2	114514	8	22	0	0	0	8	334	stimuli\Videos_short_600ms_vertflip\68.stroke_top_to_bottom_with_shawl_short_vertflip_short_600ms.mp4	68.stroke_top_to_bottom_with_shawl_short_vertflip_short_600ms.mp4	86.89416459414497	87.50250564720045	0.6083410530554829				
56.71484375	0.2	116152	9	22	0	0	0	9	319	stimuli\Videos_short_600ms_vertflip\54.repeated_touch_with_knife_short_vertflip_short_600ms.mp4	54.repeated_touch_with_knife_short_vertflip_short_600ms.mp4	87.69417233586137	88.3024922751465	0.6083199392851384				
57.51513671875	0.2	117791	10	22	0	0	0	10	113	stimuli\Videos_short_600ms_horflip\30.finger_pulling_back_another_finger_short_horflip_short_600ms.mp4	30.finger_pulling_back_another_finger_short_horflip_short_600ms.mp4	88.49416013679365	89.10247773010633	0.6083175933126768				
58.31494140625	0.2	119429	11	22	0	0	0	11	318	stimuli\Videos_short_600ms_vertflip\53.touch_top_to_bottom_with_knife_short_vertflip_short_600ms.mp4	53.touch_top_to_bottom_with_knife_short_vertflip_short_600ms.mp4	89.29415409591093	89.90244236454237	0.6082882686314406				
59.11474609375	0.2	121067	12	22	0	0	0	12	228	stimuli\Videos_short_600ms_horvertflip\53.touch_top_to_bottom_with_knife_short_horvertflip_short_600ms.mp4	53.touch_top_to_bottom_with_knife_short_horvertflip_short_600ms.mp4	90.09413339268576	90.70246359561132	0.6083302029255719				
59.9150390625	0.2	122706	13	22	0	0	0	13	288	stimuli\Videos_short_600ms_vertflip\26.single_touch_with_a_blunt_syringe_short_vertflip_short_600ms.mp4	26.single_touch_with_a_blunt_syringe_short_vertflip_short_600ms.mp4	90.89412002063182	91.50244025316717	0.6083202325353341				
60.71484375	0.2	124344	14	22	0	0	0	14	333	stimuli\Videos_short_600ms_vertflip\67.single_touch_with_sponge_short_vertflip_short_600ms.mp4	67.single_touch_with_sponge_short_vertflip_short_600ms.mp4	91.69410694182444	92.30242658786663	0.6083196460422187				
61.5146484375	0.2	125982	15	22	0	0	0	15	75	stimuli\Videos_short_600ms\78.single_stroke_top_to_bottom_with_soft_brush_short_short_600ms.mp4	78.single_stroke_top_to_bottom_with_soft_brush_short_short_600ms.mp4	92.49407128301756	93.1024167347714	0.6083454517538485				
62.31494140625	0.2	127621	16	22	0	0	0	16	286	stimuli\Videos_short_600ms_vertflip\24.single_stroke_top_to_bottom_with_a_spoon_short_vertflip_short_600ms.mp4	24.single_stroke_top_to_bottom_with_a_spoon_short_vertflip_short_600ms.mp4	93.29408225044608	93.9024039492142	0.6083216987681226				
63.11474609375	0.2	129259	17	22	0	0	0	17	81	stimuli\Videos_short_600ms\83.single_stroke_top_to_bottom_with_cotton_bud_short_short_600ms.mp4	83.single_stroke_top_to_bottom_with_cotton_bud_short_short_600ms.mp4	94.0940697581318	94.70238881767727	0.6083190595454653				
63.91455078125	0.2	130897	18	22	0	0	1	18	360	stimuli\Targets_short_600ms\brush-stroke_short_short_600ms.mp4	brush-stroke_short_short_600ms.mp4	94.89405491984508	95.5023942134212	0.6083392935761367				
64.71484375	0.2	132536	19	22	0	0	0	19	198	stimuli\Videos_short_600ms_horvertflip\26.single_touch_with_a_blunt_syringe_short_horvertflip_short_600ms.mp4	26.single_touch_with_a_blunt_syringe_short_horvertflip_short_600ms.mp4	95.69404360052069	96.30243362578769	0.6083900252669991				
65.5146484375	0.2	134174	20	22	0	0	0	20	97	stimuli\Videos_short_600ms_horflip\16.repeated_touch_with_plastic_brush_short_horflip_short_600ms.mp4	16.repeated_touch_with_plastic_brush_short_horflip_short_600ms.mp4	96.49403022846673	97.10235075424498	0.6083205257782538				
66.314453125	0.2	135812	21	22	0	0	0	21	163	stimuli\Videos_short_600ms_horflip\76.tickle_with_fingers_from_top_to_bottom_short_horflip_short_600ms.mp4	76.tickle_with_fingers_from_top_to_bottom_short_horflip_short_600ms.mp4	97.29401011173468	97.90233738219104	0.6083272704563569				
67.11474609375	0.2	137451	22	22	0	0	0	22	189	stimuli\Videos_short_600ms_horvertflip\18.single_stroke_from_top_to_bottom_with_rolling_pin_short_horvertflip_short_600ms.mp4	18.single_stroke_from_top_to_bottom_with_rolling_pin_short_horvertflip_short_600ms.mp4	98.09401169526971	98.70232342364396	0.6083117283742467				
67.91455078125	0.2	139089	23	22	0	0	0	23	199	stimuli\Videos_short_600ms_horvertflip\27.single_push_with_a_plastic_whisk_short_horvertflip_short_600ms.mp4	27.single_push_with_a_plastic_whisk_short_horvertflip_short_600ms.mp4	98.89396958502766	99.50231063808316	0.6083410530554829				
68.71435546875	0.2	140727	24	22	0	0	0	24	294	stimuli\Videos_short_600ms_vertflip\31.hand_grabbing_wrist_short_vertflip_short_600ms.mp4	31.hand_grabbing_wrist_short_vertflip_short_600ms.mp4	99.69395591972716	100.30229873226564	0.6083428125384671				
69.5146484375	0.2	142366	25	22	0	0	0	25	118	stimuli\Videos_short_600ms_horflip\35.single_punch_with_hand_short_horflip_short_600ms.mp4	35.single_punch_with_hand_short_horflip_short_600ms.mp4	100.493950172091	101.10228565345824	0.6083354813672486				
70.314453125	0.2	144004	26	22	0	0	0	26	1	stimuli\Videos_short_600ms\10.single_touch_with_knife_short_short_600ms.mp4	10.single_touch_with_knife_short_short_600ms.mp4	101.29392712289336	101.9022728678974	0.6083457450040441				
71.11474609375	0.2	145643	27	22	0	0	0	27	157	stimuli\Videos_short_600ms_horflip\70.(long)stroke_with_finger_all_over_the_hand_short_horflip_short_600ms.mp4	70.(long)stroke_with_finger_all_over_the_hand_short_horflip_short_600ms.mp4	102.09392372122966	102.70225978909002	0.608336067860364				
71.91455078125	0.2	147281	28	22	0	0	0	28	357	stimuli\Videos_short_600ms_vertflip\89.single_touch_with_plastic_brush_short_vertflip_short_600ms.mp4	89.single_touch_with_plastic_brush_short_vertflip_short_600ms.mp4	102.89393879411728	103.50224641703608	0.6083076229188009				
72.71435546875	0.2	148919	29	22	0	0	0	29	252	stimuli\Videos_short_600ms_horvertflip\75.(long)stroke_with_fingers_all_over_the_hand_short_horvertflip_short_600ms.mp4	75.(long)stroke_with_fingers_all_over_the_hand_short_horvertflip_short_600ms.mp4	103.69392160985444	104.30222014212632	0.6082985322718741				
73.5146484375	0.2	150558	30	22	0	0	0	30	192	stimuli\Videos_short_600ms_horvertflip\20.single_touch_with_screwdriver_short_horvertflip_short_600ms.mp4	20.single_touch_with_screwdriver_short_horvertflip_short_600ms.mp4	104.49390207961916	105.10222553786662	0.6083234582474688				
74.314453125	0.2	152196	31	22	0	0	0	31	132	stimuli\Videos_short_600ms_horflip\48.single_slap_with_hand_short_horflip_short_600ms.mp4	48.single_slap_with_hand_short_horflip_short_600ms.mp4	105.2939004374348	105.90219662373056	0.6082961862957745				
75.1142578125	0.2	153834	32	22	0	0	0	32	224	stimuli\Videos_short_600ms_horvertflip\5.repeated_tap_with_finger_moving_from_top_to_bottom_short_horvertflip_short_600ms.mp4	5.repeated_tap_with_finger_moving_from_top_to_bottom_short_horvertflip_short_600ms.mp4	106.09388002745982	106.70219586128952	0.6083158338296926				
75.91455078125	0.2	155473	33	22	0	0	0	33	309	stimuli\Videos_short_600ms_vertflip\45.scratching_with_finger_nails_short_vertflip_short_600ms.mp4	45.scratching_with_finger_nails_short_vertflip_short_600ms.mp4	106.89387340008034	107.50218483521166	0.608311435131327				
76.71435546875	0.2	157111	34	22	0	0	0	34	28	stimuli\Videos_short_600ms\35.single_punch_with_hand_short_short_600ms.mp4	35.single_punch_with_hand_short_short_600ms.mp4	107.6938497643896	108.30217116991116	0.6083214055215649				
77.51416015625	0.2	158749	35	22	0	0	0	35	17	stimuli\Videos_short_600ms\25.single_touch_with_stanley_knife_short_short_600ms.mp4	25.single_touch_with_stanley_knife_short_short_600ms.mp4	108.4938369788324	109.1021991456546	0.6083621668221895				
78.314453125	0.2	160388	36	22	0	0	0	36	181	stimuli\Videos_short_600ms_horvertflip\10.single_touch_with_knife_short_horvertflip_short_600ms.mp4	10.single_touch_with_knife_short_horvertflip_short_600ms.mp4	109.29382507301123	109.9021582084024	0.608333135391149				
79.1142578125	0.2	162026	37	22	0	0	0	37	102	stimuli\Videos_short_600ms_horflip\20.single_touch_with_screwdriver_short_horflip_short_600ms.mp4	20.single_touch_with_screwdriver_short_horflip_short_600ms.mp4	110.09381258069698	110.7021577392079	0.6083451585109287				
79.9140625	0.2	163664	38	22	0	0	0	38	59	stimuli\Videos_short_600ms\63.stroke_top_to_bottom_with_screwdriver_short_short_600ms.mp4	63.stroke_top_to_bottom_with_screwdriver_short_short_600ms.mp4	110.89379774241024	111.5021188546816	0.6083211122713692				
80.71435546875	0.2	165303	39	22	0	0	0	39	195	stimuli\Videos_short_600ms_horvertflip\23.single_push_with_a_spoon_short_horvertflip_short_600ms.mp4	23.single_push_with_a_spoon_short_horvertflip_short_600ms.mp4	111.69378612983564	112.30210577587786	0.6083196460422187				
81.51416015625	0.2	166941	40	22	0	0	0	40	281	stimuli\Videos_short_600ms_vertflip\2.single_touch_with_finger_short_vertflip_short_600ms.mp4	2.single_touch_with_finger_short_vertflip_short_600ms.mp4	112.49377393077155	113.1020932835636	0.608319352792023				
82.31396484375	0.2	168579	41	22	0	0	0	41	104	stimuli\Videos_short_600ms_horflip\22.single_touch_with_metal_chopstick_short_horflip_short_600ms.mp4	22.single_touch_with_metal_chopstick_short_horflip_short_600ms.mp4	113.29377903326532	113.9020802047562	0.6083011714908935				
83.1142578125	0.2	170218	42	22	0	0	0	42	244	stimuli\Videos_short_600ms_horvertflip\68.stroke_top_to_bottom_with_shawl_short_horvertflip_short_600ms.mp4	68.stroke_top_to_bottom_with_shawl_short_horvertflip_short_600ms.mp4	114.09370525237318	114.70206859218524	0.6083633398120583				
83.9140625	0.2	171856	43	22	0	0	1	43	368	stimuli\Targets_short_600ms_horflip\chopstickwood-tap_short_horflip_short_600ms.mp4	chopstickwood-tap_short_horflip_short_600ms.mp4	114.89373674707896	115.50205404714144	0.6083173000624811				
84.7138671875	0.2	173494	44	22	0	0	0	44	105	stimuli\Videos_short_600ms_horflip\23.single_push_with_a_spoon_short_horflip_short_600ms.mp4	23.single_push_with_a_spoon_short_horflip_short_600ms.mp4	115.6936981557992	116.30204243457048	0.6083442787712556				
85.51416015625	0.2	175133	45	22	0	0	0	45	219	stimuli\Videos_short_600ms_horvertflip\45.scratching_with_finger_nails_short_horvertflip_short_600ms.mp4	45.scratching_with_finger_nails_short_horvertflip_short_600ms.mp4	116.49371058946416	117.10203023550277	0.6083196460385807				
86.31396484375	0.2	176771	46	22	0	0	0	46	109	stimuli\Videos_short_600ms_horflip\27.single_push_with_a_plastic_whisk_short_horflip_short_600ms.mp4	27.single_push_with_a_plastic_whisk_short_horflip_short_600ms.mp4	117.29368314156454	117.9020148107229	0.6083316691583605				
87.11376953125	0.2	178409	47	22	0	0	0	47	241	stimuli\Videos_short_600ms_horvertflip\65.stroke_top_to_bottom_with_stanley_knife_short_horvertflip_short_600ms.mp4	65.stroke_top_to_bottom_with_stanley_knife_short_horvertflip_short_600ms.mp4	118.0936932292534	118.70200349139486	0.6083102621414582				
87.9140625	0.2	180048	48	22	0	0	0	48	325	stimuli\Videos_short_600ms_vertflip\6.single_touch_with_flat_hand_short_vertflip_short_600ms.mp4	6.single_touch_with_flat_hand_short_vertflip_short_600ms.mp4	118.89367487200434	119.50199686401902	0.6083219920146803				
88.7138671875	0.2	181686	49	22	0	0	0	49	304	stimuli\Videos_short_600ms_vertflip\40.repeated_push_with_finger_short_vertflip_short_600ms.mp4	40.repeated_push_with_finger_short_vertflip_short_600ms.mp4	119.69365856748482	120.30193100079124	0.6082724333064107				
89.513671875	0.2	183324	50	22	0	0	0	50	290	stimuli\Videos_short_600ms_vertflip\28.single_injection_with_sharp_needle_short_vertflip_short_600ms.mp4	28.single_injection_with_sharp_needle_short_vertflip_short_600ms.mp4	120.49364607517056	121.101965134716	0.6083190595454653				
90.31396484375	0.2	184963	51	22	0	0	0	51	283	stimuli\Videos_short_600ms_vertflip\21.repeated_touch_with_metal_chopstick_short_vertflip_short_600ms.mp4	21.repeated_touch_with_metal_chopstick_short_vertflip_short_600ms.mp4	121.29363153013036	121.90193152863505	0.6082999985046627				
91.11376953125	0.2	186601	52	22	0	0	0	52	267	stimuli\Videos_short_600ms_horvertflip\89.single_touch_with_plastic_brush_short_horvertflip_short_600ms.mp4	89.single_touch_with_plastic_brush_short_horvertflip_short_600ms.mp4	122.09361845132298	122.70194454878948	0.6083260974664881				
91.91357421875	0.2	188239	53	22	0	0	0	53	341	stimuli\Videos_short_600ms_vertflip\74.fingers_walking_from_top_to_bottom_short_vertflip_short_600ms.mp4	74.fingers_walking_from_top_to_bottom_short_vertflip_short_600ms.mp4	122.8936083049848	123.50192707128372	0.6083187662989076				
92.7138671875	0.2	189878	54	22	0	0	0	54	323	stimuli\Videos_short_600ms_vertflip\58.single_slap_with_pencil_short_vertflip_short_600ms.mp4	58.single_slap_with_pencil_short_vertflip_short_600ms.mp4	123.69359317344788	124.30192161689048	0.6083284434425877				
93.513671875	0.2	191516	55	22	0	0	0	55	130	stimuli\Videos_short_600ms_horflip\46.scratching_top_to_bottom_with_finger_nails_short_horflip_short_600ms.mp4	46.scratching_top_to_bottom_with_finger_nails_short_horflip_short_600ms.mp4	124.49358302710972	125.1019012069155	0.6083181798057922				
94.31396484375	0.2	193155	56	22	0	0	0	56	213	stimuli\Videos_short_600ms_horvertflip\4.repeated_tap_with_finger_slow_short_horvertflip_short_600ms.mp4	4.repeated_tap_with_finger_slow_short_horvertflip_short_600ms.mp4	125.29356906856265	125.901909535125	0.6083404665623675				
95.11376953125	0.2	194793	57	22	0	0	0	57	174	stimuli\Videos_short_600ms_horflip\86.touch_top_to_bottom_with_hair_brush_short_horflip_short_600ms.mp4	86.touch_top_to_bottom_with_hair_brush_short_horflip_short_600ms.mp4	126.09357153183736	126.70188941839297	0.6083178865555965				
95.91357421875	0.2	196431	58	22	0	0	0	58	227	stimuli\Videos_short_600ms_horvertflip\52.touch_top_to_bottom_with_hammer_short_horvertflip_short_600ms.mp4	52.touch_top_to_bottom_with_hammer_short_horvertflip_short_600ms.mp4	126.89354320419444	127.50186343672976	0.6083202325353341				
96.7138671875	0.2	198070	59	22	0	0	0	59	285	stimuli\Videos_short_600ms_vertflip\23.single_push_with_a_spoon_short_vertflip_short_600ms.mp4	23.single_push_with_a_spoon_short_vertflip_short_600ms.mp4	127.69352719292148	128.30185065116893	0.6083234582474688				
97.513671875	0.2	199708	60	22	0	0	0	60	160	stimuli\Videos_short_600ms_horflip\73.single_stroke_with_flat_hand_short_horflip_short_600ms.mp4	73.single_stroke_with_flat_hand_short_horflip_short_600ms.mp4	128.49351939255575	129.10183639937532	0.6083170068195614				
98.3134765625	0.2	201346	61	22	0	0	0	61	321	stimuli\Videos_short_600ms_vertflip\56.repeated_touch_with_nail_file_short_vertflip_short_600ms.mp4	56.repeated_touch_with_nail_file_short_vertflip_short_600ms.mp4	129.29348813244724	129.90182449355416	0.6083363611069217				
99.11376953125	0.2	202985	62	22	0	0	0	62	45	stimuli\Videos_short_600ms\50.single_(long)hard_push_with_thumb_short_short_600ms.mp4	50.single_(long)hard_push_with_thumb_short_short_600ms.mp4	130.0934967539033	130.70181082825366	0.6083140743503463				
99.91357421875	0.2	204623	63	22	0	0	0	63	36	stimuli\Videos_short_600ms\42.single_slap_with_plastic_whisk_short_short_600ms.mp4	42.single_slap_with_plastic_whisk_short_short_600ms.mp4	130.8934537639252	131.50179892243614	0.6083451585109287				
100.71337890625	0.2	206261	64	22	0	0	0	64	100	stimuli\Videos_short_600ms_horflip\19.single_touch_with_rolling_pin_short_horflip_short_600ms.mp4	19.single_touch_with_rolling_pin_short_horflip_short_600ms.mp4	131.69342074433737	132.3017881896012	0.6083674452638661				
101.513671875	0.2	207900	65	22	0	0	0	65	67	stimuli\Videos_short_600ms\70.(long)stroke_with_finger_all_over_the_hand_short_short_600ms.mp4	70.(long)stroke_with_finger_all_over_the_hand_short_short_600ms.mp4	132.4934581039779	133.10177159183513	0.6083134878572309				
102.3134765625	0.2	209538	66	22	0	0	0	66	122	stimuli\Videos_short_600ms_horflip\39.single_stab_with_scissors_short_horflip_short_600ms.mp4	39.single_stab_with_scissors_short_horflip_short_600ms.mp4	133.29344766439317	133.90176232523663	0.6083146608434618				
103.11328125	0.2	211176	67	22	0	0	0	67	52	stimuli\Videos_short_600ms\57.single_touch_with_nail_file_short_short_600ms.mp4	57.single_touch_with_nail_file_short_short_600ms.mp4	134.09343605181857	134.70175511136404	0.6083190595454653				
103.91357421875	0.2	212815	68	22	0	0	0	68	150	stimuli\Videos_short_600ms_horflip\64.repeated_touch_with_screwdriver_short_horflip_short_600ms.mp4	64.repeated_touch_with_screwdriver_short_horflip_short_600ms.mp4	134.89341505534685	135.5017423258032	0.6083272704563569				
104.71337890625	0.2	214453	69	22	0	0	0	69	277	stimuli\Videos_short_600ms_vertflip\16.repeated_touch_with_plastic_brush_short_vertflip_short_600ms.mp4	16.repeated_touch_with_plastic_brush_short_vertflip_short_600ms.mp4	135.6934181051147	136.30172162258168	0.6083035174669931				
105.51318359375	0.2	216091	70	22	0	0	0	70	339	stimuli\Videos_short_600ms_vertflip\72.(short)stroke_with_finger_all_over_the_hand_short_vertflip_short_600ms.mp4	72.(short)stroke_with_finger_all_over_the_hand_short_vertflip_short_600ms.mp4	136.4933865517596	137.1017091302674	0.6083225785077957				
106.3134765625	0.2	217730	71	22	0	0	0	71	303	stimuli\Videos_short_600ms_vertflip\4.repeated_tap_with_finger_slow_short_vertflip_short_600ms.mp4	4.repeated_tap_with_finger_slow_short_vertflip_short_600ms.mp4	137.29337640542144	137.90167816340545	0.6083017579840089				
107.11328125	0.2	219368	72	22	0	0	0	72	18	stimuli\Videos_short_600ms\26.single_touch_with_a_blunt_syringe_short_short_600ms.mp4	26.single_touch_with_a_blunt_syringe_short_short_600ms.mp4	138.09336449960028	138.7016920633032	0.6083275637029146				
107.9130859375	0.2	221006	73	22	0	0	0	73	275	stimuli\Videos_short_600ms_vertflip\14.repeated_touch_with_pencil_short_vertflip_short_600ms.mp4	14.repeated_touch_with_pencil_short_vertflip_short_600ms.mp4	138.89335581949854	139.501670480342	0.6083146608434618				
108.71337890625	0.2	222645	74	22	0	0	0	74	50	stimuli\Videos_short_600ms\55.touch_top_to_bottom_with_nail_file_short_short_600ms.mp4	55.touch_top_to_bottom_with_nail_file_short_short_600ms.mp4	139.69333775549603	140.30165710828803	0.608319352792023				
109.51318359375	0.2	224283	75	22	0	0	0	75	207	stimuli\Videos_short_600ms_horvertflip\34.repeated_punch_with_hand_short_horvertflip_short_600ms.mp4	34.repeated_punch_with_hand_short_horvertflip_short_600ms.mp4	140.49329857772318	141.10164578896	0.6083472112368327				
110.31298828125	0.2	225921	76	22	0	0	0	76	92	stimuli\Videos_short_600ms_horflip\11.single_touch_with_lighter_short_horflip_short_600ms.mp4	11.single_touch_with_lighter_short_horflip_short_600ms.mp4	141.29331159788126	141.90163124391984	0.6083196460385807				
111.11328125	0.2	227560	77	22	0	0	0	77	191	stimuli\Videos_short_600ms_horvertflip\2.single_touch_with_finger_short_horvertflip_short_600ms.mp4	2.single_touch_with_finger_short_horvertflip_short_600ms.mp4	142.09329910556698	142.7016175786193	0.6083184730523499				
111.9130859375	0.2	229198	78	22	0	0	0	78	44	stimuli\Videos_short_600ms\5.repeated_tap_with_finger_moving_from_top_to_bottom_short_short_600ms.mp4	5.repeated_tap_with_finger_moving_from_top_to_bottom_short_short_600ms.mp4	142.89328866598223	143.50160743228116	0.6083187662989076				
112.712890625	0.2	230836	79	22	0	0	0	79	280	stimuli\Videos_short_600ms_vertflip\19.single_touch_with_rolling_pin_short_vertflip_short_600ms.mp4	19.single_touch_with_rolling_pin_short_vertflip_short_600ms.mp4	143.69327118847286	144.30159318048754	0.6083219920146803				
113.51318359375	0.2	232475	80	22	0	0	0	80	229	stimuli\Videos_short_600ms_horvertflip\54.repeated_touch_with_knife_short_horvertflip_short_600ms.mp4	54.repeated_touch_with_knife_short_horvertflip_short_600ms.mp4	144.49325693667924	145.10157892869393	0.6083219920146803				
114.31298828125	0.2	234113	81	22	0	0	0	81	7	stimuli\Videos_short_600ms\16.repeated_touch_with_plastic_brush_short_short_600ms.mp4	16.repeated_touch_with_plastic_brush_short_short_600ms.mp4	145.29322626306384	145.9015667296262	0.6083404665623675				
115.11328125	0.2	235752	82	22	0	0	0	82	274	stimuli\Videos_short_600ms_vertflip\13.single_touch_with_pen_short_vertflip_short_600ms.mp4	13.single_touch_with_pen_short_vertflip_short_600ms.mp4	146.09323371153368	146.70155658328804	0.6083228717543534				
115.9130859375	0.2	237390	83	22	0	0	0	83	34	stimuli\Videos_short_600ms\40.repeated_push_with_finger_short_short_600ms.mp4	40.repeated_push_with_finger_short_short_600ms.mp4	146.89322415168863	147.5015437977272	0.6083196460385807				
116.712890625	0.2	239028	84	22	0	0	0	84	206	stimuli\Videos_short_600ms_horvertflip\33.scratch_top_to_bottom_with_scissors_short_horvertflip_short_600ms.mp4	33.scratch_top_to_bottom_with_scissors_short_horvertflip_short_600ms.mp4	147.69321107288124	148.30153101216638	0.6083199392851384				
117.51318359375	0.2	240667	85	22	0	0	0	85	19	stimuli\Videos_short_600ms\27.single_push_with_a_plastic_whisk_short_short_600ms.mp4	27.single_push_with_a_plastic_whisk_short_short_600ms.mp4	148.49320385900864	149.10151734686588	0.6083134878572309				
118.31298828125	0.2	242305	86	22	0	0	0	86	232	stimuli\Videos_short_600ms_horvertflip\57.single_touch_with_nail_file_short_horvertflip_short_600ms.mp4	57.single_touch_with_nail_file_short_horvertflip_short_600ms.mp4	149.29319341942391	149.90148520701769	0.608291787593771				
119.11279296875	0.2	243943	87	22	0	0	0	87	31	stimuli\Videos_short_600ms\38.double_slap_with_pencil_short_short_600ms.mp4	38.double_slap_with_pencil_short_short_600ms.mp4	150.09317124996596	150.70149177574783	0.6083205257818918				
119.9130859375	0.2	245582	88	22	0	0	0	88	284	stimuli\Videos_short_600ms_vertflip\22.single_touch_with_metal_chopstick_short_vertflip_short_600ms.mp4	22.single_touch_with_metal_chopstick_short_vertflip_short_600ms.mp4	150.89316022388812	151.50147928343358	0.6083190595454653				
120.712890625	0.2	247220	89	22	0	0	0	89	60	stimuli\Videos_short_600ms\64.repeated_touch_with_screwdriver_short_short_600ms.mp4	64.repeated_touch_with_screwdriver_short_short_600ms.mp4	151.69314685183417	152.30146591137964	0.6083190595454653				
121.5126953125	0.2	248858	90	22	0	0	0	90	270	stimuli\Videos_short_600ms_vertflip\1.repeated_touch_with_finger_fast_short_vertflip_short_600ms.mp4	1.repeated_touch_with_finger_fast_short_vertflip_short_600ms.mp4	152.49313142705432	153.10145371231192	0.6083222852576				
122.31298828125	0.2	250497	91	22	0	0	0	91	171	stimuli\Videos_short_600ms_horflip\83.single_stroke_top_to_bottom_with_cotton_bud_short_horflip_short_600ms.mp4	83.single_stroke_top_to_bottom_with_cotton_bud_short_horflip_short_600ms.mp4	153.29312010772628	153.90144004701142	0.6083199392851384	2.0	1.0	2.8238932792810374	0.0
156.71142578125	0.2	320945	92	22	1	0	0	0	246	stimuli\Videos_short_600ms_horvertflip\7.repeated_touch_with_hairbrush_short_horvertflip_short_600ms.mp4	7.repeated_touch_with_hairbrush_short_horvertflip_short_600ms.mp4	187.69257091513649	188.30089026793212	0.608319352795661				
157.51171875	0.2	322584	93	22	1	0	0	1	145	stimuli\Videos_short_600ms_horflip\6.single_touch_with_flat_hand_short_horflip_short_600ms.mp4	6.single_touch_with_flat_hand_short_horflip_short_600ms.mp4	188.4925622350347	189.1008810013336	0.6083187662989076				
158.3115234375	0.2	324222	94	22	1	0	0	2	159	stimuli\Videos_short_600ms_horflip\72.(short)stroke_with_finger_all_over_the_hand_short_horflip_short_600ms.mp4	72.(short)stroke_with_finger_all_over_the_hand_short_horflip_short_600ms.mp4	189.29255560765523	189.90086616304325	0.6083105553880159				
159.11181640625	0.2	325861	95	22	1	0	0	3	226	stimuli\Videos_short_600ms_horvertflip\51.repeated_touch_with_hammer_short_horvertflip_short_600ms.mp4	51.repeated_touch_with_hammer_short_horvertflip_short_600ms.mp4	190.09252991923495	190.70085396397917	0.6083240447442222				
159.91162109375	0.2	327499	96	22	1	0	0	4	73	stimuli\Videos_short_600ms\76.tickle_with_fingers_from_top_to_bottom_short_short_600ms.mp4	76.tickle_with_fingers_from_top_to_bottom_short_short_600ms.mp4	190.89249777938676	191.50084088517175	0.6083431057850248				
160.71142578125	0.2	329137	97	22	1	0	0	5	276	stimuli\Videos_short_600ms_vertflip\15.single_stroke_top_to_bottom_with_a_plastic_whisk_short_vertflip_short_600ms.mp4	15.single_stroke_top_to_bottom_with_a_plastic_whisk_short_vertflip_short_600ms.mp4	191.69250229538736	192.3008283928575	0.6083260974701261				
161.51171875	0.2	330776	98	22	1	0	0	6	172	stimuli\Videos_short_600ms_horflip\84.single_touch_with_cotton_bud_short_horflip_short_600ms.mp4	84.single_touch_with_cotton_bud_short_horflip_short_600ms.mp4	192.49248980307675	193.10081502080357	0.608325217726815				
162.3115234375	0.2	332414	99	22	1	0	0	7	15	stimuli\Videos_short_600ms\23.single_push_with_a_spoon_short_short_600ms.mp4	23.single_push_with_a_spoon_short_short_600ms.mp4	193.29247701751592	193.9008054609585	0.6083284434425877				
163.11962890625	0.2	334069	100	22	1	0	0	8	168	stimuli\Videos_short_600ms_horflip\80.stroke_with_sharp_stick_all_over_the_hand_short_horflip_short_600ms.mp4	80.stroke_with_sharp_stick_all_over_the_hand_short_horflip_short_600ms.mp4	194.1008161937898	194.70912147073977	0.6083052769499773				
163.919921875	0.2	335708	101	22	1	0	0	9	245	stimuli\Videos_short_600ms_horvertflip\69.stroke_with_soft_sock_short_horvertflip_short_600ms.mp4	69.stroke_with_soft_sock_short_horvertflip_short_600ms.mp4	194.9007922648525	195.50910985816515	0.6083175933126768				
164.7197265625	0.2	337346	102	22	1	0	0	10	61	stimuli\Videos_short_600ms\65.stroke_top_to_bottom_with_stanley_knife_short_short_600ms.mp4	65.stroke_top_to_bottom_with_stanley_knife_short_short_600ms.mp4	195.70077156163097	196.30909648611123	0.6083249244802573				
165.51953125	0.2	338984	103	22	1	0	0	11	64	stimuli\Videos_short_600ms\68.stroke_top_to_bottom_with_shawl_short_short_600ms.mp4	68.stroke_top_to_bottom_with_shawl_short_short_600ms.mp4	196.50123031690964	197.1090837005504	0.6078533836407587				
166.31982421875	0.2	340623	104	22	1	0	0	12	182	stimuli\Videos_short_600ms_horvertflip\11.single_touch_with_lighter_short_horvertflip_short_600ms.mp4	11.single_touch_with_lighter_short_horvertflip_short_600ms.mp4	197.30072282401304	197.90906915551025	0.6083463314971596				
167.11962890625	0.2	342261	105	22	1	0	0	13	186	stimuli\Videos_short_600ms_horvertflip\15.single_stroke_top_to_bottom_with_a_plastic_whisk_short_horvertflip_short_600ms.mp4	15.single_stroke_top_to_bottom_with_a_plastic_whisk_short_horvertflip_short_600ms.mp4	198.10073261845537	198.70906487410684	0.6083322556514759				
167.91943359375	0.2	343899	106	22	1	0	0	14	149	stimuli\Videos_short_600ms_horflip\63.stroke_top_to_bottom_with_screwdriver_short_horflip_short_600ms.mp4	63.stroke_top_to_bottom_with_screwdriver_short_horflip_short_600ms.mp4	198.9006952001655	199.50902129763563	0.6083260974701261				
168.7197265625	0.2	345538	107	22	1	0	0	15	260	stimuli\Videos_short_600ms_horvertflip\82.repeated_touch_with_cotton_bud_short_horvertflip_short_600ms.mp4	82.repeated_touch_with_cotton_bud_short_horvertflip_short_600ms.mp4	199.7006830010978	200.30901203103713	0.6083290299393411				
169.51953125	0.2	347176	108	22	1	0	0	16	214	stimuli\Videos_short_600ms_horvertflip\40.repeated_push_with_finger_short_horvertflip_short_600ms.mp4	40.repeated_push_with_finger_short_horvertflip_short_600ms.mp4	200.5006919158004	201.1089948467743	0.6083029309738777				
170.3193359375	0.2	348814	109	22	1	0	0	17	139	stimuli\Videos_short_600ms_horflip\54.repeated_touch_with_knife_short_horflip_short_600ms.mp4	54.repeated_touch_with_knife_short_horflip_short_600ms.mp4	201.300684995178	201.90898000848756	0.6082950133095437				
171.11962890625	0.2	350453	110	22	1	0	1	18	375	stimuli\Targets_short_600ms_horvertflip\finger-tap_short_vertflip_short_600ms.mp4	finger-tap_short_vertflip_short_600ms.mp4	202.10073965638003	202.70897572708415	0.6082360707041516				
171.91943359375	0.2	352091	111	22	1	0	0	19	63	stimuli\Videos_short_600ms\67.single_touch_with_sponge_short_short_600ms.mp4	67.single_touch_with_sponge_short_short_600ms.mp4	202.90065737133045	203.50898522827993	0.6083278569494723				
172.71923828125	0.2	353729	112	22	1	0	0	20	336	stimuli\Videos_short_600ms_vertflip\7.repeated_touch_with_hairbrush_short_vertflip_short_600ms.mp4	7.repeated_touch_with_hairbrush_short_vertflip_short_600ms.mp4	203.70064282629028	204.30897068323975	0.6083278569494723				
173.51953125	0.2	355368	113	22	1	0	0	21	107	stimuli\Videos_short_600ms_horflip\25.single_touch_with_stanley_knife_short_horflip_short_600ms.mp4	25.single_touch_with_stanley_knife_short_horflip_short_600ms.mp4	204.50063267994847	205.10896258962748	0.6083299096790142				
174.3193359375	0.2	357006	114	22	1	0	0	22	87	stimuli\Videos_short_600ms\89.single_touch_with_plastic_brush_short_short_600ms.mp4	89.single_touch_with_plastic_brush_short_short_600ms.mp4	205.30061989439128	205.90894100666264	0.6083211122713692				
175.11962890625	0.2	358645	115	22	1	0	0	23	211	stimuli\Videos_short_600ms_horvertflip\38.double_slap_with_pencil_short_horvertflip_short_600ms.mp4	38.double_slap_with_pencil_short_horvertflip_short_600ms.mp4	206.10060622909077	206.70892968733824	0.6083234582474688				
175.91943359375	0.2	360283	116	22	1	0	0	24	331	stimuli\Videos_short_600ms_vertflip\65.stroke_top_to_bottom_with_stanley_knife_short_vertflip_short_600ms.mp4	65.stroke_top_to_bottom_with_stanley_knife_short_vertflip_short_600ms.mp4	206.9005952030093	207.5089157287912	0.6083205257818918				
176.71923828125	0.2	361921	117	22	1	0	0	25	354	stimuli\Videos_short_600ms_vertflip\86.touch_top_to_bottom_with_hair_brush_short_vertflip_short_600ms.mp4	86.touch_top_to_bottom_with_hair_brush_short_vertflip_short_600ms.mp4	207.70057831199665	208.3089044094631	0.6083260974664881				
177.51953125	0.2	363560	118	22	1	0	0	26	353	stimuli\Videos_short_600ms_vertflip\85.touch_top_to_bottom_with_fabric_short_vertflip_short_600ms.mp4	85.touch_top_to_bottom_with_fabric_short_vertflip_short_600ms.mp4	208.50056787240828	209.10889015766952	0.608322285261238				
178.3193359375	0.2	365198	119	22	1	0	0	27	170	stimuli\Videos_short_600ms_horflip\82.repeated_touch_with_cotton_bud_short_horflip_short_600ms.mp4	82.repeated_touch_with_cotton_bud_short_horflip_short_600ms.mp4	209.30055625983732	209.9088761991225	0.6083199392851384				
179.119140625	0.2	366836	120	22	1	0	0	28	292	stimuli\Videos_short_600ms_vertflip\3.single_push_with_finger_short_vertflip_short_600ms.mp4	3.single_push_with_finger_short_vertflip_short_600ms.mp4	210.1005414215506	210.70886458654783	0.6083231649972731				
179.91943359375	0.2	368475	121	22	1	0	0	29	103	stimuli\Videos_short_600ms_horflip\21.repeated_touch_with_metal_chopstick_short_horflip_short_600ms.mp4	21.repeated_touch_with_metal_chopstick_short_horflip_short_600ms.mp4	210.9005048830004	211.50884945501457	0.6083445720141754				
180.71923828125	0.2	370113	122	22	1	0	0	30	249	stimuli\Videos_short_600ms_horvertflip\72.(short)stroke_with_finger_all_over_the_hand_short_horvertflip_short_600ms.mp4	72.(short)stroke_with_finger_all_over_the_hand_short_horvertflip_short_600ms.mp4	211.70051174497348	212.3088378424436	0.6083260974701261				
181.51904296875	0.2	371751	123	22	1	0	0	31	272	stimuli\Videos_short_600ms_vertflip\11.single_touch_with_lighter_short_vertflip_short_600ms.mp4	11.single_touch_with_lighter_short_vertflip_short_600ms.mp4	212.50050218512845	213.1088244703897	0.608322285261238				
182.3193359375	0.2	373390	124	22	1	0	0	32	347	stimuli\Videos_short_600ms_vertflip\8.single_touch_with_hairbrush_short_vertflip_short_600ms.mp4	8.single_touch_with_hairbrush_short_vertflip_short_600ms.mp4	213.30048822658136	213.9088131510616	0.6083249244802573				
183.119140625	0.2	375028	125	22	1	0	0	33	345	stimuli\Videos_short_600ms_vertflip\78.single_stroke_top_to_bottom_with_soft_brush_short_vertflip_short_600ms.mp4	78.single_stroke_top_to_bottom_with_soft_brush_short_vertflip_short_600ms.mp4	214.100479546476	214.7087983127749	0.6083187662989076				
183.9189453125	0.2	376666	126	22	1	0	0	34	126	stimuli\Videos_short_600ms_horflip\42.single_slap_with_plastic_whisk_short_horflip_short_600ms.mp4	42.single_slap_with_plastic_whisk_short_horflip_short_600ms.mp4	214.90046089598036	215.50878670020393	0.6083258042235684				
184.71923828125	0.2	378305	127	22	1	0	0	35	140	stimuli\Videos_short_600ms_horflip\55.touch_top_to_bottom_with_nail_file_short_horflip_short_600ms.mp4	55.touch_top_to_bottom_with_nail_file_short_horflip_short_600ms.mp4	215.7004489901592	216.3087721551601	0.6083231650009111				
185.51904296875	0.2	379943	128	22	1	0	0	36	88	stimuli\Videos_short_600ms\9.single_touch_with_hammer_short_short_600ms.mp4	9.single_touch_with_hammer_short_short_600ms.mp4	216.50043884382103	217.10876054258915	0.6083216987681226				
186.31884765625	0.2	381581	129	22	1	0	0	37	136	stimuli\Videos_short_600ms_horflip\51.repeated_touch_with_hammer_short_horflip_short_600ms.mp4	51.repeated_touch_with_hammer_short_horflip_short_600ms.mp4	217.3004322164452	217.9087369068984	0.6083046904532239				
187.119140625	0.2	383220	130	22	1	0	0	38	218	stimuli\Videos_short_600ms_horvertflip\44.pushing_top_to_bottom_with_finger_short_horvertflip_short_600ms.mp4	44.pushing_top_to_bottom_with_finger_short_horvertflip_short_600ms.mp4	218.10040916724756	218.70873673095048	0.6083275637029146				
187.9189453125	0.2	384858	131	22	1	0	0	39	89	stimuli\Videos_short_600ms\90.repeated_touch_with_sponge_short_short_600ms.mp4	90.repeated_touch_with_sponge_short_short_600ms.mp4	218.90039814116608	219.50872775759856	0.6083296164324565				
188.71875	0.2	386496	132	22	1	0	0	40	253	stimuli\Videos_short_600ms_horvertflip\76.tickle_with_fingers_from_top_to_bottom_short_horvertflip_short_600ms.mp4	76.tickle_with_fingers_from_top_to_bottom_short_horvertflip_short_600ms.mp4	219.70039122054368	220.3087187842466	0.6083275637029146				
189.51904296875	0.2	388135	133	22	1	0	0	41	305	stimuli\Videos_short_600ms_vertflip\41.injection_with_blunt_syringe_short_vertflip_short_600ms.mp4	41.injection_with_blunt_syringe_short_vertflip_short_600ms.mp4	220.5003722768015	221.10869749452831	0.608325217726815				
190.31884765625	0.2	389773	134	22	1	0	0	42	258	stimuli\Videos_short_600ms_horvertflip\80.stroke_with_sharp_stick_all_over_the_hand_short_horvertflip_short_600ms.mp4	80.stroke_with_sharp_stick_all_over_the_hand_short_horvertflip_short_600ms.mp4	221.30035831825444	221.9086820697485	0.6083237514940265				
191.11865234375	0.2	391411	135	22	1	0	0	43	141	stimuli\Videos_short_600ms_horflip\56.repeated_touch_with_nail_file_short_horflip_short_600ms.mp4	56.repeated_touch_with_nail_file_short_horflip_short_600ms.mp4	222.1003484651592	222.70866987068075	0.6083214055215649				
191.9189453125	0.2	393050	136	22	1	0	0	44	327	stimuli\Videos_short_600ms_vertflip\61.single_hit_with_rolling_pin_short_vertflip_short_600ms.mp4	61.single_hit_with_rolling_pin_short_vertflip_short_600ms.mp4	222.9003333336259	223.50865708511992	0.6083237514940265				
192.71875	0.2	394688	137	22	1	0	0	45	320	stimuli\Videos_short_600ms_vertflip\55.touch_top_to_bottom_with_nail_file_short_vertflip_short_600ms.mp4	55.touch_top_to_bottom_with_nail_file_short_vertflip_short_600ms.mp4	223.70032494676707	224.30864400631253	0.6083190595454653				
193.5185546875	0.2	396326	138	22	1	0	0	46	30	stimuli\Videos_short_600ms\37.single_stab_with_nail_file_short_short_600ms.mp4	37.single_stab_with_nail_file_short_short_600ms.mp4	224.50028723523064	225.10863180724849	0.6083445720178133				
194.31884765625	0.2	397965	139	22	1	0	0	47	209	stimuli\Videos_short_600ms_horvertflip\36.single_slap_with_full_hand_short_horvertflip_short_600ms.mp4	36.single_slap_with_full_hand_short_horvertflip_short_600ms.mp4	225.30027650239936	225.90862254064996	0.6083460382506019				
195.11865234375	0.2	399603	140	22	1	0	1	48	364	stimuli\Targets_short_600ms\hand-pinch_short_short_600ms.mp4	hand-pinch_short_short_600ms.mp4	226.1002619573592	226.70860535638712	0.6083433990279445				
195.91845703125	0.2	401241	141	22	1	0	0	49	302	stimuli\Videos_short_600ms_vertflip\39.single_stab_with_scissors_short_vertflip_short_600ms.mp4	39.single_stab_with_scissors_short_vertflip_short_600ms.mp4	226.900245652836	227.50859403705908	0.6083483842230635				
196.71875	0.2	402880	142	22	1	0	0	50	254	stimuli\Videos_short_600ms_horvertflip\77.tapping_with_all_fingers_short_horvertflip_short_600ms.mp4	77.tapping_with_all_fingers_short_horvertflip_short_600ms.mp4	227.70023257402863	228.308580078512	0.6083475044833904				
197.5185546875	0.2	404518	143	22	1	0	0	51	257	stimuli\Videos_short_600ms_horvertflip\8.single_touch_with_hairbrush_short_horvertflip_short_600ms.mp4	8.single_touch_with_hairbrush_short_horvertflip_short_600ms.mp4	228.5002499928887	229.10856729295483	0.6083173000661191				
198.31884765625	0.2	406157	144	22	1	0	0	52	58	stimuli\Videos_short_600ms\62.touch_top_to_bottom_with_scissors_short_short_600ms.mp4	62.touch_top_to_bottom_with_scissors_short_short_600ms.mp4	229.30024571148533	229.90853632609287	0.6082906146075402				
199.11865234375	0.2	407795	145	22	1	0	0	53	153	stimuli\Videos_short_600ms_horflip\67.single_touch_with_sponge_short_horflip_short_600ms.mp4	67.single_touch_with_sponge_short_horflip_short_600ms.mp4	230.1002314596917	230.70852412702516	0.6082926673334441				
199.91845703125	0.2	409433	146	22	1	0	0	54	119	stimuli\Videos_short_600ms_horflip\36.single_slap_with_full_hand_short_horflip_short_600ms.mp4	36.single_slap_with_full_hand_short_horflip_short_600ms.mp4	230.90018084529584	231.5085289362723	0.6083480909765058				
200.71875	0.2	411072	147	22	1	0	1	55	371	stimuli\Targets_short_600ms_horflip\hand-stroke_short_horflip_short_600ms.mp4	hand-stroke_short_horflip_short_600ms.mp4	231.70019797090936	232.30851585746495	0.6083178865555965				
201.5185546875	0.2	412710	148	22	1	0	0	56	93	stimuli\Videos_short_600ms_horflip\12.repeated_touch_with_nail_file_short_horflip_short_600ms.mp4	12.repeated_touch_with_nail_file_short_horflip_short_600ms.mp4	232.50019163677644	233.10850336515432	0.6083117283778847				
202.318359375	0.2	414348	149	22	1	0	0	57	265	stimuli\Videos_short_600ms_horvertflip\87.single_stroke_top_to_bottom_with_plastic_brush_short_horvertflip_short_600ms.mp4	87.single_stroke_top_to_bottom_with_plastic_brush_short_horvertflip_short_600ms.mp4	233.30016682809944	233.90851110686708	0.6083442787676177				
203.11865234375	0.2	415987	150	22	1	0	0	58	90	stimuli\Videos_short_600ms_horflip\1.repeated_touch_with_finger_fast_short_horflip_short_600ms.mp4	1.repeated_touch_with_finger_fast_short_horflip_short_600ms.mp4	234.1001549222783	234.70848277922775	0.6083278569494723				
203.91845703125	0.2	417625	151	22	1	0	0	59	5	stimuli\Videos_short_600ms\14.repeated_touch_with_pencil_short_short_600ms.mp4	14.repeated_touch_with_pencil_short_short_600ms.mp4	234.9001412569778	235.50846559496495	0.6083243379871419				
204.71826171875	0.2	419263	152	22	1	0	0	60	317	stimuli\Videos_short_600ms_vertflip\52.touch_top_to_bottom_with_hammer_short_vertflip_short_600ms.mp4	52.touch_top_to_bottom_with_hammer_short_vertflip_short_600ms.mp4	235.70012729843071	236.30844987693857	0.6083225785077957				
205.5185546875	0.2	420902	153	22	1	0	0	61	41	stimuli\Videos_short_600ms\47.(long)scratching_with_finger_nails_short_short_600ms.mp4	47.(long)scratching_with_finger_nails_short_short_600ms.mp4	236.5001145128699	237.10844002384692	0.6083255109770107				
206.318359375	0.2	422540	154	22	1	0	0	62	342	stimuli\Videos_short_600ms_vertflip\75.(long)stroke_with_fingers_all_over_the_hand_short_vertflip_short_600ms.mp4	75.(long)stroke_with_fingers_all_over_the_hand_short_vertflip_short_600ms.mp4	237.30010055432285	237.90842870451888	0.60832815019603				
207.1181640625	0.2	424178	155	22	1	0	0	63	335	stimuli\Videos_short_600ms_vertflip\69.stroke_with_soft_sock_short_vertflip_short_600ms.mp4	69.stroke_with_soft_sock_short_vertflip_short_600ms.mp4	238.1000886485053	238.70841181350625	0.6083231650009111				
207.91845703125	0.2	425817	156	22	1	0	0	64	80	stimuli\Videos_short_600ms\82.repeated_touch_with_cotton_bud_short_short_600ms.mp4	82.repeated_touch_with_cotton_bud_short_short_600ms.mp4	238.9000808481396	239.50839756171263	0.6083167135730037				
208.71826171875	0.2	427455	157	22	1	0	0	65	94	stimuli\Videos_short_600ms_horflip\13.single_touch_with_pen_short_horflip_short_600ms.mp4	13.single_touch_with_pen_short_horflip_short_600ms.mp4	239.70008213842448	240.30838946810036	0.6083073296758812				
209.51806640625	0.2	429093	158	22	1	0	0	66	183	stimuli\Videos_short_600ms_horvertflip\12.repeated_touch_with_nail_file_short_horvertflip_short_600ms.mp4	12.repeated_touch_with_nail_file_short_horvertflip_short_600ms.mp4	240.5000523445524	241.10837257708408	0.6083202325316961				
210.318359375	0.2	430732	159	22	1	0	0	67	212	stimuli\Videos_short_600ms_horvertflip\39.single_stab_with_scissors_short_horvertflip_short_600ms.mp4	39.single_stab_with_scissors_short_horvertflip_short_600ms.mp4	241.30001375327265	241.9083589117836	0.6083451585109287				
211.12646484375	0.2	432387	160	22	1	0	0	68	155	stimuli\Videos_short_600ms_horflip\69.stroke_with_soft_sock_short_horflip_short_600ms.mp4	69.stroke_with_soft_sock_short_horflip_short_600ms.mp4	242.1083570350056	242.7166796135134	0.6083225785077957				
211.92626953125	0.2	434025	161	22	1	0	0	69	231	stimuli\Videos_short_600ms_horvertflip\56.repeated_touch_with_nail_file_short_horvertflip_short_600ms.mp4	56.repeated_touch_with_nail_file_short_horvertflip_short_600ms.mp4	242.90834454269137	243.516666534706	0.6083219920146803				
212.7265625	0.2	435664	162	22	1	0	0	70	251	stimuli\Videos_short_600ms_horvertflip\74.fingers_walking_from_top_to_bottom_short_horvertflip_short_600ms.mp4	74.fingers_walking_from_top_to_bottom_short_horvertflip_short_600ms.mp4	243.7083341031066	244.3166537491452	0.6083196460385807				
213.5263671875	0.2	437302	163	22	1	0	0	71	193	stimuli\Videos_short_600ms_horvertflip\21.repeated_touch_with_metal_chopstick_short_horvertflip_short_600ms.mp4	21.repeated_touch_with_metal_chopstick_short_horvertflip_short_600ms.mp4	244.5083254230012	245.1166400838447	0.6083146608434618				
214.326171875	0.2	438940	164	22	1	0	1	72	372	stimuli\Targets_short_600ms_horvertflip\brush-stroke_short_vertflip_short_600ms.mp4	brush-stroke_short_vertflip_short_600ms.mp4	245.30828683172513	245.91662847127373	0.6083416395485983				
215.12646484375	0.2	440579	165	22	1	0	0	73	200	stimuli\Videos_short_600ms_horvertflip\28.single_injection_with_sharp_needle_short_horvertflip_short_600ms.mp4	28.single_injection_with_sharp_needle_short_horvertflip_short_600ms.mp4	246.10829017473588	246.71661421947647	0.6083240447405842				
215.92626953125	0.2	442217	166	22	1	0	0	74	51	stimuli\Videos_short_600ms\56.repeated_touch_with_nail_file_short_short_600ms.mp4	56.repeated_touch_with_nail_file_short_short_600ms.mp4	246.9082647795658	247.51663545054544	0.6083706709796388				
216.7265625	0.2	443856	167	22	1	0	0	75	351	stimuli\Videos_short_600ms_vertflip\83.single_stroke_top_to_bottom_with_cotton_bud_short_vertflip_short_600ms.mp4	83.single_stroke_top_to_bottom_with_cotton_bud_short_vertflip_short_600ms.mp4	247.70826724283688	248.31658776861877	0.6083205257818918				
217.5263671875	0.2	445494	168	22	1	0	0	76	54	stimuli\Videos_short_600ms\59.single_push_with_long_side_pencil_short_short_600ms.mp4	59.single_push_with_long_side_pencil_short_short_600ms.mp4	248.5082579762384	249.11657791552716	0.6083199392887764				
218.326171875	0.2	447132	169	22	1	0	0	77	264	stimuli\Videos_short_600ms_horvertflip\86.touch_top_to_bottom_with_hair_brush_short_horvertflip_short_600ms.mp4	86.touch_top_to_bottom_with_hair_brush_short_horvertflip_short_600ms.mp4	249.3082390324962	249.9165501743773	0.6083111418811313				
219.12646484375	0.2	448771	170	22	1	0	0	78	230	stimuli\Videos_short_600ms_horvertflip\55.touch_top_to_bottom_with_nail_file_short_horvertflip_short_600ms.mp4	55.touch_top_to_bottom_with_nail_file_short_horvertflip_short_600ms.mp4	250.10823269836692	250.71653181712827	0.6082991187613516				
219.92626953125	0.2	450409	171	22	1	0	0	79	70	stimuli\Videos_short_600ms\73.single_stroke_with_flat_hand_short_short_600ms.mp4	73.single_stroke_with_flat_hand_short_short_600ms.mp4	250.9082140478713	251.51652343027308	0.6083093824017851				
220.72607421875	0.2	452047	172	22	1	0	0	80	11	stimuli\Videos_short_600ms\2.single_touch_with_finger_short_short_600ms.mp4	2.single_touch_with_finger_short_short_600ms.mp4	251.7082150449096	252.31653293146883	0.6083178865592345				
221.5263671875	0.2	453686	173	22	1	0	0	81	71	stimuli\Videos_short_600ms\74.fingers_walking_from_top_to_bottom_short_short_600ms.mp4	74.fingers_walking_from_top_to_bottom_short_short_600ms.mp4	252.50818847674964	253.11650870928133	0.6083202325316961				
222.326171875	0.2	455324	174	22	1	0	0	82	134	stimuli\Videos_short_600ms_horflip\5.repeated_tap_with_finger_moving_from_top_to_bottom_short_horflip_short_600ms.mp4	5.repeated_tap_with_finger_moving_from_top_to_bottom_short_horflip_short_600ms.mp4	253.30817539794225	253.91649944268283	0.6083240447405842				
223.1259765625	0.2	456962	175	22	1	0	0	83	85	stimuli\Videos_short_600ms\87.single_stroke_top_to_bottom_with_plastic_brush_short_short_600ms.mp4	87.single_stroke_top_to_bottom_with_plastic_brush_short_short_600ms.mp4	254.1081790342032	254.716488416605	0.6083093824017851				
223.92626953125	0.2	458601	176	22	1	0	0	84	39	stimuli\Videos_short_600ms\45.scratching_with_finger_nails_short_short_600ms.mp4	45.scratching_with_finger_nails_short_short_600ms.mp4	254.90814953357767	255.51648002974616	0.6083304961684917				
224.72607421875	0.2	460239	177	22	1	0	0	85	56	stimuli\Videos_short_600ms\60.single_push_with_tip_of_pencil_short_short_600ms.mp4	60.single_push_with_tip_of_pencil_short_short_600ms.mp4	255.70813586827717	256.3164590332781	0.6083231650009111				
225.52587890625	0.2	461877	178	22	1	0	0	86	240	stimuli\Videos_short_600ms_horvertflip\64.repeated_touch_with_screwdriver_short_horvertflip_short_600ms.mp4	64.repeated_touch_with_screwdriver_short_horvertflip_short_600ms.mp4	256.50812425570257	257.11644624771725	0.6083219920146803				
226.326171875	0.2	463516	179	22	1	0	0	87	12	stimuli\Videos_short_600ms\20.single_touch_with_screwdriver_short_short_600ms.mp4	20.single_touch_with_screwdriver_short_short_600ms.mp4	257.3081102971555	257.91643316890986	0.6083228717543534				
227.1259765625	0.2	465154	180	22	1	0	0	88	29	stimuli\Videos_short_600ms\36.single_slap_with_full_hand_short_short_600ms.mp4	36.single_slap_with_full_hand_short_short_600ms.mp4	258.108096631855	258.71642272932513	0.6083260974701261				
227.92578125	0.2	466792	181	22	1	0	0	89	203	stimuli\Videos_short_600ms_horvertflip\30.finger_pulling_back_another_finger_short_horvertflip_short_600ms.mp4	30.finger_pulling_back_another_finger_short_horvertflip_short_600ms.mp4	258.9080829665545	259.5164075977882	0.6083246312336996				
228.72607421875	0.2	468431	182	22	1	0	0	90	222	stimuli\Videos_short_600ms_horvertflip\48.single_slap_with_hand_short_horvertflip_short_600ms.mp4	48.single_slap_with_hand_short_horvertflip_short_600ms.mp4	259.7080540524221	260.316394812231	0.6083407598089252				
229.52587890625	0.2	470069	183	22	1	0	0	91	238	stimuli\Videos_short_600ms_horvertflip\62.touch_top_to_bottom_with_scissors_short_horvertflip_short_600ms.mp4	62.touch_top_to_bottom_with_scissors_short_horvertflip_short_600ms.mp4	260.5080638468644	261.11638144017707	0.6083175933126768				
230.32568359375	0.2	471707	184	22	1	0	0	92	343	stimuli\Videos_short_600ms_vertflip\76.tickle_with_fingers_from_top_to_bottom_short_vertflip_short_600ms.mp4	76.tickle_with_fingers_from_top_to_bottom_short_vertflip_short_600ms.mp4	261.308046369355	261.9163680681231	0.6083216987681226				
231.1259765625	0.2	473346	185	22	1	0	0	93	310	stimuli\Videos_short_600ms_vertflip\46.scratching_top_to_bottom_with_finger_nails_short_vertflip_short_600ms.mp4	46.scratching_top_to_bottom_with_finger_nails_short_vertflip_short_600ms.mp4	262.10803358379417	262.7163567487951	0.6083231650009111	4.0	4.0	3.19216667443834	1.0
266.23291015625	0.2	545245	186	22	2	0	0	0	190	stimuli\Videos_short_600ms_horvertflip\19.single_touch_with_rolling_pin_short_horvertflip_short_600ms.mp4	19.single_touch_with_rolling_pin_short_horvertflip_short_600ms.mp4	297.215787410154	297.8241187860622	0.6083313759081648				
267.033203125	0.2	546884	187	22	2	0	0	1	313	stimuli\Videos_short_600ms_vertflip\49.repeated_slap_with_hand_short_vertflip_short_600ms.mp4	49.repeated_slap_with_hand_short_vertflip_short_600ms.mp4	298.01575849601795	298.6241065869981	0.6083480909801438				
267.8330078125	0.2	548522	188	22	2	0	0	2	269	stimuli\Videos_short_600ms_horvertflip\90.repeated_touch_with_sponge_short_horvertflip_short_600ms.mp4	90.repeated_touch_with_sponge_short_horvertflip_short_600ms.mp4	298.8157767946177	299.42409468117694	0.6083178865592345				
268.6328125	0.2	550160	189	22	2	0	0	3	8	stimuli\Videos_short_600ms\17.repeated_touch_with_rolling_pin_short_short_600ms.mp4	17.repeated_touch_with_rolling_pin_short_short_600ms.mp4	299.61583878699093	300.2240613683425	0.6082225813515834				
269.43310546875	0.2	551799	190	22	2	0	1	4	365	stimuli\Targets_short_600ms\hand-stroke_short_short_600ms.mp4	hand-stroke_short_short_600ms.mp4	300.41574917077014	301.0240418381072	0.6082926673370821				
270.23291015625	0.2	553437	191	22	2	0	0	5	344	stimuli\Videos_short_600ms_vertflip\77.tapping_with_all_fingers_short_vertflip_short_600ms.mp4	77.tapping_with_all_fingers_short_vertflip_short_600ms.mp4	301.2157445961202	301.8240311052723	0.6082865091520944				
271.03271484375	0.2	555075	192	22	2	0	0	6	326	stimuli\Videos_short_600ms_vertflip\60.single_push_with_tip_of_pencil_short_vertflip_short_600ms.mp4	60.single_push_with_tip_of_pencil_short_vertflip_short_600ms.mp4	302.0167042169196	302.6240165602321	0.6073123433125147				
271.8330078125	0.2	556714	193	22	2	0	0	7	350	stimuli\Videos_short_600ms_vertflip\82.repeated_touch_with_cotton_bud_short_vertflip_short_600ms.mp4	82.repeated_touch_with_cotton_bud_short_vertflip_short_600ms.mp4	302.8158932135957	303.42401227882874	0.6081190652330406				
272.6328125	0.2	558352	194	22	2	0	0	8	201	stimuli\Videos_short_600ms_horvertflip\29.single_pinch_with_tweezers_short_horvertflip_short_600ms.mp4	29.single_pinch_with_tweezers_short_horvertflip_short_600ms.mp4	303.61569216359567	304.2240209002848	0.6083287366891454				
273.4326171875	0.2	559990	195	22	2	0	0	9	188	stimuli\Videos_short_600ms_horvertflip\17.repeated_touch_with_rolling_pin_short_horvertflip_short_600ms.mp4	17.repeated_touch_with_rolling_pin_short_horvertflip_short_600ms.mp4	304.41567937803484	305.0240095809604	0.6083302029255719				
274.23291015625	0.2	561629	196	22	2	0	0	10	133	stimuli\Videos_short_600ms_horflip\49.repeated_slap_with_hand_short_horflip_short_600ms.mp4	49.repeated_slap_with_hand_short_horflip_short_600ms.mp4	305.21566688572057	305.8240017805947	0.6083348948741332				
275.03271484375	0.2	563267	197	22	2	0	1	11	379	stimuli\Targets_short_600ms_vertflip\chopstick-silver-tap_short_horvertflip_short_600ms.mp4	chopstick-silver-tap_short_horvertflip_short_600ms.mp4	306.0156538069132	306.6239755056813	0.6083216987681226				
275.83251953125	0.2	564905	198	22	2	0	0	12	116	stimuli\Videos_short_600ms_horflip\33.scratch_top_to_bottom_with_scissors_short_horflip_short_600ms.mp4	33.scratch_top_to_bottom_with_scissors_short_horflip_short_600ms.mp4	306.8156398483661	307.42397620947304	0.6083363611069217				
276.6328125	0.2	566544	199	22	2	0	0	13	120	stimuli\Videos_short_600ms_horflip\37.single_stab_with_nail_file_short_horflip_short_600ms.mp4	37.single_stab_with_nail_file_short_horflip_short_600ms.mp4	307.6156270628089	308.2239493480665	0.6083222852576				
277.4326171875	0.2	568182	200	22	2	0	0	14	95	stimuli\Videos_short_600ms_horflip\14.repeated_touch_with_pencil_short_horflip_short_600ms.mp4	14.repeated_touch_with_pencil_short_horflip_short_600ms.mp4	308.41561457049465	309.02393538951947	0.6083208190248115				
278.232421875	0.2	569820	201	22	2	0	0	15	312	stimuli\Videos_short_600ms_vertflip\48.single_slap_with_hand_short_vertflip_short_600ms.mp4	48.single_slap_with_hand_short_vertflip_short_600ms.mp4	309.21560090519415	309.8239231904554	0.608322285261238				
279.03271484375	0.2	571459	202	22	2	0	0	16	142	stimuli\Videos_short_600ms_horflip\57.single_touch_with_nail_file_short_horflip_short_600ms.mp4	57.single_touch_with_nail_file_short_horflip_short_600ms.mp4	310.0155928115819	310.62391040489456	0.6083175933126768				
279.83251953125	0.2	573097	203	22	2	0	0	17	239	stimuli\Videos_short_600ms_horvertflip\63.stroke_top_to_bottom_with_screwdriver_short_horvertflip_short_600ms.mp4	63.stroke_top_to_bottom_with_screwdriver_short_horvertflip_short_600ms.mp4	310.81557064212393	311.42389468686815	0.6083240447442222				
280.63232421875	0.2	574735	204	22	2	0	0	18	185	stimuli\Videos_short_600ms_horvertflip\14.repeated_touch_with_pencil_short_horvertflip_short_600ms.mp4	14.repeated_touch_with_pencil_short_horvertflip_short_600ms.mp4	311.6155607890323	312.22388248780044	0.6083216987681226				
281.4326171875	0.2	576374	205	22	2	0	0	19	295	stimuli\Videos_short_600ms_vertflip\32.single_(long)pinch_with_fingers_short_vertflip_short_600ms.mp4	32.single_(long)pinch_with_fingers_short_vertflip_short_600ms.mp4	312.4155480034715	313.0238720482157	0.6083240447442222				
282.232421875	0.2	578012	206	22	2	0	0	20	234	stimuli\Videos_short_600ms_horvertflip\59.single_push_with_long_side_pencil_short_horvertflip_short_600ms.mp4	59.single_push_with_long_side_pencil_short_horvertflip_short_600ms.mp4	313.21551557037674	313.82386395460344	0.6083483842267015				
283.0322265625	0.2	579650	207	22	2	0	0	21	282	stimuli\Videos_short_600ms_vertflip\20.single_touch_with_screwdriver_short_vertflip_short_600ms.mp4	20.single_touch_with_screwdriver_short_vertflip_short_600ms.mp4	314.01551568767536	314.6238441311216	0.6083284434462257				
283.83251953125	0.2	581289	208	22	2	0	0	22	348	stimuli\Videos_short_600ms_vertflip\80.stroke_with_sharp_stick_all_over_the_hand_short_vertflip_short_600ms.mp4	80.stroke_with_sharp_stick_all_over_the_hand_short_vertflip_short_600ms.mp4	314.8155166847173	315.42386653517315	0.608349850455852				
284.63232421875	0.2	582927	209	22	2	0	0	23	35	stimuli\Videos_short_600ms\41.injection_with_blunt_syringe_short_short_600ms.mp4	41.injection_with_blunt_syringe_short_short_600ms.mp4	315.6155056586358	316.22381386805137	0.6083082094155543				
285.4326171875	0.2	584566	210	22	2	0	0	24	112	stimuli\Videos_short_600ms_horflip\3.single_push_with_finger_short_horflip_short_600ms.mp4	3.single_push_with_finger_short_horflip_short_600ms.mp4	316.4154864216471	317.02378055521694	0.6082941335698706				
286.232421875	0.2	586204	211	22	2	0	0	25	263	stimuli\Videos_short_600ms_horvertflip\85.touch_top_to_bottom_with_fabric_short_horvertflip_short_600ms.mp4	85.touch_top_to_bottom_with_fabric_short_horvertflip_short_600ms.mp4	317.2154686508911	317.82379240238515	0.6083237514940265				
287.0322265625	0.2	587842	212	22	2	0	0	26	143	stimuli\Videos_short_600ms_horflip\58.single_slap_with_pencil_short_horflip_short_600ms.mp4	58.single_slap_with_pencil_short_horflip_short_600ms.mp4	318.01542976636847	318.6237546908487	0.6083249244802573				
287.83251953125	0.2	589481	213	22	2	0	0	27	156	stimuli\Videos_short_600ms_horflip\7.repeated_touch_with_hairbrush_short_horflip_short_600ms.mp4	7.repeated_touch_with_hairbrush_short_horflip_short_600ms.mp4	318.8154427865229	319.4237753354246	0.6083325489016715				
288.63232421875	0.2	591119	214	22	2	0	0	28	27	stimuli\Videos_short_600ms\34.repeated_punch_with_hand_short_short_600ms.mp4	34.repeated_punch_with_hand_short_short_600ms.mp4	319.6154314671985	320.22376401609654	0.6083325488980336				
289.43212890625	0.2	592757	215	22	2	0	0	29	91	stimuli\Videos_short_600ms_horflip\10.single_touch_with_knife_short_horflip_short_600ms.mp4	10.single_touch_with_knife_short_horflip_short_600ms.mp4	320.4154172154049	321.02375035079604	0.608333135391149				
290.232421875	0.2	594396	216	22	2	0	0	30	48	stimuli\Videos_short_600ms\53.touch_top_to_bottom_with_knife_short_short_600ms.mp4	53.touch_top_to_bottom_with_knife_short_short_600ms.mp4	321.2154035501044	321.8237273015984	0.6083237514940265				
291.0322265625	0.2	596034	217	22	2	0	0	31	297	stimuli\Videos_short_600ms_vertflip\34.repeated_punch_with_hand_short_vertflip_short_600ms.mp4	34.repeated_punch_with_hand_short_vertflip_short_600ms.mp4	322.0153910577901	322.6237168620137	0.6083258042235684				
291.83203125	0.2	597672	218	22	2	0	0	32	177	stimuli\Videos_short_600ms_horflip\89.single_touch_with_plastic_brush_short_horflip_short_600ms.mp4	89.single_touch_with_plastic_brush_short_horflip_short_600ms.mp4	322.8153823776847	323.42369967775085	0.6083173000661191				
292.63232421875	0.2	599311	219	22	2	0	0	33	69	stimuli\Videos_short_600ms\72.(short)stroke_with_finger_all_over_the_hand_short_short_600ms.mp4	72.(short)stroke_with_finger_all_over_the_hand_short_short_600ms.mp4	323.61536490017534	324.22368806517625	0.6083231650009111				
293.43212890625	0.2	600949	220	22	2	0	0	34	40	stimuli\Videos_short_600ms\46.scratching_top_to_bottom_with_finger_nails_short_short_600ms.mp4	46.scratching_top_to_bottom_with_finger_nails_short_short_600ms.mp4	324.4153568065667	325.02367527961906	0.6083184730523499				
294.23193359375	0.2	602587	221	22	2	0	0	35	167	stimuli\Videos_short_600ms_horflip\8.single_touch_with_hairbrush_short_horflip_short_600ms.mp4	8.single_touch_with_hairbrush_short_horflip_short_600ms.mp4	325.215335810095	325.82366161431855	0.6083258042235684				
295.0322265625	0.2	604226	222	22	2	0	0	36	330	stimuli\Videos_short_600ms_vertflip\64.repeated_touch_with_screwdriver_short_vertflip_short_600ms.mp4	64.repeated_touch_with_screwdriver_short_vertflip_short_600ms.mp4	326.01530924193503	326.6236497084974	0.6083404665623675				
295.83203125	0.2	605864	223	22	2	0	0	37	57	stimuli\Videos_short_600ms\61.single_hit_with_rolling_pin_short_short_600ms.mp4	61.single_hit_with_rolling_pin_short_short_600ms.mp4	326.8152891252066	327.42363487021066	0.6083457450040441				
296.6318359375	0.2	607502	224	22	2	0	0	38	184	stimuli\Videos_short_600ms_horvertflip\13.single_touch_with_pen_short_horvertflip_short_600ms.mp4	13.single_touch_with_pen_short_horvertflip_short_600ms.mp4	327.61527604639923	328.2236229643895	0.608346917990275				
297.43212890625	0.2	609141	225	22	2	0	0	39	324	stimuli\Videos_short_600ms_vertflip\59.single_push_with_long_side_pencil_short_vertflip_short_600ms.mp4	59.single_push_with_long_side_pencil_short_vertflip_short_600ms.mp4	328.4152714717493	329.023609299089	0.6083378273397102				
298.23193359375	0.2	610779	226	22	2	0	0	40	114	stimuli\Videos_short_600ms_horflip\31.hand_grabbing_wrist_short_horflip_short_600ms.mp4	31.hand_grabbing_wrist_short_horflip_short_600ms.mp4	329.2152818526847	329.8235956337885	0.6083137811037886				
299.03173828125	0.2	612417	227	22	2	0	1	41	362	stimuli\Targets_short_600ms\chopstickwood-tap_short_short_600ms.mp4	chopstickwood-tap_short_short_600ms.mp4	330.0152719995931	330.62358636719	0.608314367596904				
299.83203125	0.2	614056	228	22	2	0	0	42	129	stimuli\Videos_short_600ms_horflip\45.scratching_with_finger_nails_short_horflip_short_600ms.mp4	45.scratching_with_finger_nails_short_horflip_short_600ms.mp4	330.8152583342926	331.4235765140984	0.6083181798057922				
300.6318359375	0.2	615694	229	22	2	0	0	43	110	stimuli\Videos_short_600ms_horflip\28.single_injection_with_sharp_needle_short_horflip_short_600ms.mp4	28.single_injection_with_sharp_needle_short_horflip_short_600ms.mp4	331.6152344053553	332.22353205788386	0.608297652528563				
301.431640625	0.2	617332	230	22	2	0	0	44	14	stimuli\Videos_short_600ms\22.single_touch_with_metal_chopstick_short_short_600ms.mp4	22.single_touch_with_metal_chopstick_short_short_600ms.mp4	332.4158629505255	333.02351839258336	0.6076554420578759				
302.23193359375	0.2	618971	231	22	2	0	0	45	165	stimuli\Videos_short_600ms_horflip\78.single_stroke_top_to_bottom_with_soft_brush_short_horflip_short_600ms.mp4	78.single_stroke_top_to_bottom_with_soft_brush_short_horflip_short_600ms.mp4	333.2153129368453	333.823531705988	0.6082187691426952				
303.03173828125	0.2	620609	232	22	2	0	0	46	268	stimuli\Videos_short_600ms_horvertflip\9.single_touch_with_hammer_short_horvertflip_short_600ms.mp4	9.single_touch_with_hammer_short_horvertflip_short_600ms.mp4	334.01519663516956	334.6235247853656	0.60832815019603				
303.83154296875	0.2	622247	233	22	2	0	0	47	162	stimuli\Videos_short_600ms_horflip\75.(long)stroke_with_fingers_all_over_the_hand_short_horflip_short_600ms.mp4	75.(long)stroke_with_fingers_all_over_the_hand_short_horflip_short_600ms.mp4	334.8151870753245	335.4235102403254	0.6083231650009111				
304.6318359375	0.2	623886	234	22	2	0	0	48	25	stimuli\Videos_short_600ms\32.single_(long)pinch_with_fingers_short_short_600ms.mp4	32.single_(long)pinch_with_fingers_short_short_600ms.mp4	335.6151681315823	336.22349246956946	0.6083243379871419				
305.43994140625	0.2	625541	235	22	2	0	0	49	37	stimuli\Videos_short_600ms\43.touch_top_to_bottom_with_sharp_wooden_stick_short_short_600ms.mp4	43.touch_top_to_bottom_with_sharp_wooden_stick_short_short_600ms.mp4	336.4235073078562	337.0318196227272	0.6083123148710001				
306.240234375	0.2	627180	236	22	2	0	0	50	108	stimuli\Videos_short_600ms_horflip\26.single_touch_with_a_blunt_syringe_short_horflip_short_600ms.mp4	26.single_touch_with_a_blunt_syringe_short_horflip_short_600ms.mp4	337.22347282203555	337.831774286773	0.6083014647374512				
307.0400390625	0.2	628818	237	22	2	0	0	51	83	stimuli\Videos_short_600ms\85.touch_top_to_bottom_with_fabric_short_short_600ms.mp4	85.touch_top_to_bottom_with_fabric_short_short_600ms.mp4	338.02346355543705	338.6317840812153	0.6083205257782538				
307.83984375	0.2	630456	238	22	2	0	0	52	306	stimuli\Videos_short_600ms_vertflip\42.single_slap_with_plastic_whisk_short_vertflip_short_600ms.mp4	42.single_slap_with_plastic_whisk_short_vertflip_short_600ms.mp4	338.82344959688635	339.43177510786336	0.6083255109770107				
308.64013671875	0.2	632095	239	22	2	0	0	53	147	stimuli\Videos_short_600ms_horflip\61.single_hit_with_rolling_pin_short_horflip_short_600ms.mp4	61.single_hit_with_rolling_pin_short_horflip_short_600ms.mp4	339.62343593158585	340.2317605628232	0.6083246312373376				
309.43994140625	0.2	633733	240	22	2	0	0	54	340	stimuli\Videos_short_600ms_vertflip\73.single_stroke_with_flat_hand_short_vertflip_short_600ms.mp4	73.single_stroke_with_flat_hand_short_vertflip_short_600ms.mp4	340.423394114594	341.03175422869026	0.6083601140962855				
310.23974609375	0.2	635371	241	22	2	0	0	55	298	stimuli\Videos_short_600ms_vertflip\35.single_punch_with_hand_short_vertflip_short_600ms.mp4	35.single_punch_with_hand_short_vertflip_short_600ms.mp4	341.2234124131937	341.8317323524825	0.6083199392887764				
311.0400390625	0.2	637010	242	22	2	0	0	56	315	stimuli\Videos_short_600ms_vertflip\50.single_(long)hard_push_with_thumb_short_vertflip_short_600ms.mp4	50.single_(long)hard_push_with_thumb_short_vertflip_short_600ms.mp4	342.02339728166044	342.63171898042856	0.6083216987681226				
311.83984375	0.2	638648	243	22	2	0	0	57	187	stimuli\Videos_short_600ms_horvertflip\16.repeated_touch_with_plastic_brush_short_horvertflip_short_600ms.mp4	16.repeated_touch_with_plastic_brush_short_horvertflip_short_600ms.mp4	342.82338596233603	343.43170619486773	0.6083202325316961				
312.6396484375	0.2	640286	244	22	2	0	0	58	255	stimuli\Videos_short_600ms_horvertflip\78.single_stroke_top_to_bottom_with_soft_brush_short_horvertflip_short_600ms.mp4	78.single_stroke_top_to_bottom_with_soft_brush_short_horvertflip_short_600ms.mp4	343.6233693645663	344.23169311606034	0.6083237514940265				
313.43994140625	0.2	641925	245	22	2	0	0	59	215	stimuli\Videos_short_600ms_horvertflip\41.injection_with_blunt_syringe_short_horvertflip_short_600ms.mp4	41.injection_with_blunt_syringe_short_horvertflip_short_600ms.mp4	344.423358631735	345.03168238322905	0.6083237514940265				
314.23974609375	0.2	643563	246	22	2	0	0	60	20	stimuli\Videos_short_600ms\28.single_injection_with_sharp_needle_short_short_600ms.mp4	28.single_injection_with_sharp_needle_short_short_600ms.mp4	345.22334613942076	345.8316678381889	0.6083216987681226				
315.03955078125	0.2	645201	247	22	2	0	0	61	9	stimuli\Videos_short_600ms\18.single_stroke_from_top_to_bottom_with_rolling_pin_short_short_600ms.mp4	18.single_stroke_from_top_to_bottom_with_rolling_pin_short_short_600ms.mp4	346.0233145860657	346.6316518269123	0.6083372408465948				
315.83984375	0.2	646840	248	22	2	0	0	62	355	stimuli\Videos_short_600ms_vertflip\87.single_stroke_top_to_bottom_with_plastic_brush_short_vertflip_short_600ms.mp4	87.single_stroke_top_to_bottom_with_plastic_brush_short_vertflip_short_600ms.mp4	346.82334608077144	347.43163904135145	0.6082929605800018				
316.6396484375	0.2	648478	249	22	2	0	0	63	131	stimuli\Videos_short_600ms_horflip\47.(long)scratching_with_finger_nails_short_horflip_short_600ms.mp4	47.(long)scratching_with_finger_nails_short_horflip_short_600ms.mp4	347.62329869209134	348.2316274287805	0.6083287366891454				
317.439453125	0.2	650116	250	22	2	0	0	64	101	stimuli\Videos_short_600ms_horflip\2.single_touch_with_finger_short_horflip_short_600ms.mp4	2.single_touch_with_finger_short_horflip_short_600ms.mp4	348.42326801847594	349.03161405672654	0.6083460382506019				
318.23974609375	0.2	651755	251	22	2	0	1	65	381	stimuli\Targets_short_600ms_vertflip\finger-tap_short_horvertflip_short_600ms.mp4	finger-tap_short_horvertflip_short_600ms.mp4	349.2232754669458	349.83160156441227	0.6083260974664881				
319.03955078125	0.2	653393	252	22	2	0	0	66	262	stimuli\Videos_short_600ms_horvertflip\84.single_touch_with_cotton_bud_short_horvertflip_short_600ms.mp4	84.single_touch_with_cotton_bud_short_horvertflip_short_600ms.mp4	350.02327499774765	350.6315914180741	0.608316420326446				
319.83935546875	0.2	655031	253	22	2	0	0	67	242	stimuli\Videos_short_600ms_horvertflip\66.stroke_top_to_bottom_with_sponge_short_horvertflip_short_600ms.mp4	66.stroke_top_to_bottom_with_sponge_short_horvertflip_short_600ms.mp4	350.8232542945261	351.4315754067975	0.6083211122713692				
320.6396484375	0.2	656670	254	22	2	0	0	68	106	stimuli\Videos_short_600ms_horflip\24.single_stroke_top_to_bottom_with_a_spoon_short_horflip_short_600ms.mp4	24.single_stroke_top_to_bottom_with_a_spoon_short_horflip_short_600ms.mp4	351.62323740350985	352.23155792929174	0.6083205257818918				
321.439453125	0.2	658308	255	22	2	0	0	69	42	stimuli\Videos_short_600ms\48.single_slap_with_hand_short_short_600ms.mp4	48.single_slap_with_hand_short_short_600ms.mp4	352.42322755041823	353.0315252029468	0.608297652528563				
322.2392578125	0.2	659946	256	22	2	0	0	70	22	stimuli\Videos_short_600ms\3.single_push_with_finger_short_short_600ms.mp4	3.single_push_with_finger_short_short_600ms.mp4	353.2232132986246	353.8315367568721	0.6083234582474688				
323.03955078125	0.2	661585	257	22	2	0	0	71	180	stimuli\Videos_short_600ms_horvertflip\1.repeated_touch_with_finger_fast_short_horvertflip_short_600ms.mp4	1.repeated_touch_with_finger_fast_short_horvertflip_short_600ms.mp4	354.02319934007755	354.6315248510509	0.6083255109733727				
323.83935546875	0.2	663223	258	22	2	0	0	72	223	stimuli\Videos_short_600ms_horvertflip\49.repeated_slap_with_hand_short_horvertflip_short_600ms.mp4	49.repeated_slap_with_hand_short_horvertflip_short_600ms.mp4	354.82318508828394	355.4315135317265	0.6083284434425877				
324.63916015625	0.2	664861	259	22	2	0	0	73	76	stimuli\Videos_short_600ms\79.long_with_soft_brush_all_over_the_hand_short_short_600ms.mp4	79.long_with_soft_brush_all_over_the_hand_short_short_600ms.mp4	355.623191950257	356.23150602460737	0.6083140743503463				
325.439453125	0.2	666500	260	22	2	0	0	74	220	stimuli\Videos_short_600ms_horvertflip\46.scratching_top_to_bottom_with_finger_nails_short_horvertflip_short_600ms.mp4	46.scratching_top_to_bottom_with_finger_nails_short_horvertflip_short_600ms.mp4	356.4231609833987	357.0314832686563	0.6083222852576				
326.2392578125	0.2	668138	261	22	2	0	1	75	363	stimuli\Targets_short_600ms\finger-tap_short_short_600ms.mp4	finger-tap_short_short_600ms.mp4	357.2231473180982	357.8314687236161	0.6083214055179269				
327.03955078125	0.2	669777	262	22	2	0	0	76	356	stimuli\Videos_short_600ms_vertflip\88.repeated_stroke_with_plastic_brush_short_vertflip_short_600ms.mp4	88.repeated_stroke_with_plastic_brush_short_vertflip_short_600ms.mp4	358.0231386379928	358.6314576975383	0.6083190595454653				
327.83935546875	0.2	671415	263	22	2	0	0	77	82	stimuli\Videos_short_600ms\84.single_touch_with_cotton_bud_short_short_600ms.mp4	84.single_touch_with_cotton_bud_short_short_600ms.mp4	358.8231199874972	359.43144491197745	0.6083249244802573				
328.63916015625	0.2	673053	264	22	2	0	0	78	84	stimuli\Videos_short_600ms\86.touch_top_to_bottom_with_hair_brush_short_short_600ms.mp4	86.touch_top_to_bottom_with_hair_brush_short_short_600ms.mp4	359.62310808167604	360.23143124667695	0.6083231650009111				
329.439453125	0.2	674692	265	22	2	0	0	79	98	stimuli\Videos_short_600ms_horflip\17.repeated_touch_with_rolling_pin_short_horflip_short_600ms.mp4	17.repeated_touch_with_rolling_pin_short_horflip_short_600ms.mp4	360.4230709566327	361.0314187543627	0.6083477977299481				
330.2392578125	0.2	676330	266	22	2	0	0	80	291	stimuli\Videos_short_600ms_vertflip\29.single_pinch_with_tweezers_short_vertflip_short_600ms.mp4	29.single_pinch_with_tweezers_short_vertflip_short_600ms.mp4	361.2230854430236	361.8314050890622	0.6083196460385807				
331.0390625	0.2	677968	267	22	2	0	0	81	26	stimuli\Videos_short_600ms\33.scratch_top_to_bottom_with_scissors_short_short_600ms.mp4	33.scratch_top_to_bottom_with_scissors_short_short_600ms.mp4	362.02304098680906	362.63139259675154	0.6083516099424742				
331.83935546875	0.2	679607	268	22	2	0	1	82	377	stimuli\Targets_short_600ms_horvertflip\hand-stroke_short_vertflip_short_600ms.mp4	hand-stroke_short_vertflip_short_600ms.mp4	362.8230569394363	363.4313806909304	0.6083237514940265				
332.63916015625	0.2	681245	269	22	2	0	0	83	33	stimuli\Videos_short_600ms\4.repeated_tap_with_finger_slow_short_short_600ms.mp4	4.repeated_tap_with_finger_slow_short_short_600ms.mp4	363.6230456201083	364.2313705445922	0.6083249244838953				
333.43896484375	0.2	682883	270	22	2	0	0	84	65	stimuli\Videos_short_600ms\69.stroke_with_soft_sock_short_short_600ms.mp4	69.stroke_with_soft_sock_short_short_600ms.mp4	364.4230322480544	365.0313554130553	0.6083231650009111				
334.2392578125	0.2	684522	271	22	2	0	0	85	301	stimuli\Videos_short_600ms_vertflip\38.double_slap_with_pencil_short_vertflip_short_600ms.mp4	38.double_slap_with_pencil_short_vertflip_short_600ms.mp4	365.2230177030142	365.8313350030803	0.6083173000661191				
335.0390625	0.2	686160	272	22	2	0	0	86	49	stimuli\Videos_short_600ms\54.repeated_touch_with_knife_short_short_600ms.mp4	54.repeated_touch_with_knife_short_short_600ms.mp4	366.0230090229088	366.6313295486907	0.6083205257818918				
335.8388671875	0.2	687798	273	22	2	0	0	87	359	stimuli\Videos_short_600ms_vertflip\90.repeated_touch_with_sponge_short_vertflip_short_600ms.mp4	90.repeated_touch_with_sponge_short_vertflip_short_600ms.mp4	366.8229897859201	367.43131383066066	0.6083240447405842				
336.63916015625	0.2	689437	274	22	2	0	0	88	121	stimuli\Videos_short_600ms_horflip\38.double_slap_with_pencil_short_horflip_short_600ms.mp4	38.double_slap_with_pencil_short_horflip_short_600ms.mp4	367.6229857977633	368.23130251133625	0.6083167135730037				
337.43896484375	0.2	691075	275	22	2	0	0	89	237	stimuli\Videos_short_600ms_horvertflip\61.single_hit_with_rolling_pin_short_horvertflip_short_600ms.mp4	61.single_hit_with_rolling_pin_short_horvertflip_short_600ms.mp4	368.4229618688259	369.0312683187585	0.6083064499325701				
338.23876953125	0.2	692713	276	22	2	0	0	90	316	stimuli\Videos_short_600ms_vertflip\51.repeated_touch_with_hammer_short_vertflip_short_600ms.mp4	51.repeated_touch_with_hammer_short_vertflip_short_600ms.mp4	369.22295113599466	369.8312830983996	0.6083319624049182				
339.0390625	0.2	694352	277	22	2	0	0	91	261	stimuli\Videos_short_600ms_horvertflip\83.single_stroke_top_to_bottom_with_cotton_bud_short_horvertflip_short_600ms.mp4	83.single_stroke_top_to_bottom_with_cotton_bud_short_horvertflip_short_600ms.mp4	370.02293747069416	370.631267087123	0.6083296164288186				
339.8388671875	0.2	695990	278	22	2	0	0	92	166	stimuli\Videos_short_600ms_horflip\79.long_with_soft_brush_all_over_the_hand_short_horflip_short_600ms.mp4	79.long_with_soft_brush_all_over_the_hand_short_horflip_short_600ms.mp4	370.82292321890054	371.4312472636411	0.6083240447405842				
340.638671875	0.2	697628	279	22	2	0	0	93	332	stimuli\Videos_short_600ms_vertflip\66.stroke_top_to_bottom_with_sponge_short_vertflip_short_600ms.mp4	66.stroke_top_to_bottom_with_sponge_short_vertflip_short_600ms.mp4	371.6229086738604	372.2312406362617	0.6083319624012802				
341.447265625	0.2	699284	280	22	2	0	0	94	300	stimuli\Videos_short_600ms_vertflip\37.single_stab_with_nail_file_short_vertflip_short_600ms.mp4	37.single_stab_with_nail_file_short_vertflip_short_600ms.mp4	372.43123142831246	373.0395504878616	0.6083190595491033				
342.2470703125	0.2	700922	281	22	2	0	0	95	279	stimuli\Videos_short_600ms_vertflip\18.single_stroke_from_top_to_bottom_with_rolling_pin_short_vertflip_short_600ms.mp4	18.single_stroke_from_top_to_bottom_with_rolling_pin_short_vertflip_short_600ms.mp4	373.2312215752208	373.83953652931086	0.6083149540900195	6.0	6.0	2.660300572093547	1.0
375.087890625	0.2	768180	282	22	3	0	0	0	148	stimuli\Videos_short_600ms_horflip\62.touch_top_to_bottom_with_scissors_short_horflip_short_600ms.mp4	62.touch_top_to_bottom_with_scissors_short_horflip_short_600ms.mp4	406.0723448629178	406.68066098999407	0.6083161270762503				
375.8876953125	0.2	769818	283	22	3	0	0	1	307	stimuli\Videos_short_600ms_vertflip\43.touch_top_to_bottom_with_sharp_wooden_stick_short_vertflip_short_600ms.mp4	43.touch_top_to_bottom_with_sharp_wooden_stick_short_vertflip_short_600ms.mp4	406.8723822225584	407.480669024957	0.6082868023986521				
376.6875	0.2	771456	284	22	3	0	0	2	233	stimuli\Videos_short_600ms_horvertflip\58.single_slap_with_pencil_short_horvertflip_short_600ms.mp4	58.single_slap_with_pencil_short_horvertflip_short_600ms.mp4	407.67231430660104	408.28064861498206	0.6083343083810178				
377.48779296875	0.2	773095	285	22	3	0	0	3	217	stimuli\Videos_short_600ms_horvertflip\43.touch_top_to_bottom_with_sharp_wooden_stick_short_horvertflip_short_600ms.mp4	43.touch_top_to_bottom_with_sharp_wooden_stick_short_horvertflip_short_600ms.mp4	408.472304746756	409.08067072578706	0.6083659790310776				
378.28759765625	0.2	774733	286	22	3	0	0	4	256	stimuli\Videos_short_600ms_horvertflip\79.long_with_soft_brush_all_over_the_hand_short_horvertflip_short_600ms.mp4	79.long_with_soft_brush_all_over_the_hand_short_horvertflip_short_600ms.mp4	409.27229372067814	409.8806089680147	0.6083152473365772				
379.08740234375	0.2	776371	287	22	3	0	0	5	10	stimuli\Videos_short_600ms\19.single_touch_with_rolling_pin_short_short_600ms.mp4	19.single_touch_with_rolling_pin_short_short_600ms.mp4	410.0722785891412	410.6805955959608	0.6083170068195614				
379.8876953125	0.2	778010	288	22	3	0	0	6	176	stimuli\Videos_short_600ms_horflip\88.repeated_stroke_with_plastic_brush_short_horflip_short_600ms.mp4	88.repeated_stroke_with_plastic_brush_short_horflip_short_600ms.mp4	410.8722722550119	411.4805898483246	0.6083175933126768				
380.6875	0.2	779648	289	22	3	0	0	7	43	stimuli\Videos_short_600ms\49.repeated_slap_with_hand_short_short_600ms.mp4	49.repeated_slap_with_hand_short_short_600ms.mp4	411.6722650411393	412.2805767695172	0.6083117283778847				
381.4873046875	0.2	781286	290	22	3	0	1	8	373	stimuli\Targets_short_600ms_horvertflip\chopstick-silver-tap_short_vertflip_short_600ms.mp4	chopstick-silver-tap_short_vertflip_short_600ms.mp4	412.4722463906437	413.08056574343937	0.608319352795661				
382.28759765625	0.2	782925	291	22	3	0	0	9	175	stimuli\Videos_short_600ms_horflip\87.single_stroke_top_to_bottom_with_plastic_brush_short_horflip_short_600ms.mp4	87.single_stroke_top_to_bottom_with_plastic_brush_short_horflip_short_600ms.mp4	413.2722224617064	413.8805215804714	0.6082991187649895				
383.08740234375	0.2	784563	292	22	3	0	0	10	296	stimuli\Videos_short_600ms_vertflip\33.scratch_top_to_bottom_with_scissors_short_vertflip_short_600ms.mp4	33.scratch_top_to_bottom_with_scissors_short_vertflip_short_600ms.mp4	414.07221084913544	414.6805366533554	0.6083258042199304				
383.88720703125	0.2	786201	293	22	3	0	0	11	164	stimuli\Videos_short_600ms_horflip\77.tapping_with_all_fingers_short_horflip_short_600ms.mp4	77.tapping_with_all_fingers_short_horflip_short_600ms.mp4	414.8722018757835	415.4805250407844	0.6083231650009111				
384.6875	0.2	787840	294	22	3	0	0	12	194	stimuli\Videos_short_600ms_horvertflip\22.single_touch_with_metal_chopstick_short_horvertflip_short_600ms.mp4	22.single_touch_with_metal_chopstick_short_horvertflip_short_600ms.mp4	415.6721832252879	416.2805204661345	0.6083372408465948				
385.4873046875	0.2	789478	295	22	3	0	0	13	221	stimuli\Videos_short_600ms_horvertflip\47.(long)scratching_with_finger_nails_short_horvertflip_short_600ms.mp4	47.(long)scratching_with_finger_nails_short_horvertflip_short_600ms.mp4	416.47217043972705	417.0804944844677	0.6083240447405842				
386.287109375	0.2	791116	296	22	3	0	0	14	135	stimuli\Videos_short_600ms_horflip\50.single_(long)hard_push_with_thumb_short_horflip_short_600ms.mp4	50.single_(long)hard_push_with_thumb_short_horflip_short_600ms.mp4	417.2721570676731	417.88048287189304	0.6083258042199304				
387.08740234375	0.2	792755	297	22	3	0	0	15	358	stimuli\Videos_short_600ms_vertflip\9.single_touch_with_hammer_short_vertflip_short_600ms.mp4	9.single_touch_with_hammer_short_vertflip_short_600ms.mp4	418.0721428158795	418.68046627412696	0.6083234582474688				
387.88720703125	0.2	794393	298	22	3	0	0	16	77	stimuli\Videos_short_600ms\8.single_touch_with_hairbrush_short_short_600ms.mp4	8.single_touch_with_hairbrush_short_short_600ms.mp4	418.8721312033049	419.4804482101245	0.6083170068195614				
388.68701171875	0.2	796031	299	22	3	0	0	17	68	stimuli\Videos_short_600ms\71.single_stroke_with_finger_top_to_bottom_short_short_600ms.mp4	71.single_stroke_with_finger_top_to_bottom_short_short_600ms.mp4	419.6721219367064	420.2804377705397	0.6083158338333305				
389.4873046875	0.2	797670	300	22	3	0	0	18	115	stimuli\Videos_short_600ms_horflip\32.single_(long)pinch_with_fingers_short_horflip_short_600ms.mp4	32.single_(long)pinch_with_fingers_short_horflip_short_600ms.mp4	420.4721068051731	421.08042527822545	0.6083184730523499				
390.287109375	0.2	799308	301	22	3	0	0	19	338	stimuli\Videos_short_600ms_vertflip\71.single_stroke_with_finger_top_to_bottom_short_vertflip_short_600ms.mp4	71.single_stroke_with_finger_top_to_bottom_short_vertflip_short_600ms.mp4	421.2720928466261	421.8804368321471	0.60834398552106				
391.08740234375	0.2	800947	302	22	3	0	0	20	146	stimuli\Videos_short_600ms_horflip\60.single_push_with_tip_of_pencil_short_horflip_short_600ms.mp4	60.single_push_with_tip_of_pencil_short_horflip_short_600ms.mp4	422.0720809408049	422.68042433983646	0.6083433990315825				
391.88720703125	0.2	802585	303	22	3	0	0	21	236	stimuli\Videos_short_600ms_horvertflip\60.single_push_with_tip_of_pencil_short_horvertflip_short_600ms.mp4	60.single_push_with_tip_of_pencil_short_horvertflip_short_600ms.mp4	422.8720643430388	423.4804121407687	0.6083477977299481				
392.68701171875	0.2	804223	304	22	3	0	0	22	225	stimuli\Videos_short_600ms_horvertflip\50.single_(long)hard_push_with_thumb_short_horvertflip_short_600ms.mp4	50.single_(long)hard_push_with_thumb_short_horvertflip_short_600ms.mp4	423.6720495047484	424.2803714967631	0.6083219920146803				
393.4873046875	0.2	805862	305	22	3	0	0	23	47	stimuli\Videos_short_600ms\52.touch_top_to_bottom_with_hammer_short_short_600ms.mp4	52.touch_top_to_bottom_with_hammer_short_short_600ms.mp4	424.4720411178933	425.0803581247091	0.6083170068159234				
394.287109375	0.2	807500	306	22	3	0	0	24	173	stimuli\Videos_short_600ms_horflip\85.touch_top_to_bottom_with_fabric_short_horflip_short_600ms.mp4	85.touch_top_to_bottom_with_fabric_short_horflip_short_600ms.mp4	425.2720811167528	425.8803271578472	0.6082460410943895				
395.0869140625	0.2	809138	307	22	3	0	0	25	6	stimuli\Videos_short_600ms\15.single_stroke_top_to_bottom_with_a_plastic_whisk_short_short_600ms.mp4	15.single_stroke_top_to_bottom_with_a_plastic_whisk_short_short_600ms.mp4	426.07201642651125	426.68030968034145	0.6082932538301975				
395.8955078125	0.2	810794	308	22	3	0	0	26	151	stimuli\Videos_short_600ms_horflip\65.stroke_top_to_bottom_with_stanley_knife_short_horflip_short_600ms.mp4	65.stroke_top_to_bottom_with_stanley_knife_short_horflip_short_600ms.mp4	426.8803198266796	427.488654135057	0.6083343083773798				
396.6953125	0.2	812432	309	22	3	0	0	27	271	stimuli\Videos_short_600ms_vertflip\10.single_touch_with_knife_short_vertflip_short_600ms.mp4	10.single_touch_with_knife_short_vertflip_short_600ms.mp4	427.68030352215646	428.2886416427464	0.6083381205899059				
397.4951171875	0.2	814070	310	22	3	0	0	28	204	stimuli\Videos_short_600ms_horvertflip\31.hand_grabbing_wrist_short_horvertflip_short_600ms.mp4	31.hand_grabbing_wrist_short_horvertflip_short_600ms.mp4	428.4803446940059	429.088628563939	0.608283869933075				
398.29541015625	0.2	815709	311	22	3	0	0	29	208	stimuli\Videos_short_600ms_horvertflip\35.single_punch_with_hand_short_horvertflip_short_600ms.mp4	35.single_punch_with_hand_short_horvertflip_short_600ms.mp4	429.2802688603879	429.8886160716247	0.6083472112368327				
399.09521484375	0.2	817347	312	22	3	0	0	30	4	stimuli\Videos_short_600ms\13.single_touch_with_pen_short_short_600ms.mp4	13.single_touch_with_pen_short_short_600ms.mp4	430.0802836400253	430.6885974211291	0.6083137811037886				
399.89501953125	0.2	818985	313	22	3	0	0	31	96	stimuli\Videos_short_600ms_horflip\15.single_stroke_top_to_bottom_with_a_plastic_whisk_short_horflip_short_600ms.mp4	15.single_stroke_top_to_bottom_with_a_plastic_whisk_short_horflip_short_600ms.mp4	430.8802861033	431.4885863950512	0.6083002917512204				
400.6953125	0.2	820624	314	22	3	0	0	32	127	stimuli\Videos_short_600ms_horflip\43.touch_top_to_bottom_with_sharp_wooden_stick_short_horflip_short_600ms.mp4	43.touch_top_to_bottom_with_sharp_wooden_stick_short_horflip_short_600ms.mp4	431.68025161747573	432.2885486835112	0.6082970660354476				
401.4951171875	0.2	822262	315	22	3	0	0	33	154	stimuli\Videos_short_600ms_horflip\68.stroke_top_to_bottom_with_shawl_short_horflip_short_600ms.mp4	68.stroke_top_to_bottom_with_shawl_short_horflip_short_600ms.mp4	432.480252614514	433.0885575982138	0.6083049836997816				
402.294921875	0.2	823900	316	22	3	0	0	34	55	stimuli\Videos_short_600ms\6.single_touch_with_flat_hand_short_short_600ms.mp4	6.single_touch_with_flat_hand_short_short_600ms.mp4	433.28022106115895	433.8885231123931	0.6083020512342046				
403.09521484375	0.2	825539	317	22	3	0	1	35	367	stimuli\Targets_short_600ms_horflip\chopstick-silver-tap_short_horflip_short_600ms.mp4	chopstick-silver-tap_short_horflip_short_600ms.mp4	434.0802065161188	434.6885449299516	0.6083384138328256				
403.89501953125	0.2	827177	318	22	3	0	0	36	266	stimuli\Videos_short_600ms_horvertflip\88.repeated_stroke_with_plastic_brush_short_horvertflip_short_600ms.mp4	88.repeated_stroke_with_plastic_brush_short_horvertflip_short_600ms.mp4	434.8801957832875	435.4885227604973	0.6083269772097992				
404.69482421875	0.2	828815	319	22	3	0	0	37	0	stimuli\Videos_short_600ms\1.repeated_touch_with_finger_fast_short_short_600ms.mp4	1.repeated_touch_with_finger_fast_short_short_600ms.mp4	435.68018241123355	436.288521118313	0.6083387070793833				
405.4951171875	0.2	830454	320	22	3	0	0	38	216	stimuli\Videos_short_600ms_horvertflip\42.single_slap_with_plastic_whisk_short_horvertflip_short_600ms.mp4	42.single_slap_with_plastic_whisk_short_horvertflip_short_600ms.mp4	436.4801675729468	437.0884927906736	0.608325217726815				
406.294921875	0.2	832092	321	22	3	0	0	39	169	stimuli\Videos_short_600ms_horflip\81.single_stroke_top_to_bottom_with_cotton_pad_short_horflip_short_600ms.mp4	81.single_stroke_top_to_bottom_with_cotton_pad_short_horflip_short_600ms.mp4	437.2801577198552	437.8884835240751	0.6083258042199304				
407.0947265625	0.2	833730	322	22	3	0	0	40	62	stimuli\Videos_short_600ms\66.stroke_top_to_bottom_with_sponge_short_short_600ms.mp4	66.stroke_top_to_bottom_with_sponge_short_short_600ms.mp4	438.0801417085786	438.6884686857884	0.6083269772097992				
407.89501953125	0.2	835369	323	22	3	0	1	41	378	stimuli\Targets_short_600ms_vertflip\brush-stroke_short_horvertflip_short_600ms.mp4	brush-stroke_short_horvertflip_short_600ms.mp4	438.8801286297712	439.4884553137345	0.6083266839632415				
408.69482421875	0.2	837007	324	22	3	0	0	42	46	stimuli\Videos_short_600ms\51.repeated_touch_with_hammer_short_short_600ms.mp4	51.repeated_touch_with_hammer_short_short_600ms.mp4	439.68011701720025	440.2884419416805	0.6083249244802573				
409.4951171875	0.2	838646	325	22	3	0	0	43	311	stimuli\Videos_short_600ms_vertflip\47.(long)scratching_with_finger_nails_short_vertflip_short_600ms.mp4	47.(long)scratching_with_finger_nails_short_vertflip_short_600ms.mp4	440.4801021789099	441.0884288628731	0.6083266839632415				
410.294921875	0.2	840284	326	22	3	0	0	44	152	stimuli\Videos_short_600ms_horflip\66.stroke_top_to_bottom_with_sponge_short_horflip_short_600ms.mp4	66.stroke_top_to_bottom_with_sponge_short_horflip_short_600ms.mp4	441.2801465764751	441.88841431783294	0.6082677413578494				
411.0947265625	0.2	841922	327	22	3	0	0	45	293	stimuli\Videos_short_600ms_vertflip\30.finger_pulling_back_another_finger_short_vertflip_short_600ms.mp4	30.finger_pulling_back_another_finger_short_vertflip_short_600ms.mp4	442.0800980148087	442.68840299850854	0.6083049836997816				
411.89501953125	0.2	843561	328	22	3	0	0	46	2	stimuli\Videos_short_600ms\11.single_touch_with_lighter_short_short_600ms.mp4	11.single_touch_with_lighter_short_short_600ms.mp4	442.8800403624882	443.4883878669716	0.6083475044833904				
412.69482421875	0.2	845199	329	22	3	0	0	47	53	stimuli\Videos_short_600ms\58.single_slap_with_pencil_short_short_600ms.mp4	58.single_slap_with_pencil_short_short_600ms.mp4	443.6800489839443	444.2883774273869	0.6083284434425877				
413.49462890625	0.2	846837	330	22	3	0	0	48	299	stimuli\Videos_short_600ms_vertflip\36.single_slap_with_full_hand_short_vertflip_short_600ms.mp4	36.single_slap_with_full_hand_short_vertflip_short_600ms.mp4	444.4800391308527	445.08836170936047	0.6083225785077957				
414.294921875	0.2	848476	331	22	3	0	0	49	352	stimuli\Videos_short_600ms_vertflip\84.single_touch_with_cotton_bud_short_vertflip_short_600ms.mp4	84.single_touch_with_cotton_bud_short_vertflip_short_600ms.mp4	445.2800298642542	445.8883301560054	0.6083002917512204				
415.0947265625	0.2	850114	332	22	3	0	0	50	329	stimuli\Videos_short_600ms_vertflip\63.stroke_top_to_bottom_with_screwdriver_short_vertflip_short_600ms.mp4	63.stroke_top_to_bottom_with_screwdriver_short_vertflip_short_600ms.mp4	446.0800197179123	446.68831062576646	0.6082909078540979				
415.89453125	0.2	851752	333	22	3	0	0	51	259	stimuli\Videos_short_600ms_horvertflip\81.single_stroke_top_to_bottom_with_cotton_pad_short_horvertflip_short_600ms.mp4	81.single_stroke_top_to_bottom_with_cotton_pad_short_horvertflip_short_600ms.mp4	446.8800157297592	447.48832863111966	0.6083129013604776				
416.69482421875	0.2	853391	334	22	3	0	0	52	32	stimuli\Videos_short_600ms\39.single_stab_with_scissors_short_short_600ms.mp4	39.single_stab_with_scissors_short_short_600ms.mp4	447.6799894548458	448.288309980624	0.6083205257782538				
417.49462890625	0.2	855029	335	22	3	0	0	53	235	stimuli\Videos_short_600ms_horvertflip\6.single_touch_with_flat_hand_short_horvertflip_short_600ms.mp4	6.single_touch_with_flat_hand_short_horvertflip_short_600ms.mp4	448.47997227058295	449.08829484909074	0.6083225785077957				
418.29443359375	0.2	856667	336	22	3	0	0	54	308	stimuli\Videos_short_600ms_vertflip\44.pushing_top_to_bottom_with_finger_short_vertflip_short_600ms.mp4	44.pushing_top_to_bottom_with_finger_short_vertflip_short_600ms.mp4	449.27995655255654	449.88828558249224	0.6083290299357031				
419.0947265625	0.2	858306	337	22	3	0	0	55	196	stimuli\Videos_short_600ms_horvertflip\24.single_stroke_top_to_bottom_with_a_spoon_short_horvertflip_short_600ms.mp4	24.single_stroke_top_to_bottom_with_a_spoon_short_horvertflip_short_600ms.mp4	450.0799431805026	450.68827250368486	0.6083293231822609				
419.89453125	0.2	859944	338	22	3	0	0	56	247	stimuli\Videos_short_600ms_horvertflip\70.(long)stroke_with_finger_all_over_the_hand_short_horvertflip_short_600ms.mp4	70.(long)stroke_with_finger_all_over_the_hand_short_horvertflip_short_600ms.mp4	450.8799277557191	451.48825619916533	0.6083284434462257				
420.6943359375	0.2	861582	339	22	3	0	0	57	328	stimuli\Videos_short_600ms_vertflip\62.touch_top_to_bottom_with_scissors_short_vertflip_short_600ms.mp4	62.touch_top_to_bottom_with_scissors_short_vertflip_short_600ms.mp4	451.6799184891206	452.2882448798373	0.6083263907166838				
421.49462890625	0.2	863221	340	22	3	0	0	58	179	stimuli\Videos_short_600ms_horflip\90.repeated_touch_with_sponge_short_horflip_short_600ms.mp4	90.repeated_touch_with_sponge_short_horflip_short_600ms.mp4	452.4799027710942	453.08822857531777	0.6083258042235684				
422.29443359375	0.2	864859	341	22	3	0	0	59	138	stimuli\Videos_short_600ms_horflip\53.touch_top_to_bottom_with_knife_short_horflip_short_600ms.mp4	53.touch_top_to_bottom_with_knife_short_horflip_short_600ms.mp4	453.27988939904026	453.88821578975694	0.6083263907166838				
423.09423828125	0.2	866497	342	22	3	0	0	60	16	stimuli\Videos_short_600ms\24.single_stroke_top_to_bottom_with_a_spoon_short_short_600ms.mp4	24.single_stroke_top_to_bottom_with_a_spoon_short_short_600ms.mp4	454.0798766134794	454.6882021244565	0.6083255109770107				
423.89453125	0.2	868136	343	22	3	0	0	61	197	stimuli\Videos_short_600ms_horvertflip\25.single_touch_with_stanley_knife_short_horvertflip_short_600ms.mp4	25.single_touch_with_stanley_knife_short_horvertflip_short_600ms.mp4	454.8798623616858	455.4881902186353	0.6083278569494723				
424.6943359375	0.2	869774	344	22	3	0	0	62	86	stimuli\Videos_short_600ms\88.repeated_stroke_with_plastic_brush_short_short_600ms.mp4	88.repeated_stroke_with_plastic_brush_short_short_600ms.mp4	455.67985514781685	456.2881771398279	0.6083219920110423				
425.494140625	0.2	871412	345	22	3	0	0	63	210	stimuli\Videos_short_600ms_horvertflip\37.single_stab_with_nail_file_short_horvertflip_short_600ms.mp4	37.single_stab_with_nail_file_short_horvertflip_short_600ms.mp4	456.4798359108245	457.0881625947877	0.6083266839632415				
426.29443359375	0.2	873051	346	22	3	0	0	64	337	stimuli\Videos_short_600ms_vertflip\70.(long)stroke_with_finger_all_over_the_hand_short_vertflip_short_600ms.mp4	70.(long)stroke_with_finger_all_over_the_hand_short_vertflip_short_600ms.mp4	457.27982986994175	457.88815244844955	0.6083225785077957				
427.09423828125	0.2	874689	347	22	3	0	0	65	111	stimuli\Videos_short_600ms_horflip\29.single_pinch_with_tweezers_short_horflip_short_600ms.mp4	29.single_pinch_with_tweezers_short_horflip_short_600ms.mp4	458.0798188438639	458.6881352641867	0.608316420322808				
427.89404296875	0.2	876327	348	22	3	0	0	66	23	stimuli\Videos_short_600ms\30.finger_pulling_back_another_finger_short_short_600ms.mp4	30.finger_pulling_back_another_finger_short_short_600ms.mp4	458.8797740944028	459.4881268773279	0.608352782925067				
428.6943359375	0.2	877966	349	22	3	0	0	67	24	stimuli\Videos_short_600ms\31.hand_grabbing_wrist_short_short_600ms.mp4	31.hand_grabbing_wrist_short_short_600ms.mp4	459.67978447533824	460.2881105728083	0.6083260974701261				
429.494140625	0.2	879604	350	22	3	0	0	68	202	stimuli\Videos_short_600ms_horvertflip\3.single_push_with_finger_short_horvertflip_short_600ms.mp4	3.single_push_with_finger_short_horvertflip_short_600ms.mp4	460.4797722762705	461.0880731545185	0.6083008782479737				
430.2939453125	0.2	881242	351	22	3	0	0	69	346	stimuli\Videos_short_600ms_vertflip\79.long_with_soft_brush_all_over_the_hand_short_vertflip_short_600ms.mp4	79.long_with_soft_brush_all_over_the_hand_short_vertflip_short_600ms.mp4	461.28021959492617	461.8880659406459	0.6078463457197358				
431.09423828125	0.2	882881	352	22	3	0	0	70	250	stimuli\Videos_short_600ms_horvertflip\73.single_stroke_with_flat_hand_short_horvertflip_short_600ms.mp4	73.single_stroke_with_flat_hand_short_horvertflip_short_600ms.mp4	462.07975286333385	462.6880701634	0.6083173000661191				
431.89404296875	0.2	884519	353	22	3	0	0	71	3	stimuli\Videos_short_600ms\12.repeated_touch_with_nail_file_short_short_600ms.mp4	12.repeated_touch_with_nail_file_short_short_600ms.mp4	462.87973098712246	463.4880650022569	0.6083340151344601				
432.6943359375	0.2	886158	354	22	3	0	0	72	278	stimuli\Videos_short_600ms_vertflip\17.repeated_touch_with_rolling_pin_short_vertflip_short_600ms.mp4	17.repeated_touch_with_rolling_pin_short_vertflip_short_600ms.mp4	463.6797158555892	464.28802025279583	0.6083043972066662				
433.494140625	0.2	887796	355	22	3	0	0	73	243	stimuli\Videos_short_600ms_horvertflip\67.single_touch_with_sponge_short_horvertflip_short_600ms.mp4	67.single_touch_with_sponge_short_horvertflip_short_600ms.mp4	464.4797045362648	465.0880318067211	0.6083272704563569				
434.2939453125	0.2	889434	356	22	3	0	0	74	158	stimuli\Videos_short_600ms_horflip\71.single_stroke_with_finger_top_to_bottom_short_horflip_short_600ms.mp4	71.single_stroke_with_finger_top_to_bottom_short_horflip_short_600ms.mp4	465.2796914574574	465.88801784817406	0.6083263907166838				
435.09423828125	0.2	891073	357	22	3	0	0	75	72	stimuli\Videos_short_600ms\75.(long)stroke_with_fingers_all_over_the_hand_short_short_600ms.mp4	75.(long)stroke_with_fingers_all_over_the_hand_short_short_600ms.mp4	466.0796769124172	466.68801004780835	0.608333135391149				
435.89404296875	0.2	892711	358	22	3	0	0	76	99	stimuli\Videos_short_600ms_horflip\18.single_stroke_from_top_to_bottom_with_rolling_pin_short_horflip_short_600ms.mp4	18.single_stroke_from_top_to_bottom_with_rolling_pin_short_horflip_short_600ms.mp4	466.8796617808802	467.48799110406617	0.6083293231858988				
436.69384765625	0.2	894349	359	22	3	0	0	77	38	stimuli\Videos_short_600ms\44.pushing_top_to_bottom_with_finger_short_short_600ms.mp4	44.pushing_top_to_bottom_with_finger_short_short_600ms.mp4	467.6796498750627	468.2879753860361	0.6083255109733727				
437.494140625	0.2	895988	360	22	3	0	0	78	124	stimuli\Videos_short_600ms_horflip\40.repeated_push_with_finger_short_horflip_short_600ms.mp4	40.repeated_push_with_finger_short_horflip_short_600ms.mp4	468.4796370895019	469.0879661194376	0.6083290299357031				
438.2939453125	0.2	897626	361	22	3	0	0	79	123	stimuli\Videos_short_600ms_horflip\4.repeated_tap_with_finger_slow_short_horflip_short_600ms.mp4	4.repeated_tap_with_finger_slow_short_horflip_short_600ms.mp4	469.27963779329366	469.88795010816466	0.6083123148710001				
439.09375	0.2	899264	362	22	3	0	0	80	144	stimuli\Videos_short_600ms_horflip\59.single_push_with_long_side_pencil_short_horflip_short_600ms.mp4	59.single_push_with_long_side_pencil_short_horflip_short_600ms.mp4	470.079610345394	470.68793644286416	0.6083260974701261				
439.89404296875	0.2	900903	363	22	3	0	0	81	128	stimuli\Videos_short_600ms_horflip\44.pushing_top_to_bottom_with_finger_short_horflip_short_600ms.mp4	44.pushing_top_to_bottom_with_finger_short_horflip_short_600ms.mp4	470.879598732823	471.48792131133087	0.6083225785077957				
440.69384765625	0.2	902541	364	22	3	0	0	82	74	stimuli\Videos_short_600ms\77.tapping_with_all_fingers_short_short_600ms.mp4	77.tapping_with_all_fingers_short_short_600ms.mp4	471.67958946622457	472.2879102852494	0.6083208190248115				
441.49365234375	0.2	904179	365	22	3	0	0	83	66	stimuli\Videos_short_600ms\7.repeated_touch_with_hairbrush_short_short_600ms.mp4	7.repeated_touch_with_hairbrush_short_short_600ms.mp4	472.4795699359856	473.0878966199489	0.6083266839632415				
442.2939453125	0.2	905818	366	22	3	0	1	84	376	stimuli\Targets_short_600ms_horvertflip\hand-pinch_short_vertflip_short_600ms.mp4	hand-pinch_short_vertflip_short_600ms.mp4	473.2795785574417	473.8878838343881	0.6083052769463393				
443.09375	0.2	907456	367	22	3	0	0	85	13	stimuli\Videos_short_600ms\21.repeated_touch_with_metal_chopstick_short_short_600ms.mp4	21.repeated_touch_with_metal_chopstick_short_short_600ms.mp4	474.07954495136073	474.68787016908755	0.608325217726815				
443.8935546875	0.2	909094	368	22	3	0	0	86	273	stimuli\Videos_short_600ms_vertflip\12.repeated_touch_with_nail_file_short_vertflip_short_600ms.mp4	12.repeated_touch_with_nail_file_short_vertflip_short_600ms.mp4	474.87953627125535	475.48786031599593	0.6083240447405842				
444.69384765625	0.2	910733	369	22	3	0	0	87	137	stimuli\Videos_short_600ms_horflip\52.touch_top_to_bottom_with_hammer_short_horflip_short_600ms.mp4	52.touch_top_to_bottom_with_hammer_short_horflip_short_600ms.mp4	475.6795182072528	476.2878396127744	0.6083214055215649				
445.49365234375	0.2	912371	370	22	3	0	0	88	78	stimuli\Videos_short_600ms\80.stroke_with_sharp_stick_all_over_the_hand_short_short_600ms.mp4	80.stroke_with_sharp_stick_all_over_the_hand_short_short_600ms.mp4	476.4795118731235	477.0878379705901	0.6083260974664881				
446.29345703125	0.2	914009	371	22	3	0	0	89	205	stimuli\Videos_short_600ms_horvertflip\32.single_(long)pinch_with_fingers_short_horvertflip_short_600ms.mp4	32.single_(long)pinch_with_fingers_short_horvertflip_short_600ms.mp4	477.2794902901587	477.8877976198346	0.6083073296758812				
447.09375	0.2	915648	372	22	3	0	0	90	248	stimuli\Videos_short_600ms_horvertflip\71.single_stroke_with_finger_top_to_bottom_short_horvertflip_short_600ms.mp4	71.single_stroke_with_finger_top_to_bottom_short_horvertflip_short_600ms.mp4	478.07947633161166	478.6878006695988	0.6083243379871419				
447.8935546875	0.2	917286	373	22	3	0	0	91	125	stimuli\Videos_short_600ms_horflip\41.injection_with_blunt_syringe_short_horflip_short_600ms.mp4	41.injection_with_blunt_syringe_short_horflip_short_600ms.mp4	478.8794626663112	479.487787884038	0.608325217726815				
