onset	duration	onsetsample	eventnumber	subjectnr	sequencenumber	blocksequencenumber	istarget	presentationnumber	stimnumber	stim	stimname	time_stimon	time_stimoff	stimdur	cresp	resp	rt	correct
24.2998046875	0.2	49766	0	54	0	0	0	0	308	stimuli\Videos_short_600ms_vertflip\44.pushing_top_to_bottom_with_finger_short_vertflip_short_600ms.mp4	44.pushing_top_to_bottom_with_finger_short_vertflip_short_600ms.mp4	67.43837363461034	68.0467208213704	0.6083471867600565				
25.099609375	0.2	51404	1	54	0	0	0	1	166	stimuli\Videos_short_600ms_horflip\79.long_with_soft_brush_all_over_the_hand_short_horflip_short_600ms.mp4	79.long_with_soft_brush_all_over_the_hand_short_horflip_short_600ms.mp4	68.23838518850016	68.84670656961816	0.608321381118003				
25.8994140625	0.2	53042	2	54	0	0	0	2	39	stimuli\Videos_short_600ms\45.scratching_with_finger_nails_short_short_600ms.mp4	45.scratching_with_finger_nails_short_short_600ms.mp4	69.03835040953254	69.64669202461982	0.6083416150872836				
26.69970703125	0.2	54681	3	54	0	0	0	3	74	stimuli\Videos_short_600ms\77.tapping_with_all_fingers_short_short_600ms.mp4	77.tapping_with_all_fingers_short_short_600ms.mp4	69.83834143620743	70.44668011883505	0.6083386826276183				
27.49951171875	0.2	56319	4	54	0	0	0	4	158	stimuli\Videos_short_600ms_horflip\71.single_stroke_with_finger_top_to_bottom_short_horflip_short_600ms.mp4	71.single_stroke_with_finger_top_to_bottom_short_horflip_short_600ms.mp4	70.63829844635393	71.2466632278697	0.6083647815157747				
28.29931640625	0.2	57957	5	54	0	0	0	5	6	stimuli\Videos_short_600ms\15.single_stroke_top_to_bottom_with_a_plastic_whisk_short_short_600ms.mp4	15.single_stroke_top_to_bottom_with_a_plastic_whisk_short_short_600ms.mp4	71.43830970699764	72.04665014910097	0.6083404421033265				
29.099609375	0.2	59596	6	54	0	0	0	6	7	stimuli\Videos_short_600ms\16.repeated_touch_with_plastic_brush_short_short_600ms.mp4	16.repeated_touch_with_plastic_brush_short_short_600ms.mp4	72.23828255242461	72.84660862547707	0.6083260730524671				
29.8994140625	0.2	61234	7	54	0	0	0	7	275	stimuli\Videos_short_600ms_vertflip\14.repeated_touch_with_pencil_short_vertflip_short_600ms.mp4	14.repeated_touch_with_pencil_short_vertflip_short_600ms.mp4	73.03829527929793	73.64663014972848	0.6083348704305536				
30.69921875	0.2	62872	8	54	0	0	0	8	246	stimuli\Videos_short_600ms_horvertflip\7.repeated_touch_with_hairbrush_short_horvertflip_short_600ms.mp4	7.repeated_touch_with_hairbrush_short_horvertflip_short_600ms.mp4	73.8382953965961	74.4465804152187	0.6082850186226096				
31.49951171875	0.2	64511	9	54	0	0	1	9	367	stimuli\Targets_short_600ms_horflip\chopstick-silver-tap_short_horflip_short_600ms.mp4	chopstick-silver-tap_short_horflip_short_600ms.mp4	74.6382776258929	75.24656616346647	0.6082885375735714				
32.29931640625	0.2	66149	10	54	0	0	0	10	151	stimuli\Videos_short_600ms_horflip\65.stroke_top_to_bottom_with_stanley_knife_short_horflip_short_600ms.mp4	65.stroke_top_to_bottom_with_stanley_knife_short_horflip_short_600ms.mp4	75.43825399027082	76.04655249820598	0.6082985079351602				
33.099609375	0.2	67788	11	54	0	0	0	11	198	stimuli\Videos_short_600ms_horvertflip\26.single_touch_with_a_blunt_syringe_short_horvertflip_short_600ms.mp4	26.single_touch_with_a_blunt_syringe_short_horvertflip_short_600ms.mp4	76.23823973851859	76.84654381812652	0.6083040796079331				
33.8994140625	0.2	69426	12	54	0	0	0	12	328	stimuli\Videos_short_600ms_vertflip\62.touch_top_to_bottom_with_scissors_short_vertflip_short_600ms.mp4	62.touch_top_to_bottom_with_scissors_short_vertflip_short_600ms.mp4	77.03822138132318	77.64652985962039	0.6083084782972037				
34.69921875	0.2	71064	13	54	0	0	0	13	145	stimuli\Videos_short_600ms_horflip\6.single_touch_with_flat_hand_short_horflip_short_600ms.mp4	6.single_touch_with_flat_hand_short_horflip_short_600ms.mp4	77.83821094176801	78.446540827018	0.6083298852499865				
35.49951171875	0.2	72703	14	54	0	0	1	14	371	stimuli\Targets_short_600ms_horflip\hand-stroke_short_horflip_short_600ms.mp4	hand-stroke_short_horflip_short_600ms.mp4	78.63819375755656	79.24651865762598	0.6083249000694195				
36.29931640625	0.2	74341	15	54	0	0	0	15	189	stimuli\Videos_short_600ms_horvertflip\18.single_stroke_from_top_to_bottom_with_rolling_pin_short_horvertflip_short_600ms.mp4	18.single_stroke_from_top_to_bottom_with_rolling_pin_short_horvertflip_short_600ms.mp4	79.43818038554218	80.04651261675963	0.608332231217446				
37.09912109375	0.2	75979	16	54	0	0	0	16	238	stimuli\Videos_short_600ms_horvertflip\62.touch_top_to_bottom_with_scissors_short_horvertflip_short_600ms.mp4	62.touch_top_to_bottom_with_scissors_short_horvertflip_short_600ms.mp4	80.2381673067739	80.8464872216623	0.6083199148883978				
37.8994140625	0.2	77618	17	54	0	0	0	17	89	stimuli\Videos_short_600ms\90.repeated_touch_with_sponge_short_short_600ms.mp4	90.repeated_touch_with_sponge_short_short_600ms.mp4	81.03815305502167	81.64647296991006	0.6083199148883978				
38.69921875	0.2	79256	18	54	0	0	0	18	23	stimuli\Videos_short_600ms\30.finger_pulling_back_another_finger_short_short_600ms.mp4	30.finger_pulling_back_another_finger_short_short_600ms.mp4	81.83813851002333	82.44645989114133	0.608321381118003				
39.4990234375	0.2	80894	19	54	0	0	0	19	231	stimuli\Videos_short_600ms_horvertflip\56.repeated_touch_with_nail_file_short_horvertflip_short_600ms.mp4	56.repeated_touch_with_nail_file_short_horvertflip_short_600ms.mp4	82.6381263109929	83.24644769211045	0.6083213811175483				
40.29931640625	0.2	82533	20	54	0	0	0	20	208	stimuli\Videos_short_600ms_horvertflip\35.single_punch_with_hand_short_horvertflip_short_600ms.mp4	35.single_punch_with_hand_short_horvertflip_short_600ms.mp4	83.43811088625671	84.04643285386646	0.6083219676097542				
41.09912109375	0.2	84171	21	54	0	0	0	21	28	stimuli\Videos_short_600ms\35.single_punch_with_hand_short_short_600ms.mp4	35.single_punch_with_hand_short_short_600ms.mp4	84.23807082886287	84.84641889536033	0.6083480664974559				
41.89892578125	0.2	85809	22	54	0	0	0	22	34	stimuli\Videos_short_600ms\40.repeated_push_with_finger_short_short_600ms.mp4	40.repeated_push_with_finger_short_short_600ms.mp4	85.038036636387	85.64640288413239	0.60836624774538				
42.69921875	0.2	87448	23	54	0	0	0	23	207	stimuli\Videos_short_600ms_horvertflip\34.repeated_punch_with_hand_short_horvertflip_short_600ms.mp4	34.repeated_punch_with_hand_short_horvertflip_short_600ms.mp4	85.83806725126215	86.4463898053641	0.6083225541019601				
43.4990234375	0.2	89086	24	54	0	0	0	24	242	stimuli\Videos_short_600ms_horvertflip\66.stroke_top_to_bottom_with_sponge_short_horvertflip_short_600ms.mp4	66.stroke_top_to_bottom_with_sponge_short_horvertflip_short_600ms.mp4	86.63803129931148	87.24637467387402	0.6083433745625371				
44.298828125	0.2	90724	25	54	0	0	0	25	170	stimuli\Videos_short_600ms_horflip\82.repeated_touch_with_cotton_bud_short_horflip_short_600ms.mp4	82.repeated_touch_with_cotton_bud_short_horflip_short_600ms.mp4	87.43801851378885	88.04633813543114	0.6083196216422948				
45.09912109375	0.2	92363	26	54	0	0	0	26	294	stimuli\Videos_short_600ms_vertflip\31.hand_grabbing_wrist_short_vertflip_short_600ms.mp4	31.hand_grabbing_wrist_short_vertflip_short_600ms.mp4	88.23803036092431	88.84635614073113	0.6083257798068189				
45.89892578125	0.2	94001	27	54	0	0	0	27	69	stimuli\Videos_short_600ms\72.(short)stroke_with_finger_all_over_the_hand_short_short_600ms.mp4	72.(short)stroke_with_finger_all_over_the_hand_short_short_600ms.mp4	89.03801434969637	89.6463058197296	0.6082914700332367				
46.69873046875	0.2	95639	28	54	0	0	0	28	113	stimuli\Videos_short_600ms_horflip\30.finger_pulling_back_another_finger_short_horflip_short_600ms.mp4	30.finger_pulling_back_another_finger_short_horflip_short_600ms.mp4	89.83799687223882	90.44629479368268	0.6082979214438637				
47.4990234375	0.2	97278	29	54	0	0	0	29	71	stimuli\Videos_short_600ms\74.fingers_walking_from_top_to_bottom_short_short_600ms.mp4	74.fingers_walking_from_top_to_bottom_short_short_600ms.mp4	90.63798056776524	91.24627614324118	0.6082955754759496				
48.298828125	0.2	98916	30	54	0	0	0	30	66	stimuli\Videos_short_600ms\7.repeated_touch_with_hairbrush_short_short_600ms.mp4	7.repeated_touch_with_hairbrush_short_short_600ms.mp4	91.43796338355378	92.0462733280806	0.608309944526809				
49.0986328125	0.2	100554	31	54	0	0	0	31	64	stimuli\Videos_short_600ms\68.stroke_top_to_bottom_with_shawl_short_short_600ms.mp4	68.stroke_top_to_bottom_with_shawl_short_short_600ms.mp4	92.2379503047855	92.84625409114732	0.6083037863618301				
49.89892578125	0.2	102193	32	54	0	0	0	32	233	stimuli\Videos_short_600ms_horvertflip\58.single_slap_with_pencil_short_horvertflip_short_600ms.mp4	58.single_slap_with_pencil_short_horvertflip_short_600ms.mp4	93.03793986523031	93.64626535179104	0.608325486560716				
50.69873046875	0.2	103831	33	54	0	0	1	33	366	stimuli\Targets_short_600ms_horflip\brush-stroke_short_horflip_short_600ms.mp4	brush-stroke_short_horflip_short_600ms.mp4	93.83792209452668	94.44624200941507	0.6083199148883978				
51.49853515625	0.2	105469	34	54	0	0	0	34	260	stimuli\Videos_short_600ms_horvertflip\82.repeated_touch_with_cotton_bud_short_horvertflip_short_600ms.mp4	82.repeated_touch_with_cotton_bud_short_horvertflip_short_600ms.mp4	94.6379087225123	95.24623069012203	0.6083219676097542				
52.298828125	0.2	107108	35	54	0	0	0	35	156	stimuli\Videos_short_600ms_horflip\7.repeated_touch_with_hairbrush_short_horflip_short_600ms.mp4	7.repeated_touch_with_hairbrush_short_horflip_short_600ms.mp4	95.4378924180387	96.04621761135375	0.6083251933150677				
53.0986328125	0.2	108746	36	54	0	0	0	36	201	stimuli\Videos_short_600ms_horvertflip\29.single_pinch_with_tweezers_short_horvertflip_short_600ms.mp4	29.single_pinch_with_tweezers_short_horvertflip_short_600ms.mp4	96.23787757979473	96.84619925415836	0.6083216743636513				
53.89892578125	0.2	110385	37	54	0	0	1	37	364	stimuli\Targets_short_600ms\hand-pinch_short_short_600ms.mp4	hand-pinch_short_short_600ms.mp4	97.03786655374734	97.64618529565224	0.6083187419048954				
54.69873046875	0.2	112023	38	54	0	0	0	38	302	stimuli\Videos_short_600ms_vertflip\39.single_stab_with_scissors_short_vertflip_short_600ms.mp4	39.single_stab_with_scissors_short_vertflip_short_600ms.mp4	97.83784643707668	98.44617133714564	0.6083249000689648				
55.49853515625	0.2	113661	39	54	0	0	0	39	330	stimuli\Videos_short_600ms_vertflip\64.repeated_touch_with_screwdriver_short_vertflip_short_600ms.mp4	64.repeated_touch_with_screwdriver_short_vertflip_short_600ms.mp4	98.63783717050546	99.24615855162348	0.608321381118003				
56.298828125	0.2	115300	40	54	0	0	0	40	281	stimuli\Videos_short_600ms_vertflip\2.single_touch_with_finger_short_vertflip_short_600ms.mp4	2.single_touch_with_finger_short_vertflip_short_600ms.mp4	99.4378167605887	100.04614224714942	0.608325486560716				
57.0986328125	0.2	116938	41	54	0	0	0	41	200	stimuli\Videos_short_600ms_horvertflip\28.single_injection_with_sharp_needle_short_horvertflip_short_600ms.mp4	28.single_injection_with_sharp_needle_short_horvertflip_short_600ms.mp4	100.2377837410968	100.8461285818894	0.6083448407925971				
57.8984375	0.2	118576	42	54	0	0	0	42	307	stimuli\Videos_short_600ms_vertflip\43.touch_top_to_bottom_with_sharp_wooden_stick_short_vertflip_short_600ms.mp4	43.touch_top_to_bottom_with_sharp_wooden_stick_short_vertflip_short_600ms.mp4	101.03777359478772	101.6461160896124	0.6083424948246829				
58.69873046875	0.2	120215	43	54	0	0	0	43	141	stimuli\Videos_short_600ms_horflip\56.repeated_touch_with_nail_file_short_horflip_short_600ms.mp4	56.repeated_touch_with_nail_file_short_horflip_short_600ms.mp4	101.83775729031368	102.44609919864706	0.6083419083333865				
59.49853515625	0.2	121853	44	54	0	0	0	44	293	stimuli\Videos_short_600ms_vertflip\30.finger_pulling_back_another_finger_short_vertflip_short_600ms.mp4	30.finger_pulling_back_another_finger_short_vertflip_short_600ms.mp4	102.63775154269342	103.24609257128895	0.6083410285955324				
60.29833984375	0.2	123491	45	54	0	0	0	45	211	stimuli\Videos_short_600ms_horvertflip\38.double_slap_with_pencil_short_horvertflip_short_600ms.mp4	38.double_slap_with_pencil_short_horvertflip_short_600ms.mp4	103.43775605868086	104.04606922891298	0.6083131702321225				
61.0986328125	0.2	125130	46	54	0	0	1	46	370	stimuli\Targets_short_600ms_horflip\hand-pinch_short_horflip_short_600ms.mp4	hand-pinch_short_horflip_short_600ms.mp4	104.2377459123718	104.84605057847148	0.6083046660996843				
61.8984375	0.2	126768	47	54	0	0	0	47	131	stimuli\Videos_short_600ms_horflip\47.(long)scratching_with_finger_nails_short_horflip_short_600ms.mp4	47.(long)scratching_with_finger_nails_short_horflip_short_600ms.mp4	105.03772169025795	105.64602928881732	0.6083075985593496				
62.6982421875	0.2	128406	48	54	0	0	0	48	355	stimuli\Videos_short_600ms_vertflip\87.single_stroke_top_to_bottom_with_plastic_brush_short_vertflip_short_600ms.mp4	87.single_stroke_top_to_bottom_with_plastic_brush_short_vertflip_short_600ms.mp4	105.83771623588382	106.44602471418057	0.608308478296749				
63.49853515625	0.2	130045	49	54	0	0	0	49	159	stimuli\Videos_short_600ms_horflip\72.(short)stroke_with_finger_all_over_the_hand_short_horflip_short_600ms.mp4	72.(short)stroke_with_finger_all_over_the_hand_short_horflip_short_600ms.mp4	106.637694359737	107.24601339488754	0.6083190351505436				
64.29833984375	0.2	131683	50	54	0	0	0	50	347	stimuli\Videos_short_600ms_vertflip\8.single_touch_with_hairbrush_short_vertflip_short_600ms.mp4	8.single_touch_with_hairbrush_short_vertflip_short_600ms.mp4	107.43767893500126	108.04600764726727	0.6083287122660295				
65.09814453125	0.2	133321	51	54	0	0	0	51	291	stimuli\Videos_short_600ms_vertflip\29.single_pinch_with_tweezers_short_vertflip_short_600ms.mp4	29.single_pinch_with_tweezers_short_vertflip_short_600ms.mp4	108.23766263052768	108.8459960347286	0.6083334042009483				
65.8984375	0.2	134960	52	54	0	0	0	52	47	stimuli\Videos_short_600ms\52.touch_top_to_bottom_with_hammer_short_short_600ms.mp4	52.touch_top_to_bottom_with_hammer_short_short_600ms.mp4	109.03764749903758	109.64598354245209	0.6083360434145106				
66.6982421875	0.2	136598	53	54	0	0	0	53	59	stimuli\Videos_short_600ms\63.stroke_top_to_bottom_with_screwdriver_short_short_600ms.mp4	63.stroke_top_to_bottom_with_screwdriver_short_short_600ms.mp4	109.83763500676103	110.44595726761644	0.6083222608554024				
67.498046875	0.2	138236	54	54	0	0	0	54	45	stimuli\Videos_short_600ms\50.single_(long)hard_push_with_thumb_short_short_600ms.mp4	50.single_(long)hard_push_with_thumb_short_short_600ms.mp4	110.63762368746802	111.2459421361268	0.6083184486587925				
68.29833984375	0.2	139875	55	54	0	0	0	55	195	stimuli\Videos_short_600ms_horvertflip\23.single_push_with_a_spoon_short_horvertflip_short_600ms.mp4	23.single_push_with_a_spoon_short_horvertflip_short_600ms.mp4	111.43766691191831	112.04592905735808	0.6082621454397668				
69.09814453125	0.2	141513	56	54	0	0	1	56	378	stimuli\Targets_short_600ms_vertflip\brush-stroke_short_horvertflip_short_600ms.mp4	brush-stroke_short_horvertflip_short_600ms.mp4	112.23759225150434	112.84591363262234	0.608321381118003				
69.89794921875	0.2	143151	57	54	0	0	0	57	356	stimuli\Videos_short_600ms_vertflip\88.repeated_stroke_with_plastic_brush_short_vertflip_short_600ms.mp4	88.repeated_stroke_with_plastic_brush_short_vertflip_short_600ms.mp4	113.037577706506	113.6458987943779	0.6083210878719001				
70.6982421875	0.2	144790	58	54	0	0	0	58	304	stimuli\Videos_short_600ms_vertflip\40.repeated_push_with_finger_short_vertflip_short_600ms.mp4	40.repeated_push_with_finger_short_vertflip_short_600ms.mp4	113.83756198852416	114.44588542236352	0.6083234338393595				
71.498046875	0.2	146428	59	54	0	0	0	59	108	stimuli\Videos_short_600ms_horflip\26.single_touch_with_a_blunt_syringe_short_horflip_short_600ms.mp4	26.single_touch_with_a_blunt_syringe_short_horflip_short_600ms.mp4	114.6378313055866	115.24587146385738	0.6080401582707964				
72.29833984375	0.2	148067	60	54	0	0	1	60	365	stimuli\Targets_short_600ms\hand-stroke_short_short_600ms.mp4	hand-stroke_short_short_600ms.mp4	115.43751823623144	116.04585750535124	0.6083392691198242				
73.09814453125	0.2	149705	61	54	0	0	0	61	229	stimuli\Videos_short_600ms_horvertflip\54.repeated_touch_with_knife_short_horvertflip_short_600ms.mp4	54.repeated_touch_with_knife_short_horvertflip_short_600ms.mp4	116.23749723982291	116.84584413333688	0.6083468935139535				
73.89794921875	0.2	151343	62	54	0	0	0	62	110	stimuli\Videos_short_600ms_horflip\28.single_injection_with_sharp_needle_short_horflip_short_600ms.mp4	28.single_injection_with_sharp_needle_short_horflip_short_600ms.mp4	117.03748416105418	117.64583105456812	0.6083468935139535				
74.6982421875	0.2	152982	63	54	0	0	0	63	219	stimuli\Videos_short_600ms_horvertflip\45.scratching_with_finger_nails_short_horvertflip_short_600ms.mp4	45.scratching_with_finger_nails_short_horvertflip_short_600ms.mp4	117.83746697684272	118.4458150433402	0.6083480664974559				
75.498046875	0.2	154620	64	54	0	0	0	64	296	stimuli\Videos_short_600ms_vertflip\33.scratch_top_to_bottom_with_scissors_short_vertflip_short_600ms.mp4	33.scratch_top_to_bottom_with_scissors_short_vertflip_short_600ms.mp4	118.6374656279113	119.24576706830612	0.6083014403948255				
76.2978515625	0.2	156258	65	54	0	0	0	65	10	stimuli\Videos_short_600ms\19.single_touch_with_rolling_pin_short_short_600ms.mp4	19.single_touch_with_rolling_pin_short_short_600ms.mp4	119.43747571557152	120.0457677720965	0.6082920565249879				
77.09814453125	0.2	157897	66	54	0	0	0	66	266	stimuli\Videos_short_600ms_horvertflip\88.repeated_stroke_with_plastic_brush_short_horvertflip_short_600ms.mp4	88.repeated_stroke_with_plastic_brush_short_horvertflip_short_600ms.mp4	120.2374661557542	120.84574765542538	0.6082814996711932				
77.89794921875	0.2	159535	67	54	0	0	0	67	182	stimuli\Videos_short_600ms_horvertflip\11.single_touch_with_lighter_short_horvertflip_short_600ms.mp4	11.single_touch_with_lighter_short_horvertflip_short_600ms.mp4	121.0374363619676	121.64574894570752	0.6083125837399166				
78.69775390625	0.2	161173	68	54	0	0	0	68	122	stimuli\Videos_short_600ms_horflip\39.single_stab_with_scissors_short_horflip_short_600ms.mp4	39.single_stab_with_scissors_short_horflip_short_600ms.mp4	121.83742093723184	122.44572237762624	0.6083014403943707				
79.498046875	0.2	162812	69	54	0	0	0	69	4	stimuli\Videos_short_600ms\13.single_touch_with_pen_short_short_600ms.mp4	13.single_touch_with_pen_short_short_600ms.mp4	122.63740521925	123.24573715722136	0.608331937971343				
80.2978515625	0.2	164450	70	54	0	0	0	70	65	stimuli\Videos_short_600ms\69.stroke_with_soft_sock_short_short_600ms.mp4	69.stroke_with_soft_sock_short_short_600ms.mp4	123.43739184723565	124.04571234861578	0.6083205013801489				
81.09765625	0.2	166088	71	54	0	0	0	71	81	stimuli\Videos_short_600ms\83.single_stroke_top_to_bottom_with_cotton_bud_short_short_600ms.mp4	83.single_stroke_top_to_bottom_with_cotton_bud_short_short_600ms.mp4	124.23740134840364	124.84571011994647	0.6083087715428519				
81.89794921875	0.2	167727	72	54	0	0	1	72	383	stimuli\Targets_short_600ms_vertflip\hand-stroke_short_horvertflip_short_600ms.mp4	hand-stroke_short_horvertflip_short_600ms.mp4	125.0373463354672	125.64568765730836	0.6083413218411806				
82.69775390625	0.2	169365	73	54	0	0	0	73	212	stimuli\Videos_short_600ms_horvertflip\39.single_stab_with_scissors_short_horvertflip_short_600ms.mp4	39.single_stab_with_scissors_short_horvertflip_short_600ms.mp4	125.83734821224108	126.44568308267162	0.6083348704305536				
83.49755859375	0.2	171003	74	54	0	0	0	74	247	stimuli\Videos_short_600ms_horvertflip\70.(long)stroke_with_finger_all_over_the_hand_short_horvertflip_short_600ms.mp4	70.(long)stroke_with_finger_all_over_the_hand_short_horvertflip_short_600ms.mp4	126.63733396048885	127.24565680783644	0.6083228473476083				
84.2978515625	0.2	172642	75	54	0	0	0	75	32	stimuli\Videos_short_600ms\39.single_stab_with_scissors_short_short_600ms.mp4	39.single_stab_with_scissors_short_short_600ms.mp4	127.43732029522836	128.04564607503517	0.6083257798068189				
85.09765625	0.2	174280	76	54	0	0	0	76	193	stimuli\Videos_short_600ms_horvertflip\21.repeated_touch_with_metal_chopstick_short_horvertflip_short_600ms.mp4	21.repeated_touch_with_metal_chopstick_short_horvertflip_short_600ms.mp4	128.2373048704926	128.84563211652903	0.6083272460364242				
85.8974609375	0.2	175918	77	54	0	0	0	77	119	stimuli\Videos_short_600ms_horflip\36.single_slap_with_full_hand_short_horflip_short_600ms.mp4	36.single_slap_with_full_hand_short_horflip_short_600ms.mp4	129.03728739303506	129.64561375933363	0.6083263662985701				
86.69775390625	0.2	177557	78	54	0	0	0	78	174	stimuli\Videos_short_600ms_horflip\86.touch_top_to_bottom_with_hair_brush_short_horflip_short_600ms.mp4	86.touch_top_to_bottom_with_hair_brush_short_horflip_short_600ms.mp4	129.83727578049593	130.4455995075814	0.6083237270854625				
87.49755859375	0.2	179195	79	54	0	0	0	79	0	stimuli\Videos_short_600ms\1.repeated_touch_with_finger_fast_short_short_600ms.mp4	1.repeated_touch_with_finger_fast_short_short_600ms.mp4	130.63721988782163	131.24558906802622	0.6083691802045905				
88.29736328125	0.2	180833	80	54	0	0	0	80	309	stimuli\Videos_short_600ms_vertflip\45.scratching_with_finger_nails_short_vertflip_short_600ms.mp4	45.scratching_with_finger_nails_short_vertflip_short_600ms.mp4	131.4372320282032	132.0455534093212	0.608321381118003				
89.09765625	0.2	182472	81	54	0	0	0	81	146	stimuli\Videos_short_600ms_horflip\60.single_push_with_tip_of_pencil_short_horflip_short_600ms.mp4	60.single_push_with_tip_of_pencil_short_horflip_short_600ms.mp4	132.2372160169757	132.84555792530864	0.6083419083329318				
89.8974609375	0.2	184110	82	54	0	0	0	82	322	stimuli\Videos_short_600ms_vertflip\57.single_touch_with_nail_file_short_vertflip_short_600ms.mp4	57.single_touch_with_nail_file_short_vertflip_short_600ms.mp4	133.03720675040404	133.64552402607887	0.6083172756748354				
90.697265625	0.2	185748	83	54	0	0	0	83	22	stimuli\Videos_short_600ms\3.single_push_with_finger_short_short_600ms.mp4	3.single_push_with_finger_short_short_600ms.mp4	133.83719631084887	134.4455256096071	0.6083292987582354				
91.49755859375	0.2	187387	84	54	0	0	0	84	236	stimuli\Videos_short_600ms_horvertflip\60.single_push_with_tip_of_pencil_short_horvertflip_short_600ms.mp4	60.single_push_with_tip_of_pencil_short_horvertflip_short_600ms.mp4	134.637202586312	135.2454697169328	0.6082671306207885				
92.29736328125	0.2	189025	85	54	0	0	0	85	292	stimuli\Videos_short_600ms_vertflip\3.single_push_with_finger_short_vertflip_short_600ms.mp4	3.single_push_with_finger_short_vertflip_short_600ms.mp4	135.43718598859232	136.04545605167232	0.6082700630799991				
93.09765625	0.2	190664	86	54	0	0	0	86	298	stimuli\Videos_short_600ms_vertflip\35.single_punch_with_hand_short_vertflip_short_600ms.mp4	35.single_punch_with_hand_short_vertflip_short_600ms.mp4	136.23716528542946	136.84544150667443	0.6082762212449779				
93.8974609375	0.2	192302	87	54	0	0	0	87	126	stimuli\Videos_short_600ms_horflip\42.single_slap_with_plastic_whisk_short_horflip_short_600ms.mp4	42.single_slap_with_plastic_whisk_short_horflip_short_600ms.mp4	137.03715396613688	137.64545276731815	0.6082988011812631				
94.697265625	0.2	193940	88	54	0	0	0	88	305	stimuli\Videos_short_600ms_vertflip\41.injection_with_blunt_syringe_short_vertflip_short_600ms.mp4	41.injection_with_blunt_syringe_short_vertflip_short_600ms.mp4	137.8371382481546	138.44544291425473	0.608304666100139				
95.49755859375	0.2	195579	89	54	0	0	0	89	63	stimuli\Videos_short_600ms\67.single_touch_with_sponge_short_short_600ms.mp4	67.single_touch_with_sponge_short_short_600ms.mp4	138.63712458289456	139.2454318882078	0.6083073053132466				
96.29736328125	0.2	197217	90	54	0	0	0	90	165	stimuli\Videos_short_600ms_horflip\78.single_stroke_top_to_bottom_with_soft_brush_short_horflip_short_600ms.mp4	78.single_stroke_top_to_bottom_with_soft_brush_short_horflip_short_600ms.mp4	139.43711179737193	140.04543904340835	0.6083272460364242				
97.09716796875	0.2	198855	91	54	0	0	0	91	132	stimuli\Videos_short_600ms_horflip\48.single_slap_with_hand_short_horflip_short_600ms.mp4	48.single_slap_with_hand_short_horflip_short_600ms.mp4	140.23709256043867	140.84541687401588	0.6083243135772136				
97.8974609375	0.2	200494	92	54	0	0	0	92	181	stimuli\Videos_short_600ms_horvertflip\10.single_touch_with_knife_short_horvertflip_short_600ms.mp4	10.single_touch_with_knife_short_horvertflip_short_600ms.mp4	141.03707801544078	141.64541024665823	0.608332231217446				
98.697265625	0.2	202132	93	54	0	0	0	93	90	stimuli\Videos_short_600ms_horflip\1.repeated_touch_with_finger_fast_short_horflip_short_600ms.mp4	1.repeated_touch_with_finger_fast_short_horflip_short_600ms.mp4	141.83706376368855	142.44538837051186	0.6083246068233166				
99.4970703125	0.2	203770	94	54	0	0	0	94	26	stimuli\Videos_short_600ms\33.scratch_top_to_bottom_with_scissors_short_short_600ms.mp4	33.scratch_top_to_bottom_with_scissors_short_short_600ms.mp4	142.6370333834102	143.24537177279217	0.60833838938197				
100.29736328125	0.2	205409	95	54	0	0	0	95	112	stimuli\Videos_short_600ms_horflip\3.single_push_with_finger_short_horflip_short_600ms.mp4	3.single_push_with_finger_short_horflip_short_600ms.mp4	143.4370428845782	144.0453598670074	0.6083169824291872				
101.09716796875	0.2	207047	96	54	0	0	0	96	56	stimuli\Videos_short_600ms\60.single_push_with_tip_of_pencil_short_short_600ms.mp4	60.single_push_with_tip_of_pencil_short_short_600ms.mp4	144.2370274598425	144.84528110115025	0.6082536413077833				
101.89697265625	0.2	208685	97	54	0	0	0	97	109	stimuli\Videos_short_600ms_horflip\27.single_push_with_a_plastic_whisk_short_horflip_short_600ms.mp4	27.single_push_with_a_plastic_whisk_short_horflip_short_600ms.mp4	145.0370085161553	145.64533107025682	0.6083225541015054	8.0	7.0	2.690154590457496	0.0
135.84619140625	0.2	278213	98	54	1	0	0	0	37	stimuli\Videos_short_600ms\43.touch_top_to_bottom_with_sharp_wooden_stick_short_short_600ms.mp4	43.touch_top_to_bottom_with_sharp_wooden_stick_short_short_600ms.mp4	178.98646758004952	179.59472943224364	0.6082618521941185				
136.64599609375	0.2	279851	99	54	1	0	0	1	299	stimuli\Videos_short_600ms_vertflip\36.single_slap_with_full_hand_short_vertflip_short_600ms.mp4	36.single_slap_with_full_hand_short_vertflip_short_600ms.mp4	179.7863806033065	180.3947137142618	0.6083331109553001				
137.44580078125	0.2	281489	100	54	1	0	0	2	253	stimuli\Videos_short_600ms_horvertflip\76.tickle_with_fingers_from_top_to_bottom_short_horvertflip_short_600ms.mp4	76.tickle_with_fingers_from_top_to_bottom_short_horvertflip_short_600ms.mp4	180.586373096211	181.19467629608107	0.608303199870079				
138.24609375	0.2	283128	101	54	1	0	0	3	150	stimuli\Videos_short_600ms_horflip\64.repeated_touch_with_screwdriver_short_horflip_short_600ms.mp4	64.repeated_touch_with_screwdriver_short_horflip_short_600ms.mp4	181.38636881482032	181.99464034412995	0.6082715293096044				
139.0458984375	0.2	284766	102	54	1	0	0	4	137	stimuli\Videos_short_600ms_horflip\52.touch_top_to_bottom_with_hammer_short_horflip_short_600ms.mp4	52.touch_top_to_bottom_with_hammer_short_horflip_short_600ms.mp4	182.18635954824867	182.7946260923777	0.6082665441290374				
139.845703125	0.2	286404	103	54	1	0	0	5	46	stimuli\Videos_short_600ms\51.repeated_touch_with_hammer_short_short_600ms.mp4	51.repeated_touch_with_hammer_short_short_600ms.mp4	182.98634793571	183.59463647328403	0.6082885375740261				
140.64599609375	0.2	288043	104	54	1	0	0	6	280	stimuli\Videos_short_600ms_vertflip\19.single_touch_with_rolling_pin_short_vertflip_short_600ms.mp4	19.single_touch_with_rolling_pin_short_vertflip_short_600ms.mp4	183.78632195412047	184.3946289661881	0.6083070120675984				
141.44580078125	0.2	289681	105	54	1	0	0	7	317	stimuli\Videos_short_600ms_vertflip\52.touch_top_to_bottom_with_hammer_short_vertflip_short_600ms.mp4	52.touch_top_to_bottom_with_hammer_short_vertflip_short_600ms.mp4	184.58630506315512	185.19463201594544	0.6083269527903212				
142.24560546875	0.2	291319	106	54	1	0	0	8	104	stimuli\Videos_short_600ms_horflip\22.single_touch_with_metal_chopstick_short_horflip_short_600ms.mp4	22.single_touch_with_metal_chopstick_short_horflip_short_600ms.mp4	185.3862925708786	185.99460984655343	0.6083172756748354				
143.0458984375	0.2	292958	107	54	1	0	0	9	41	stimuli\Videos_short_600ms\47.(long)scratching_with_finger_nails_short_short_600ms.mp4	47.(long)scratching_with_finger_nails_short_short_600ms.mp4	186.18626453656725	186.79461084358945	0.6083463070222024				
143.845703125	0.2	294596	108	54	1	0	0	10	175	stimuli\Videos_short_600ms_horflip\87.single_stroke_top_to_bottom_with_plastic_brush_short_horflip_short_600ms.mp4	87.single_stroke_top_to_bottom_with_plastic_brush_short_horflip_short_600ms.mp4	186.98626670658723	187.59458779445913	0.6083210878719001				
144.64599609375	0.2	296235	109	54	1	0	0	11	290	stimuli\Videos_short_600ms_vertflip\28.single_injection_with_sharp_needle_short_vertflip_short_600ms.mp4	28.single_injection_with_sharp_needle_short_vertflip_short_600ms.mp4	187.78625040211364	188.3945714899855	0.6083210878719001				
145.44580078125	0.2	297873	110	54	1	0	0	12	190	stimuli\Videos_short_600ms_horvertflip\19.single_touch_with_rolling_pin_short_horvertflip_short_600ms.mp4	19.single_touch_with_rolling_pin_short_horvertflip_short_600ms.mp4	188.5862358571153	189.1945572382333	0.608321381118003				
146.24560546875	0.2	299511	111	54	1	0	0	13	11	stimuli\Videos_short_600ms\2.single_touch_with_finger_short_short_600ms.mp4	2.single_touch_with_finger_short_short_600ms.mp4	189.38622307159267	189.99454386621892	0.6083207946262519				
147.0458984375	0.2	301150	112	54	1	0	0	14	50	stimuli\Videos_short_600ms\55.touch_top_to_bottom_with_nail_file_short_short_600ms.mp4	55.touch_top_to_bottom_with_nail_file_short_short_600ms.mp4	190.18620735361085	190.79452961446668	0.6083222608558572				
147.845703125	0.2	302788	113	54	1	0	0	15	96	stimuli\Videos_short_600ms_horflip\15.single_stroke_top_to_bottom_with_a_plastic_whisk_short_horflip_short_600ms.mp4	15.single_stroke_top_to_bottom_with_a_plastic_whisk_short_horflip_short_600ms.mp4	190.98618958290763	191.5945150694688	0.6083254865611707				
148.6455078125	0.2	304426	114	54	1	0	0	16	342	stimuli\Videos_short_600ms_vertflip\75.(long)stroke_with_fingers_all_over_the_hand_short_vertflip_short_600ms.mp4	75.(long)stroke_with_fingers_all_over_the_hand_short_vertflip_short_600ms.mp4	191.78617269194183	192.394503163684	0.6083304717421925				
149.44580078125	0.2	306065	115	54	1	0	0	17	100	stimuli\Videos_short_600ms_horflip\19.single_touch_with_rolling_pin_short_horflip_short_600ms.mp4	19.single_touch_with_rolling_pin_short_horflip_short_600ms.mp4	192.58614231166348	193.19448421999687	0.6083419083333865				
150.24560546875	0.2	307703	116	54	1	0	0	18	48	stimuli\Videos_short_600ms\53.touch_top_to_bottom_with_knife_short_short_600ms.mp4	53.touch_top_to_bottom_with_knife_short_short_600ms.mp4	193.3861694075877	193.99447319394991	0.6083037863622849				
151.04541015625	0.2	309341	117	54	1	0	0	19	276	stimuli\Videos_short_600ms_vertflip\15.single_stroke_top_to_bottom_with_a_plastic_whisk_short_vertflip_short_600ms.mp4	15.single_stroke_top_to_bottom_with_a_plastic_whisk_short_vertflip_short_600ms.mp4	194.1861410800307	194.79445806245985	0.6083169824291872				
151.845703125	0.2	310980	118	54	1	0	0	20	226	stimuli\Videos_short_600ms_horvertflip\51.repeated_touch_with_hammer_short_horvertflip_short_600ms.mp4	51.repeated_touch_with_hammer_short_horvertflip_short_600ms.mp4	194.98610659430915	195.5944417579858	0.6083351636766565				
152.6455078125	0.2	312618	119	54	1	0	0	21	337	stimuli\Videos_short_600ms_vertflip\70.(long)stroke_with_finger_all_over_the_hand_short_vertflip_short_600ms.mp4	70.(long)stroke_with_finger_all_over_the_hand_short_vertflip_short_600ms.mp4	195.7860897033438	196.39441284393703	0.6083231405932565				
153.4453125	0.2	314256	120	54	1	0	0	22	352	stimuli\Videos_short_600ms_vertflip\84.single_touch_with_cotton_bud_short_vertflip_short_600ms.mp4	84.single_touch_with_cotton_bud_short_vertflip_short_600ms.mp4	196.58610301670888	197.1944191194002	0.6083161026913331				
154.24560546875	0.2	315895	121	54	1	0	0	23	172	stimuli\Videos_short_600ms_horflip\84.single_touch_with_cotton_bud_short_horflip_short_600ms.mp4	84.single_touch_with_cotton_bud_short_horflip_short_600ms.mp4	197.38608348652997	197.99436879839868	0.6082853118687126				
155.04541015625	0.2	317533	122	54	1	0	0	24	58	stimuli\Videos_short_600ms\62.touch_top_to_bottom_with_scissors_short_short_600ms.mp4	62.touch_top_to_bottom_with_scissors_short_short_600ms.mp4	198.186067475302	198.79436393051628	0.6082964552142585				
155.84521484375	0.2	319171	123	54	1	0	0	25	346	stimuli\Videos_short_600ms_vertflip\79.long_with_soft_brush_all_over_the_hand_short_vertflip_short_600ms.mp4	79.long_with_soft_brush_all_over_the_hand_short_vertflip_short_600ms.mp4	198.98605029109055	199.59435935587953	0.6083090647889549				
156.6455078125	0.2	320810	124	54	1	0	0	26	310	stimuli\Videos_short_600ms_vertflip\46.scratching_top_to_bottom_with_finger_nails_short_vertflip_short_600ms.mp4	46.scratching_top_to_bottom_with_finger_nails_short_vertflip_short_600ms.mp4	199.7860372123223	200.39433454727396	0.6082973349516578				
157.4453125	0.2	322448	125	54	1	0	1	27	360	stimuli\Targets_short_600ms\brush-stroke_short_short_600ms.mp4	brush-stroke_short_short_600ms.mp4	200.58602266732396	201.1943434619502	0.6083207946262519				
158.2451171875	0.2	324086	126	54	1	0	0	28	251	stimuli\Videos_short_600ms_horvertflip\74.fingers_walking_from_top_to_bottom_short_horvertflip_short_600ms.mp4	74.fingers_walking_from_top_to_bottom_short_horvertflip_short_600ms.mp4	201.38602395760608	201.99434240626488	0.6083184486587925				
159.04541015625	0.2	325725	127	54	1	0	0	29	222	stimuli\Videos_short_600ms_horvertflip\48.single_slap_with_hand_short_horvertflip_short_600ms.mp4	48.single_slap_with_hand_short_horvertflip_short_600ms.mp4	202.18599650978695	202.79431525169184	0.6083187419048954				
159.84521484375	0.2	327363	128	54	1	0	1	30	381	stimuli\Targets_short_600ms_vertflip\finger-tap_short_horvertflip_short_600ms.mp4	finger-tap_short_horvertflip_short_600ms.mp4	202.9859796188216	203.59431331626865	0.6083336974470512				
160.64501953125	0.2	329001	129	54	1	0	0	31	105	stimuli\Videos_short_600ms_horflip\23.single_push_with_a_spoon_short_horflip_short_600ms.mp4	23.single_push_with_a_spoon_short_horflip_short_600ms.mp4	203.785965660315	204.39428792117087	0.6083222608558572				
161.4453125	0.2	330640	130	54	1	0	0	32	19	stimuli\Videos_short_600ms\27.single_push_with_a_plastic_whisk_short_short_600ms.mp4	27.single_push_with_a_plastic_whisk_short_short_600ms.mp4	204.58593088134785	205.1942745491565	0.60834366780864				
162.2451171875	0.2	332278	131	54	1	0	0	33	306	stimuli\Videos_short_600ms_vertflip\42.single_slap_with_plastic_whisk_short_vertflip_short_600ms.mp4	42.single_slap_with_plastic_whisk_short_vertflip_short_600ms.mp4	205.38593774330275	205.99425912442075	0.608321381118003				
163.04541015625	0.2	333917	132	54	1	0	0	34	62	stimuli\Videos_short_600ms\66.stroke_top_to_bottom_with_sponge_short_short_600ms.mp4	66.stroke_top_to_bottom_with_sponge_short_short_600ms.mp4	206.18592407804223	206.7942457524059	0.6083216743636513				
163.84521484375	0.2	335555	133	54	1	0	0	35	265	stimuli\Videos_short_600ms_horvertflip\87.single_stroke_top_to_bottom_with_plastic_brush_short_horvertflip_short_600ms.mp4	87.single_stroke_top_to_bottom_with_plastic_brush_short_horvertflip_short_600ms.mp4	206.98590630733904	207.59423707232645	0.6083307649873859				
164.64501953125	0.2	337193	134	54	1	0	0	36	24	stimuli\Videos_short_600ms\31.hand_grabbing_wrist_short_short_600ms.mp4	31.hand_grabbing_wrist_short_short_600ms.mp4	207.7858970407674	208.3942160759179	0.6083190351505436				
165.4453125	0.2	338832	135	54	1	0	0	37	168	stimuli\Videos_short_600ms_horflip\80.stroke_with_sharp_stick_all_over_the_hand_short_horflip_short_600ms.mp4	80.stroke_with_sharp_stick_all_over_the_hand_short_horflip_short_600ms.mp4	208.58585815635703	209.19420417013316	0.6083460137760994				
166.2451171875	0.2	340470	136	54	1	0	0	38	40	stimuli\Videos_short_600ms\46.scratching_top_to_bottom_with_finger_nails_short_short_600ms.mp4	46.scratching_top_to_bottom_with_finger_nails_short_short_600ms.mp4	209.3858450775888	209.99419109136488	0.6083460137760994				
167.044921875	0.2	342108	137	54	1	0	0	39	184	stimuli\Videos_short_600ms_horvertflip\13.single_touch_with_pen_short_horvertflip_short_600ms.mp4	13.single_touch_with_pen_short_horvertflip_short_600ms.mp4	210.18583962321415	210.794170388202	0.6083307649878407				
167.84521484375	0.2	343747	138	54	1	0	0	40	157	stimuli\Videos_short_600ms_horflip\70.(long)stroke_with_finger_all_over_the_hand_short_horflip_short_600ms.mp4	70.(long)stroke_with_finger_all_over_the_hand_short_horflip_short_600ms.mp4	210.9858280106755	211.5941605351386	0.6083325244630942				
168.64501953125	0.2	345385	139	54	1	0	0	41	351	stimuli\Videos_short_600ms_vertflip\83.single_stroke_top_to_bottom_with_cotton_bud_short_vertflip_short_600ms.mp4	83.single_stroke_top_to_bottom_with_cotton_bud_short_vertflip_short_600ms.mp4	211.7858348726304	212.3941005370216	0.6082656643911832				
169.44482421875	0.2	347023	140	54	1	0	0	42	252	stimuli\Videos_short_600ms_horvertflip\75.(long)stroke_with_fingers_all_over_the_hand_short_horvertflip_short_600ms.mp4	75.(long)stroke_with_fingers_all_over_the_hand_short_horvertflip_short_600ms.mp4	212.58579892067928	213.19410915845177	0.6083102377724572				
170.2451171875	0.2	348662	141	54	1	0	0	43	268	stimuli\Videos_short_600ms_horvertflip\9.single_touch_with_hammer_short_horvertflip_short_600ms.mp4	9.single_touch_with_hammer_short_horvertflip_short_600ms.mp4	213.3857955190265	213.994093733716	0.608298214689512				
171.044921875	0.2	350300	142	54	1	0	0	44	8	stimuli\Videos_short_600ms\17.repeated_touch_with_rolling_pin_short_short_600ms.mp4	17.repeated_touch_with_rolling_pin_short_short_600ms.mp4	214.185781853766	214.79407948196376	0.6082976281977608				
171.8447265625	0.2	351938	143	54	1	0	0	45	203	stimuli\Videos_short_600ms_horvertflip\30.finger_pulling_back_another_finger_short_horvertflip_short_600ms.mp4	30.finger_pulling_back_another_finger_short_horvertflip_short_600ms.mp4	214.98576789525987	215.5940722681139	0.608304372854036				
172.64501953125	0.2	353577	144	54	1	0	1	46	362	stimuli\Targets_short_600ms\chopstickwood-tap_short_short_600ms.mp4	chopstickwood-tap_short_short_600ms.mp4	215.78575510973724	216.39405742986943	0.6083023201322248				
173.44482421875	0.2	355215	145	54	1	0	0	47	270	stimuli\Videos_short_600ms_vertflip\1.repeated_touch_with_finger_fast_short_vertflip_short_600ms.mp4	1.repeated_touch_with_finger_fast_short_vertflip_short_600ms.mp4	216.5857393917554	217.19407279595632	0.6083334042009483				
174.24462890625	0.2	356853	146	54	1	0	0	48	111	stimuli\Videos_short_600ms_horflip\29.single_pinch_with_tweezers_short_horflip_short_600ms.mp4	29.single_pinch_with_tweezers_short_horflip_short_600ms.mp4	217.3857996244692	217.99405062656388	0.6082510020946756				
175.044921875	0.2	358492	147	54	1	0	0	49	264	stimuli\Videos_short_600ms_horvertflip\86.touch_top_to_bottom_with_hair_brush_short_horvertflip_short_600ms.mp4	86.touch_top_to_bottom_with_hair_brush_short_horvertflip_short_600ms.mp4	218.18571411395624	218.79403490858203	0.6083207946257971				
175.8447265625	0.2	360130	148	54	1	0	0	50	33	stimuli\Videos_short_600ms\4.repeated_tap_with_finger_slow_short_short_600ms.mp4	4.repeated_tap_with_finger_slow_short_short_600ms.mp4	218.9857025014171	219.5940194838463	0.6083169824291872				
176.64453125	0.2	361768	149	54	1	0	0	51	272	stimuli\Videos_short_600ms_vertflip\11.single_touch_with_lighter_short_vertflip_short_600ms.mp4	11.single_touch_with_lighter_short_vertflip_short_600ms.mp4	219.7856844374678	220.3940046456023	0.6083202081345007				
177.44482421875	0.2	363407	150	54	1	0	0	52	192	stimuli\Videos_short_600ms_horvertflip\20.single_touch_with_screwdriver_short_horvertflip_short_600ms.mp4	20.single_touch_with_screwdriver_short_horvertflip_short_600ms.mp4	220.58567047896167	221.19399098034185	0.6083205013801489				
178.24462890625	0.2	365045	151	54	1	0	0	53	225	stimuli\Videos_short_600ms_horvertflip\50.single_(long)hard_push_with_thumb_short_horvertflip_short_600ms.mp4	50.single_(long)hard_push_with_thumb_short_horvertflip_short_600ms.mp4	221.38566473134145	221.9939767285896	0.6083119972481654				
179.04443359375	0.2	366683	152	54	1	0	0	54	72	stimuli\Videos_short_600ms\75.(long)stroke_with_fingers_all_over_the_hand_short_short_600ms.mp4	75.(long)stroke_with_fingers_all_over_the_hand_short_short_600ms.mp4	222.18563816326017	222.79396218359125	0.6083240203311107				
179.8447265625	0.2	368322	153	54	1	0	0	55	38	stimuli\Videos_short_600ms\44.pushing_top_to_bottom_with_finger_short_short_600ms.mp4	44.pushing_top_to_bottom_with_finger_short_short_600ms.mp4	222.98561130193275	223.5939488115769	0.6083375096441159				
180.64453125	0.2	369960	154	54	1	0	0	56	25	stimuli\Videos_short_600ms\32.single_(long)pinch_with_fingers_short_short_600ms.mp4	32.single_(long)pinch_with_fingers_short_short_600ms.mp4	223.78558825280288	224.39393455982463	0.6083463070217476				
181.44482421875	0.2	371599	155	54	1	0	0	57	153	stimuli\Videos_short_600ms_horflip\67.single_touch_with_sponge_short_horflip_short_600ms.mp4	67.single_touch_with_sponge_short_horflip_short_600ms.mp4	224.5855757605259	225.19392265403985	0.6083468935139535				
182.24462890625	0.2	373237	156	54	1	0	0	58	177	stimuli\Videos_short_600ms_horflip\89.single_touch_with_plastic_brush_short_horflip_short_600ms.mp4	89.single_touch_with_plastic_brush_short_horflip_short_600ms.mp4	225.3855972847773	225.99390312386095	0.6083058390836413				
183.04443359375	0.2	374875	157	54	1	0	0	59	102	stimuli\Videos_short_600ms_horflip\20.single_touch_with_screwdriver_short_horflip_short_600ms.mp4	20.single_touch_with_screwdriver_short_horflip_short_600ms.mp4	226.18623873092565	226.7938874058791	0.6076486749534524				
183.8447265625	0.2	376514	158	54	1	0	0	60	228	stimuli\Videos_short_600ms_horvertflip\53.touch_top_to_bottom_with_knife_short_horvertflip_short_600ms.mp4	53.touch_top_to_bottom_with_knife_short_horvertflip_short_600ms.mp4	226.985588721996	227.59388165825885	0.608292936262842				
184.64453125	0.2	378152	159	54	1	0	0	61	250	stimuli\Videos_short_600ms_horvertflip\73.single_stroke_with_flat_hand_short_horvertflip_short_600ms.mp4	73.single_stroke_with_flat_hand_short_horvertflip_short_600ms.mp4	227.78554719837257	228.39384541306208	0.608298214689512				
185.4443359375	0.2	379790	160	54	1	0	0	62	128	stimuli\Videos_short_600ms_horflip\44.pushing_top_to_bottom_with_finger_short_horflip_short_600ms.mp4	44.pushing_top_to_bottom_with_finger_short_horflip_short_600ms.mp4	228.5855262019641	229.19384728983596	0.6083210878719001				
186.24462890625	0.2	381429	161	54	1	0	0	63	243	stimuli\Videos_short_600ms_horvertflip\67.single_touch_with_sponge_short_horvertflip_short_600ms.mp4	67.single_touch_with_sponge_short_horvertflip_short_600ms.mp4	229.38550080686628	229.9937902241777	0.6082894173114255				
187.04443359375	0.2	383067	162	54	1	0	0	64	67	stimuli\Videos_short_600ms\70.(long)stroke_with_finger_all_over_the_hand_short_short_600ms.mp4	70.(long)stroke_with_finger_all_over_the_hand_short_short_600ms.mp4	230.18549857819744	230.79380676324809	0.608308185050646				
187.84423828125	0.2	384705	163	54	1	0	0	65	234	stimuli\Videos_short_600ms_horvertflip\59.single_push_with_long_side_pencil_short_horvertflip_short_600ms.mp4	59.single_push_with_long_side_pencil_short_horvertflip_short_600ms.mp4	230.9854840331991	231.59378781956136	0.6083037863622849				
188.64453125	0.2	386344	164	54	1	0	0	66	55	stimuli\Videos_short_600ms\6.single_touch_with_flat_hand_short_short_600ms.mp4	6.single_touch_with_flat_hand_short_short_600ms.mp4	231.7854697814469	232.393798786959	0.6083290055121324				
189.4443359375	0.2	387982	165	54	1	0	0	67	202	stimuli\Videos_short_600ms_horvertflip\3.single_push_with_finger_short_horvertflip_short_600ms.mp4	3.single_push_with_finger_short_horvertflip_short_600ms.mp4	232.5854596351378	233.19378834740385	0.6083287122660295				
190.244140625	0.2	389620	166	54	1	0	0	68	284	stimuli\Videos_short_600ms_vertflip\22.single_touch_with_metal_chopstick_short_vertflip_short_600ms.mp4	22.single_touch_with_metal_chopstick_short_vertflip_short_600ms.mp4	233.38544186443417	233.99376353879825	0.608321674364106				
191.04443359375	0.2	391259	167	54	1	0	0	69	101	stimuli\Videos_short_600ms_horflip\2.single_touch_with_finger_short_horflip_short_600ms.mp4	2.single_touch_with_finger_short_horflip_short_600ms.mp4	234.18542731943623	234.7937489937999	0.6083216743636513				
191.84423828125	0.2	392897	168	54	1	0	0	70	339	stimuli\Videos_short_600ms_vertflip\72.(short)stroke_with_finger_all_over_the_hand_short_vertflip_short_600ms.mp4	72.(short)stroke_with_finger_all_over_the_hand_short_vertflip_short_600ms.mp4	234.9854101352248	235.59373620827728	0.6083260730524671				
192.64404296875	0.2	394535	169	54	1	0	0	71	57	stimuli\Videos_short_600ms\61.single_hit_with_rolling_pin_short_short_600ms.mp4	61.single_hit_with_rolling_pin_short_short_600ms.mp4	235.78539852268568	236.3937201970498	0.608321674364106				
193.4443359375	0.2	396174	170	54	1	0	0	72	134	stimuli\Videos_short_600ms_horflip\5.repeated_tap_with_finger_moving_from_top_to_bottom_short_horflip_short_600ms.mp4	5.repeated_tap_with_finger_moving_from_top_to_bottom_short_horflip_short_600ms.mp4	236.5853476151924	237.19370711828105	0.6083595030886499				
194.244140625	0.2	397812	171	54	1	0	0	73	161	stimuli\Videos_short_600ms_horflip\74.fingers_walking_from_top_to_bottom_short_horflip_short_600ms.mp4	74.fingers_walking_from_top_to_bottom_short_horflip_short_600ms.mp4	237.3853673799681	237.9936928665288	0.608325486560716				
195.0439453125	0.2	399450	172	54	1	0	0	74	297	stimuli\Videos_short_600ms_vertflip\34.repeated_punch_with_hand_short_vertflip_short_600ms.mp4	34.repeated_punch_with_hand_short_vertflip_short_600ms.mp4	238.18535430119937	238.79367773503873	0.6083234338393595				
195.84423828125	0.2	401089	173	54	1	0	0	75	106	stimuli\Videos_short_600ms_horflip\24.single_stroke_top_to_bottom_with_a_spoon_short_horflip_short_600ms.mp4	24.single_stroke_top_to_bottom_with_a_spoon_short_horflip_short_600ms.mp4	238.98531864249435	239.5936655360083	0.6083468935139535				
196.64404296875	0.2	402727	174	54	1	0	0	76	70	stimuli\Videos_short_600ms\73.single_stroke_with_flat_hand_short_short_600ms.mp4	73.single_stroke_with_flat_hand_short_short_600ms.mp4	239.785304097496	240.3936492315347	0.6083451340387				
197.44384765625	0.2	404365	175	54	1	0	0	77	349	stimuli\Videos_short_600ms_vertflip\81.single_stroke_top_to_bottom_with_cotton_pad_short_vertflip_short_600ms.mp4	81.single_stroke_top_to_bottom_with_cotton_pad_short_vertflip_short_600ms.mp4	240.58529013898988	241.19363468653637	0.6083445475464941				
198.244140625	0.2	406004	176	54	1	0	0	78	5	stimuli\Videos_short_600ms\14.repeated_touch_with_pencil_short_short_600ms.mp4	14.repeated_touch_with_pencil_short_short_600ms.mp4	241.3853081442899	241.99362219425984	0.6083140499699766				
199.0439453125	0.2	407642	177	54	1	0	0	79	283	stimuli\Videos_short_600ms_vertflip\21.repeated_touch_with_metal_chopstick_short_vertflip_short_600ms.mp4	21.repeated_touch_with_metal_chopstick_short_vertflip_short_600ms.mp4	242.18526925987953	242.79360559654015	0.6083363366606136				
199.84375	0.2	409280	178	54	1	0	0	80	230	stimuli\Videos_short_600ms_horvertflip\55.touch_top_to_bottom_with_nail_file_short_horvertflip_short_600ms.mp4	55.touch_top_to_bottom_with_nail_file_short_horvertflip_short_600ms.mp4	242.9852796407854	243.59357756222929	0.6082979214438637				
200.64404296875	0.2	410919	179	54	1	0	0	81	263	stimuli\Videos_short_600ms_horvertflip\85.touch_top_to_bottom_with_fabric_short_horvertflip_short_600ms.mp4	85.touch_top_to_bottom_with_fabric_short_horvertflip_short_600ms.mp4	243.7852604038526	244.3935600847717	0.6082996809191172				
201.44384765625	0.2	412557	180	54	1	0	0	82	232	stimuli\Videos_short_600ms_horvertflip\57.single_touch_with_nail_file_short_horvertflip_short_600ms.mp4	57.single_touch_with_nail_file_short_horvertflip_short_600ms.mp4	244.58525143052705	245.1935387951171	0.608287364590069				
202.244140625	0.2	414196	181	54	1	0	0	83	197	stimuli\Videos_short_600ms_horvertflip\25.single_touch_with_stanley_knife_short_horvertflip_short_600ms.mp4	25.single_touch_with_stanley_knife_short_horvertflip_short_600ms.mp4	245.38522955438063	245.99353334074297	0.6083037863622849				
203.0439453125	0.2	415834	182	54	1	0	0	84	311	stimuli\Videos_short_600ms_vertflip\47.(long)scratching_with_finger_nails_short_vertflip_short_600ms.mp4	47.(long)scratching_with_finger_nails_short_vertflip_short_600ms.mp4	246.18521324990704	246.79351938223635	0.6083061323292895				
203.84375	0.2	417472	183	54	1	0	0	85	313	stimuli\Videos_short_600ms_vertflip\49.repeated_slap_with_hand_short_vertflip_short_600ms.mp4	49.repeated_slap_with_hand_short_vertflip_short_600ms.mp4	246.9852045698276	247.59352477796165	0.608320208134046				
204.64404296875	0.2	419111	184	54	1	0	0	86	95	stimuli\Videos_short_600ms_horflip\14.repeated_touch_with_pencil_short_horflip_short_600ms.mp4	14.repeated_touch_with_pencil_short_horflip_short_600ms.mp4	247.7851844531565	248.3935207898171	0.6083363366606136				
205.44384765625	0.2	420749	185	54	1	0	0	87	331	stimuli\Videos_short_600ms_vertflip\65.stroke_top_to_bottom_with_stanley_knife_short_vertflip_short_600ms.mp4	65.stroke_top_to_bottom_with_stanley_knife_short_vertflip_short_600ms.mp4	248.5851693216664	249.19349392848972	0.6083246068233166				
206.24365234375	0.2	422387	186	54	1	0	0	88	318	stimuli\Videos_short_600ms_vertflip\53.touch_top_to_bottom_with_knife_short_vertflip_short_600ms.mp4	53.touch_top_to_bottom_with_knife_short_vertflip_short_600ms.mp4	249.3851574158816	249.9934814362132	0.6083240203315654				
207.0439453125	0.2	424026	187	54	1	0	0	89	261	stimuli\Videos_short_600ms_horvertflip\83.single_stroke_top_to_bottom_with_cotton_bud_short_horvertflip_short_600ms.mp4	83.single_stroke_top_to_bottom_with_cotton_bud_short_horvertflip_short_600ms.mp4	250.1851437506216	250.79346307901776	0.6083193283961918				
207.84375	0.2	425664	188	54	1	0	0	90	173	stimuli\Videos_short_600ms_horflip\85.touch_top_to_bottom_with_fabric_short_horflip_short_600ms.mp4	85.touch_top_to_bottom_with_fabric_short_horflip_short_600ms.mp4	250.9851315515907	251.59345087998736	0.6083193283966466				
208.6435546875	0.2	427302	189	54	1	0	0	91	103	stimuli\Videos_short_600ms_horflip\21.repeated_touch_with_metal_chopstick_short_horflip_short_600ms.mp4	21.repeated_touch_with_metal_chopstick_short_horflip_short_600ms.mp4	251.7851131943953	252.39343604174292	0.6083228473476083				
209.44384765625	0.2	428941	190	54	1	0	0	92	262	stimuli\Videos_short_600ms_horvertflip\84.single_touch_with_cotton_bud_short_horvertflip_short_600ms.mp4	84.single_touch_with_cotton_bud_short_horvertflip_short_600ms.mp4	252.58510627379155	253.1934220832368	0.6083158094452301	3.0	3.0	2.12503156059347	1.0
243.40087890625	0.2	498485	191	54	2	0	1	0	375	stimuli\Targets_short_600ms_horvertflip\finger-tap_short_vertflip_short_600ms.mp4	finger-tap_short_vertflip_short_600ms.mp4	286.54282959449665	287.1511635851898	0.6083339906931542				
244.20068359375	0.2	500123	192	54	2	0	0	1	82	stimuli\Videos_short_600ms\84.single_touch_with_cotton_bud_short_short_600ms.mp4	84.single_touch_with_cotton_bud_short_short_600ms.mp4	287.34281592923617	287.9511355508789	0.6083196216427496				
245.0009765625	0.2	501762	193	54	2	0	0	2	277	stimuli\Videos_short_600ms_vertflip\16.repeated_touch_with_plastic_brush_short_vertflip_short_600ms.mp4	16.repeated_touch_with_plastic_brush_short_vertflip_short_600ms.mp4	288.1427893611549	288.75110194489525	0.6083125837403713				
245.80078125	0.2	503400	194	54	2	0	0	3	285	stimuli\Videos_short_600ms_vertflip\23.single_push_with_a_spoon_short_vertflip_short_600ms.mp4	23.single_push_with_a_spoon_short_vertflip_short_600ms.mp4	288.94275516867947	289.5511102730793	0.6083551043998341				
246.6005859375	0.2	505038	195	54	2	0	0	4	116	stimuli\Videos_short_600ms_horflip\33.scratch_top_to_bottom_with_scissors_short_horflip_short_600ms.mp4	33.scratch_top_to_bottom_with_scissors_short_horflip_short_600ms.mp4	289.7427233221715	290.35109162263825	0.6083683004667364				
247.40087890625	0.2	506677	196	54	2	0	0	5	1	stimuli\Videos_short_600ms\10.single_touch_with_knife_short_short_600ms.mp4	10.single_touch_with_knife_short_short_600ms.mp4	290.5427213867483	291.1510776641321	0.6083562773837912				
248.20068359375	0.2	508315	197	54	2	0	0	6	149	stimuli\Videos_short_600ms_horflip\63.stroke_top_to_bottom_with_screwdriver_short_horflip_short_600ms.mp4	63.stroke_top_to_bottom_with_screwdriver_short_horflip_short_600ms.mp4	291.34270097683157	291.95106282588813	0.6083618490565641				
249.0009765625	0.2	509954	198	54	2	0	0	7	27	stimuli\Videos_short_600ms\34.repeated_punch_with_hand_short_short_600ms.mp4	34.repeated_punch_with_hand_short_short_600ms.mp4	292.1427122374753	292.75104886738154	0.6083366299062618				
249.80078125	0.2	511592	199	54	2	0	0	8	60	stimuli\Videos_short_600ms\64.repeated_touch_with_screwdriver_short_short_600ms.mp4	64.repeated_touch_with_screwdriver_short_short_600ms.mp4	292.9427038506419	293.55103696159676	0.6083331109548453				
250.6005859375	0.2	513230	200	54	2	0	0	9	312	stimuli\Videos_short_600ms_vertflip\48.single_slap_with_hand_short_vertflip_short_600ms.mp4	48.single_slap_with_hand_short_vertflip_short_600ms.mp4	293.7428394475601	294.3510312139765	0.6081917664164393				
251.40087890625	0.2	514869	201	54	2	0	0	10	254	stimuli\Videos_short_600ms_horvertflip\77.tapping_with_all_fingers_short_horvertflip_short_600ms.mp4	77.tapping_with_all_fingers_short_horvertflip_short_600ms.mp4	294.542664497038	295.1509811862211	0.6083166891830842				
252.20068359375	0.2	516507	202	54	2	0	0	11	210	stimuli\Videos_short_600ms_horvertflip\37.single_stab_with_nail_file_short_horvertflip_short_600ms.mp4	37.single_stab_with_nail_file_short_horvertflip_short_600ms.mp4	295.3426707725007	295.9509678142067	0.6082970417060096				
253.00048828125	0.2	518145	203	54	2	0	0	12	144	stimuli\Videos_short_600ms_horflip\59.single_push_with_long_side_pencil_short_horflip_short_600ms.mp4	59.single_push_with_long_side_pencil_short_horflip_short_600ms.mp4	296.14266678435615	296.7509541489462	0.608287364590069				
253.80078125	0.2	519784	204	54	2	0	0	13	88	stimuli\Videos_short_600ms\9.single_touch_with_hammer_short_short_600ms.mp4	9.single_touch_with_hammer_short_short_600ms.mp4	296.9426425622423	297.55093872421	0.6082961619677008				
254.6005859375	0.2	521422	205	54	2	0	0	14	259	stimuli\Videos_short_600ms_horvertflip\81.single_stroke_top_to_bottom_with_cotton_pad_short_horvertflip_short_600ms.mp4	81.single_stroke_top_to_bottom_with_cotton_pad_short_horvertflip_short_600ms.mp4	297.7426286037362	298.3509347360655	0.6083061323292895				
255.400390625	0.2	523060	206	54	2	0	0	15	162	stimuli\Videos_short_600ms_horflip\75.(long)stroke_with_fingers_all_over_the_hand_short_horflip_short_600ms.mp4	75.(long)stroke_with_fingers_all_over_the_hand_short_horflip_short_600ms.mp4	298.542618164181	299.1509313344127	0.6083131702316678				
256.20068359375	0.2	524699	207	54	2	0	0	16	139	stimuli\Videos_short_600ms_horflip\54.repeated_touch_with_knife_short_horflip_short_600ms.mp4	54.repeated_touch_with_knife_short_horflip_short_600ms.mp4	299.3426024461992	299.95092881249775	0.6083263662985701				
257.00048828125	0.2	526337	208	54	2	0	0	17	87	stimuli\Videos_short_600ms\89.single_touch_with_plastic_brush_short_short_600ms.mp4	89.single_touch_with_plastic_brush_short_short_600ms.mp4	300.1425829160203	300.75090605661353	0.6083231405932565				
257.80029296875	0.2	527975	209	54	2	0	0	18	288	stimuli\Videos_short_600ms_vertflip\26.single_touch_with_a_blunt_syringe_short_vertflip_short_600ms.mp4	26.single_touch_with_a_blunt_syringe_short_vertflip_short_600ms.mp4	300.9425718899729	301.55087274387597	0.6083008539030743				
258.6005859375	0.2	529614	210	54	2	0	0	19	343	stimuli\Videos_short_600ms_vertflip\76.tickle_with_fingers_from_top_to_bottom_short_vertflip_short_600ms.mp4	76.tickle_with_fingers_from_top_to_bottom_short_vertflip_short_600ms.mp4	301.742557344975	302.3508755003877	0.6083181554126895				
259.400390625	0.2	531252	211	54	2	0	0	20	286	stimuli\Videos_short_600ms_vertflip\24.single_stroke_top_to_bottom_with_a_spoon_short_vertflip_short_600ms.mp4	24.single_stroke_top_to_bottom_with_a_spoon_short_vertflip_short_600ms.mp4	302.5425404540092	303.1508618351272	0.608321381118003				
260.2001953125	0.2	532890	212	54	2	0	0	21	289	stimuli\Videos_short_600ms_vertflip\27.single_push_with_a_plastic_whisk_short_vertflip_short_600ms.mp4	27.single_push_with_a_plastic_whisk_short_vertflip_short_600ms.mp4	303.3425294279623	303.9508496360968	0.6083202081345007				
261.00048828125	0.2	534529	213	54	2	0	0	22	353	stimuli\Videos_short_600ms_vertflip\85.touch_top_to_bottom_with_fabric_short_vertflip_short_600ms.mp4	85.touch_top_to_bottom_with_fabric_short_vertflip_short_600ms.mp4	304.14247617450155	304.7508345046067	0.6083583301051476				
261.80029296875	0.2	536167	214	54	2	0	0	23	94	stimuli\Videos_short_600ms_horflip\13.single_touch_with_pen_short_horflip_short_600ms.mp4	13.single_touch_with_pen_short_horflip_short_600ms.mp4	304.94248596891566	305.5507973796716	0.6083114107559595				
262.60009765625	0.2	537805	215	54	2	0	0	24	135	stimuli\Videos_short_600ms_horflip\50.single_(long)hard_push_with_thumb_short_horflip_short_600ms.mp4	50.single_(long)hard_push_with_thumb_short_horflip_short_600ms.mp4	305.74246585224455	306.35080365513477	0.6083378028902189				
263.400390625	0.2	539444	216	54	2	0	0	25	12	stimuli\Videos_short_600ms\20.single_touch_with_screwdriver_short_short_600ms.mp4	20.single_touch_with_screwdriver_short_short_600ms.mp4	306.5424926549226	307.1507885236447	0.6082958687220525				
264.2001953125	0.2	541082	217	54	2	0	0	26	115	stimuli\Videos_short_600ms_horflip\32.single_(long)pinch_with_fingers_short_horflip_short_600ms.mp4	32.single_(long)pinch_with_fingers_short_horflip_short_600ms.mp4	307.34243119057555	307.95077749759776	0.6083463070222024				
265.0	0.2	542720	218	54	2	0	0	27	123	stimuli\Videos_short_600ms_horflip\4.repeated_tap_with_finger_slow_short_horflip_short_600ms.mp4	4.repeated_tap_with_finger_slow_short_horflip_short_600ms.mp4	308.14242339023394	308.75076647155083	0.6083430813168889				
265.80029296875	0.2	544359	219	54	2	0	0	28	44	stimuli\Videos_short_600ms\5.repeated_tap_with_finger_moving_from_top_to_bottom_short_short_600ms.mp4	5.repeated_tap_with_finger_moving_from_top_to_bottom_short_short_600ms.mp4	308.9424191088433	309.55072348169733	0.608304372854036				
266.60009765625	0.2	545997	220	54	2	0	0	29	321	stimuli\Videos_short_600ms_vertflip\56.repeated_touch_with_nail_file_short_vertflip_short_600ms.mp4	56.repeated_touch_with_nail_file_short_vertflip_short_600ms.mp4	309.74241951938757	310.3507291706683	0.608309651280706				
267.400390625	0.2	547636	221	54	2	0	0	30	180	stimuli\Videos_short_600ms_horvertflip\1.repeated_touch_with_finger_fast_short_horvertflip_short_600ms.mp4	1.repeated_touch_with_finger_fast_short_horvertflip_short_600ms.mp4	310.54239852297906	311.1506729847483	0.6082744617692697				
268.2001953125	0.2	549274	222	54	2	0	0	31	136	stimuli\Videos_short_600ms_horflip\51.repeated_touch_with_hammer_short_horflip_short_600ms.mp4	51.repeated_touch_with_hammer_short_horflip_short_600ms.mp4	311.3423869104404	311.95068365889983	0.6082967484594519				
269.0	0.2	550912	223	54	2	0	0	32	18	stimuli\Videos_short_600ms\26.single_touch_with_a_blunt_syringe_short_short_600ms.mp4	26.single_touch_with_a_blunt_syringe_short_short_600ms.mp4	312.1423679667532	312.7506746855747	0.6083067188214955				
269.80029296875	0.2	552551	224	54	2	0	0	33	194	stimuli\Videos_short_600ms_horvertflip\22.single_touch_with_metal_chopstick_short_horvertflip_short_600ms.mp4	22.single_touch_with_metal_chopstick_short_horvertflip_short_600ms.mp4	312.9423563542141	313.55065662162497	0.6083002674108684				
270.60009765625	0.2	554189	225	54	2	0	0	34	42	stimuli\Videos_short_600ms\48.single_slap_with_hand_short_short_600ms.mp4	48.single_slap_with_hand_short_short_600ms.mp4	313.7423415159701	314.3506482347916	0.6083067188214955				
271.39990234375	0.2	555827	226	54	2	0	0	35	98	stimuli\Videos_short_600ms_horflip\17.repeated_touch_with_rolling_pin_short_horflip_short_600ms.mp4	17.repeated_touch_with_rolling_pin_short_horflip_short_600ms.mp4	314.5423249182504	315.1506550967465	0.6083301784960895				
272.2001953125	0.2	557466	227	54	2	0	0	36	97	stimuli\Videos_short_600ms_horflip\16.repeated_touch_with_plastic_brush_short_horflip_short_600ms.mp4	16.repeated_touch_with_plastic_brush_short_horflip_short_600ms.mp4	315.34231330571174	315.9506349800754	0.6083216743636513				
273.0	0.2	559104	228	54	2	0	0	37	13	stimuli\Videos_short_600ms\21.repeated_touch_with_metal_chopstick_short_short_600ms.mp4	21.repeated_touch_with_metal_chopstick_short_short_600ms.mp4	316.1423040391401	316.75059814838687	0.608294109246799				
273.7998046875	0.2	560742	229	54	2	0	0	38	86	stimuli\Videos_short_600ms\88.repeated_stroke_with_plastic_brush_short_short_600ms.mp4	88.repeated_stroke_with_plastic_brush_short_short_600ms.mp4	316.94228186974806	317.55058477637203	0.608302906623976				
274.60009765625	0.2	562381	230	54	2	0	0	39	114	stimuli\Videos_short_600ms_horflip\31.hand_grabbing_wrist_short_horflip_short_600ms.mp4	31.hand_grabbing_wrist_short_horflip_short_600ms.mp4	317.7422670315036	318.3505895856056	0.6083225541019601				
275.39990234375	0.2	564019	231	54	2	0	0	40	323	stimuli\Videos_short_600ms_vertflip\58.single_slap_with_pencil_short_vertflip_short_600ms.mp4	58.single_slap_with_pencil_short_vertflip_short_600ms.mp4	318.5422530729975	319.15058002578826	0.608326952790776				
276.19970703125	0.2	565657	232	54	2	0	0	41	248	stimuli\Videos_short_600ms_horvertflip\71.single_stroke_with_finger_top_to_bottom_short_horvertflip_short_600ms.mp4	71.single_stroke_with_finger_top_to_bottom_short_horvertflip_short_600ms.mp4	319.3422382347535	319.95056049560935	0.6083222608558572				
277.0	0.2	567296	233	54	2	0	0	42	51	stimuli\Videos_short_600ms\56.repeated_touch_with_nail_file_short_short_600ms.mp4	56.repeated_touch_with_nail_file_short_short_600ms.mp4	320.142200230081	320.7505776211715	0.6083773910904711				
277.7998046875	0.2	568934	234	54	2	0	0	43	79	stimuli\Videos_short_600ms\81.single_stroke_top_to_bottom_with_cotton_pad_short_short_600ms.mp4	81.single_stroke_top_to_bottom_with_cotton_pad_short_short_600ms.mp4	320.94218803105014	321.5505319921049	0.608343961054743				
278.599609375	0.2	570572	235	54	2	0	0	44	332	stimuli\Videos_short_600ms_vertflip\66.stroke_top_to_bottom_with_sponge_short_vertflip_short_600ms.mp4	66.stroke_top_to_bottom_with_sponge_short_vertflip_short_600ms.mp4	321.7421866821187	322.35056260698	0.6083759248613205				
279.39990234375	0.2	572211	236	54	2	0	0	45	3	stimuli\Videos_short_600ms\12.repeated_touch_with_nail_file_short_short_600ms.mp4	12.repeated_touch_with_nail_file_short_short_600ms.mp4	322.5421592343	323.15051111299454	0.6083518786945206				
280.19970703125	0.2	573849	237	54	2	0	0	46	121	stimuli\Videos_short_600ms_horflip\38.double_slap_with_pencil_short_horflip_short_600ms.mp4	38.double_slap_with_pencil_short_horflip_short_600ms.mp4	323.34215143395795	323.95048747737246	0.6083360434145106				
280.99951171875	0.2	575487	238	54	2	0	0	47	147	stimuli\Videos_short_600ms_horflip\61.single_hit_with_rolling_pin_short_horflip_short_600ms.mp4	61.single_hit_with_rolling_pin_short_horflip_short_600ms.mp4	324.14213688896007	324.7504720526367	0.6083351636766565				
281.7998046875	0.2	577126	239	54	2	0	1	48	380	stimuli\Targets_short_600ms_vertflip\chopstickwood-tap_short_horvertflip_short_600ms.mp4	chopstickwood-tap_short_horvertflip_short_600ms.mp4	324.94215196180085	325.5504578008845	0.6083058390836413				
282.599609375	0.2	578764	240	54	2	0	0	49	164	stimuli\Videos_short_600ms_horflip\77.tapping_with_all_fingers_short_horflip_short_600ms.mp4	77.tapping_with_all_fingers_short_horflip_short_600ms.mp4	325.7421242207356	326.35044208290265	0.6083178621670413				
283.3994140625	0.2	580402	241	54	2	0	0	50	80	stimuli\Videos_short_600ms\82.repeated_touch_with_cotton_bud_short_short_600ms.mp4	82.repeated_touch_with_cotton_bud_short_short_600ms.mp4	326.54214017331424	327.15038706996575	0.608246896651508				
284.19970703125	0.2	582041	242	54	2	0	0	51	315	stimuli\Videos_short_600ms_vertflip\50.single_(long)hard_push_with_thumb_short_vertflip_short_600ms.mp4	50.single_(long)hard_push_with_thumb_short_vertflip_short_600ms.mp4	327.3420948374933	327.95039569139635	0.6083008539030743				
284.99951171875	0.2	583679	243	54	2	0	0	52	154	stimuli\Videos_short_600ms_horflip\68.stroke_top_to_bottom_with_shawl_short_horflip_short_600ms.mp4	68.stroke_top_to_bottom_with_shawl_short_horflip_short_600ms.mp4	328.1420832249546	328.7503826126276	0.6082993876730143				
285.79931640625	0.2	585317	244	54	2	0	0	53	214	stimuli\Videos_short_600ms_horvertflip\40.repeated_push_with_finger_short_horvertflip_short_600ms.mp4	40.repeated_push_with_finger_short_horvertflip_short_600ms.mp4	328.9420639880218	329.55038918133687	0.6083251933150677				
286.599609375	0.2	586956	245	54	2	0	0	54	35	stimuli\Videos_short_600ms\41.injection_with_blunt_syringe_short_short_600ms.mp4	41.injection_with_blunt_syringe_short_short_600ms.mp4	329.7420529619744	330.35040102847233	0.6083480664979106				
287.3994140625	0.2	588594	246	54	2	0	0	55	220	stimuli\Videos_short_600ms_horvertflip\46.scratching_top_to_bottom_with_finger_nails_short_horvertflip_short_600ms.mp4	46.scratching_top_to_bottom_with_finger_nails_short_horvertflip_short_600ms.mp4	330.5420378304848	331.15033956412526	0.6083017336404737				
288.19970703125	0.2	590233	247	54	2	0	0	56	301	stimuli\Videos_short_600ms_vertflip\38.double_slap_with_pencil_short_vertflip_short_600ms.mp4	38.double_slap_with_pencil_short_vertflip_short_600ms.mp4	331.34202181925684	331.9503505315229	0.6083287122660295				
288.99951171875	0.2	591871	248	54	2	0	0	57	68	stimuli\Videos_short_600ms\71.single_stroke_with_finger_top_to_bottom_short_short_600ms.mp4	71.single_stroke_with_finger_top_to_bottom_short_short_600ms.mp4	332.1420090337342	332.7503336405575	0.6083246068233166				
289.79931640625	0.2	593509	249	54	2	0	0	58	84	stimuli\Videos_short_600ms\86.touch_top_to_bottom_with_hair_brush_short_short_600ms.mp4	86.touch_top_to_bottom_with_hair_brush_short_short_600ms.mp4	332.9419965414577	333.55032026854315	0.6083237270854625				
290.599609375	0.2	595148	250	54	2	0	0	59	2	stimuli\Videos_short_600ms\11.single_touch_with_lighter_short_short_600ms.mp4	11.single_touch_with_lighter_short_short_600ms.mp4	333.74198258295155	334.3503488306965	0.6083662477449252				
291.3994140625	0.2	596786	251	54	2	0	0	60	274	stimuli\Videos_short_600ms_vertflip\13.single_touch_with_pen_short_vertflip_short_600ms.mp4	13.single_touch_with_pen_short_vertflip_short_600ms.mp4	334.5419545486402	335.1502850203824	0.6083304717421925				
292.19921875	0.2	598424	252	54	2	0	0	61	345	stimuli\Videos_short_600ms_vertflip\78.single_stroke_top_to_bottom_with_soft_brush_short_vertflip_short_600ms.mp4	78.single_stroke_top_to_bottom_with_soft_brush_short_vertflip_short_600ms.mp4	335.3419455753151	335.9502663699409	0.6083207946257971				
292.99951171875	0.2	600063	253	54	2	0	0	62	320	stimuli\Videos_short_600ms_vertflip\55.touch_top_to_bottom_with_nail_file_short_vertflip_short_600ms.mp4	55.touch_top_to_bottom_with_nail_file_short_vertflip_short_600ms.mp4	336.1419143152989	336.75025505064787	0.6083407353489747				
293.79931640625	0.2	601701	254	54	2	0	0	63	176	stimuli\Videos_short_600ms_horflip\88.repeated_stroke_with_plastic_brush_short_horflip_short_600ms.mp4	88.repeated_stroke_with_plastic_brush_short_horflip_short_600ms.mp4	336.9420323174613	337.5502449043388	0.608212586877471				
294.59912109375	0.2	603339	255	54	2	0	0	64	237	stimuli\Videos_short_600ms_horvertflip\61.single_hit_with_rolling_pin_short_horvertflip_short_600ms.mp4	61.single_hit_with_rolling_pin_short_horvertflip_short_600ms.mp4	337.7418858117944	338.3502356377676	0.6083498259731641				
295.3994140625	0.2	604978	256	54	2	0	0	65	303	stimuli\Videos_short_600ms_vertflip\4.repeated_tap_with_finger_slow_short_vertflip_short_600ms.mp4	4.repeated_tap_with_finger_slow_short_vertflip_short_600ms.mp4	338.54190733604537	339.1502166940804	0.6083093580350578				
296.19921875	0.2	606616	257	54	2	0	0	66	278	stimuli\Videos_short_600ms_vertflip\17.repeated_touch_with_rolling_pin_short_vertflip_short_600ms.mp4	17.repeated_touch_with_rolling_pin_short_vertflip_short_600ms.mp4	339.3418663989137	339.95017663668614	0.6083102377724572				
296.9990234375	0.2	608254	258	54	2	0	0	67	185	stimuli\Videos_short_600ms_horvertflip\14.repeated_touch_with_pencil_short_horvertflip_short_600ms.mp4	14.repeated_touch_with_pencil_short_horvertflip_short_600ms.mp4	340.14187414060643	340.7501714755581	0.6082973349516578				
297.79931640625	0.2	609893	259	54	2	0	0	68	348	stimuli\Videos_short_600ms_vertflip\80.stroke_with_sharp_stick_all_over_the_hand_short_vertflip_short_600ms.mp4	80.stroke_with_sharp_stick_all_over_the_hand_short_vertflip_short_600ms.mp4	340.9418551969193	341.55012907219634	0.6082738752770638				
298.59912109375	0.2	611531	260	54	2	0	0	69	358	stimuli\Videos_short_600ms_vertflip\9.single_touch_with_hammer_short_vertflip_short_600ms.mp4	9.single_touch_with_hammer_short_vertflip_short_600ms.mp4	341.741835959986	342.35013446792163	0.6082985079356149				
299.39892578125	0.2	613169	261	54	2	0	0	70	171	stimuli\Videos_short_600ms_horflip\83.single_stroke_top_to_bottom_with_cotton_bud_short_horflip_short_600ms.mp4	83.single_stroke_top_to_bottom_with_cotton_bud_short_horflip_short_600ms.mp4	342.5418220014799	343.150121682399	0.6082996809191172				
300.19921875	0.2	614808	262	54	2	0	0	71	76	stimuli\Videos_short_600ms\79.long_with_soft_brush_all_over_the_hand_short_short_600ms.mp4	79.long_with_soft_brush_all_over_the_hand_short_short_600ms.mp4	343.34180628349804	343.9501179875001	0.6083117040020625				
300.9990234375	0.2	616446	263	54	2	0	0	72	213	stimuli\Videos_short_600ms_horvertflip\4.repeated_tap_with_finger_slow_short_horvertflip_short_600ms.mp4	4.repeated_tap_with_finger_slow_short_horvertflip_short_600ms.mp4	344.1417973101725	344.7500972843377	0.6082999741652202				
301.798828125	0.2	618084	264	54	2	0	0	73	83	stimuli\Videos_short_600ms\85.touch_top_to_bottom_with_fabric_short_short_600ms.mp4	85.touch_top_to_bottom_with_fabric_short_short_600ms.mp4	344.9417789529771	345.5501035598004	0.6083246068233166				
302.59912109375	0.2	619723	265	54	2	0	0	74	43	stimuli\Videos_short_600ms\49.repeated_slap_with_hand_short_short_600ms.mp4	49.repeated_slap_with_hand_short_short_600ms.mp4	345.74177496483253	346.3500640888983	0.6082891240657773				
303.39892578125	0.2	621361	266	54	2	0	0	75	61	stimuli\Videos_short_600ms\65.stroke_top_to_bottom_with_stanley_knife_short_short_600ms.mp4	65.stroke_top_to_bottom_with_stanley_knife_short_short_600ms.mp4	346.54175132921046	347.15005218311353	0.6083008539030743				
304.19873046875	0.2	622999	267	54	2	0	0	76	300	stimuli\Videos_short_600ms_vertflip\37.single_stab_with_nail_file_short_vertflip_short_600ms.mp4	37.single_stab_with_nail_file_short_vertflip_short_600ms.mp4	347.34173649096647	347.95006021805193	0.6083237270854625				
304.9990234375	0.2	624638	268	54	2	0	0	77	14	stimuli\Videos_short_600ms\22.single_touch_with_metal_chopstick_short_short_600ms.mp4	22.single_touch_with_metal_chopstick_short_short_600ms.mp4	348.14172253246034	348.75006180158016	0.6083392691198242				
305.798828125	0.2	626276	269	54	2	0	0	78	163	stimuli\Videos_short_600ms_horflip\76.tickle_with_fingers_from_top_to_bottom_short_horflip_short_600ms.mp4	76.tickle_with_fingers_from_top_to_bottom_short_horflip_short_600ms.mp4	348.9417062279863	349.5500076683811	0.6083014403948255				
306.59912109375	0.2	627915	270	54	2	0	0	79	326	stimuli\Videos_short_600ms_vertflip\60.single_push_with_tip_of_pencil_short_vertflip_short_600ms.mp4	60.single_push_with_tip_of_pencil_short_vertflip_short_600ms.mp4	349.7416787801676	350.35001335735205	0.6083345771844506				
307.39892578125	0.2	629553	271	54	2	0	0	80	324	stimuli\Videos_short_600ms_vertflip\59.single_push_with_long_side_pencil_short_vertflip_short_600ms.mp4	59.single_push_with_long_side_pencil_short_vertflip_short_600ms.mp4	350.54167772448227	351.15000115832163	0.6083234338393595				
308.19873046875	0.2	631191	272	54	2	0	0	81	249	stimuli\Videos_short_600ms_horvertflip\72.(short)stroke_with_finger_all_over_the_hand_short_horvertflip_short_600ms.mp4	72.(short)stroke_with_finger_all_over_the_hand_short_horvertflip_short_600ms.mp4	351.3416505699088	351.9499866133233	0.6083360434145106				
308.9990234375	0.2	632830	273	54	2	0	0	82	224	stimuli\Videos_short_600ms_horvertflip\5.repeated_tap_with_finger_moving_from_top_to_bottom_short_horvertflip_short_600ms.mp4	5.repeated_tap_with_finger_moving_from_top_to_bottom_short_horvertflip_short_600ms.mp4	352.1416245883197	352.7499717750793	0.6083471867596018				
309.798828125	0.2	634468	274	54	2	0	0	83	93	stimuli\Videos_short_600ms_horflip\12.repeated_touch_with_nail_file_short_horflip_short_600ms.mp4	12.repeated_touch_with_nail_file_short_horflip_short_600ms.mp4	352.9416091635835	353.54995898955667	0.6083498259731641				
310.5986328125	0.2	636106	275	54	2	0	0	84	206	stimuli\Videos_short_600ms_horvertflip\33.scratch_top_to_bottom_with_scissors_short_horvertflip_short_600ms.mp4	33.scratch_top_to_bottom_with_scissors_short_horvertflip_short_600ms.mp4	353.741595498323	354.3499221578677	0.608326659544673				
311.39892578125	0.2	637745	276	54	2	0	0	85	199	stimuli\Videos_short_600ms_horvertflip\27.single_push_with_a_plastic_whisk_short_horvertflip_short_600ms.mp4	27.single_push_with_a_plastic_whisk_short_horvertflip_short_600ms.mp4	354.54158975070277	355.1499093723455	0.6083196216427496				
312.19873046875	0.2	639383	277	54	2	0	0	86	31	stimuli\Videos_short_600ms\38.double_slap_with_pencil_short_short_600ms.mp4	38.double_slap_with_pencil_short_short_600ms.mp4	355.34156699481855	355.94992532492415	0.6083583301056024				
312.99853515625	0.2	641021	278	54	2	0	0	87	130	stimuli\Videos_short_600ms_horflip\46.scratching_top_to_bottom_with_finger_nails_short_horflip_short_600ms.mp4	46.scratching_top_to_bottom_with_finger_nails_short_horflip_short_600ms.mp4	356.1415835338894	356.7498761769061	0.608292643016739				
313.798828125	0.2	642660	279	54	2	0	0	88	16	stimuli\Videos_short_600ms\24.single_stroke_top_to_bottom_with_a_spoon_short_short_600ms.mp4	24.single_stroke_top_to_bottom_with_a_spoon_short_short_600ms.mp4	356.941561657743	357.5498399317089	0.6082782739658796				
314.5986328125	0.2	644298	280	54	2	0	0	89	15	stimuli\Videos_short_600ms\23.single_push_with_a_spoon_short_short_600ms.mp4	23.single_push_with_a_spoon_short_short_600ms.mp4	357.7415456465151	358.3498438612046	0.608298214689512				
315.3984375	0.2	645936	281	54	2	0	0	90	183	stimuli\Videos_short_600ms_horvertflip\12.repeated_touch_with_nail_file_short_horvertflip_short_600ms.mp4	12.repeated_touch_with_nail_file_short_horvertflip_short_600ms.mp4	358.5415486962729	359.14983635410863	0.6082876578357173				
316.19873046875	0.2	647575	282	54	2	0	0	91	357	stimuli\Videos_short_600ms_vertflip\89.single_touch_with_plastic_brush_short_vertflip_short_600ms.mp4	89.single_touch_with_plastic_brush_short_vertflip_short_600ms.mp4	359.3415200754698	359.949852893179	0.6083328177091971	2.0	2.0	1.847626482101532	1.0
349.3056640625	0.2	715378	283	54	3	0	1	0	363	stimuli\Targets_short_600ms\finger-tap_short_short_600ms.mp4	finger-tap_short_short_600ms.mp4	392.4492524721368	393.05752634741384	0.6082738752770638				
350.10595703125	0.2	717017	284	54	3	0	0	1	52	stimuli\Videos_short_600ms\57.single_touch_with_nail_file_short_short_600ms.mp4	57.single_touch_with_nail_file_short_short_600ms.mp4	393.24923763389233	393.85752147953144	0.6082838456391073				
350.90576171875	0.2	718655	285	54	3	0	0	2	218	stimuli\Videos_short_600ms_horvertflip\44.pushing_top_to_bottom_with_finger_short_horvertflip_short_600ms.mp4	44.pushing_top_to_bottom_with_finger_short_horvertflip_short_600ms.mp4	394.0492271943376	394.6575301009616	0.608302906623976				
351.70556640625	0.2	720293	286	54	3	0	0	3	335	stimuli\Videos_short_600ms_vertflip\69.stroke_with_soft_sock_short_vertflip_short_600ms.mp4	69.stroke_with_soft_sock_short_vertflip_short_600ms.mp4	394.84920971688007	395.45751027753704	0.6083005606569714				
352.505859375	0.2	721932	287	54	3	0	0	4	245	stimuli\Videos_short_600ms_horvertflip\69.stroke_with_soft_sock_short_horvertflip_short_600ms.mp4	69.stroke_with_soft_sock_short_horvertflip_short_600ms.mp4	395.6491957583735	396.25751801922934	0.6083222608558572				
353.3056640625	0.2	723570	288	54	3	0	0	5	235	stimuli\Videos_short_600ms_horvertflip\6.single_touch_with_flat_hand_short_horvertflip_short_600ms.mp4	6.single_touch_with_flat_hand_short_horvertflip_short_600ms.mp4	396.4491542347501	397.0575040607232	0.6083498259731641				
354.10546875	0.2	725208	289	54	3	0	0	6	155	stimuli\Videos_short_600ms_horflip\69.stroke_with_soft_sock_short_horflip_short_600ms.mp4	69.stroke_with_soft_sock_short_horflip_short_600ms.mp4	397.2491493668677	397.8574857035278	0.6083363366601588				
354.90576171875	0.2	726847	290	54	3	0	0	7	209	stimuli\Videos_short_600ms_horvertflip\36.single_slap_with_full_hand_short_horvertflip_short_600ms.mp4	36.single_slap_with_full_hand_short_horvertflip_short_600ms.mp4	398.0491521233794	398.6574726247595	0.6083205013801489				
355.70556640625	0.2	728485	291	54	3	0	0	8	341	stimuli\Videos_short_600ms_vertflip\74.fingers_walking_from_top_to_bottom_short_vertflip_short_600ms.mp4	74.fingers_walking_from_top_to_bottom_short_vertflip_short_600ms.mp4	398.84914051084024	399.4574525080884	0.6083119972481654				
356.50537109375	0.2	730123	292	54	3	0	0	9	129	stimuli\Videos_short_600ms_horflip\45.scratching_with_finger_nails_short_horflip_short_600ms.mp4	45.scratching_with_finger_nails_short_horflip_short_600ms.mp4	399.6491268455802	400.25743972256623	0.6083128769860195				
357.3056640625	0.2	731762	293	54	3	0	0	10	333	stimuli\Videos_short_600ms_vertflip\67.single_touch_with_sponge_short_vertflip_short_600ms.mp4	67.single_touch_with_sponge_short_vertflip_short_600ms.mp4	400.44910907487656	401.0574248843218	0.6083158094452301				
358.10546875	0.2	733400	294	54	3	0	0	11	78	stimuli\Videos_short_600ms\80.stroke_with_sharp_stick_all_over_the_hand_short_short_600ms.mp4	80.stroke_with_sharp_stick_all_over_the_hand_short_short_600ms.mp4	401.24906197958035	401.85742969355533	0.6083677139749852				
358.90576171875	0.2	735039	295	54	3	0	0	12	282	stimuli\Videos_short_600ms_vertflip\20.single_touch_with_screwdriver_short_vertflip_short_600ms.mp4	20.single_touch_with_screwdriver_short_vertflip_short_600ms.mp4	402.0490521265169	402.65740752416286	0.608355397645937				
359.70556640625	0.2	736677	296	54	3	0	0	13	329	stimuli\Videos_short_600ms_vertflip\63.stroke_top_to_bottom_with_screwdriver_short_vertflip_short_600ms.mp4	63.stroke_top_to_bottom_with_screwdriver_short_vertflip_short_600ms.mp4	402.8490381680108	403.4573841817869	0.6083460137760994				
360.50537109375	0.2	738315	297	54	3	0	0	14	196	stimuli\Videos_short_600ms_horvertflip\24.single_stroke_top_to_bottom_with_a_spoon_short_horvertflip_short_600ms.mp4	24.single_stroke_top_to_bottom_with_a_spoon_short_horvertflip_short_600ms.mp4	403.6490016295679	404.25736553134584	0.6083639017779205				
361.3056640625	0.2	739954	298	54	3	0	0	15	257	stimuli\Videos_short_600ms_horvertflip\8.single_touch_with_hairbrush_short_horvertflip_short_600ms.mp4	8.single_touch_with_hairbrush_short_horvertflip_short_600ms.mp4	404.44902608627854	405.0573556782824	0.6083295920038836				
362.10546875	0.2	741592	299	54	3	0	0	16	148	stimuli\Videos_short_600ms_horflip\62.touch_top_to_bottom_with_scissors_short_horflip_short_600ms.mp4	62.touch_top_to_bottom_with_scissors_short_horflip_short_600ms.mp4	405.2490042101317	405.85736136725336	0.6083571571216453				
362.9052734375	0.2	743230	300	54	3	0	0	17	179	stimuli\Videos_short_600ms_horflip\90.repeated_touch_with_sponge_short_horflip_short_600ms.mp4	90.repeated_touch_with_sponge_short_horflip_short_600ms.mp4	406.0489843867072	406.6573350924182	0.6083507057110182				
363.70556640625	0.2	744869	301	54	3	0	0	18	140	stimuli\Videos_short_600ms_horflip\55.touch_top_to_bottom_with_nail_file_short_horflip_short_600ms.mp4	55.touch_top_to_bottom_with_nail_file_short_horflip_short_600ms.mp4	406.84900092577755	407.45731878794413	0.6083178621665866				
364.50537109375	0.2	746507	302	54	3	0	0	19	188	stimuli\Videos_short_600ms_horvertflip\17.repeated_touch_with_rolling_pin_short_horvertflip_short_600ms.mp4	17.repeated_touch_with_rolling_pin_short_horvertflip_short_600ms.mp4	407.6489775834016	408.25727814405855	0.6083005606569714				
365.30517578125	0.2	748145	303	54	3	0	0	20	99	stimuli\Videos_short_600ms_horflip\18.single_stroke_from_top_to_bottom_with_rolling_pin_short_horflip_short_600ms.mp4	18.single_stroke_from_top_to_bottom_with_rolling_pin_short_horflip_short_600ms.mp4	408.44896333164934	409.05725098948506	0.6082876578357173				
366.10546875	0.2	749784	304	54	3	0	0	21	295	stimuli\Videos_short_600ms_vertflip\32.single_(long)pinch_with_fingers_short_vertflip_short_600ms.mp4	32.single_(long)pinch_with_fingers_short_vertflip_short_600ms.mp4	409.24894849340535	409.8572563852103	0.6083078918049978				
366.9052734375	0.2	751422	305	54	3	0	0	22	169	stimuli\Videos_short_600ms_horflip\81.single_stroke_top_to_bottom_with_cotton_pad_short_horflip_short_600ms.mp4	81.single_stroke_top_to_bottom_with_cotton_pad_short_horflip_short_600ms.mp4	410.0489316024395	410.6572441861794	0.6083125837399166				
367.705078125	0.2	753060	306	54	3	0	0	23	215	stimuli\Videos_short_600ms_horvertflip\41.injection_with_blunt_syringe_short_horvertflip_short_600ms.mp4	41.injection_with_blunt_syringe_short_horvertflip_short_600ms.mp4	410.8489173506873	411.4572264154762	0.6083090647889549				
368.50537109375	0.2	754699	307	54	3	0	0	24	319	stimuli\Videos_short_600ms_vertflip\54.repeated_touch_with_knife_short_vertflip_short_600ms.mp4	54.repeated_touch_with_knife_short_vertflip_short_600ms.mp4	411.6489016327055	412.2572388491035	0.608337216398013				
369.30517578125	0.2	756337	308	54	3	0	0	25	271	stimuli\Videos_short_600ms_vertflip\10.single_touch_with_knife_short_vertflip_short_600ms.mp4	10.single_touch_with_knife_short_vertflip_short_600ms.mp4	412.44888767419934	413.0572125742683	0.6083249000689648				
370.10498046875	0.2	757975	309	54	3	0	0	26	191	stimuli\Videos_short_600ms_horvertflip\2.single_touch_with_finger_short_horvertflip_short_600ms.mp4	2.single_touch_with_finger_short_horvertflip_short_600ms.mp4	413.2488719562175	413.8572088793694	0.60833692315191				
370.9052734375	0.2	759614	310	54	3	0	0	27	125	stimuli\Videos_short_600ms_horflip\41.injection_with_blunt_syringe_short_horflip_short_600ms.mp4	41.injection_with_blunt_syringe_short_horflip_short_600ms.mp4	414.0488609301701	414.657183191026	0.6083222608558572				
371.705078125	0.2	761252	311	54	3	0	0	28	287	stimuli\Videos_short_600ms_vertflip\25.single_touch_with_stanley_knife_short_vertflip_short_600ms.mp4	25.single_touch_with_stanley_knife_short_vertflip_short_600ms.mp4	414.84884814464795	415.4571645405849	0.6083163959369813				
372.5048828125	0.2	762890	312	54	3	0	0	29	124	stimuli\Videos_short_600ms_horflip\40.repeated_push_with_finger_short_horflip_short_600ms.mp4	40.repeated_push_with_finger_short_horflip_short_600ms.mp4	415.64883213342	416.2571435441764	0.6083114107564143				
373.30517578125	0.2	764529	313	54	3	0	0	30	204	stimuli\Videos_short_600ms_horvertflip\31.hand_grabbing_wrist_short_horvertflip_short_600ms.mp4	31.hand_grabbing_wrist_short_horvertflip_short_600ms.mp4	416.44878562461554	417.057116682849	0.6083310582334889				
374.10498046875	0.2	766167	314	54	3	0	0	31	223	stimuli\Videos_short_600ms_horvertflip\49.repeated_slap_with_hand_short_horvertflip_short_600ms.mp4	49.repeated_slap_with_hand_short_horvertflip_short_600ms.mp4	417.2487640417148	417.8570953931944	0.6083313514795918				
374.90478515625	0.2	767805	315	54	3	0	0	32	167	stimuli\Videos_short_600ms_horflip\8.single_touch_with_hairbrush_short_horflip_short_600ms.mp4	8.single_touch_with_hairbrush_short_horflip_short_600ms.mp4	418.04874363179806	418.6570735170481	0.6083298852499865				
375.705078125	0.2	769444	316	54	3	0	0	33	340	stimuli\Videos_short_600ms_vertflip\73.single_stroke_with_flat_hand_short_vertflip_short_600ms.mp4	73.single_stroke_with_flat_hand_short_vertflip_short_600ms.mp4	418.848724981357	419.4570492949342	0.6083243135772136				
376.5048828125	0.2	771082	317	54	3	0	0	34	142	stimuli\Videos_short_600ms_horflip\57.single_touch_with_nail_file_short_horflip_short_600ms.mp4	57.single_touch_with_nail_file_short_horflip_short_600ms.mp4	419.6487374149847	420.25702155386944	0.6082841388847555				
377.3046875	0.2	772720	318	54	3	0	0	35	344	stimuli\Videos_short_600ms_vertflip\77.tapping_with_all_fingers_short_vertflip_short_600ms.mp4	77.tapping_with_all_fingers_short_vertflip_short_600ms.mp4	420.4487310808722	421.057003196674	0.6082721158018103				
378.10498046875	0.2	774359	319	54	3	0	0	36	53	stimuli\Videos_short_600ms\58.single_slap_with_pencil_short_short_600ms.mp4	58.single_slap_with_pencil_short_short_600ms.mp4	421.24871946833355	421.85696343252584	0.6082439641922974				
378.90478515625	0.2	775997	320	54	3	0	0	37	240	stimuli\Videos_short_600ms_horvertflip\64.repeated_touch_with_screwdriver_short_horvertflip_short_600ms.mp4	64.repeated_touch_with_screwdriver_short_horvertflip_short_600ms.mp4	422.04871723966426	422.6569444888387	0.6082272491744334				
379.705078125	0.2	777636	321	54	3	0	0	38	152	stimuli\Videos_short_600ms_horflip\66.stroke_top_to_bottom_with_sponge_short_horflip_short_600ms.mp4	66.stroke_top_to_bottom_with_sponge_short_horflip_short_600ms.mp4	422.84870093519066	423.4569299438408	0.6082290086501416				
380.5048828125	0.2	779274	322	54	3	0	0	39	107	stimuli\Videos_short_600ms_horflip\25.single_touch_with_stanley_knife_short_horflip_short_600ms.mp4	25.single_touch_with_stanley_knife_short_horflip_short_600ms.mp4	423.6486731941259	424.2569110001537	0.6082378060277733				
381.3046875	0.2	780912	323	54	3	0	0	40	314	stimuli\Videos_short_600ms_vertflip\5.repeated_tap_with_finger_moving_from_top_to_bottom_short_vertflip_short_600ms.mp4	5.repeated_tap_with_finger_moving_from_top_to_bottom_short_vertflip_short_600ms.mp4	424.4486709654566	425.0569190350921	0.6082480696354651				
382.10498046875	0.2	782551	324	54	3	0	0	41	75	stimuli\Videos_short_600ms\78.single_stroke_top_to_bottom_with_soft_brush_short_short_600ms.mp4	78.single_stroke_top_to_bottom_with_soft_brush_short_short_600ms.mp4	425.2486487960641	425.85690918202863	0.6082603859645133				
382.90478515625	0.2	784189	325	54	3	0	0	42	36	stimuli\Videos_short_600ms\42.single_slap_with_plastic_whisk_short_short_600ms.mp4	42.single_slap_with_plastic_whisk_short_short_600ms.mp4	426.0486409957225	426.6569128182782	0.6082718225557073				
383.70458984375	0.2	785827	326	54	3	0	0	43	21	stimuli\Videos_short_600ms\29.single_pinch_with_tweezers_short_short_600ms.mp4	29.single_pinch_with_tweezers_short_short_600ms.mp4	426.84862645072417	427.4568935813454	0.6082671306212433				
384.5048828125	0.2	787466	327	54	3	0	0	44	227	stimuli\Videos_short_600ms_horvertflip\52.touch_top_to_bottom_with_hammer_short_horvertflip_short_600ms.mp4	52.touch_top_to_bottom_with_hammer_short_horvertflip_short_600ms.mp4	427.64860868002097	428.2568854877577	0.6082768077367291				
385.3046875	0.2	789104	328	54	3	0	0	45	316	stimuli\Videos_short_600ms_vertflip\51.repeated_touch_with_hammer_short_vertflip_short_600ms.mp4	51.repeated_touch_with_hammer_short_vertflip_short_600ms.mp4	428.4485964809901	429.0568641981031	0.6082677171129944				
386.1044921875	0.2	790742	329	54	3	0	0	46	92	stimuli\Videos_short_600ms_horflip\11.single_touch_with_lighter_short_horflip_short_600ms.mp4	11.single_touch_with_lighter_short_horflip_short_600ms.mp4	429.2485798832709	429.85684965310475	0.6082697698338961				
386.90478515625	0.2	792381	330	54	3	0	0	47	239	stimuli\Videos_short_600ms_horvertflip\63.stroke_top_to_bottom_with_screwdriver_short_horvertflip_short_600ms.mp4	63.stroke_top_to_bottom_with_screwdriver_short_horvertflip_short_600ms.mp4	430.04856768424	430.6568339351229	0.6082662508829344				
387.70458984375	0.2	794019	331	54	3	0	0	48	17	stimuli\Videos_short_600ms\25.single_touch_with_stanley_knife_short_short_600ms.mp4	25.single_touch_with_stanley_knife_short_short_600ms.mp4	430.84864727118565	431.4568190968789	0.6081718256932618				
388.50439453125	0.2	795657	332	54	3	0	0	49	117	stimuli\Videos_short_600ms_horflip\34.repeated_punch_with_hand_short_horflip_short_600ms.mp4	34.repeated_punch_with_hand_short_horflip_short_600ms.mp4	431.6485391807355	432.2568048451267	0.6082656643911832				
389.3046875	0.2	797296	333	54	3	0	0	50	359	stimuli\Videos_short_600ms_vertflip\90.repeated_touch_with_sponge_short_vertflip_short_600ms.mp4	90.repeated_touch_with_sponge_short_vertflip_short_600ms.mp4	432.4484979503577	433.0567920596041	0.6082941092463443				
390.1044921875	0.2	798934	334	54	3	0	0	51	20	stimuli\Videos_short_600ms\28.single_injection_with_sharp_needle_short_short_600ms.mp4	28.single_injection_with_sharp_needle_short_short_600ms.mp4	433.2484831121137	433.8567778078518	0.6082946957380955				
390.904296875	0.2	800572	335	54	3	0	0	52	178	stimuli\Videos_short_600ms_horflip\9.single_touch_with_hammer_short_horflip_short_600ms.mp4	9.single_touch_with_hammer_short_horflip_short_600ms.mp4	434.0484688603615	434.6567612101321	0.6082923497706361				
391.70458984375	0.2	802211	336	54	3	0	0	53	338	stimuli\Videos_short_600ms_vertflip\71.single_stroke_with_finger_top_to_bottom_short_vertflip_short_600ms.mp4	71.single_stroke_with_finger_top_to_bottom_short_vertflip_short_600ms.mp4	434.84845431536314	435.456746078642	0.6082917632788849				
392.50439453125	0.2	803849	337	54	3	0	1	54	361	stimuli\Targets_short_600ms\chopstick-silver-tap_short_short_600ms.mp4	chopstick-silver-tap_short_short_600ms.mp4	435.64844270282447	436.25673475934946	0.6082920565249879				
393.30419921875	0.2	805487	338	54	3	0	0	55	133	stimuli\Videos_short_600ms_horflip\49.repeated_slap_with_hand_short_horflip_short_600ms.mp4	49.repeated_slap_with_hand_short_horflip_short_600ms.mp4	436.44842962405573	437.0567216805807	0.6082920565249879				
394.1044921875	0.2	807126	339	54	3	0	0	56	30	stimuli\Videos_short_600ms\37.single_stab_with_nail_file_short_short_600ms.mp4	37.single_stab_with_nail_file_short_short_600ms.mp4	437.24843971171595	437.8567027368936	0.6082630251776209				
394.904296875	0.2	808764	340	54	3	0	0	57	244	stimuli\Videos_short_600ms_horvertflip\68.stroke_top_to_bottom_with_shawl_short_horvertflip_short_600ms.mp4	68.stroke_top_to_bottom_with_shawl_short_horvertflip_short_600ms.mp4	438.0484222342584	438.65667880802584	0.6082565737674486				
395.7041015625	0.2	810402	341	54	3	0	0	58	325	stimuli\Videos_short_600ms_vertflip\6.single_touch_with_flat_hand_short_vertflip_short_600ms.mp4	6.single_touch_with_flat_hand_short_vertflip_short_600ms.mp4	438.8484056365387	439.4566539994202	0.608248362881568				
396.50439453125	0.2	812041	342	54	3	0	0	59	217	stimuli\Videos_short_600ms_horvertflip\43.touch_top_to_bottom_with_sharp_wooden_stick_short_horvertflip_short_600ms.mp4	43.touch_top_to_bottom_with_sharp_wooden_stick_short_horvertflip_short_600ms.mp4	439.64839519698353	440.2566391611758	0.6082439641922974				
397.30419921875	0.2	813679	343	54	3	0	0	60	160	stimuli\Videos_short_600ms_horflip\73.single_stroke_with_flat_hand_short_horflip_short_600ms.mp4	73.single_stroke_with_flat_hand_short_horflip_short_600ms.mp4	440.4483759600507	441.0566254959158	0.6082495358650704				
398.1044921875	0.2	815318	344	54	3	0	0	61	221	stimuli\Videos_short_600ms_horvertflip\47.(long)scratching_with_finger_nails_short_horvertflip_short_600ms.mp4	47.(long)scratching_with_finger_nails_short_horvertflip_short_600ms.mp4	441.24836376101985	441.8566364633134	0.6082727022935615				
398.904296875	0.2	816956	345	54	3	0	0	62	143	stimuli\Videos_short_600ms_horflip\58.single_slap_with_pencil_short_horflip_short_600ms.mp4	58.single_slap_with_pencil_short_horflip_short_600ms.mp4	442.0483492160219	442.6566134141831	0.6082641981611232				
399.7041015625	0.2	818594	346	54	3	0	0	63	267	stimuli\Videos_short_600ms_horvertflip\89.single_touch_with_plastic_brush_short_horvertflip_short_600ms.mp4	89.single_touch_with_plastic_brush_short_horvertflip_short_600ms.mp4	442.8483349642697	443.45660092190656	0.6082659576368314				
400.50439453125	0.2	820233	347	54	3	0	0	64	216	stimuli\Videos_short_600ms_horvertflip\42.single_slap_with_plastic_whisk_short_horvertflip_short_600ms.mp4	42.single_slap_with_plastic_whisk_short_horvertflip_short_600ms.mp4	443.6483171935661	444.2566083703532	0.6082911767871337				
401.30419921875	0.2	821871	348	54	3	0	0	65	138	stimuli\Videos_short_600ms_horflip\53.touch_top_to_bottom_with_knife_short_horflip_short_600ms.mp4	53.touch_top_to_bottom_with_knife_short_horflip_short_600ms.mp4	444.44830323505994	445.0565870806986	0.6082838456386526				
402.10400390625	0.2	823509	349	54	3	0	0	66	273	stimuli\Videos_short_600ms_vertflip\12.repeated_touch_with_nail_file_short_vertflip_short_600ms.mp4	12.repeated_touch_with_nail_file_short_vertflip_short_600ms.mp4	445.2482889833077	445.8566088981961	0.6083199148883978				
402.904296875	0.2	825148	350	54	3	0	0	67	256	stimuli\Videos_short_600ms_horvertflip\79.long_with_soft_brush_all_over_the_hand_short_horvertflip_short_600ms.mp4	79.long_with_soft_brush_all_over_the_hand_short_horvertflip_short_600ms.mp4	446.0482741450637	446.6565881950333	0.6083140499695219				
403.7041015625	0.2	826786	351	54	3	0	0	68	327	stimuli\Videos_short_600ms_vertflip\61.single_hit_with_rolling_pin_short_vertflip_short_600ms.mp4	61.single_hit_with_rolling_pin_short_vertflip_short_600ms.mp4	446.8482601865571	447.4565759960028	0.6083158094456849				
404.50390625	0.2	828424	352	54	3	0	0	69	73	stimuli\Videos_short_600ms\76.tickle_with_fingers_from_top_to_bottom_short_short_600ms.mp4	76.tickle_with_fingers_from_top_to_bottom_short_short_600ms.mp4	447.64825678490433	448.2565620374962	0.6083052525918902				
405.30419921875	0.2	830063	353	54	3	0	0	70	91	stimuli\Videos_short_600ms_horflip\10.single_touch_with_knife_short_horflip_short_600ms.mp4	10.single_touch_with_knife_short_horflip_short_600ms.mp4	448.4482135018052	449.0565463195144	0.6083328177091971				
406.10400390625	0.2	831701	354	54	3	0	0	71	336	stimuli\Videos_short_600ms_vertflip\7.repeated_touch_with_hairbrush_short_vertflip_short_600ms.mp4	7.repeated_touch_with_hairbrush_short_vertflip_short_600ms.mp4	449.24818927969136	449.85653646645096	0.6083471867596018				
406.90380859375	0.2	833339	355	54	3	0	0	72	120	stimuli\Videos_short_600ms_horflip\37.single_stab_with_nail_file_short_horflip_short_600ms.mp4	37.single_stab_with_nail_file_short_horflip_short_600ms.mp4	450.048175907677	450.656518109256	0.6083422015790347				
407.7041015625	0.2	834978	356	54	3	0	0	73	29	stimuli\Videos_short_600ms\36.single_slap_with_full_hand_short_short_600ms.mp4	36.single_slap_with_full_hand_short_short_600ms.mp4	450.8481660546136	451.4564733599268	0.6083073053132466				
408.50390625	0.2	836616	357	54	3	0	1	74	373	stimuli\Targets_short_600ms_horvertflip\chopstick-silver-tap_short_vertflip_short_600ms.mp4	chopstick-silver-tap_short_vertflip_short_600ms.mp4	451.64815356233703	452.2564875530302	0.6083339906931542				
409.3037109375	0.2	838254	358	54	3	0	0	75	85	stimuli\Videos_short_600ms\87.single_stroke_top_to_bottom_with_plastic_brush_short_short_600ms.mp4	87.single_stroke_top_to_bottom_with_plastic_brush_short_short_600ms.mp4	452.4481363781256	453.0564747675075	0.60833838938197				
410.10400390625	0.2	839893	359	54	3	0	0	76	350	stimuli\Videos_short_600ms_vertflip\82.repeated_touch_with_cotton_bud_short_vertflip_short_600ms.mp4	82.repeated_touch_with_cotton_bud_short_vertflip_short_600ms.mp4	453.2481432400805	453.8564027463067	0.6082595062262044				
410.90380859375	0.2	841531	360	54	3	0	0	77	49	stimuli\Videos_short_600ms\54.repeated_touch_with_knife_short_short_600ms.mp4	54.repeated_touch_with_knife_short_short_600ms.mp4	454.04813016131175	454.656420458361	0.6082902970492796				
411.70361328125	0.2	843169	361	54	3	0	0	78	279	stimuli\Videos_short_600ms_vertflip\18.single_stroke_from_top_to_bottom_with_rolling_pin_short_vertflip_short_600ms.mp4	18.single_stroke_from_top_to_bottom_with_rolling_pin_short_vertflip_short_600ms.mp4	454.8481141500838	455.4563880253613	0.6082738752775185				
412.50390625	0.2	844808	362	54	3	0	0	79	354	stimuli\Videos_short_600ms_vertflip\86.touch_top_to_bottom_with_hair_brush_short_vertflip_short_600ms.mp4	86.touch_top_to_bottom_with_hair_brush_short_vertflip_short_600ms.mp4	455.6481004848238	456.25640221846425	0.6083017336404737				
413.3037109375	0.2	846446	363	54	3	0	0	80	187	stimuli\Videos_short_600ms_horvertflip\16.repeated_touch_with_plastic_brush_short_horvertflip_short_600ms.mp4	16.repeated_touch_with_plastic_brush_short_horvertflip_short_600ms.mp4	456.4480926844817	457.0563838612688	0.6082911767871337				
414.103515625	0.2	848084	364	54	3	0	0	81	127	stimuli\Videos_short_600ms_horflip\43.touch_top_to_bottom_with_sharp_wooden_stick_short_horflip_short_600ms.mp4	43.touch_top_to_bottom_with_sharp_wooden_stick_short_horflip_short_600ms.mp4	457.2480690488601	457.8563980543722	0.6083290055121324				
414.90380859375	0.2	849723	365	54	3	0	0	82	205	stimuli\Videos_short_600ms_horvertflip\32.single_(long)pinch_with_fingers_short_horvertflip_short_600ms.mp4	32.single_(long)pinch_with_fingers_short_horvertflip_short_600ms.mp4	458.0480310441872	458.6563779377011	0.6083468935139535				
415.70361328125	0.2	851361	366	54	3	0	0	83	54	stimuli\Videos_short_600ms\59.single_push_with_long_side_pencil_short_short_600ms.mp4	59.single_push_with_long_side_pencil_short_short_600ms.mp4	458.84802441682905	459.4563584075222	0.6083339906931542				
416.50341796875	0.2	852999	367	54	3	0	0	84	269	stimuli\Videos_short_600ms_horvertflip\90.repeated_touch_with_sponge_short_horvertflip_short_600ms.mp4	90.repeated_touch_with_sponge_short_horvertflip_short_600ms.mp4	459.6480242408816	460.2563459152457	0.608321674364106				
417.3037109375	0.2	854638	368	54	3	0	0	85	77	stimuli\Videos_short_600ms\8.single_touch_with_hairbrush_short_short_600ms.mp4	8.single_touch_with_hairbrush_short_short_600ms.mp4	460.4479865294552	461.0563275580502	0.6083410285950777				
418.103515625	0.2	856276	369	54	3	0	0	86	255	stimuli\Videos_short_600ms_horvertflip\78.single_stroke_top_to_bottom_with_soft_brush_short_horvertflip_short_600ms.mp4	78.single_stroke_top_to_bottom_with_soft_brush_short_horvertflip_short_600ms.mp4	461.2479755034082	461.8563156522655	0.6083401488572235				
418.90380859375	0.2	857915	370	54	3	0	0	87	258	stimuli\Videos_short_600ms_horvertflip\80.stroke_with_sharp_stick_all_over_the_hand_short_horvertflip_short_600ms.mp4	80.stroke_with_sharp_stick_all_over_the_hand_short_horvertflip_short_600ms.mp4	462.04798060588746	462.6562990545458	0.6083184486583377				
419.70361328125	0.2	859553	371	54	3	0	0	88	334	stimuli\Videos_short_600ms_vertflip\68.stroke_top_to_bottom_with_shawl_short_vertflip_short_600ms.mp4	68.stroke_top_to_bottom_with_shawl_short_vertflip_short_600ms.mp4	462.84794025524707	463.4562862690232	0.6083460137760994				
420.50341796875	0.2	861191	372	54	3	0	0	89	186	stimuli\Videos_short_600ms_horvertflip\15.single_stroke_top_to_bottom_with_a_plastic_whisk_short_horvertflip_short_600ms.mp4	15.single_stroke_top_to_bottom_with_a_plastic_whisk_short_horvertflip_short_600ms.mp4	463.64792101831426	464.2562714307792	0.6083504124649153				
421.3037109375	0.2	862830	373	54	3	0	0	90	241	stimuli\Videos_short_600ms_horvertflip\65.stroke_top_to_bottom_with_stanley_knife_short_horvertflip_short_600ms.mp4	65.stroke_top_to_bottom_with_stanley_knife_short_horvertflip_short_600ms.mp4	464.4479117517426	465.05625600604344	0.6083442543008459				
422.103515625	0.2	864468	374	54	3	0	0	91	9	stimuli\Videos_short_600ms\18.single_stroke_from_top_to_bottom_with_rolling_pin_short_short_600ms.mp4	18.single_stroke_from_top_to_bottom_with_rolling_pin_short_short_600ms.mp4	465.2479010189418	465.85624263402906	0.6083416150872836				
