onset	duration	onsetsample	eventnumber	subjectnr	sequencenumber	blocksequencenumber	istarget	presentationnumber	stimnumber	stim	stimname	time_stimon	time_stimoff	stimdur	cresp	resp	rt	correct
29.9169921875	0.2	61270	0	73	0	0	0	0	295	stimuli\Videos_short_600ms_vertflip\32.single_(long)pinch_with_fingers_short_vertflip_short_600ms.mp4	32.single_(long)pinch_with_fingers_short_vertflip_short_600ms.mp4	56.85615977398993	57.464256504983496	0.6080967309935659				
30.71728515625	0.2	62909	1	73	0	0	0	1	330	stimuli\Videos_short_600ms_vertflip\64.repeated_touch_with_screwdriver_short_vertflip_short_600ms.mp4	64.repeated_touch_with_screwdriver_short_vertflip_short_600ms.mp4	57.65622821739089	58.264233749165214	0.6080055317743245				
31.51708984375	0.2	64547	2	73	0	0	0	2	119	stimuli\Videos_short_600ms_horflip\36.single_slap_with_full_hand_short_horflip_short_600ms.mp4	36.single_slap_with_full_hand_short_horflip_short_600ms.mp4	58.455902832660286	59.06421803122976	0.6083151985694712				
32.31689453125	0.2	66185	3	73	0	0	0	3	178	stimuli\Videos_short_600ms_horflip\9.single_touch_with_hammer_short_horflip_short_600ms.mp4	9.single_touch_with_hammer_short_horflip_short_600ms.mp4	59.25592259737823	59.86420612547954	0.6082835281013104				
33.1171875	0.2	67824	4	73	0	0	0	4	150	stimuli\Videos_short_600ms_horflip\64.repeated_touch_with_screwdriver_short_horflip_short_600ms.mp4	64.repeated_touch_with_screwdriver_short_horflip_short_600ms.mp4	60.055848523672466	60.66418161019101	0.6083330865185417				
33.9169921875	0.2	69462	5	73	0	0	1	5	379	stimuli\Targets_short_600ms_vertflip\chopstick-silver-tap_short_horvertflip_short_600ms.mp4	chopstick-silver-tap_short_horvertflip_short_600ms.mp4	60.85582518136471	61.46416618550029	0.6083410041355819				
34.716796875	0.2	71100	6	73	0	0	0	6	13	stimuli\Videos_short_600ms\21.repeated_touch_with_metal_chopstick_short_short_600ms.mp4	21.repeated_touch_with_metal_chopstick_short_short_600ms.mp4	61.65578717680364	62.264149881075355	0.6083627042717126				
35.51708984375	0.2	72739	7	73	0	0	0	7	306	stimuli\Videos_short_600ms_vertflip\42.single_slap_with_plastic_whisk_short_vertflip_short_600ms.mp4	42.single_slap_with_plastic_whisk_short_vertflip_short_600ms.mp4	62.45579785092377	63.06413123068887	0.6083333797650994				
36.31689453125	0.2	74377	8	73	0	0	0	8	74	stimuli\Videos_short_600ms\77.tapping_with_all_fingers_short_short_600ms.mp4	77.tapping_with_all_fingers_short_short_600ms.mp4	63.25575134225619	63.86411609924289	0.6083647569867026				
37.11669921875	0.2	76015	9	73	0	0	0	9	115	stimuli\Videos_short_600ms_horflip\32.single_(long)pinch_with_fingers_short_horflip_short_600ms.mp4	32.single_(long)pinch_with_fingers_short_horflip_short_600ms.mp4	64.05576612180812	64.66410331375846	0.6083371919503406				
37.9169921875	0.2	77654	10	73	0	0	0	10	179	stimuli\Videos_short_600ms_horflip\90.repeated_touch_with_sponge_short_horflip_short_600ms.mp4	90.repeated_touch_with_sponge_short_horflip_short_600ms.mp4	64.85572606453206	65.46407967820596	0.6083536136738985				
38.716796875	0.2	79292	11	73	0	0	0	11	156	stimuli\Videos_short_600ms_horflip\7.repeated_touch_with_hairbrush_short_horflip_short_600ms.mp4	7.repeated_touch_with_hairbrush_short_horflip_short_600ms.mp4	65.65574964143525	66.26406484000472	0.6083151985694712				
39.5166015625	0.2	80930	12	73	0	0	0	12	217	stimuli\Videos_short_600ms_horvertflip\43.touch_top_to_bottom_with_sharp_wooden_stick_short_horvertflip_short_600ms.mp4	43.touch_top_to_bottom_with_sharp_wooden_stick_short_horvertflip_short_600ms.mp4	66.45585386073253	67.06400102987755	0.6081471691450133				
40.31689453125	0.2	82569	13	73	0	0	0	13	270	stimuli\Videos_short_600ms_vertflip\1.repeated_touch_with_finger_fast_short_vertflip_short_600ms.mp4	1.repeated_touch_with_finger_fast_short_vertflip_short_600ms.mp4	67.25573580026867	67.86401668916369	0.608280888895024				
41.11669921875	0.2	84207	14	73	0	0	0	14	66	stimuli\Videos_short_600ms\7.repeated_touch_with_hairbrush_short_short_600ms.mp4	7.repeated_touch_with_hairbrush_short_short_600ms.mp4	68.05567521583544	68.66397106023032	0.6082958443948883				
41.91650390625	0.2	85845	15	73	0	0	0	15	254	stimuli\Videos_short_600ms_horvertflip\77.tapping_with_all_fingers_short_horvertflip_short_600ms.mp4	77.tapping_with_all_fingers_short_horvertflip_short_600ms.mp4	68.85565627220421	69.46398671951829	0.6083304473140743				
42.716796875	0.2	87484	16	73	0	0	1	16	382	stimuli\Targets_short_600ms_vertflip\hand-pinch_short_horvertflip_short_600ms.mp4	hand-pinch_short_horvertflip_short_600ms.mp4	69.6557625442183	70.26396191098502	0.608199366766712				
43.5166015625	0.2	89122	17	73	0	0	0	17	133	stimuli\Videos_short_600ms_horflip\49.repeated_slap_with_hand_short_horflip_short_600ms.mp4	49.repeated_slap_with_hand_short_horflip_short_600ms.mp4	70.45569404216985	71.06397551755617	0.6082814753863204				
44.31689453125	0.2	90761	18	73	0	0	0	18	23	stimuli\Videos_short_600ms\30.finger_pulling_back_another_finger_short_short_600ms.mp4	30.finger_pulling_back_another_finger_short_short_600ms.mp4	71.25563287124714	71.86394220491638	0.60830933366924				
45.11669921875	0.2	92399	19	73	0	0	0	19	325	stimuli\Videos_short_600ms_vertflip\6.single_touch_with_flat_hand_short_vertflip_short_600ms.mp4	6.single_touch_with_flat_hand_short_vertflip_short_600ms.mp4	72.05561187490093	72.6639311789022	0.6083193040012702				
45.91650390625	0.2	94037	20	73	0	0	0	20	227	stimuli\Videos_short_600ms_horvertflip\52.touch_top_to_bottom_with_hammer_short_horvertflip_short_600ms.mp4	52.touch_top_to_bottom_with_hammer_short_horvertflip_short_600ms.mp4	72.8555747500759	73.46391634070096	0.6083415906250593				
46.716796875	0.2	95676	21	73	0	0	0	21	234	stimuli\Videos_short_600ms_horvertflip\59.single_push_with_long_side_pencil_short_horvertflip_short_600ms.mp4	59.single_push_with_long_side_pencil_short_horvertflip_short_600ms.mp4	73.65563205016224	74.2638929983932	0.6082609482309635				
47.5166015625	0.2	97314	22	73	0	0	0	22	183	stimuli\Videos_short_600ms_horvertflip\12.repeated_touch_with_nail_file_short_horvertflip_short_600ms.mp4	12.repeated_touch_with_nail_file_short_horvertflip_short_600ms.mp4	74.45555914943725	75.06387786694722	0.6083187175099738				
48.31640625	0.2	98952	23	73	0	0	1	23	374	stimuli\Targets_short_600ms_horvertflip\chopstickwood-tap_short_vertflip_short_600ms.mp4	chopstickwood-tap_short_vertflip_short_600ms.mp4	75.25554225852102	75.86386068278625	0.6083184242652351				
49.11669921875	0.2	100591	24	73	0	0	0	24	83	stimuli\Videos_short_600ms\85.touch_top_to_bottom_with_fabric_short_short_600ms.mp4	85.touch_top_to_bottom_with_fabric_short_short_600ms.mp4	76.0555060134302	76.66384437836132	0.6083383649311145				
49.91650390625	0.2	102229	25	73	0	0	0	25	98	stimuli\Videos_short_600ms_horflip\17.repeated_touch_with_rolling_pin_short_horflip_short_600ms.mp4	17.repeated_touch_with_rolling_pin_short_horflip_short_600ms.mp4	76.8554641966839	77.46382748744509	0.60836329076119				
50.71630859375	0.2	103867	26	73	0	0	0	26	56	stimuli\Videos_short_600ms\60.single_push_with_tip_of_pencil_short_short_600ms.mp4	60.single_push_with_tip_of_pencil_short_short_600ms.mp4	77.65544730576767	78.26381646142909	0.6083691556614212				
51.5166015625	0.2	105506	27	73	0	0	0	27	329	stimuli\Videos_short_600ms_vertflip\63.stroke_top_to_bottom_with_screwdriver_short_vertflip_short_600ms.mp4	63.stroke_top_to_bottom_with_screwdriver_short_vertflip_short_600ms.mp4	78.45543246756642	79.06379517183814	0.6083627042717126				
52.31640625	0.2	107144	28	73	0	0	0	28	113	stimuli\Videos_short_600ms_horflip\30.finger_pulling_back_another_finger_short_horflip_short_600ms.mp4	30.finger_pulling_back_another_finger_short_horflip_short_600ms.mp4	79.25543727678632	79.86377652145165	0.6083392446653306				
53.1162109375	0.2	108782	29	73	0	0	0	29	64	stimuli\Videos_short_600ms\68.stroke_top_to_bottom_with_shawl_short_short_600ms.mp4	68.stroke_top_to_bottom_with_shawl_short_short_600ms.mp4	80.05542449130007	80.6637470209971	0.608322529697034				
53.91650390625	0.2	110421	30	73	0	0	0	30	308	stimuli\Videos_short_600ms_vertflip\44.pushing_top_to_bottom_with_finger_short_vertflip_short_600ms.mp4	44.pushing_top_to_bottom_with_finger_short_vertflip_short_600ms.mp4	80.85541639773692	81.46374948425546	0.6083330865185417				
54.71630859375	0.2	112059	31	73	0	0	0	31	53	stimuli\Videos_short_600ms\58.single_slap_with_pencil_short_short_600ms.mp4	58.single_slap_with_pencil_short_short_600ms.mp4	81.65541475556529	82.263683034922	0.6082682793567074				
55.51611328125	0.2	113697	32	73	0	0	0	32	321	stimuli\Videos_short_600ms_vertflip\56.repeated_touch_with_nail_file_short_vertflip_short_600ms.mp4	56.repeated_touch_with_nail_file_short_vertflip_short_600ms.mp4	82.45539082676623	83.06366555751629	0.608274730750054				
56.31640625	0.2	115336	33	73	0	0	0	33	316	stimuli\Videos_short_600ms_vertflip\51.repeated_touch_with_hammer_short_vertflip_short_600ms.mp4	51.repeated_touch_with_hammer_short_vertflip_short_600ms.mp4	83.25533933293264	83.8636469071298	0.6083075741971697				
57.1162109375	0.2	116974	34	73	0	0	0	34	345	stimuli\Videos_short_600ms_vertflip\78.single_stroke_top_to_bottom_with_soft_brush_short_vertflip_short_600ms.mp4	78.single_stroke_top_to_bottom_with_soft_brush_short_vertflip_short_600ms.mp4	84.05535000705277	84.66366403264146	0.6083140255886974				
57.916015625	0.2	118612	35	73	0	0	0	35	298	stimuli\Videos_short_600ms_vertflip\35.single_punch_with_hand_short_vertflip_short_600ms.mp4	35.single_punch_with_hand_short_vertflip_short_600ms.mp4	84.85532783772578	85.4636406903337	0.6083128526079236				
58.71630859375	0.2	120251	36	73	0	0	0	36	282	stimuli\Videos_short_600ms_vertflip\20.single_touch_with_screwdriver_short_vertflip_short_600ms.mp4	20.single_touch_with_screwdriver_short_vertflip_short_600ms.mp4	85.6553481889332	86.26364051438759	0.6082923254543857				
59.51611328125	0.2	121889	37	73	0	0	0	37	142	stimuli\Videos_short_600ms_horflip\57.single_touch_with_nail_file_short_horflip_short_600ms.mp4	57.single_touch_with_nail_file_short_horflip_short_600ms.mp4	86.45528701801231	87.06364327089068	0.6083562528783659				
60.31591796875	0.2	123527	38	73	0	0	0	38	207	stimuli\Videos_short_600ms_horvertflip\34.repeated_punch_with_hand_short_horvertflip_short_600ms.mp4	34.repeated_punch_with_hand_short_horvertflip_short_600ms.mp4	87.25528918802593	87.86360995825089	0.6083207702249638				
61.1162109375	0.2	125166	39	73	0	0	0	39	60	stimuli\Videos_short_600ms\64.repeated_touch_with_screwdriver_short_short_600ms.mp4	64.repeated_touch_with_screwdriver_short_short_600ms.mp4	88.05530250135234	88.66359248084518	0.608289979492838				
61.916015625	0.2	126804	40	73	0	0	0	40	206	stimuli\Videos_short_600ms_horvertflip\33.scratch_top_to_bottom_with_scissors_short_horvertflip_short_600ms.mp4	33.scratch_top_to_bottom_with_scissors_short_horvertflip_short_600ms.mp4	88.85525951162344	89.46357646966499	0.6083169580415415				
62.7158203125	0.2	128442	41	73	0	0	0	41	238	stimuli\Videos_short_600ms_horvertflip\62.touch_top_to_bottom_with_scissors_short_horvertflip_short_600ms.mp4	62.touch_top_to_bottom_with_scissors_short_horvertflip_short_600ms.mp4	89.65523646256224	90.2635598719935	0.6083234094312502				
63.51611328125	0.2	130081	42	73	0	0	0	42	25	stimuli\Videos_short_600ms\32.single_(long)pinch_with_fingers_short_short_600ms.mp4	32.single_(long)pinch_with_fingers_short_short_600ms.mp4	90.455228662242	91.06354298107726	0.6083143188352551				
64.31591796875	0.2	131719	43	73	0	0	0	43	97	stimuli\Videos_short_600ms_horflip\16.repeated_touch_with_plastic_brush_short_horflip_short_600ms.mp4	16.repeated_touch_with_plastic_brush_short_horflip_short_600ms.mp4	91.25516338588932	91.86352784963128	0.6083644637419638				
65.1162109375	0.2	133358	44	73	0	0	0	44	189	stimuli\Videos_short_600ms_horvertflip\18.single_stroke_from_top_to_bottom_with_rolling_pin_short_horvertflip_short_600ms.mp4	18.single_stroke_from_top_to_bottom_with_rolling_pin_short_horvertflip_short_600ms.mp4	92.0551464949749	92.6635091992448	0.6083627042698936				
65.916015625	0.2	134996	45	73	0	0	1	45	363	stimuli\Targets_short_600ms\finger-tap_short_short_600ms.mp4	finger-tap_short_short_600ms.mp4	92.85517124485888	93.46349230832855	0.6083210634697025				
66.7158203125	0.2	136634	46	73	0	0	0	46	26	stimuli\Videos_short_600ms\33.scratch_top_to_bottom_with_scissors_short_short_600ms.mp4	33.scratch_top_to_bottom_with_scissors_short_short_600ms.mp4	93.65511154016168	94.26347688363784	0.60836534347618				
67.51611328125	0.2	138273	47	73	0	0	0	47	323	stimuli\Videos_short_600ms_vertflip\58.single_slap_with_pencil_short_vertflip_short_600ms.mp4	58.single_slap_with_pencil_short_vertflip_short_600ms.mp4	94.4550958222262	95.06344650344909	0.6083506812228734				
68.31591796875	0.2	139911	48	73	0	0	0	48	180	stimuli\Videos_short_600ms_horvertflip\1.repeated_touch_with_finger_fast_short_horvertflip_short_600ms.mp4	1.repeated_touch_with_finger_fast_short_horvertflip_short_600ms.mp4	95.25510678959108	95.86344339505196	0.6083366054608632				
69.11572265625	0.2	141549	49	73	0	0	0	49	346	stimuli\Videos_short_600ms_vertflip\79.long_with_soft_brush_all_over_the_hand_short_vertflip_short_600ms.mp4	79.long_with_soft_brush_all_over_the_hand_short_vertflip_short_600ms.mp4	96.0550916581451	96.66342679738044	0.6083351392353507				
69.916015625	0.2	143188	50	73	0	0	0	50	77	stimuli\Videos_short_600ms\8.single_touch_with_hairbrush_short_short_600ms.mp4	8.single_touch_with_hairbrush_short_short_600ms.mp4	96.8550929484245	97.46336328049802	0.6082703320735163				
70.7158203125	0.2	144826	51	73	0	0	0	51	10	stimuli\Videos_short_600ms\19.single_touch_with_rolling_pin_short_short_600ms.mp4	19.single_touch_with_rolling_pin_short_short_600ms.mp4	97.65505289114844	98.26336896945212	0.6083160783036874				
71.515625	0.2	146464	52	73	0	0	0	52	219	stimuli\Videos_short_600ms_horvertflip\45.scratching_with_finger_nails_short_horvertflip_short_600ms.mp4	45.scratching_with_finger_nails_short_horvertflip_short_600ms.mp4	98.45508262619842	99.06333096489108	0.6082483386926469				
72.31591796875	0.2	148103	53	73	0	0	0	53	324	stimuli\Videos_short_600ms_vertflip\59.single_push_with_long_side_pencil_short_vertflip_short_600ms.mp4	59.single_push_with_long_side_pencil_short_vertflip_short_600ms.mp4	99.25509828548456	99.8633416390112	0.6082433535266318				
73.11572265625	0.2	149741	54	73	0	0	1	54	367	stimuli\Targets_short_600ms_horflip\chopstick-silver-tap_short_horflip_short_600ms.mp4	chopstick-silver-tap_short_horflip_short_600ms.mp4	100.05501629416358	100.663323575116	0.608307280952431				
73.91552734375	0.2	151379	55	73	0	0	0	55	49	stimuli\Videos_short_600ms\54.repeated_touch_with_knife_short_short_600ms.mp4	54.repeated_touch_with_knife_short_short_600ms.mp4	100.85498532748352	101.46331137612106	0.6083260486375366				
74.7158203125	0.2	153018	56	73	0	0	1	56	360	stimuli\Targets_short_600ms\brush-stroke_short_short_600ms.mp4	brush-stroke_short_short_600ms.mp4	101.65498984345686	102.26332146375172	0.6083316202948481				
75.515625	0.2	154656	57	73	0	0	0	57	169	stimuli\Videos_short_600ms_horflip\81.single_stroke_top_to_bottom_with_cotton_pad_short_horflip_short_600ms.mp4	81.single_stroke_top_to_bottom_with_cotton_pad_short_horflip_short_600ms.mp4	102.4549732457872	103.06329342952267	0.6083201837354864				
76.3154296875	0.2	156294	58	73	0	0	0	58	122	stimuli\Videos_short_600ms_horflip\39.single_stab_with_scissors_short_horflip_short_600ms.mp4	39.single_stab_with_scissors_short_horflip_short_600ms.mp4	103.25495987381146	103.8632762453617	0.6083163715502451				
77.11572265625	0.2	157933	59	73	0	0	0	59	153	stimuli\Videos_short_600ms_horflip\67.single_touch_with_sponge_short_horflip_short_600ms.mp4	67.single_touch_with_sponge_short_horflip_short_600ms.mp4	104.0549136583886	104.6632581814647	0.6083445230760844				
77.91552734375	0.2	159571	60	73	0	0	0	60	78	stimuli\Videos_short_600ms\80.stroke_with_sharp_stick_all_over_the_hand_short_short_600ms.mp4	80.stroke_with_sharp_stick_all_over_the_hand_short_short_600ms.mp4	104.85492873118528	105.46324099730371	0.6083122661184461				
78.71533203125	0.2	161209	61	73	0	0	0	61	335	stimuli\Videos_short_600ms_vertflip\69.stroke_with_soft_sock_short_vertflip_short_600ms.mp4	69.stroke_with_soft_sock_short_vertflip_short_600ms.mp4	105.65490568212226	106.26322645234724	0.6083207702249638				
79.515625	0.2	162848	62	73	0	0	0	62	244	stimuli\Videos_short_600ms_horvertflip\68.stroke_top_to_bottom_with_shawl_short_horvertflip_short_600ms.mp4	68.stroke_top_to_bottom_with_shawl_short_horvertflip_short_600ms.mp4	106.45488321955054	107.06320780196074	0.608324582410205				
80.3154296875	0.2	164486	63	73	0	0	0	63	36	stimuli\Videos_short_600ms\42.single_slap_with_plastic_whisk_short_short_600ms.mp4	42.single_slap_with_plastic_whisk_short_short_600ms.mp4	107.25485283935996	107.86319325700606	0.6083404176461045				
81.115234375	0.2	166124	64	73	0	0	0	64	320	stimuli\Videos_short_600ms_vertflip\55.touch_top_to_bottom_with_nail_file_short_vertflip_short_600ms.mp4	55.touch_top_to_bottom_with_nail_file_short_vertflip_short_600ms.mp4	108.05481307532864	108.6631754863556	0.6083624110269739				
81.91552734375	0.2	167763	65	73	0	0	0	65	338	stimuli\Videos_short_600ms_vertflip\71.single_stroke_with_finger_top_to_bottom_short_vertflip_short_600ms.mp4	71.single_stroke_with_finger_top_to_bottom_short_vertflip_short_600ms.mp4	108.85479647765716	109.46316651305642	0.6083700353992754				
82.71533203125	0.2	169401	66	73	0	0	0	66	73	stimuli\Videos_short_600ms\76.tickle_with_fingers_from_top_to_bottom_short_short_600ms.mp4	76.tickle_with_fingers_from_top_to_bottom_short_short_600ms.mp4	109.6547822259472	110.26314258425737	0.6083603583101649				
83.51513671875	0.2	171039	67	73	0	0	0	67	32	stimuli\Videos_short_600ms\39.single_stab_with_scissors_short_short_600ms.mp4	39.single_stab_with_scissors_short_short_600ms.mp4	110.45478762165658	111.0631072189026	0.6083195972460089				
84.3154296875	0.2	172678	68	73	0	0	0	68	30	stimuli\Videos_short_600ms\37.single_stab_with_nail_file_short_short_600ms.mp4	37.single_stab_with_nail_file_short_short_600ms.mp4	111.25476427934882	111.86309032798636	0.6083260486375366				
85.115234375	0.2	174316	69	73	0	0	0	69	358	stimuli\Videos_short_600ms_vertflip\9.single_touch_with_hammer_short_vertflip_short_600ms.mp4	9.single_touch_with_hammer_short_vertflip_short_600ms.mp4	112.05477700618576	112.66304792474877	0.6082709185629938				
85.91552734375	0.2	175955	70	73	0	0	0	70	336	stimuli\Videos_short_600ms_vertflip\7.repeated_touch_with_hairbrush_short_vertflip_short_600ms.mp4	7.repeated_touch_with_hairbrush_short_vertflip_short_600ms.mp4	112.85473577592892	113.46303513926432	0.6082993633353908				
86.71533203125	0.2	177593	71	73	0	0	0	71	129	stimuli\Videos_short_600ms_horflip\45.scratching_with_finger_nails_short_horflip_short_600ms.mp4	45.scratching_with_finger_nails_short_horflip_short_600ms.mp4	113.65474087839176	114.26301179695656	0.6082709185648127				
87.51513671875	0.2	179231	72	73	0	0	0	72	158	stimuli\Videos_short_600ms_horflip\71.single_stroke_with_finger_top_to_bottom_short_horflip_short_600ms.mp4	71.single_stroke_with_finger_top_to_bottom_short_horflip_short_600ms.mp4	114.4552805666208	115.06301719266594	0.6077366260451527				
88.3154296875	0.2	180870	73	73	0	0	0	73	185	stimuli\Videos_short_600ms_horvertflip\14.repeated_touch_with_pencil_short_horvertflip_short_600ms.mp4	14.repeated_touch_with_pencil_short_horvertflip_short_600ms.mp4	115.25468862212074	115.863014964003	0.6083263418822753				
89.115234375	0.2	182508	74	73	0	0	1	74	380	stimuli\Targets_short_600ms_vertflip\chopstickwood-tap_short_horvertflip_short_600ms.mp4	chopstickwood-tap_short_horvertflip_short_600ms.mp4	116.0546904988896	116.66300980288906	0.6083193039994512				
89.9150390625	0.2	184146	75	73	0	0	0	75	257	stimuli\Videos_short_600ms_horvertflip\8.single_touch_with_hairbrush_short_horvertflip_short_600ms.mp4	8.single_touch_with_hairbrush_short_horvertflip_short_600ms.mp4	116.854648095652	117.46300552151116	0.6083574258591398				
90.71533203125	0.2	185785	76	73	0	0	1	76	375	stimuli\Targets_short_600ms_horvertflip\finger-tap_short_vertflip_short_600ms.mp4	finger-tap_short_vertflip_short_600ms.mp4	117.65465994275291	118.26297719403738	0.6083172512844612				
91.51513671875	0.2	187423	77	73	0	0	0	77	205	stimuli\Videos_short_600ms_horvertflip\32.single_(long)pinch_with_fingers_short_horvertflip_short_600ms.mp4	32.single_(long)pinch_with_fingers_short_horvertflip_short_600ms.mp4	118.45464305183668	119.06296998021026	0.6083269283735717				
92.31494140625	0.2	189061	78	73	0	0	0	78	164	stimuli\Videos_short_600ms_horflip\77.tapping_with_all_fingers_short_horflip_short_600ms.mp4	77.tapping_with_all_fingers_short_horflip_short_600ms.mp4	119.25462352171598	119.86294458518567	0.6083210634697025				
93.115234375	0.2	190700	79	73	0	0	0	79	52	stimuli\Videos_short_600ms\57.single_touch_with_nail_file_short_short_600ms.mp4	57.single_touch_with_nail_file_short_short_600ms.mp4	120.05460751053396	120.66292974698626	0.6083222364522953				
93.9150390625	0.2	192338	80	73	0	0	0	80	220	stimuli\Videos_short_600ms_horvertflip\46.scratching_top_to_bottom_with_finger_nails_short_horvertflip_short_600ms.mp4	46.scratching_top_to_bottom_with_finger_nails_short_horvertflip_short_600ms.mp4	120.85458973988352	121.46291051010849	0.6083207702249638				
94.71484375	0.2	193976	81	73	0	0	0	81	107	stimuli\Videos_short_600ms_horflip\25.single_touch_with_stanley_knife_short_horflip_short_600ms.mp4	25.single_touch_with_stanley_knife_short_horflip_short_600ms.mp4	121.6545707962523	122.26289303270278	0.6083222364504763				
95.51513671875	0.2	195615	82	73	0	0	0	82	281	stimuli\Videos_short_600ms_vertflip\2.single_touch_with_finger_short_vertflip_short_600ms.mp4	2.single_touch_with_finger_short_vertflip_short_600ms.mp4	122.45452252811263	123.06287760801206	0.6083550798994111				
96.31494140625	0.2	197253	83	73	0	0	0	83	236	stimuli\Videos_short_600ms_horvertflip\60.single_push_with_tip_of_pencil_short_horvertflip_short_600ms.mp4	60.single_push_with_tip_of_pencil_short_horvertflip_short_600ms.mp4	123.2544985993154	123.8628598373616	0.6083612380462				
97.11474609375	0.2	198891	84	73	0	0	1	84	376	stimuli\Targets_short_600ms_horvertflip\hand-pinch_short_vertflip_short_600ms.mp4	hand-pinch_short_vertflip_short_600ms.mp4	124.05448024217368	124.66284294644538	0.6083627042717126				
97.9150390625	0.2	200530	85	73	0	0	0	85	21	stimuli\Videos_short_600ms\29.single_pinch_with_tweezers_short_short_600ms.mp4	29.single_pinch_with_tweezers_short_short_600ms.mp4	124.85451202994044	125.46282693526337	0.6083149053229135				
98.71484375	0.2	202168	86	73	0	0	0	86	187	stimuli\Videos_short_600ms_horvertflip\16.repeated_touch_with_plastic_brush_short_horvertflip_short_600ms.mp4	16.repeated_touch_with_plastic_brush_short_horvertflip_short_600ms.mp4	125.65444997928353	126.26281209706394	0.6083621177804162				
99.5146484375	0.2	203806	87	73	0	0	0	87	265	stimuli\Videos_short_600ms_horvertflip\87.single_stroke_top_to_bottom_with_plastic_brush_short_horvertflip_short_600ms.mp4	87.single_stroke_top_to_bottom_with_plastic_brush_short_horvertflip_short_600ms.mp4	126.45448851168476	127.06276764111136	0.6082791294265917				
100.31494140625	0.2	205445	88	73	0	0	0	88	89	stimuli\Videos_short_600ms\90.repeated_touch_with_sponge_short_short_600ms.mp4	90.repeated_touch_with_sponge_short_short_600ms.mp4	127.25446018421098	127.8627331554908	0.6082729712798027				
101.11474609375	0.2	207083	89	73	0	0	0	89	171	stimuli\Videos_short_600ms_horflip\83.single_stroke_top_to_bottom_with_cotton_bud_short_horflip_short_600ms.mp4	83.single_stroke_top_to_bottom_with_cotton_bud_short_horflip_short_600ms.mp4	128.0544415338245	128.66271626457456	0.608274730750054				
101.91455078125	0.2	208721	90	73	0	0	0	90	63	stimuli\Videos_short_600ms\67.single_touch_with_sponge_short_short_600ms.mp4	67.single_touch_with_sponge_short_short_600ms.mp4	128.8544234699275	129.46272957790097	0.6083061079734762				
102.71484375	0.2	210360	91	73	0	0	0	91	248	stimuli\Videos_short_600ms_horvertflip\71.single_stroke_with_finger_top_to_bottom_short_horvertflip_short_600ms.mp4	71.single_stroke_with_finger_top_to_bottom_short_horvertflip_short_600ms.mp4	129.65437285582993	130.26268688141863	0.6083140255886974				
103.5146484375	0.2	211998	92	73	0	0	0	92	72	stimuli\Videos_short_600ms\75.(long)stroke_with_fingers_all_over_the_hand_short_short_600ms.mp4	75.(long)stroke_with_fingers_all_over_the_hand_short_short_600ms.mp4	130.45439408677157	131.06269051765776	0.6082964308861847				
104.314453125	0.2	213636	93	73	0	0	0	93	109	stimuli\Videos_short_600ms_horflip\27.single_push_with_a_plastic_whisk_short_horflip_short_600ms.mp4	27.single_push_with_a_plastic_whisk_short_horflip_short_600ms.mp4	131.2543742634061	131.86267538621178	0.6083011228056421				
105.11474609375	0.2	215275	94	73	0	0	0	94	214	stimuli\Videos_short_600ms_horvertflip\40.repeated_push_with_finger_short_horvertflip_short_600ms.mp4	40.repeated_push_with_finger_short_horvertflip_short_600ms.mp4	132.0543608914304	132.66268166165537	0.6083207702249638				
105.91455078125	0.2	216913	95	73	0	0	0	95	327	stimuli\Videos_short_600ms_vertflip\61.single_hit_with_rolling_pin_short_vertflip_short_600ms.mp4	61.single_hit_with_rolling_pin_short_vertflip_short_600ms.mp4	132.85432024766305	133.46266125179864	0.6083410041355819				
106.71484375	0.2	218552	96	73	0	0	0	96	69	stimuli\Videos_short_600ms\72.(short)stroke_with_finger_all_over_the_hand_short_short_600ms.mp4	72.(short)stroke_with_finger_all_over_the_hand_short_short_600ms.mp4	133.65432417714692	134.2626464135992	0.6083222364522953				
107.5146484375	0.2	220190	97	73	0	0	0	97	87	stimuli\Videos_short_600ms\89.single_touch_with_plastic_brush_short_short_600ms.mp4	89.single_touch_with_plastic_brush_short_short_600ms.mp4	134.4542879320561	135.0626268834767	0.6083389514205919				
108.314453125	0.2	221828	98	73	0	0	0	98	344	stimuli\Videos_short_600ms_vertflip\77.tapping_with_all_fingers_short_vertflip_short_600ms.mp4	77.tapping_with_all_fingers_short_vertflip_short_600ms.mp4	135.25426810869067	135.86261204527727	0.608343936586607	9.0	9.0	2.5621326189102547	1.0
145.23828125	0.2	297448	99	73	1	0	0	0	252	stimuli\Videos_short_600ms_horvertflip\75.(long)stroke_with_fingers_all_over_the_hand_short_horvertflip_short_600ms.mp4	75.(long)stroke_with_fingers_all_over_the_hand_short_horvertflip_short_600ms.mp4	172.17851645559497	172.78685188807322	0.6083354324782704				
146.0380859375	0.2	299086	100	73	1	0	0	1	112	stimuli\Videos_short_600ms_horflip\3.single_push_with_finger_short_horflip_short_600ms.mp4	3.single_push_with_finger_short_horflip_short_600ms.mp4	172.9784925267959	173.58681271053138	0.6083201837354864				
146.83837890625	0.2	300725	101	73	1	0	0	2	35	stimuli\Videos_short_600ms\41.injection_with_blunt_syringe_short_short_600ms.mp4	41.injection_with_blunt_syringe_short_short_600ms.mp4	173.77846977097943	174.38683042253433	0.6083606515549036				
147.63818359375	0.2	302363	102	73	1	0	0	3	152	stimuli\Videos_short_600ms_horflip\66.stroke_top_to_bottom_with_sponge_short_horflip_short_600ms.mp4	66.stroke_top_to_bottom_with_sponge_short_horflip_short_600ms.mp4	174.57847956536352	175.1867801016797	0.6083005363161647				
148.4384765625	0.2	304002	103	73	1	0	0	4	48	stimuli\Videos_short_600ms\53.touch_top_to_bottom_with_knife_short_short_600ms.mp4	53.touch_top_to_bottom_with_knife_short_short_600ms.mp4	175.37867645010556	175.98675558639297	0.6080791362874152				
149.23828125	0.2	305640	104	73	1	0	0	5	121	stimuli\Videos_short_600ms_horflip\38.double_slap_with_pencil_short_horflip_short_600ms.mp4	38.double_slap_with_pencil_short_horflip_short_600ms.mp4	176.17879269244986	176.78673869547674	0.607946003026882				
150.0380859375	0.2	307278	105	73	1	0	1	6	378	stimuli\Targets_short_600ms_vertflip\brush-stroke_short_horvertflip_short_600ms.mp4	brush-stroke_short_horvertflip_short_600ms.mp4	176.97847522533812	177.58673089515833	0.6082556698202097				
150.83837890625	0.2	308917	106	73	1	0	0	7	43	stimuli\Videos_short_600ms\49.repeated_slap_with_hand_short_short_600ms.mp4	49.repeated_slap_with_hand_short_short_600ms.mp4	177.7783985124261	178.3867210421231	0.608322529697034				
151.63818359375	0.2	310555	107	73	1	0	0	8	91	stimuli\Videos_short_600ms_horflip\10.single_touch_with_knife_short_horflip_short_600ms.mp4	10.single_touch_with_knife_short_horflip_short_600ms.mp4	178.57838748641188	179.18672761081325	0.6083401244013658				
152.43798828125	0.2	312193	108	73	1	0	0	9	216	stimuli\Videos_short_600ms_horvertflip\42.single_slap_with_plastic_whisk_short_horvertflip_short_600ms.mp4	42.single_slap_with_plastic_whisk_short_horvertflip_short_600ms.mp4	179.3783764603977	179.9867016292992	0.6083251689015015				
153.23828125	0.2	313832	109	73	1	0	0	10	293	stimuli\Videos_short_600ms_vertflip\30.finger_pulling_back_another_finger_short_vertflip_short_600ms.mp4	30.finger_pulling_back_another_finger_short_vertflip_short_600ms.mp4	180.1783616221965	180.78669236275528	0.608330740558813				
154.0380859375	0.2	315470	110	73	1	0	0	11	102	stimuli\Videos_short_600ms_horflip\20.single_touch_with_screwdriver_short_horflip_short_600ms.mp4	20.single_touch_with_screwdriver_short_horflip_short_600ms.mp4	180.97834297181	181.5866666744878	0.6083237026778079				
154.837890625	0.2	317108	111	73	1	0	0	12	84	stimuli\Videos_short_600ms\86.touch_top_to_bottom_with_hair_brush_short_short_600ms.mp4	86.touch_top_to_bottom_with_hair_brush_short_short_600ms.mp4	181.778325787649	182.38664626462923	0.6083204769802251				
155.63818359375	0.2	318747	112	73	1	0	0	13	354	stimuli\Videos_short_600ms_vertflip\86.touch_top_to_bottom_with_hair_brush_short_vertflip_short_600ms.mp4	86.touch_top_to_bottom_with_hair_brush_short_vertflip_short_600ms.mp4	182.5782760532857	183.18662908046824	0.6083530271826021				
156.43798828125	0.2	320385	113	73	1	0	0	14	312	stimuli\Videos_short_600ms_vertflip\48.single_slap_with_hand_short_vertflip_short_600ms.mp4	48.single_slap_with_hand_short_vertflip_short_600ms.mp4	183.3782720651525	183.9866154152496	0.6083433500971296				
157.23779296875	0.2	322023	114	73	1	0	0	15	61	stimuli\Videos_short_600ms\65.stroke_top_to_bottom_with_stanley_knife_short_short_600ms.mp4	65.stroke_top_to_bottom_with_stanley_knife_short_short_600ms.mp4	184.1782657310596	184.7865994040676	0.6083336730080191				
158.0380859375	0.2	323662	115	73	1	0	0	16	302	stimuli\Videos_short_600ms_vertflip\39.single_stab_with_scissors_short_vertflip_short_600ms.mp4	39.single_stab_with_scissors_short_vertflip_short_600ms.mp4	184.97822010212624	185.58658104692583	0.6083609447996423				
158.837890625	0.2	325300	116	73	1	0	0	17	2	stimuli\Videos_short_600ms\11.single_touch_with_lighter_short_short_600ms.mp4	11.single_touch_with_lighter_short_short_600ms.mp4	185.7781985192887	186.38656474250092	0.6083662232122151				
159.6376953125	0.2	326938	117	73	1	0	0	18	151	stimuli\Videos_short_600ms_horflip\65.stroke_top_to_bottom_with_stanley_knife_short_horflip_short_600ms.mp4	65.stroke_top_to_bottom_with_stanley_knife_short_horflip_short_600ms.mp4	186.57821065963435	187.1865528367507	0.6083421771163557				
160.43798828125	0.2	328577	118	73	1	0	0	19	253	stimuli\Videos_short_600ms_horvertflip\76.tickle_with_fingers_from_top_to_bottom_short_horvertflip_short_600ms.mp4	76.tickle_with_fingers_from_top_to_bottom_short_horvertflip_short_600ms.mp4	187.37819054302236	187.9865347728537	0.6083442298313457				
161.23779296875	0.2	330215	119	73	1	0	0	20	204	stimuli\Videos_short_600ms_horvertflip\31.hand_grabbing_wrist_short_horvertflip_short_600ms.mp4	31.hand_grabbing_wrist_short_horvertflip_short_600ms.mp4	188.17820532257429	188.7865049791544	0.6082996565801295				
162.03759765625	0.2	331853	120	73	1	0	0	21	18	stimuli\Videos_short_600ms\26.single_touch_with_a_blunt_syringe_short_short_600ms.mp4	26.single_touch_with_a_blunt_syringe_short_short_600ms.mp4	188.9782221548412	189.58649952479757	0.6082773699563404				
162.837890625	0.2	333492	121	73	1	0	0	22	12	stimuli\Videos_short_600ms\20.single_touch_with_screwdriver_short_short_600ms.mp4	20.single_touch_with_screwdriver_short_short_600ms.mp4	189.77845129653903	190.38643835387484	0.6079870573357766				
163.6376953125	0.2	335130	122	73	1	0	0	23	245	stimuli\Videos_short_600ms_horvertflip\69.stroke_with_soft_sock_short_horvertflip_short_600ms.mp4	69.stroke_with_soft_sock_short_horvertflip_short_600ms.mp4	190.5782012757918	191.18642087646913	0.6082196006773302				
164.4375	0.2	336768	123	73	1	0	0	24	163	stimuli\Videos_short_600ms_horflip\76.tickle_with_fingers_from_top_to_bottom_short_horflip_short_600ms.mp4	76.tickle_with_fingers_from_top_to_bottom_short_horflip_short_600ms.mp4	191.37811136685377	191.98641336939545	0.6083020025416772				
165.23779296875	0.2	338407	124	73	1	0	0	25	303	stimuli\Videos_short_600ms_vertflip\4.repeated_tap_with_finger_slow_short_vertflip_short_600ms.mp4	4.repeated_tap_with_finger_slow_short_vertflip_short_600ms.mp4	192.1780897840163	192.78641465967303	0.6083248756567627				
166.03759765625	0.2	340045	125	73	1	0	0	26	198	stimuli\Videos_short_600ms_horvertflip\26.single_touch_with_a_blunt_syringe_short_horvertflip_short_600ms.mp4	26.single_touch_with_a_blunt_syringe_short_horvertflip_short_600ms.mp4	192.97809429999143	193.58640363365885	0.608309333667421				
166.83740234375	0.2	341683	126	73	1	0	0	27	80	stimuli\Videos_short_600ms\82.repeated_touch_with_cotton_bud_short_short_600ms.mp4	82.repeated_touch_with_cotton_bud_short_short_600ms.mp4	193.77807916854545	194.3864110820832	0.6083319135377678				
167.6376953125	0.2	343322	127	73	1	0	0	28	193	stimuli\Videos_short_600ms_horvertflip\21.repeated_touch_with_metal_chopstick_short_horvertflip_short_600ms.mp4	21.repeated_touch_with_metal_chopstick_short_horvertflip_short_600ms.mp4	194.5780470288846	195.1863833411007	0.6083363122161245				
168.4375	0.2	344960	128	73	1	0	0	29	250	stimuli\Videos_short_600ms_horvertflip\73.single_stroke_with_flat_hand_short_horvertflip_short_600ms.mp4	73.single_stroke_with_flat_hand_short_horvertflip_short_600ms.mp4	195.37808761400265	195.9863685028995	0.608280888896843				
169.23779296875	0.2	346599	129	73	1	0	0	30	224	stimuli\Videos_short_600ms_horvertflip\5.repeated_tap_with_finger_moving_from_top_to_bottom_short_horvertflip_short_600ms.mp4	5.repeated_tap_with_finger_moving_from_top_to_bottom_short_horvertflip_short_600ms.mp4	196.17802644308176	196.78634897277695	0.608322529695215				
170.03759765625	0.2	348237	130	73	1	0	0	31	292	stimuli\Videos_short_600ms_vertflip\3.single_push_with_finger_short_vertflip_short_600ms.mp4	3.single_push_with_finger_short_vertflip_short_600ms.mp4	196.9780245076636	197.58633560080307	0.6083110931394913				
170.83740234375	0.2	349875	131	73	1	0	1	32	362	stimuli\Targets_short_600ms\chopstickwood-tap_short_short_600ms.mp4	chopstickwood-tap_short_short_600ms.mp4	197.77797272058524	198.38631548419107	0.6083427636058332				
171.6376953125	0.2	351514	132	73	1	0	0	33	215	stimuli\Videos_short_600ms_horvertflip\41.injection_with_blunt_syringe_short_horvertflip_short_600ms.mp4	41.injection_with_blunt_syringe_short_horvertflip_short_600ms.mp4	198.5779787027841	199.18630093923457	0.6083222364504763				
172.4375	0.2	353152	133	73	1	0	0	34	318	stimuli\Videos_short_600ms_vertflip\53.touch_top_to_bottom_with_knife_short_vertflip_short_600ms.mp4	53.touch_top_to_bottom_with_knife_short_vertflip_short_600ms.mp4	199.3779333670955	199.98628463480964	0.6083512677141698				
173.2373046875	0.2	354790	134	73	1	0	1	35	365	stimuli\Targets_short_600ms\hand-stroke_short_short_600ms.mp4	hand-stroke_short_short_600ms.mp4	200.17792761949204	200.78626803713817	0.6083404176461045				
174.03759765625	0.2	356429	135	73	1	0	0	36	212	stimuli\Videos_short_600ms_horvertflip\39.single_stab_with_scissors_short_horvertflip_short_600ms.mp4	39.single_stab_with_scissors_short_horvertflip_short_600ms.mp4	200.97790603665635	201.5862517327132	0.6083456960568583				
174.83740234375	0.2	358067	136	73	1	0	0	37	289	stimuli\Videos_short_600ms_vertflip\27.single_push_with_a_plastic_whisk_short_vertflip_short_600ms.mp4	27.single_push_with_a_plastic_whisk_short_vertflip_short_600ms.mp4	201.77789031871907	202.38623425530568	0.608343936586607				
175.63720703125	0.2	359705	137	73	1	0	0	38	3	stimuli\Videos_short_600ms\12.repeated_touch_with_nail_file_short_short_600ms.mp4	12.repeated_touch_with_nail_file_short_short_600ms.mp4	202.57785466011956	203.1862156049192	0.6083609447996423				
176.4375	0.2	361344	138	73	1	0	0	39	343	stimuli\Videos_short_600ms_vertflip\76.tickle_with_fingers_from_top_to_bottom_short_vertflip_short_600ms.mp4	76.tickle_with_fingers_from_top_to_bottom_short_vertflip_short_600ms.mp4	203.3778744248375	203.9862031126795	0.608328687842004				
177.2373046875	0.2	362982	139	73	1	0	0	40	274	stimuli\Videos_short_600ms_vertflip\13.single_touch_with_pen_short_vertflip_short_600ms.mp4	13.single_touch_with_pen_short_vertflip_short_600ms.mp4	204.17787043670432	204.78619179342056	0.6083213567162602				
178.037109375	0.2	364620	140	73	1	0	0	41	4	stimuli\Videos_short_600ms\13.single_touch_with_pen_short_short_600ms.mp4	13.single_touch_with_pen_short_short_600ms.mp4	204.97785325254335	205.58612182514665	0.6082685726032651				
178.83740234375	0.2	366259	141	73	1	0	0	42	311	stimuli\Videos_short_600ms_vertflip\47.(long)scratching_with_finger_nails_short_vertflip_short_600ms.mp4	47.(long)scratching_with_finger_nails_short_vertflip_short_600ms.mp4	205.77806831847735	206.38613953714776	0.608071218670375				
179.63720703125	0.2	367897	142	73	1	0	0	43	116	stimuli\Videos_short_600ms_horflip\33.scratch_top_to_bottom_with_scissors_short_horflip_short_600ms.mp4	33.scratch_top_to_bottom_with_scissors_short_horflip_short_600ms.mp4	206.57782152342588	207.18611208941	0.6082905659841344				
180.43701171875	0.2	369535	143	73	1	0	0	44	59	stimuli\Videos_short_600ms\63.stroke_top_to_bottom_with_screwdriver_short_short_600ms.mp4	63.stroke_top_to_bottom_with_screwdriver_short_short_600ms.mp4	207.37778791754135	207.9861001836598	0.6083122661184461				
181.2373046875	0.2	371174	144	73	1	0	0	45	191	stimuli\Videos_short_600ms_horvertflip\2.single_touch_with_finger_short_horvertflip_short_600ms.mp4	2.single_touch_with_finger_short_horvertflip_short_600ms.mp4	208.1778381797467	208.7860876914201	0.6082495116734208				
182.037109375	0.2	372812	145	73	1	0	0	46	70	stimuli\Videos_short_600ms\73.single_stroke_with_flat_hand_short_short_600ms.mp4	73.single_stroke_with_flat_hand_short_short_600ms.mp4	208.97781718339863	209.5860751991804	0.6082580157817574				
182.8369140625	0.2	374450	146	73	1	0	0	47	41	stimuli\Videos_short_600ms\47.(long)scratching_with_finger_nails_short_short_600ms.mp4	47.(long)scratching_with_finger_nails_short_short_600ms.mp4	209.77772375552013	210.38608118137927	0.6083574258591398				
183.63720703125	0.2	376089	147	73	1	0	0	48	7	stimuli\Videos_short_600ms\16.repeated_touch_with_plastic_brush_short_short_600ms.mp4	16.repeated_touch_with_plastic_brush_short_short_600ms.mp4	210.57772827149347	211.18605138768	0.6083231161865115				
184.43701171875	0.2	377727	148	73	1	0	0	49	283	stimuli\Videos_short_600ms_vertflip\21.repeated_touch_with_metal_chopstick_short_vertflip_short_600ms.mp4	21.repeated_touch_with_metal_chopstick_short_vertflip_short_600ms.mp4	211.3777110873325	211.98603566974452	0.608324582412024				
185.23681640625	0.2	379365	149	73	1	0	0	50	134	stimuli\Videos_short_600ms_horflip\5.repeated_tap_with_finger_moving_from_top_to_bottom_short_horflip_short_600ms.mp4	5.repeated_tap_with_finger_moving_from_top_to_bottom_short_horflip_short_600ms.mp4	212.1776727895267	212.78601995180907	0.6083471622823708				
186.037109375	0.2	381004	150	73	1	0	1	51	366	stimuli\Targets_short_600ms_horflip\brush-stroke_short_horflip_short_600ms.mp4	brush-stroke_short_horflip_short_600ms.mp4	212.97768287715735	213.5860021811568	0.6083193039994512				
186.8369140625	0.2	382642	151	73	1	0	0	52	103	stimuli\Videos_short_600ms_horflip\21.repeated_touch_with_metal_chopstick_short_horflip_short_600ms.mp4	21.repeated_touch_with_metal_chopstick_short_horflip_short_600ms.mp4	213.7776457523305	214.38598382401503	0.6083380716845568				
187.63671875	0.2	384280	152	73	1	0	0	53	328	stimuli\Videos_short_600ms_vertflip\62.touch_top_to_bottom_with_scissors_short_vertflip_short_600ms.mp4	62.touch_top_to_bottom_with_scissors_short_vertflip_short_600ms.mp4	214.57763091413108	215.18596634660935	0.6083354324782704				
188.43701171875	0.2	385919	153	73	1	0	0	54	263	stimuli\Videos_short_600ms_horvertflip\85.touch_top_to_bottom_with_fabric_short_horvertflip_short_600ms.mp4	85.touch_top_to_bottom_with_fabric_short_horvertflip_short_600ms.mp4	215.3775852851977	215.98595180165464	0.6083665164569538				
189.23681640625	0.2	387557	154	73	1	0	0	55	246	stimuli\Videos_short_600ms_horvertflip\7.repeated_touch_with_hairbrush_short_horvertflip_short_600ms.mp4	7.repeated_touch_with_hairbrush_short_horvertflip_short_600ms.mp4	216.1775900944158	216.78593784318943	0.6083477487736673				
190.037109375	0.2	389196	155	73	1	0	0	56	300	stimuli\Videos_short_600ms_vertflip\37.single_stab_with_nail_file_short_vertflip_short_600ms.mp4	37.single_stab_with_nail_file_short_vertflip_short_600ms.mp4	216.97755502230575	217.5859200725372	0.6083650502314413				
190.8369140625	0.2	390834	156	73	1	0	0	57	347	stimuli\Videos_short_600ms_vertflip\8.single_touch_with_hairbrush_short_vertflip_short_600ms.mp4	8.single_touch_with_hairbrush_short_vertflip_short_600ms.mp4	217.77813253914792	218.38590318162096	0.6077706424730422				
191.63671875	0.2	392472	157	73	1	0	0	58	201	stimuli\Videos_short_600ms_horvertflip\29.single_pinch_with_tweezers_short_horvertflip_short_600ms.mp4	29.single_pinch_with_tweezers_short_horvertflip_short_600ms.mp4	218.57765437373564	219.1858707487172	0.6082163749815663				
192.43701171875	0.2	394111	158	73	1	0	0	59	353	stimuli\Videos_short_600ms_vertflip\85.touch_top_to_bottom_with_fabric_short_vertflip_short_600ms.mp4	85.touch_top_to_bottom_with_fabric_short_vertflip_short_600ms.mp4	219.3777597660137	219.9858673470735	0.6081075810598122				
193.23681640625	0.2	395749	159	73	1	0	0	60	88	stimuli\Videos_short_600ms\9.single_touch_with_hammer_short_short_600ms.mp4	9.single_touch_with_hammer_short_short_600ms.mp4	220.1775358440791	220.78585661430407	0.6083207702249638				
194.03662109375	0.2	397387	160	73	1	0	0	61	278	stimuli\Videos_short_600ms_vertflip\17.repeated_touch_with_rolling_pin_short_vertflip_short_600ms.mp4	17.repeated_touch_with_rolling_pin_short_vertflip_short_600ms.mp4	220.97749989223303	221.5857992555684	0.6082993633353908				
194.8369140625	0.2	399026	161	73	1	0	0	62	184	stimuli\Videos_short_600ms_horvertflip\13.single_touch_with_pen_short_horvertflip_short_600ms.mp4	13.single_touch_with_pen_short_horvertflip_short_600ms.mp4	221.77749297164883	222.38577298080963	0.6082800091608078				
195.63671875	0.2	400664	162	73	1	0	0	63	203	stimuli\Videos_short_600ms_horvertflip\30.finger_pulling_back_another_finger_short_horvertflip_short_600ms.mp4	30.finger_pulling_back_another_finger_short_horvertflip_short_600ms.mp4	222.5774790131836	223.1857845346658	0.6083055214821798				
196.4365234375	0.2	402302	163	73	1	0	0	64	197	stimuli\Videos_short_600ms_horvertflip\25.single_touch_with_stanley_knife_short_horvertflip_short_600ms.mp4	25.single_touch_with_stanley_knife_short_horvertflip_short_600ms.mp4	223.37744159511203	223.98577497487713	0.6083333797650994				
197.23681640625	0.2	403941	164	73	1	0	0	65	233	stimuli\Videos_short_600ms_horvertflip\58.single_slap_with_pencil_short_horvertflip_short_600ms.mp4	58.single_slap_with_pencil_short_horvertflip_short_600ms.mp4	224.1774475773127	224.7857525123036	0.6083049349908833				
198.03662109375	0.2	405579	165	73	1	0	0	66	99	stimuli\Videos_short_600ms_horflip\18.single_stroke_from_top_to_bottom_with_rolling_pin_short_horflip_short_600ms.mp4	18.single_stroke_from_top_to_bottom_with_rolling_pin_short_horflip_short_600ms.mp4	224.97743185937725	225.58576523914053	0.6083333797632804				
198.83642578125	0.2	407217	166	73	1	0	0	67	213	stimuli\Videos_short_600ms_horvertflip\4.repeated_tap_with_finger_slow_short_horvertflip_short_600ms.mp4	4.repeated_tap_with_finger_slow_short_horvertflip_short_600ms.mp4	225.77741379548024	226.38574160358803	0.6083278081077879				
199.63671875	0.2	408856	167	73	1	0	0	68	241	stimuli\Videos_short_600ms_horvertflip\65.stroke_top_to_bottom_with_stanley_knife_short_horvertflip_short_600ms.mp4	65.stroke_top_to_bottom_with_stanley_knife_short_horvertflip_short_600ms.mp4	226.57739631807453	227.18573116406333	0.608334845988793				
200.4365234375	0.2	410494	168	73	1	0	0	69	251	stimuli\Videos_short_600ms_horvertflip\74.fingers_walking_from_top_to_bottom_short_horvertflip_short_600ms.mp4	74.fingers_walking_from_top_to_bottom_short_horvertflip_short_600ms.mp4	227.37738030689252	227.9857025433448	0.6083222364522953				
201.236328125	0.2	412132	169	73	1	0	0	70	280	stimuli\Videos_short_600ms_vertflip\19.single_touch_with_rolling_pin_short_vertflip_short_600ms.mp4	19.single_touch_with_rolling_pin_short_vertflip_short_600ms.mp4	228.1773730930636	228.78566688474348	0.6082937916798983				
202.03662109375	0.2	413771	170	73	1	0	0	71	266	stimuli\Videos_short_600ms_horvertflip\88.repeated_stroke_with_plastic_brush_short_horvertflip_short_600ms.mp4	88.repeated_stroke_with_plastic_brush_short_horvertflip_short_600ms.mp4	228.97732482492577	229.58567081422737	0.608345989301597				
202.83642578125	0.2	415409	171	73	1	0	0	72	96	stimuli\Videos_short_600ms_horflip\15.single_stroke_top_to_bottom_with_a_plastic_whisk_short_horflip_short_600ms.mp4	15.single_stroke_top_to_bottom_with_a_plastic_whisk_short_horflip_short_600ms.mp4	229.7773419504374	230.38565333682163	0.60831138638423				
203.63623046875	0.2	417047	172	73	1	0	0	73	68	stimuli\Videos_short_600ms\71.single_stroke_with_finger_top_to_bottom_short_short_600ms.mp4	71.single_stroke_with_finger_top_to_bottom_short_short_600ms.mp4	230.57727960653577	231.18563937835643	0.6083597718206875				
204.4365234375	0.2	418686	173	73	1	0	0	74	67	stimuli\Videos_short_600ms\70.(long)stroke_with_finger_all_over_the_hand_short_short_600ms.mp4	70.(long)stroke_with_finger_all_over_the_hand_short_short_600ms.mp4	231.37725303853225	231.98562072796992	0.6083676894377277				
205.236328125	0.2	420324	174	73	1	0	0	75	239	stimuli\Videos_short_600ms_horvertflip\63.stroke_top_to_bottom_with_screwdriver_short_horvertflip_short_600ms.mp4	63.stroke_top_to_bottom_with_screwdriver_short_horvertflip_short_600ms.mp4	232.17788715167265	232.78560471678793	0.6077175651153084				
206.0361328125	0.2	421962	175	73	1	0	0	76	276	stimuli\Videos_short_600ms_vertflip\15.single_stroke_top_to_bottom_with_a_plastic_whisk_short_vertflip_short_600ms.mp4	15.single_stroke_top_to_bottom_with_a_plastic_whisk_short_vertflip_short_600ms.mp4	232.97728083816585	233.58558782587352	0.6083069877076923				
206.83642578125	0.2	423601	176	73	1	0	0	77	71	stimuli\Videos_short_600ms\74.fingers_walking_from_top_to_bottom_short_short_600ms.mp4	74.fingers_walking_from_top_to_bottom_short_short_600ms.mp4	233.77739561428643	234.38556888224048	0.6081732679540437				
207.63623046875	0.2	425239	177	73	1	0	1	78	377	stimuli\Targets_short_600ms_horvertflip\hand-stroke_short_vertflip_short_600ms.mp4	hand-stroke_short_vertflip_short_600ms.mp4	234.57724852255888	235.18556049543255	0.6083119728737074				
208.43603515625	0.2	426877	178	73	1	0	0	79	337	stimuli\Videos_short_600ms_vertflip\70.(long)stroke_with_finger_all_over_the_hand_short_vertflip_short_600ms.mp4	70.(long)stroke_with_finger_all_over_the_hand_short_vertflip_short_600ms.mp4	235.37781929476296	235.9855497626631	0.6077304679001827				
209.236328125	0.2	428516	179	73	1	0	0	80	42	stimuli\Videos_short_600ms\48.single_slap_with_hand_short_short_600ms.mp4	48.single_slap_with_hand_short_short_600ms.mp4	236.17721855291165	236.7854973890935	0.608278836181853				
210.0361328125	0.2	430154	180	73	1	0	0	81	11	stimuli\Videos_short_600ms\2.single_touch_with_finger_short_short_600ms.mp4	2.single_touch_with_finger_short_short_600ms.mp4	236.97711926013108	237.58545938453244	0.6083401244013658				
210.83642578125	0.2	431793	181	73	1	0	0	82	314	stimuli\Videos_short_600ms_vertflip\5.repeated_tap_with_finger_moving_from_top_to_bottom_short_vertflip_short_600ms.mp4	5.repeated_tap_with_finger_moving_from_top_to_bottom_short_vertflip_short_600ms.mp4	237.77715515332784	238.3854668329568	0.6083116796289687				
211.63623046875	0.2	433431	182	73	1	0	0	83	287	stimuli\Videos_short_600ms_vertflip\25.single_touch_with_stanley_knife_short_vertflip_short_600ms.mp4	25.single_touch_with_stanley_knife_short_vertflip_short_600ms.mp4	238.57715849632223	239.1854710556854	0.6083125593631848				
212.43603515625	0.2	435069	183	73	1	0	0	84	262	stimuli\Videos_short_600ms_horvertflip\84.single_touch_with_cotton_bud_short_horvertflip_short_600ms.mp4	84.single_touch_with_cotton_bud_short_horvertflip_short_600ms.mp4	239.37713603374868	239.98543803629036	0.6083020025416772				
213.236328125	0.2	436708	184	73	1	0	0	85	157	stimuli\Videos_short_600ms_horflip\70.(long)stroke_with_finger_all_over_the_hand_short_horflip_short_600ms.mp4	70.(long)stroke_with_finger_all_over_the_hand_short_horflip_short_600ms.mp4	240.17711972932375	240.7854475374315	0.6083278081077879				
214.0361328125	0.2	438346	185	73	1	0	0	86	229	stimuli\Videos_short_600ms_horvertflip\54.repeated_touch_with_knife_short_horvertflip_short_600ms.mp4	54.repeated_touch_with_knife_short_horvertflip_short_600ms.mp4	240.9771339223844	241.58542243565353	0.6082885132691445				
214.8359375	0.2	439984	186	73	1	0	0	87	237	stimuli\Videos_short_600ms_horvertflip\61.single_hit_with_rolling_pin_short_horvertflip_short_600ms.mp4	61.single_hit_with_rolling_pin_short_horvertflip_short_600ms.mp4	241.7771472357108	242.38541228937356	0.6082650536627625				
215.63623046875	0.2	441623	187	73	1	0	1	88	383	stimuli\Targets_short_600ms_vertflip\hand-stroke_short_horvertflip_short_600ms.mp4	hand-stroke_short_horvertflip_short_600ms.mp4	242.5770373861069	243.18538630785952	0.6083489217526221				
216.43603515625	0.2	443261	188	73	1	0	0	89	108	stimuli\Videos_short_600ms_horflip\26.single_touch_with_a_blunt_syringe_short_horflip_short_600ms.mp4	26.single_touch_with_a_blunt_syringe_short_horflip_short_600ms.mp4	243.3770471804928	243.98537000343455	0.6083228229417728				
217.23583984375	0.2	444899	189	73	1	0	0	90	170	stimuli\Videos_short_600ms_horflip\82.repeated_touch_with_cotton_bud_short_horflip_short_600ms.mp4	82.repeated_touch_with_cotton_bud_short_horflip_short_600ms.mp4	244.17706547898524	244.78535633821411	0.6082908592288732				
218.0361328125	0.2	446538	190	73	1	0	0	91	290	stimuli\Videos_short_600ms_vertflip\28.single_injection_with_sharp_needle_short_vertflip_short_600ms.mp4	28.single_injection_with_sharp_needle_short_vertflip_short_600ms.mp4	244.97699433773232	245.58533798107237	0.6083436433400493				
218.8359375	0.2	448176	191	73	1	0	0	92	196	stimuli\Videos_short_600ms_horvertflip\24.single_stroke_top_to_bottom_with_a_spoon_short_horvertflip_short_600ms.mp4	24.single_stroke_top_to_bottom_with_a_spoon_short_horvertflip_short_600ms.mp4	245.77697861979505	246.3853199171772	0.6083412973821396				
219.6357421875	0.2	449814	192	73	1	0	0	93	210	stimuli\Videos_short_600ms_horvertflip\37.single_stab_with_nail_file_short_horvertflip_short_600ms.mp4	37.single_stab_with_nail_file_short_horvertflip_short_600ms.mp4	246.57752505266035	247.18530390599517	0.6077788533348212				
220.43603515625	0.2	451453	193	73	1	0	0	94	333	stimuli\Videos_short_600ms_vertflip\67.single_touch_with_sponge_short_vertflip_short_600ms.mp4	67.single_touch_with_sponge_short_vertflip_short_600ms.mp4	247.37692782974955	247.98528789481497	0.6083600650654262				
221.23583984375	0.2	453091	194	73	1	0	0	95	94	stimuli\Videos_short_600ms_horflip\13.single_touch_with_pen_short_horflip_short_600ms.mp4	13.single_touch_with_pen_short_horflip_short_600ms.mp4	248.17690624691204	248.78527452283925	0.6083682759272051	6.0	6.0	2.2140246214421495	1.0
256.85986328125	0.2	526049	195	73	2	0	0	0	85	stimuli\Videos_short_600ms\87.single_stroke_top_to_bottom_with_plastic_brush_short_short_600ms.mp4	87.single_stroke_top_to_bottom_with_plastic_brush_short_short_600ms.mp4	283.8012091667242	284.4095029584041	0.6082937916798983				
257.65966796875	0.2	527687	196	73	2	0	0	1	161	stimuli\Videos_short_600ms_horflip\74.fingers_walking_from_top_to_bottom_short_horflip_short_600ms.mp4	74.fingers_walking_from_top_to_bottom_short_horflip_short_600ms.mp4	284.6011867041525	285.20948724046684	0.6083005363143457				
258.45947265625	0.2	529325	197	73	2	0	0	2	95	stimuli\Videos_short_600ms_horflip\14.repeated_touch_with_pencil_short_horflip_short_600ms.mp4	14.repeated_touch_with_pencil_short_horflip_short_600ms.mp4	285.40118916741085	286.00947533471845	0.6082861673075968				
259.259765625	0.2	530964	198	73	2	0	0	3	175	stimuli\Videos_short_600ms_horflip\87.single_stroke_top_to_bottom_with_plastic_brush_short_horflip_short_600ms.mp4	87.single_stroke_top_to_bottom_with_plastic_brush_short_horflip_short_600ms.mp4	286.20115292232003	286.8094854223473	0.6083325000272453				
260.0595703125	0.2	532602	199	73	2	0	0	4	6	stimuli\Videos_short_600ms\15.single_stroke_top_to_bottom_with_a_plastic_whisk_short_short_600ms.mp4	15.single_stroke_top_to_bottom_with_a_plastic_whisk_short_short_600ms.mp4	287.0011354449125	287.60946090706057	0.6083254621480592				
260.859375	0.2	534240	200	73	2	0	0	5	138	stimuli\Videos_short_600ms_horflip\53.touch_top_to_bottom_with_knife_short_horflip_short_600ms.mp4	53.touch_top_to_bottom_with_knife_short_horflip_short_600ms.mp4	287.8011229526728	288.4094422566741	0.6083193040012702				
261.65966796875	0.2	535879	201	73	2	0	0	6	44	stimuli\Videos_short_600ms\5.repeated_tap_with_finger_moving_from_top_to_bottom_short_short_600ms.mp4	5.repeated_tap_with_finger_moving_from_top_to_bottom_short_short_600ms.mp4	288.60110371579685	289.2094247792684	0.6083210634715215				
262.45947265625	0.2	537517	202	73	2	0	0	7	100	stimuli\Videos_short_600ms_horflip\19.single_touch_with_rolling_pin_short_horflip_short_600ms.mp4	19.single_touch_with_rolling_pin_short_horflip_short_600ms.mp4	289.4010888775956	290.00941140729265	0.608322529697034				
263.25927734375	0.2	539155	203	73	2	0	0	8	218	stimuli\Videos_short_600ms_horvertflip\44.pushing_top_to_bottom_with_finger_short_horvertflip_short_600ms.mp4	44.pushing_top_to_bottom_with_finger_short_horvertflip_short_600ms.mp4	290.2010799042964	290.8093904109446	0.6083105066481949				
264.0595703125	0.2	540794	204	73	2	0	0	9	168	stimuli\Videos_short_600ms_horflip\80.stroke_with_sharp_stick_all_over_the_hand_short_horflip_short_600ms.mp4	80.stroke_with_sharp_stick_all_over_the_hand_short_horflip_short_600ms.mp4	291.00105216331394	291.60937586598993	0.6083237026759889				
264.859375	0.2	542432	205	73	2	0	0	10	16	stimuli\Videos_short_600ms\24.single_stroke_top_to_bottom_with_a_spoon_short_short_600ms.mp4	24.single_stroke_top_to_bottom_with_a_spoon_short_short_600ms.mp4	291.80102442232965	292.4093569223587	0.6083325000290642				
265.6591796875	0.2	544070	206	73	2	0	0	11	177	stimuli\Videos_short_600ms_horflip\89.single_touch_with_plastic_brush_short_horflip_short_600ms.mp4	89.single_touch_with_plastic_brush_short_horflip_short_600ms.mp4	292.6009978543261	293.2093409111767	0.6083430568505719				
266.45947265625	0.2	545709	207	73	2	0	0	12	126	stimuli\Videos_short_600ms_horflip\42.single_slap_with_plastic_whisk_short_horflip_short_600ms.mp4	42.single_slap_with_plastic_whisk_short_horflip_short_600ms.mp4	293.4009607295011	294.00932314052625	0.6083624110251549				
267.25927734375	0.2	547347	208	73	2	0	0	13	272	stimuli\Videos_short_600ms_vertflip\11.single_touch_with_lighter_short_vertflip_short_600ms.mp4	11.single_touch_with_lighter_short_vertflip_short_600ms.mp4	294.2009447183191	294.80930654285476	0.6083618245356774				
268.05908203125	0.2	548985	209	73	2	0	1	14	364	stimuli\Targets_short_600ms\hand-pinch_short_short_600ms.mp4	hand-pinch_short_short_600ms.mp4	295.0010823675548	295.6092893586938	0.6082069911390136				
268.859375	0.2	550624	210	73	2	0	0	15	235	stimuli\Videos_short_600ms_horvertflip\6.single_touch_with_flat_hand_short_horvertflip_short_600ms.mp4	6.single_touch_with_flat_hand_short_horvertflip_short_600ms.mp4	295.80094641914184	296.4092742272478	0.6083278081059689				
269.6591796875	0.2	552262	211	73	2	0	0	16	286	stimuli\Videos_short_600ms_vertflip\24.single_stroke_top_to_bottom_with_a_spoon_short_vertflip_short_600ms.mp4	24.single_stroke_top_to_bottom_with_a_spoon_short_vertflip_short_600ms.mp4	296.6009371525961	297.2092511781866	0.6083140255905164				
270.45947265625	0.2	553901	212	73	2	0	0	17	22	stimuli\Videos_short_600ms\3.single_push_with_finger_short_short_600ms.mp4	3.single_push_with_finger_short_short_600ms.mp4	297.4009358036692	298.00921874528103	0.6082829416118329				
271.25927734375	0.2	555539	213	73	2	0	0	18	256	stimuli\Videos_short_600ms_horvertflip\79.long_with_soft_brush_all_over_the_hand_short_horvertflip_short_600ms.mp4	79.long_with_soft_brush_all_over_the_hand_short_horvertflip_short_600ms.mp4	298.20090131804864	298.80920713277555	0.6083058147269185				
272.05908203125	0.2	557177	214	73	2	0	0	19	117	stimuli\Videos_short_600ms_horflip\34.repeated_punch_with_hand_short_horflip_short_600ms.mp4	34.repeated_punch_with_hand_short_horflip_short_600ms.mp4	299.00089645018124	299.60916033086323	0.6082638806819887				
272.859375	0.2	558816	215	73	2	0	0	20	141	stimuli\Videos_short_600ms_horflip\56.repeated_touch_with_nail_file_short_horflip_short_600ms.mp4	56.repeated_touch_with_nail_file_short_horflip_short_600ms.mp4	299.80086782946273	300.4091727644536	0.6083049349908833				
273.6591796875	0.2	560454	216	73	2	0	0	21	46	stimuli\Videos_short_600ms\51.repeated_touch_with_hammer_short_short_600ms.mp4	51.repeated_touch_with_hammer_short_short_600ms.mp4	300.60085269801675	301.2091623249289	0.6083096269121597				
274.458984375	0.2	562092	217	73	2	0	0	22	313	stimuli\Videos_short_600ms_vertflip\49.repeated_slap_with_hand_short_vertflip_short_600ms.mp4	49.repeated_slap_with_hand_short_vertflip_short_600ms.mp4	301.40083873955155	302.0091536448763	0.6083149053247325				
275.25927734375	0.2	563731	218	73	2	0	0	23	267	stimuli\Videos_short_600ms_horvertflip\89.single_touch_with_plastic_brush_short_horvertflip_short_600ms.mp4	89.single_touch_with_plastic_brush_short_horvertflip_short_600ms.mp4	302.2008174499588	302.8091675446922	0.608350094733396				
276.05908203125	0.2	565369	219	73	2	0	0	24	162	stimuli\Videos_short_600ms_horflip\75.(long)stroke_with_fingers_all_over_the_hand_short_horflip_short_600ms.mp4	75.(long)stroke_with_fingers_all_over_the_hand_short_horflip_short_600ms.mp4	303.0007835508295	303.60914039019735	0.6083568393678433				
276.85888671875	0.2	567007	220	73	2	0	0	25	51	stimuli\Videos_short_600ms\56.repeated_touch_with_nail_file_short_short_600ms.mp4	56.repeated_touch_with_nail_file_short_short_600ms.mp4	303.80086313754146	304.40911528841934	0.6082521508778882				
277.6591796875	0.2	568646	221	73	2	0	0	26	120	stimuli\Videos_short_600ms_horflip\37.single_stab_with_nail_file_short_horflip_short_600ms.mp4	37.single_stab_with_nail_file_short_horflip_short_600ms.mp4	304.6009412580279	305.20908960015186	0.6081483421239682				
278.458984375	0.2	570284	222	73	2	0	0	27	50	stimuli\Videos_short_600ms\55.touch_top_to_bottom_with_nail_file_short_short_600ms.mp4	55.touch_top_to_bottom_with_nail_file_short_short_600ms.mp4	305.40072613344455	306.0090712430101	0.6083451095655619				
279.2587890625	0.2	571922	223	73	2	0	0	28	145	stimuli\Videos_short_600ms_horflip\6.single_touch_with_flat_hand_short_horflip_short_600ms.mp4	6.single_touch_with_flat_hand_short_horflip_short_600ms.mp4	306.20073856703493	306.80908250362154	0.608343936586607				
280.05908203125	0.2	573561	224	73	2	0	0	29	297	stimuli\Videos_short_600ms_vertflip\34.repeated_punch_with_hand_short_vertflip_short_600ms.mp4	34.repeated_punch_with_hand_short_vertflip_short_600ms.mp4	307.00070114896334	307.6090641464798	0.6083629975164513				
280.85888671875	0.2	575199	225	73	2	0	0	30	356	stimuli\Videos_short_600ms_vertflip\88.repeated_stroke_with_plastic_brush_short_vertflip_short_600ms.mp4	88.repeated_stroke_with_plastic_brush_short_vertflip_short_600ms.mp4	307.8007106501045	308.4090390447018	0.6083283945972653				
281.65869140625	0.2	576837	226	73	2	0	0	31	47	stimuli\Videos_short_600ms\52.touch_top_to_bottom_with_hammer_short_short_600ms.mp4	52.touch_top_to_bottom_with_hammer_short_short_600ms.mp4	308.6006987443543	309.20901159696405	0.6083128526097425				
282.458984375	0.2	578476	227	73	2	0	0	32	199	stimuli\Videos_short_600ms_horvertflip\27.single_push_with_a_plastic_whisk_short_horvertflip_short_600ms.mp4	27.single_push_with_a_plastic_whisk_short_horvertflip_short_600ms.mp4	309.40062613687587	310.0089938263118	0.6083676894359087				
283.2587890625	0.2	580114	228	73	2	0	0	33	143	stimuli\Videos_short_600ms_horflip\58.single_slap_with_pencil_short_horflip_short_600ms.mp4	58.single_slap_with_pencil_short_horflip_short_600ms.mp4	310.2006353447705	310.8089766421508	0.6083412973803206				
284.05859375	0.2	581752	229	73	2	0	1	34	381	stimuli\Targets_short_600ms_vertflip\finger-tap_short_horvertflip_short_600ms.mp4	finger-tap_short_horvertflip_short_600ms.mp4	311.00064191346064	311.6089597512346	0.6083178377739387				
284.85888671875	0.2	583391	230	73	2	0	0	35	202	stimuli\Videos_short_600ms_horvertflip\3.single_push_with_finger_short_horvertflip_short_600ms.mp4	3.single_push_with_finger_short_horvertflip_short_600ms.mp4	311.8006241428084	312.4089411008481	0.6083169580397225				
285.65869140625	0.2	585029	231	73	2	0	0	36	231	stimuli\Videos_short_600ms_horvertflip\56.repeated_touch_with_nail_file_short_horvertflip_short_600ms.mp4	56.repeated_touch_with_nail_file_short_horvertflip_short_600ms.mp4	312.6005876044728	313.20888315562297	0.6082955511501495				
286.45849609375	0.2	586667	232	73	2	0	0	37	105	stimuli\Videos_short_600ms_horflip\23.single_push_with_a_spoon_short_horflip_short_600ms.mp4	23.single_push_with_a_spoon_short_horflip_short_600ms.mp4	313.40058156362466	314.0088853256366	0.6083037620119285				
287.2587890625	0.2	588306	233	73	2	0	0	38	223	stimuli\Videos_short_600ms_horvertflip\49.repeated_slap_with_hand_short_horvertflip_short_600ms.mp4	49.repeated_slap_with_hand_short_horvertflip_short_600ms.mp4	314.20057200383417	314.8088502535247	0.6082782496905565				
288.05859375	0.2	589944	234	73	2	0	0	39	339	stimuli\Videos_short_600ms_vertflip\72.(short)stroke_with_finger_all_over_the_hand_short_vertflip_short_600ms.mp4	72.(short)stroke_with_finger_all_over_the_hand_short_vertflip_short_600ms.mp4	315.00052872086235	315.6088577019509	0.6083289810885617				
288.8583984375	0.2	591582	235	73	2	0	0	40	146	stimuli\Videos_short_600ms_horflip\60.single_push_with_tip_of_pencil_short_horflip_short_600ms.mp4	60.single_push_with_tip_of_pencil_short_horflip_short_600ms.mp4	315.8005332368375	316.40884051778994	0.608307280952431				
289.65869140625	0.2	593221	236	73	2	0	0	41	154	stimuli\Videos_short_600ms_horflip\68.stroke_top_to_bottom_with_shawl_short_horflip_short_600ms.mp4	68.stroke_top_to_bottom_with_shawl_short_horflip_short_600ms.mp4	316.60056971652375	317.2088221606482	0.6082524441244459				
290.45849609375	0.2	594859	237	73	2	0	0	42	37	stimuli\Videos_short_600ms\43.touch_top_to_bottom_with_sharp_wooden_stick_short_short_600ms.mp4	43.touch_top_to_bottom_with_sharp_wooden_stick_short_short_600ms.mp4	317.40049124414327	318.0088234509258	0.6083322067825065				
291.2587890625	0.2	596498	238	73	2	0	0	43	167	stimuli\Videos_short_600ms_horflip\8.single_touch_with_hairbrush_short_horflip_short_600ms.mp4	8.single_touch_with_hairbrush_short_horflip_short_600ms.mp4	318.2004837370696	318.8087886720605	0.6083049349908833				
292.05859375	0.2	598136	239	73	2	0	0	44	291	stimuli\Videos_short_600ms_vertflip\29.single_pinch_with_tweezers_short_vertflip_short_600ms.mp4	29.single_pinch_with_tweezers_short_vertflip_short_600ms.mp4	319.0004656731726	319.60876122432273	0.6082955511501495				
292.8583984375	0.2	599774	240	73	2	0	0	45	160	stimuli\Videos_short_600ms_horflip\73.single_stroke_with_flat_hand_short_horflip_short_600ms.mp4	73.single_stroke_with_flat_hand_short_horflip_short_600ms.mp4	319.8004476092756	320.4087381752597	0.6082905659841344				
293.65869140625	0.2	601413	241	73	2	0	0	46	352	stimuli\Videos_short_600ms_vertflip\84.single_touch_with_cotton_bud_short_vertflip_short_600ms.mp4	84.single_touch_with_cotton_bud_short_vertflip_short_600ms.mp4	320.6004336508104	321.20871131401145	0.6082776632010791				
294.45849609375	0.2	603051	242	73	2	0	0	47	242	stimuli\Videos_short_600ms_horvertflip\66.stroke_top_to_bottom_with_sponge_short_horvertflip_short_600ms.mp4	66.stroke_top_to_bottom_with_sponge_short_horvertflip_short_600ms.mp4	321.4004733561924	322.00868709196766	0.6082137357752799				
295.25830078125	0.2	604689	243	73	2	0	0	48	209	stimuli\Videos_short_600ms_horvertflip\36.single_slap_with_full_hand_short_horvertflip_short_600ms.mp4	36.single_slap_with_full_hand_short_horvertflip_short_600ms.mp4	322.20110160443255	322.80866199018965	0.6075603857570968				
296.05859375	0.2	606328	244	73	2	0	0	49	135	stimuli\Videos_short_600ms_horflip\50.single_(long)hard_push_with_thumb_short_horflip_short_600ms.mp4	50.single_(long)hard_push_with_thumb_short_horflip_short_600ms.mp4	323.00054396960695	323.6086365951669	0.6080926255599479				
296.8583984375	0.2	607966	245	73	2	0	0	50	166	stimuli\Videos_short_600ms_horflip\79.long_with_soft_brush_all_over_the_hand_short_horflip_short_600ms.mp4	79.long_with_soft_brush_all_over_the_hand_short_horflip_short_600ms.mp4	323.80080272905616	324.40862292994643	0.6078202008902736				
297.658203125	0.2	609604	246	73	2	0	0	51	79	stimuli\Videos_short_600ms\81.single_stroke_top_to_bottom_with_cotton_pad_short_short_600ms.mp4	81.single_stroke_top_to_bottom_with_cotton_pad_short_short_600ms.mp4	324.60035036921	325.20860076061945	0.6082503914094559				
298.45849609375	0.2	611243	247	73	2	0	1	52	368	stimuli\Targets_short_600ms_horflip\chopstickwood-tap_short_horflip_short_600ms.mp4	chopstickwood-tap_short_horflip_short_600ms.mp4	325.4002880253083	326.00860146440755	0.60831343909922				
299.25830078125	0.2	612881	248	73	2	0	0	53	57	stimuli\Videos_short_600ms\61.single_hit_with_rolling_pin_short_short_600ms.mp4	61.single_hit_with_rolling_pin_short_short_600ms.mp4	326.2002984061837	326.80858281402107	0.6082844078373455				
300.05810546875	0.2	614519	249	73	2	0	0	54	182	stimuli\Videos_short_600ms_horvertflip\11.single_touch_with_lighter_short_horvertflip_short_600ms.mp4	11.single_touch_with_lighter_short_horvertflip_short_600ms.mp4	327.0004422135662	327.6085662163496	0.6081240027833701				
300.8583984375	0.2	616158	250	73	2	0	0	55	106	stimuli\Videos_short_600ms_horflip\24.single_stroke_top_to_bottom_with_a_spoon_short_horflip_short_600ms.mp4	24.single_stroke_top_to_bottom_with_a_spoon_short_horflip_short_600ms.mp4	327.8002411647467	328.40853173073083	0.6082905659841344				
301.658203125	0.2	617796	251	73	2	0	0	56	269	stimuli\Videos_short_600ms_horvertflip\90.repeated_touch_with_sponge_short_horvertflip_short_600ms.mp4	90.repeated_touch_with_sponge_short_horvertflip_short_600ms.mp4	328.6003189919884	329.2085133735891	0.6081943816006969				
302.4580078125	0.2	619434	252	73	2	0	0	57	165	stimuli\Videos_short_600ms_horflip\78.single_stroke_top_to_bottom_with_soft_brush_short_horflip_short_600ms.mp4	78.single_stroke_top_to_bottom_with_soft_brush_short_horflip_short_600ms.mp4	329.4003927137983	330.0084967759176	0.6081040621193097				
303.25830078125	0.2	621073	253	73	2	0	0	58	304	stimuli\Videos_short_600ms_vertflip\40.repeated_push_with_finger_short_vertflip_short_600ms.mp4	40.repeated_push_with_finger_short_vertflip_short_600ms.mp4	330.2002438626005	330.8084913215589	0.6082474589584308				
304.05810546875	0.2	622711	254	73	2	0	0	59	92	stimuli\Videos_short_600ms_horflip\11.single_touch_with_lighter_short_horflip_short_600ms.mp4	11.single_touch_with_lighter_short_horflip_short_600ms.mp4	331.00021230943094	331.60848821316176	0.6082759037308278				
304.85791015625	0.2	624349	255	73	2	0	0	60	208	stimuli\Videos_short_600ms_horvertflip\35.single_punch_with_hand_short_horvertflip_short_600ms.mp4	35.single_punch_with_hand_short_horvertflip_short_600ms.mp4	331.8001848616932	332.4084760141668	0.6082911524736119				
305.658203125	0.2	625988	256	73	2	0	0	61	159	stimuli\Videos_short_600ms_horflip\72.(short)stroke_with_finger_all_over_the_hand_short_horflip_short_600ms.mp4	72.(short)stroke_with_finger_all_over_the_hand_short_horflip_short_600ms.mp4	332.6001773546195	333.20844915291855	0.6082717982990289				
306.4580078125	0.2	627626	257	73	2	0	0	62	317	stimuli\Videos_short_600ms_vertflip\52.touch_top_to_bottom_with_hammer_short_vertflip_short_600ms.mp4	52.touch_top_to_bottom_with_hammer_short_vertflip_short_600ms.mp4	333.40016720833955	334.0084425255791	0.6082753172395314				
307.2578125	0.2	629264	258	73	2	0	0	63	350	stimuli\Videos_short_600ms_vertflip\82.repeated_touch_with_cotton_bud_short_vertflip_short_600ms.mp4	82.repeated_touch_with_cotton_bud_short_vertflip_short_600ms.mp4	334.200123632123	334.80841713055634	0.6082934984333406				
308.05810546875	0.2	630903	259	73	2	0	0	64	5	stimuli\Videos_short_600ms\14.repeated_touch_with_pencil_short_short_600ms.mp4	14.repeated_touch_with_pencil_short_short_600ms.mp4	335.00009149246216	335.60839701394434	0.6083055214821798				
308.85791015625	0.2	632541	260	73	2	0	0	65	230	stimuli\Videos_short_600ms_horvertflip\55.touch_top_to_bottom_with_nail_file_short_horvertflip_short_600ms.mp4	55.touch_top_to_bottom_with_nail_file_short_horvertflip_short_600ms.mp4	335.80013178433546	336.4083827622344	0.6082509778989333				
309.65771484375	0.2	634179	261	73	2	0	0	66	144	stimuli\Videos_short_600ms_horflip\59.single_push_with_long_side_pencil_short_horflip_short_600ms.mp4	59.single_push_with_long_side_pencil_short_horflip_short_600ms.mp4	336.6001022838809	337.2083646983374	0.6082624144564761				
310.4580078125	0.2	635818	262	73	2	0	1	67	370	stimuli\Targets_short_600ms_horflip\hand-pinch_short_horflip_short_600ms.mp4	hand-pinch_short_horflip_short_600ms.mp4	337.40004492514527	338.0083495668914	0.6083046417461446				
311.2578125	0.2	637456	263	73	2	0	0	68	285	stimuli\Videos_short_600ms_vertflip\23.single_push_with_a_spoon_short_vertflip_short_600ms.mp4	23.single_push_with_a_spoon_short_vertflip_short_600ms.mp4	338.200072900725	338.8083315029962	0.6082586022712348				
312.05810546875	0.2	639095	264	73	2	0	0	69	309	stimuli\Videos_short_600ms_vertflip\45.scratching_with_finger_nails_short_vertflip_short_600ms.mp4	45.scratching_with_finger_nails_short_vertflip_short_600ms.mp4	339.00000322569576	339.60831783777576	0.6083146120799938				
312.85791015625	0.2	640733	265	73	2	0	0	70	228	stimuli\Videos_short_600ms_horvertflip\53.touch_top_to_bottom_with_knife_short_horvertflip_short_600ms.mp4	53.touch_top_to_bottom_with_knife_short_horvertflip_short_600ms.mp4	339.79998574829006	340.40829772116376	0.6083119728737074				
313.65771484375	0.2	642371	266	73	2	0	0	71	93	stimuli\Videos_short_600ms_horflip\12.repeated_touch_with_nail_file_short_horflip_short_600ms.mp4	12.repeated_touch_with_nail_file_short_horflip_short_600ms.mp4	340.59999348995916	341.2082834694538	0.608289979494657				
314.4580078125	0.2	644010	267	73	2	0	1	72	371	stimuli\Targets_short_600ms_horflip\hand-stroke_short_horflip_short_600ms.mp4	hand-stroke_short_horflip_short_600ms.mp4	341.40000856275583	342.0082630595971	0.6082544968412549				
315.2578125	0.2	645648	268	73	2	0	0	73	255	stimuli\Videos_short_600ms_horvertflip\78.single_stroke_top_to_bottom_with_soft_brush_short_horvertflip_short_600ms.mp4	78.single_stroke_top_to_bottom_with_soft_brush_short_horvertflip_short_600ms.mp4	342.1999720244203	342.808231213181	0.6082591887607123				
316.0576171875	0.2	647286	269	73	2	0	0	74	140	stimuli\Videos_short_600ms_horflip\55.touch_top_to_bottom_with_nail_file_short_horflip_short_600ms.mp4	55.touch_top_to_bottom_with_nail_file_short_horflip_short_600ms.mp4	342.99996891602314	343.6082207736581	0.6082518576349685				
316.85791015625	0.2	648925	270	73	2	0	0	75	247	stimuli\Videos_short_600ms_horvertflip\70.(long)stroke_with_finger_all_over_the_hand_short_horvertflip_short_600ms.mp4	70.(long)stroke_with_finger_all_over_the_hand_short_horvertflip_short_600ms.mp4	343.79990510589596	344.4081936191633	0.6082885132673255				
317.65771484375	0.2	650563	271	73	2	0	0	76	130	stimuli\Videos_short_600ms_horflip\46.scratching_top_to_bottom_with_finger_nails_short_horflip_short_600ms.mp4	46.scratching_top_to_bottom_with_finger_nails_short_horflip_short_600ms.mp4	344.5999298557799	345.2081764350023	0.6082465792223957				
318.45751953125	0.2	652201	272	73	2	0	0	77	243	stimuli\Videos_short_600ms_horvertflip\67.single_touch_with_sponge_short_horvertflip_short_600ms.mp4	67.single_touch_with_sponge_short_horvertflip_short_600ms.mp4	345.3999452218213	346.00816335627314	0.6082181344518176				
319.2578125	0.2	653840	273	73	2	0	0	78	62	stimuli\Videos_short_600ms\66.stroke_top_to_bottom_with_sponge_short_short_600ms.mp4	66.stroke_top_to_bottom_with_sponge_short_short_600ms.mp4	346.1998916752709	346.808172270923	0.6082805956521042				
320.0576171875	0.2	655478	274	73	2	0	0	79	173	stimuli\Videos_short_600ms_horflip\85.touch_top_to_bottom_with_fabric_short_horflip_short_600ms.mp4	85.touch_top_to_bottom_with_fabric_short_horflip_short_600ms.mp4	346.99987654382494	347.60819614107095	0.6083195972460089				
320.857421875	0.2	657116	275	73	2	0	0	80	340	stimuli\Videos_short_600ms_vertflip\73.single_stroke_with_flat_hand_short_vertflip_short_600ms.mp4	73.single_stroke_with_flat_hand_short_vertflip_short_600ms.mp4	347.79983765952966	348.40818012989075	0.6083424703610945				
321.65771484375	0.2	658755	276	73	2	0	0	81	27	stimuli\Videos_short_600ms\34.repeated_punch_with_hand_short_short_600ms.mp4	34.repeated_punch_with_hand_short_short_600ms.mp4	348.5998474539156	349.2081632389745	0.6083157850589487				
322.45751953125	0.2	660393	277	73	2	0	0	82	58	stimuli\Videos_short_600ms\62.touch_top_to_bottom_with_scissors_short_short_600ms.mp4	62.touch_top_to_bottom_with_scissors_short_short_600ms.mp4	349.39980505067797	350.0081261141477	0.6083210634697025				
323.25732421875	0.2	662031	278	73	2	0	0	83	294	stimuli\Videos_short_600ms_vertflip\31.hand_grabbing_wrist_short_vertflip_short_600ms.mp4	31.hand_grabbing_wrist_short_vertflip_short_600ms.mp4	350.1998450493047	350.8081268179358	0.6082817686310591				
324.0576171875	0.2	663670	279	73	2	0	0	84	55	stimuli\Videos_short_600ms\6.single_touch_with_flat_hand_short_short_600ms.mp4	6.single_touch_with_flat_hand_short_short_600ms.mp4	350.99977214858154	351.6081102202661	0.6083380716845568				
324.857421875	0.2	665308	280	73	2	0	0	85	226	stimuli\Videos_short_600ms_horvertflip\51.repeated_touch_with_hammer_short_horvertflip_short_600ms.mp4	51.repeated_touch_with_hammer_short_horvertflip_short_600ms.mp4	351.7997746118399	352.4080956753096	0.6083210634697025				
325.6572265625	0.2	666946	281	73	2	0	0	86	240	stimuli\Videos_short_600ms_horvertflip\64.repeated_touch_with_screwdriver_short_horvertflip_short_600ms.mp4	64.repeated_touch_with_screwdriver_short_horvertflip_short_600ms.mp4	352.5997371937683	353.20807526545286	0.6083380716845568				
326.45751953125	0.2	668585	282	73	2	0	0	87	24	stimuli\Videos_short_600ms\31.hand_grabbing_wrist_short_short_600ms.mp4	31.hand_grabbing_wrist_short_short_600ms.mp4	353.39970153516697	354.00805984076214	0.6083583055951749				
327.25732421875	0.2	670223	283	73	2	0	0	88	284	stimuli\Videos_short_600ms_vertflip\22.single_touch_with_metal_chopstick_short_vertflip_short_600ms.mp4	22.single_touch_with_metal_chopstick_short_vertflip_short_600ms.mp4	354.1997705650574	354.80804382958195	0.6082732645245414				
328.05712890625	0.2	671861	284	73	2	0	0	89	114	stimuli\Videos_short_600ms_horflip\31.hand_grabbing_wrist_short_horflip_short_600ms.mp4	31.hand_grabbing_wrist_short_horflip_short_600ms.mp4	354.9997357861921	355.60802987111674	0.608294084924637				
328.857421875	0.2	673500	285	73	2	0	0	90	137	stimuli\Videos_short_600ms_horflip\52.touch_top_to_bottom_with_hammer_short_horflip_short_600ms.mp4	52.touch_top_to_bottom_with_hammer_short_horflip_short_600ms.mp4	355.7997253466674	356.4080100477495	0.6082847010820842				
329.6572265625	0.2	675138	286	73	2	0	0	91	259	stimuli\Videos_short_600ms_horvertflip\81.single_stroke_top_to_bottom_with_cotton_pad_short_horvertflip_short_600ms.mp4	81.single_stroke_top_to_bottom_with_cotton_pad_short_horvertflip_short_600ms.mp4	356.5996688676678	357.2079740959034	0.608305228235622				
330.45703125	0.2	676776	287	73	2	0	0	92	132	stimuli\Videos_short_600ms_horflip\48.single_slap_with_hand_short_horflip_short_600ms.mp4	48.single_slap_with_hand_short_horflip_short_600ms.mp4	357.3996440591345	358.00797861187857	0.6083345527440542				
331.25732421875	0.2	678415	288	73	2	0	0	93	139	stimuli\Videos_short_600ms_horflip\54.repeated_touch_with_knife_short_horflip_short_600ms.mp4	54.repeated_touch_with_knife_short_horflip_short_600ms.mp4	358.19964622914813	358.8079655331476	0.6083193039994512				
332.05712890625	0.2	680053	289	73	2	0	0	94	40	stimuli\Videos_short_600ms\46.scratching_top_to_bottom_with_finger_nails_short_short_600ms.mp4	46.scratching_top_to_bottom_with_finger_nails_short_short_600ms.mp4	358.9996299247214	359.60791814474396	0.6082882200225868	5.0	5.0	3.110166894568465	1.0
368.21435546875	0.2	754103	290	73	3	0	0	0	174	stimuli\Videos_short_600ms_horflip\86.touch_top_to_bottom_with_hair_brush_short_horflip_short_600ms.mp4	86.touch_top_to_bottom_with_hair_brush_short_horflip_short_600ms.mp4	395.15793798277264	395.7654901576698	0.6075521748971369				
369.01416015625	0.2	755741	291	73	3	0	0	1	279	stimuli\Videos_short_600ms_vertflip\18.single_stroke_from_top_to_bottom_with_rolling_pin_short_vertflip_short_600ms.mp4	18.single_stroke_from_top_to_bottom_with_rolling_pin_short_vertflip_short_600ms.mp4	395.95714897758626	396.5654715072833	0.608322529697034				
369.814453125	0.2	757380	292	73	3	0	0	2	136	stimuli\Videos_short_600ms_horflip\51.repeated_touch_with_hammer_short_horflip_short_600ms.mp4	51.repeated_touch_with_hammer_short_horflip_short_600ms.mp4	396.7571655166085	397.36546224073936	0.6082967241309234				
370.6142578125	0.2	759018	293	73	3	0	0	3	268	stimuli\Videos_short_600ms_horvertflip\9.single_touch_with_hammer_short_horvertflip_short_600ms.mp4	9.single_touch_with_hammer_short_horvertflip_short_600ms.mp4	397.5571283917834	398.1654409511466	0.6083125593631848				
371.4140625	0.2	760656	294	73	3	0	0	4	127	stimuli\Videos_short_600ms_horflip\43.touch_top_to_bottom_with_sharp_wooden_stick_short_horflip_short_600ms.mp4	43.touch_top_to_bottom_with_sharp_wooden_stick_short_horflip_short_600ms.mp4	398.3571214711992	398.9654349102984	0.60831343909922				
372.21435546875	0.2	762295	295	73	3	0	0	5	288	stimuli\Videos_short_600ms_vertflip\26.single_touch_with_a_blunt_syringe_short_vertflip_short_600ms.mp4	26.single_touch_with_a_blunt_syringe_short_vertflip_short_600ms.mp4	399.1571037005488	399.76544470468434	0.6083410041355819				
373.01416015625	0.2	763933	296	73	3	0	0	6	301	stimuli\Videos_short_600ms_vertflip\38.double_slap_with_pencil_short_vertflip_short_600ms.mp4	38.double_slap_with_pencil_short_vertflip_short_600ms.mp4	399.95708065148574	400.56541139204455	0.608330740558813				
373.81396484375	0.2	765571	297	73	3	0	0	7	111	stimuli\Videos_short_600ms_horflip\29.single_pinch_with_tweezers_short_horflip_short_600ms.mp4	29.single_pinch_with_tweezers_short_horflip_short_600ms.mp4	400.7570707984505	401.3653930349028	0.6083222364522953				
374.6142578125	0.2	767210	298	73	3	0	0	8	54	stimuli\Videos_short_600ms\59.single_push_with_long_side_pencil_short_short_600ms.mp4	59.single_push_with_long_side_pencil_short_short_600ms.mp4	401.5570547872703	402.1653764372313	0.6083216499609989				
375.4140625	0.2	768848	299	73	3	0	0	9	75	stimuli\Videos_short_600ms\78.single_stroke_top_to_bottom_with_soft_brush_short_short_600ms.mp4	78.single_stroke_top_to_bottom_with_soft_brush_short_short_600ms.mp4	402.3570370166198	402.9653604260511	0.6083234094312502				
376.2138671875	0.2	770486	300	73	3	0	0	10	322	stimuli\Videos_short_600ms_vertflip\57.single_touch_with_nail_file_short_vertflip_short_600ms.mp4	57.single_touch_with_nail_file_short_vertflip_short_600ms.mp4	403.1570491569655	403.76534118917334	0.608292032207828				
377.01416015625	0.2	772125	301	73	3	0	0	11	118	stimuli\Videos_short_600ms_horflip\35.single_punch_with_hand_short_horflip_short_600ms.mp4	35.single_punch_with_hand_short_horflip_short_600ms.mp4	403.95699179822986	404.5653242982571	0.6083325000272453				
377.81396484375	0.2	773763	302	73	3	0	0	12	194	stimuli\Videos_short_600ms_horvertflip\22.single_touch_with_metal_chopstick_short_horvertflip_short_600ms.mp4	22.single_touch_with_metal_chopstick_short_horvertflip_short_600ms.mp4	404.756944703071	405.3653094600577	0.6083647569867026				
378.61376953125	0.2	775401	303	73	3	0	0	13	326	stimuli\Videos_short_600ms_vertflip\60.single_push_with_tip_of_pencil_short_vertflip_short_600ms.mp4	60.single_push_with_tip_of_pencil_short_vertflip_short_600ms.mp4	405.5569474595741	406.1652943286117	0.6083468690376321				
379.4140625	0.2	777040	304	73	3	0	0	14	296	stimuli\Videos_short_600ms_vertflip\33.scratch_top_to_bottom_with_scissors_short_vertflip_short_600ms.mp4	33.scratch_top_to_bottom_with_scissors_short_vertflip_short_600ms.mp4	406.3569293956789	406.9652759714699	0.6083465757910744				
380.2138671875	0.2	778678	305	73	3	0	0	15	211	stimuli\Videos_short_600ms_horvertflip\38.double_slap_with_pencil_short_horvertflip_short_600ms.mp4	38.double_slap_with_pencil_short_horvertflip_short_600ms.mp4	407.1569221818499	407.76525790757296	0.6083357257230091				
381.01416015625	0.2	780317	306	73	3	0	0	16	342	stimuli\Videos_short_600ms_vertflip\75.(long)stroke_with_fingers_all_over_the_hand_short_vertflip_short_600ms.mp4	75.(long)stroke_with_fingers_all_over_the_hand_short_vertflip_short_600ms.mp4	407.9569067571592	408.565240723412	0.6083339662527578				
381.81396484375	0.2	781955	307	73	3	0	0	17	125	stimuli\Videos_short_600ms_horflip\41.injection_with_blunt_syringe_short_horflip_short_600ms.mp4	41.injection_with_blunt_syringe_short_horflip_short_600ms.mp4	408.7570142021523	409.3651980269297	0.6081838247773703				
382.61376953125	0.2	783593	308	73	3	0	0	18	341	stimuli\Videos_short_600ms_vertflip\74.fingers_walking_from_top_to_bottom_short_vertflip_short_600ms.mp4	74.fingers_walking_from_top_to_bottom_short_vertflip_short_600ms.mp4	409.5569641745442	410.16518700091547	0.608222826371275				
383.4140625	0.2	785232	309	73	3	0	1	19	373	stimuli\Targets_short_600ms_horvertflip\chopstick-silver-tap_short_vertflip_short_600ms.mp4	chopstick-silver-tap_short_vertflip_short_600ms.mp4	410.35688951434895	410.9651648315885	0.6082753172395314				
384.2138671875	0.2	786870	310	73	3	0	0	20	264	stimuli\Videos_short_600ms_horvertflip\86.touch_top_to_bottom_with_hair_brush_short_horvertflip_short_600ms.mp4	86.touch_top_to_bottom_with_hair_brush_short_horvertflip_short_600ms.mp4	411.1568271704473	411.76512712027215	0.6082999498248682				
385.013671875	0.2	788508	311	73	3	0	0	21	81	stimuli\Videos_short_600ms\83.single_stroke_top_to_bottom_with_cotton_bud_short_short_600ms.mp4	83.single_stroke_top_to_bottom_with_cotton_bud_short_short_600ms.mp4	411.95689649358064	412.5651398471091	0.6082433535284508				
385.81396484375	0.2	790147	312	73	3	0	0	22	90	stimuli\Videos_short_600ms_horflip\1.repeated_touch_with_finger_fast_short_horflip_short_600ms.mp4	1.repeated_touch_with_finger_fast_short_horflip_short_600ms.mp4	412.75681450225966	413.3651273548676	0.6083128526079236				
386.61376953125	0.2	791785	313	73	3	0	0	23	28	stimuli\Videos_short_600ms\35.single_punch_with_hand_short_short_600ms.mp4	35.single_punch_with_hand_short_short_600ms.mp4	413.55679849107946	414.1651148626279	0.6083163715484261				
387.41357421875	0.2	793423	314	73	3	0	0	24	349	stimuli\Videos_short_600ms_vertflip\81.single_stroke_top_to_bottom_with_cotton_pad_short_vertflip_short_600ms.mp4	81.single_stroke_top_to_bottom_with_cotton_pad_short_vertflip_short_600ms.mp4	414.3567801339377	414.965108528535	0.6083283945972653				
388.2138671875	0.2	795062	315	73	3	0	0	25	38	stimuli\Videos_short_600ms\44.pushing_top_to_bottom_with_finger_short_short_600ms.mp4	44.pushing_top_to_bottom_with_finger_short_short_600ms.mp4	415.156767641698	415.76508606596326	0.6083184242652351				
389.013671875	0.2	796700	316	73	3	0	0	26	31	stimuli\Videos_short_600ms\38.double_slap_with_pencil_short_short_600ms.mp4	38.double_slap_with_pencil_short_short_600ms.mp4	415.95674664535	416.5650715210067	0.6083248756567627				
389.8134765625	0.2	798338	317	73	3	0	0	27	0	stimuli\Videos_short_600ms\1.repeated_touch_with_finger_fast_short_short_600ms.mp4	1.repeated_touch_with_finger_fast_short_short_600ms.mp4	416.7567279949635	417.36505199088606	0.6083239959225466				
390.61376953125	0.2	799977	318	73	3	0	0	28	86	stimuli\Videos_short_600ms\88.repeated_stroke_with_plastic_brush_short_short_600ms.mp4	88.repeated_stroke_with_plastic_brush_short_short_600ms.mp4	417.55667327543415	418.1650362729488	0.6083629975146323				
391.41357421875	0.2	801615	319	73	3	0	0	29	334	stimuli\Videos_short_600ms_vertflip\68.stroke_top_to_bottom_with_shawl_short_vertflip_short_600ms.mp4	68.stroke_top_to_bottom_with_shawl_short_vertflip_short_600ms.mp4	418.35669567935656	418.9650217279941	0.6083260486375366				
392.21337890625	0.2	803253	320	73	3	0	0	30	271	stimuli\Videos_short_600ms_vertflip\10.single_touch_with_knife_short_vertflip_short_600ms.mp4	10.single_touch_with_knife_short_vertflip_short_600ms.mp4	419.1566588477762	419.7650051303226	0.6083462825463357				
393.013671875	0.2	804892	321	73	3	0	0	31	200	stimuli\Videos_short_600ms_horvertflip\28.single_injection_with_sharp_needle_short_horvertflip_short_600ms.mp4	28.single_injection_with_sharp_needle_short_horvertflip_short_600ms.mp4	419.9566314000367	420.5649856002019	0.6083542001651949				
393.8134765625	0.2	806530	322	73	3	0	0	32	260	stimuli\Videos_short_600ms_horvertflip\82.repeated_touch_with_cotton_bud_short_horvertflip_short_600ms.mp4	82.repeated_touch_with_cotton_bud_short_horvertflip_short_600ms.mp4	420.7566013130927	421.3649692957751	0.6083679826824664				
394.61328125	0.2	808168	323	73	3	0	0	33	124	stimuli\Videos_short_600ms_horflip\40.repeated_push_with_finger_short_horflip_short_600ms.mp4	40.repeated_push_with_finger_short_horflip_short_600ms.mp4	421.5566152129104	422.1649556305547	0.6083404176442855				
395.41357421875	0.2	809807	324	73	3	0	0	34	110	stimuli\Videos_short_600ms_horflip\28.single_injection_with_sharp_needle_short_horflip_short_600ms.mp4	28.single_injection_with_sharp_needle_short_horflip_short_600ms.mp4	422.356623541069	422.96493258149167	0.6083090404226823				
396.21337890625	0.2	811445	325	73	3	0	0	35	9	stimuli\Videos_short_600ms\18.single_stroke_from_top_to_bottom_with_rolling_pin_short_short_600ms.mp4	18.single_stroke_from_top_to_bottom_with_rolling_pin_short_short_600ms.mp4	423.1565784986269	423.76492126223275	0.6083427636058332				
397.01318359375	0.2	813083	326	73	3	0	0	36	65	stimuli\Videos_short_600ms\69.stroke_with_soft_sock_short_short_600ms.mp4	69.stroke_with_soft_sock_short_short_600ms.mp4	423.9565727510235	424.56487416707387	0.6083014160503808				
397.8134765625	0.2	814722	327	73	3	0	0	37	275	stimuli\Videos_short_600ms_vertflip\14.repeated_touch_with_pencil_short_vertflip_short_600ms.mp4	14.repeated_touch_with_pencil_short_vertflip_short_600ms.mp4	424.7565664169306	425.3648382152296	0.6082717982990289				
398.61328125	0.2	816360	328	73	3	0	0	38	19	stimuli\Videos_short_600ms\27.single_push_with_a_plastic_whisk_short_short_600ms.mp4	27.single_push_with_a_plastic_whisk_short_short_600ms.mp4	425.5565427813781	426.1648424379582	0.6082996565801295				
399.4130859375	0.2	817998	329	73	3	0	0	39	232	stimuli\Videos_short_600ms_horvertflip\57.single_touch_with_nail_file_short_horvertflip_short_600ms.mp4	57.single_touch_with_nail_file_short_horvertflip_short_600ms.mp4	426.3565514027814	426.9648047266419	0.608253323860481				
400.21337890625	0.2	819637	330	73	3	0	0	40	33	stimuli\Videos_short_600ms\4.repeated_tap_with_finger_slow_short_short_600ms.mp4	4.repeated_tap_with_finger_slow_short_short_600ms.mp4	427.15701044861635	427.76481070884074	0.6078002602243942				
401.01318359375	0.2	821275	331	73	3	0	0	41	188	stimuli\Videos_short_600ms_horvertflip\17.repeated_touch_with_rolling_pin_short_horvertflip_short_600ms.mp4	17.repeated_touch_with_rolling_pin_short_horvertflip_short_600ms.mp4	427.9565149817445	428.56480085580733	0.6082858740628581				
401.8134765625	0.2	822914	332	73	3	0	0	42	348	stimuli\Videos_short_600ms_vertflip\80.stroke_with_sharp_stick_all_over_the_hand_short_vertflip_short_600ms.mp4	80.stroke_with_sharp_stick_all_over_the_hand_short_vertflip_short_600ms.mp4	428.7564728717516	429.36478777707634	0.6083149053247325				
402.61328125	0.2	824552	333	73	3	0	0	43	225	stimuli\Videos_short_600ms_horvertflip\50.single_(long)hard_push_with_thumb_short_horvertflip_short_600ms.mp4	50.single_(long)hard_push_with_thumb_short_horvertflip_short_600ms.mp4	429.55651257713544	430.1647914133154	0.608278836180034				
403.4130859375	0.2	826190	334	73	3	0	0	44	190	stimuli\Videos_short_600ms_horvertflip\19.single_touch_with_rolling_pin_short_horvertflip_short_600ms.mp4	19.single_touch_with_rolling_pin_short_horvertflip_short_600ms.mp4	430.35639803561025	430.9647639655778	0.6083659299674764				
404.21337890625	0.2	827829	335	73	3	0	0	45	221	stimuli\Videos_short_600ms_horvertflip\47.(long)scratching_with_finger_nails_short_horvertflip_short_600ms.mp4	47.(long)scratching_with_finger_nails_short_horvertflip_short_600ms.mp4	431.1564213192687	431.7647602706893	0.6083389514205919				
405.01318359375	0.2	829467	336	73	3	0	0	46	148	stimuli\Videos_short_600ms_horflip\62.touch_top_to_bottom_with_scissors_short_horflip_short_600ms.mp4	62.touch_top_to_bottom_with_scissors_short_horflip_short_600ms.mp4	431.95641117298874	432.56473018374527	0.6083190107565315				
405.81298828125	0.2	831105	337	73	3	0	0	47	128	stimuli\Videos_short_600ms_horflip\44.pushing_top_to_bottom_with_finger_short_horflip_short_600ms.mp4	44.pushing_top_to_bottom_with_finger_short_horflip_short_600ms.mp4	432.756390763132	433.36471329282904	0.608322529697034				
406.61328125	0.2	832744	338	73	3	0	0	48	172	stimuli\Videos_short_600ms_horflip\84.single_touch_with_cotton_bud_short_horflip_short_600ms.mp4	84.single_touch_with_cotton_bud_short_horflip_short_600ms.mp4	433.5563718195008	434.16469610866807	0.6083242891672853				
407.4130859375	0.2	834382	339	73	3	0	0	49	355	stimuli\Videos_short_600ms_vertflip\87.single_stroke_top_to_bottom_with_plastic_brush_short_vertflip_short_600ms.mp4	87.single_stroke_top_to_bottom_with_plastic_brush_short_vertflip_short_600ms.mp4	434.3563338149397	434.9646798042413	0.608345989301597				
408.212890625	0.2	836020	340	73	3	0	0	50	14	stimuli\Videos_short_600ms\22.single_touch_with_metal_chopstick_short_short_600ms.mp4	22.single_touch_with_metal_chopstick_short_short_600ms.mp4	435.15633334574704	435.7646614470996	0.6083281013525266				
409.01318359375	0.2	837659	341	73	3	0	0	51	123	stimuli\Videos_short_600ms_horflip\4.repeated_tap_with_finger_slow_short_horflip_short_600ms.mp4	4.repeated_tap_with_finger_slow_short_horflip_short_600ms.mp4	435.95634695232	436.5646425034683	0.6082955511483306				
409.81298828125	0.2	839297	342	73	3	0	0	52	249	stimuli\Videos_short_600ms_horvertflip\72.(short)stroke_with_finger_all_over_the_hand_short_horvertflip_short_600ms.mp4	72.(short)stroke_with_finger_all_over_the_hand_short_horvertflip_short_600ms.mp4	436.7562649609972	437.3646291314944	0.6083641704972251				
410.61279296875	0.2	840935	343	73	3	0	0	53	15	stimuli\Videos_short_600ms\23.single_push_with_a_spoon_short_short_600ms.mp4	23.single_push_with_a_spoon_short_short_600ms.mp4	437.5563023204195	438.164610481108	0.6083081606884662				
411.4130859375	0.2	842574	344	73	3	0	1	54	369	stimuli\Targets_short_600ms_horflip\finger-tap_short_horflip_short_600ms.mp4	finger-tap_short_horflip_short_600ms.mp4	438.3562780983757	438.96459446992594	0.6083163715502451				
412.212890625	0.2	844212	345	73	3	0	0	55	20	stimuli\Videos_short_600ms\28.single_injection_with_sharp_needle_short_short_600ms.mp4	28.single_injection_with_sharp_needle_short_short_600ms.mp4	439.15625328984424	439.76456936814793	0.6083160783036874				
413.0126953125	0.2	845850	346	73	3	0	1	56	361	stimuli\Targets_short_600ms\chopstick-silver-tap_short_short_600ms.mp4	chopstick-silver-tap_short_short_600ms.mp4	439.9562466625048	440.564558048889	0.60831138638423				
413.81298828125	0.2	847489	347	73	3	0	0	57	176	stimuli\Videos_short_600ms_horflip\88.repeated_stroke_with_plastic_brush_short_horflip_short_600ms.mp4	88.repeated_stroke_with_plastic_brush_short_horflip_short_600ms.mp4	440.75622478642254	441.36451799161114	0.6082932051886019				
414.61279296875	0.2	849127	348	73	3	0	0	58	359	stimuli\Videos_short_600ms_vertflip\90.repeated_touch_with_sponge_short_vertflip_short_600ms.mp4	90.repeated_touch_with_sponge_short_vertflip_short_600ms.mp4	441.55625540120855	442.1644999277159	0.6082445265074057				
415.41259765625	0.2	850765	349	73	3	0	0	59	29	stimuli\Videos_short_600ms\36.single_slap_with_full_hand_short_short_600ms.mp4	36.single_slap_with_full_hand_short_short_600ms.mp4	442.356169011211	442.9644774651424	0.6083084539313859				
416.212890625	0.2	852404	350	73	3	0	0	60	273	stimuli\Videos_short_600ms_vertflip\12.repeated_touch_with_nail_file_short_vertflip_short_600ms.mp4	12.repeated_touch_with_nail_file_short_vertflip_short_600ms.mp4	443.15614566890326	443.76447201078554	0.6083263418822753				
417.0126953125	0.2	854042	351	73	3	0	0	61	155	stimuli\Videos_short_600ms_horflip\69.stroke_with_soft_sock_short_horflip_short_600ms.mp4	69.stroke_with_soft_sock_short_horflip_short_600ms.mp4	443.9561551700426	444.5644601050353	0.6083049349927023				
417.8125	0.2	855680	352	73	3	0	0	62	131	stimuli\Videos_short_600ms_horflip\47.(long)scratching_with_finger_nails_short_horflip_short_600ms.mp4	47.(long)scratching_with_finger_nails_short_horflip_short_600ms.mp4	444.7561321209814	445.3644690196852	0.6083368987037829				
418.61279296875	0.2	857319	353	73	3	0	0	63	147	stimuli\Videos_short_600ms_horflip\61.single_hit_with_rolling_pin_short_horflip_short_600ms.mp4	61.single_hit_with_rolling_pin_short_horflip_short_600ms.mp4	445.55611698953544	446.16443746651566	0.6083204769802251				
419.41259765625	0.2	858957	354	73	3	0	0	64	186	stimuli\Videos_short_600ms_horvertflip\15.single_stroke_top_to_bottom_with_a_plastic_whisk_short_horvertflip_short_600ms.mp4	15.single_stroke_top_to_bottom_with_a_plastic_whisk_short_horvertflip_short_600ms.mp4	446.3561027378237	446.96443465136326	0.6083319135395868				
420.21240234375	0.2	860595	355	73	3	0	0	65	192	stimuli\Videos_short_600ms_horvertflip\20.single_touch_with_screwdriver_short_horvertflip_short_600ms.mp4	20.single_touch_with_screwdriver_short_horvertflip_short_600ms.mp4	447.1560840874372	447.76440397792794	0.6083198904907476				
421.0126953125	0.2	862234	356	73	3	0	0	66	104	stimuli\Videos_short_600ms_horflip\22.single_touch_with_metal_chopstick_short_horflip_short_600ms.mp4	22.single_touch_with_metal_chopstick_short_horflip_short_600ms.mp4	447.9560959345381	448.564390605954	0.6082946714159334				
421.8125	0.2	863872	357	73	3	0	0	67	195	stimuli\Videos_short_600ms_horvertflip\23.single_push_with_a_spoon_short_horvertflip_short_600ms.mp4	23.single_push_with_a_spoon_short_horvertflip_short_600ms.mp4	448.75609429236647	449.3643707825868	0.6082764902203053				
422.61279296875	0.2	865511	358	73	3	0	0	68	82	stimuli\Videos_short_600ms\84.single_touch_with_cotton_bud_short_short_600ms.mp4	84.single_touch_with_cotton_bud_short_short_600ms.mp4	449.55600995508394	450.1643547714066	0.6083448163226421				
423.41259765625	0.2	867149	359	73	3	0	0	69	101	stimuli\Videos_short_600ms_horflip\2.single_touch_with_finger_short_horflip_short_600ms.mp4	2.single_touch_with_finger_short_horflip_short_600ms.mp4	450.3560012750295	450.9643396399606	0.6083383649311145				
424.21240234375	0.2	868787	360	73	3	0	1	70	372	stimuli\Targets_short_600ms_horvertflip\brush-stroke_short_vertflip_short_600ms.mp4	brush-stroke_short_vertflip_short_600ms.mp4	451.1559767597428	451.7643201098381	0.6083433500953106				
425.0126953125	0.2	870426	361	73	3	0	0	71	357	stimuli\Videos_short_600ms_vertflip\89.single_touch_with_plastic_brush_short_vertflip_short_600ms.mp4	89.single_touch_with_plastic_brush_short_vertflip_short_600ms.mp4	451.95596221478627	452.5643029256771	0.6083407108908432				
425.8125	0.2	872064	362	73	3	0	0	72	307	stimuli\Videos_short_600ms_vertflip\43.touch_top_to_bottom_with_sharp_wooden_stick_short_vertflip_short_600ms.mp4	43.touch_top_to_bottom_with_sharp_wooden_stick_short_vertflip_short_600ms.mp4	452.7562523514589	453.3642839820459	0.6080316305869928				
426.6123046875	0.2	873702	363	73	3	0	0	73	1	stimuli\Videos_short_600ms\10.single_touch_with_knife_short_short_600ms.mp4	10.single_touch_with_knife_short_short_600ms.mp4	453.5559762319008	454.1642682641104	0.608292032209647				
427.41259765625	0.2	875341	364	73	3	0	0	74	305	stimuli\Videos_short_600ms_vertflip\41.injection_with_blunt_syringe_short_vertflip_short_600ms.mp4	41.injection_with_blunt_syringe_short_vertflip_short_600ms.mp4	454.3559109555481	454.9642484407432	0.6083374851950794				
428.21240234375	0.2	876979	365	73	3	0	0	75	319	stimuli\Videos_short_600ms_vertflip\54.repeated_touch_with_knife_short_vertflip_short_600ms.mp4	54.repeated_touch_with_knife_short_vertflip_short_600ms.mp4	455.1559195769533	455.76423008360143	0.6083105066481949				
429.01220703125	0.2	878617	366	73	3	0	0	76	261	stimuli\Videos_short_600ms_horvertflip\83.single_stroke_top_to_bottom_with_cotton_bud_short_horvertflip_short_600ms.mp4	83.single_stroke_top_to_bottom_with_cotton_bud_short_horvertflip_short_600ms.mp4	455.95589066299	456.5641944250019	0.6083037620119285				
429.8125	0.2	880256	367	73	3	0	0	77	315	stimuli\Videos_short_600ms_vertflip\50.single_(long)hard_push_with_thumb_short_vertflip_short_600ms.mp4	50.single_(long)hard_push_with_thumb_short_vertflip_short_600ms.mp4	456.75588286266975	457.3641561271943	0.6082732645245414				
430.6123046875	0.2	881894	368	73	3	0	0	78	258	stimuli\Videos_short_600ms_horvertflip\80.stroke_with_sharp_stick_all_over_the_hand_short_horvertflip_short_600ms.mp4	80.stroke_with_sharp_stick_all_over_the_hand_short_horvertflip_short_600ms.mp4	457.5558630393043	458.16416005667816	0.6082970173738431				
431.412109375	0.2	883532	369	73	3	0	0	79	299	stimuli\Videos_short_600ms_vertflip\36.single_slap_with_full_hand_short_vertflip_short_600ms.mp4	36.single_slap_with_full_hand_short_vertflip_short_600ms.mp4	458.35584732136886	458.9641499104	0.6083025890311546				
432.21240234375	0.2	885171	370	73	3	0	1	80	360	stimuli\Targets_short_600ms\brush-stroke_short_short_600ms.mp4	brush-stroke_short_short_600ms.mp4	459.1558735374765	459.7641324329925	0.6082588955159736				
433.01220703125	0.2	886809	371	73	3	0	0	81	45	stimuli\Videos_short_600ms\50.single_(long)hard_push_with_thumb_short_short_600ms.mp4	50.single_(long)hard_push_with_thumb_short_short_600ms.mp4	459.9558135395364	460.5641431071144	0.6083295675780391				
433.81201171875	0.2	888447	372	73	3	0	0	82	351	stimuli\Videos_short_600ms_vertflip\83.single_stroke_top_to_bottom_with_cotton_bud_short_vertflip_short_600ms.mp4	83.single_stroke_top_to_bottom_with_cotton_bud_short_vertflip_short_600ms.mp4	460.7557887310031	461.3641136066599	0.6083248756567627				
434.6123046875	0.2	890086	373	73	3	0	0	83	331	stimuli\Videos_short_600ms_vertflip\65.stroke_top_to_bottom_with_stanley_knife_short_vertflip_short_600ms.mp4	65.stroke_top_to_bottom_with_stanley_knife_short_vertflip_short_600ms.mp4	461.55574486154	462.1641034603799	0.6083585988399136				
435.412109375	0.2	891724	374	73	3	0	0	84	34	stimuli\Videos_short_600ms\40.repeated_push_with_finger_short_short_600ms.mp4	40.repeated_push_with_finger_short_short_600ms.mp4	462.35576198705166	462.9640804113169	0.6083184242652351				
436.2119140625	0.2	893362	375	73	3	0	0	85	17	stimuli\Videos_short_600ms\25.single_touch_with_stanley_knife_short_short_600ms.mp4	25.single_touch_with_stanley_knife_short_short_600ms.mp4	463.1557401109694	463.76406527987274	0.6083251689033204				
