onset	duration	onsetsample	eventnumber	subjectnr	sequencenumber	blocksequencenumber	istarget	presentationnumber	stimnumber	stim	stimname	time_stimon	time_stimoff	stimdur	cresp	resp	rt	correct
78.85595703125	0.2	161497	0	31	0	0	0	0	344	stimuli\Videos_short_600ms_vertflip\77.tapping_with_all_fingers_short_vertflip_short_600ms.mp4	77.tapping_with_all_fingers_short_vertflip_short_600ms.mp4	71.50068517112595	72.10882622986901	0.6081410587430582	n/a	n/a	n/a	n/a
79.65576171875	0.2	163135	1	31	0	0	0	1	65	stimuli\Videos_short_600ms\69.stroke_with_soft_sock_short_short_600ms.mp4	69.stroke_with_soft_sock_short_short_600ms.mp4	72.30048910632104	72.9087876385911	0.6082985322700551	n/a	n/a	n/a	n/a
80.45556640625	0.2	164773	2	31	0	0	0	2	124	stimuli\Videos_short_600ms_horflip\40.repeated_push_with_finger_short_horflip_short_600ms.mp4	40.repeated_push_with_finger_short_horflip_short_600ms.mp4	73.10047690725514	73.70880241823033	0.6083255109751917	n/a	n/a	n/a	n/a
81.255859375	0.2	166412	3	31	0	0	0	3	271	stimuli\Videos_short_600ms_vertflip\10.single_touch_with_knife_short_vertflip_short_600ms.mp4	10.single_touch_with_knife_short_vertflip_short_600ms.mp4	73.90047203935865	74.50879021916444	0.6083181798057922	n/a	n/a	n/a	n/a
82.0556640625	0.2	168050	4	31	0	0	0	4	279	stimuli\Videos_short_600ms_vertflip\18.single_stroke_from_top_to_bottom_with_rolling_pin_short_vertflip_short_600ms.mp4	18.single_stroke_from_top_to_bottom_with_rolling_pin_short_vertflip_short_600ms.mp4	74.70047010392955	75.30877186191537	0.6083017579858279	n/a	n/a	n/a	n/a
82.85546875	0.2	169688	5	31	0	0	0	5	278	stimuli\Videos_short_600ms_vertflip\17.repeated_touch_with_rolling_pin_short_vertflip_short_600ms.mp4	17.repeated_touch_with_rolling_pin_short_vertflip_short_600ms.mp4	75.50041743680595	76.10873649635141	0.6083190595454653	n/a	n/a	n/a	n/a
83.65576171875	0.2	171327	6	31	0	0	0	6	192	stimuli\Videos_short_600ms_horvertflip\20.single_touch_with_screwdriver_short_horvertflip_short_600ms.mp4	20.single_touch_with_screwdriver_short_horvertflip_short_600ms.mp4	76.30047737644963	76.90874717053521	0.6082697940855724	n/a	n/a	n/a	n/a
84.45556640625	0.2	172965	7	31	0	0	0	7	356	stimuli\Videos_short_600ms_vertflip\88.repeated_stroke_with_plastic_brush_short_vertflip_short_600ms.mp4	88.repeated_stroke_with_plastic_brush_short_vertflip_short_600ms.mp4	77.10049391556822	77.70873966341605	0.6082457478478318	n/a	n/a	n/a	n/a
85.25537109375	0.2	174603	8	31	0	0	1	8	379	stimuli\Targets_short_600ms_vertflip\chopstick-silver-tap_short_horvertflip_short_600ms.mp4	chopstick-silver-tap_short_horvertflip_short_600ms.mp4	77.90045004584863	78.5087315698056	0.6082815239569754	n/a	n/a	n/a	n/a
86.0556640625	0.2	176242	9	31	0	0	0	9	61	stimuli\Videos_short_600ms\65.stroke_top_to_bottom_with_stanley_knife_short_short_600ms.mp4	65.stroke_top_to_bottom_with_stanley_knife_short_short_600ms.mp4	78.70036512157822	79.3087164382705	0.6083513166922785	n/a	n/a	n/a	n/a
86.85546875	0.2	177880	10	31	0	0	0	10	153	stimuli\Videos_short_600ms_horflip\67.single_touch_with_sponge_short_horflip_short_600ms.mp4	67.single_touch_with_sponge_short_horflip_short_600ms.mp4	79.5004332721328	80.10870101349064	0.6082677413578494	n/a	n/a	n/a	n/a
87.65576171875	0.2	179519	11	31	0	0	0	11	21	stimuli\Videos_short_600ms\29.single_pinch_with_tweezers_short_short_600ms.mp4	29.single_pinch_with_tweezers_short_short_600ms.mp4	80.30036154396839	80.90868646844865	0.6083249244802573	n/a	n/a	n/a	n/a
88.45556640625	0.2	181157	12	31	0	0	0	12	297	stimuli\Videos_short_600ms_vertflip\34.repeated_punch_with_hand_short_vertflip_short_600ms.mp4	34.repeated_punch_with_hand_short_vertflip_short_600ms.mp4	81.1003786695801	81.70867426938275	0.6082955998026591	n/a	n/a	n/a	n/a
89.25537109375	0.2	182795	13	31	0	0	0	13	193	stimuli\Videos_short_600ms_horvertflip\21.repeated_touch_with_metal_chopstick_short_horvertflip_short_600ms.mp4	21.repeated_touch_with_metal_chopstick_short_horvertflip_short_600ms.mp4	81.90031368609198	82.50866119057537	0.6083475044833904	n/a	n/a	n/a	n/a
90.0556640625	0.2	184434	14	31	0	0	0	14	130	stimuli\Videos_short_600ms_horflip\46.scratching_top_to_bottom_with_finger_nails_short_horflip_short_600ms.mp4	46.scratching_top_to_bottom_with_finger_nails_short_horflip_short_600ms.mp4	82.700325533262	83.30865163073031	0.6083260974683071	n/a	n/a	n/a	n/a
90.85546875	0.2	186072	15	31	0	0	0	15	200	stimuli\Videos_short_600ms_horvertflip\28.single_injection_with_sharp_needle_short_horvertflip_short_600ms.mp4	28.single_injection_with_sharp_needle_short_horvertflip_short_600ms.mp4	83.50029310016726	84.10863825867636	0.6083451585091098	n/a	n/a	n/a	n/a
91.6552734375	0.2	187710	16	31	0	0	0	16	77	stimuli\Videos_short_600ms\8.single_touch_with_hairbrush_short_short_600ms.mp4	8.single_touch_with_hairbrush_short_short_600ms.mp4	84.30026711850041	84.9086316312987	0.6083645127982891	n/a	n/a	n/a	n/a
92.45556640625	0.2	189349	17	31	0	0	0	17	47	stimuli\Videos_short_600ms\52.touch_top_to_bottom_with_hammer_short_short_600ms.mp4	52.touch_top_to_bottom_with_hammer_short_short_600ms.mp4	85.10026723579904	85.70861415379113	0.608346917992094	n/a	n/a	n/a	n/a
93.25537109375	0.2	190987	18	31	0	0	0	18	210	stimuli\Videos_short_600ms_horvertflip\37.single_stab_with_nail_file_short_horvertflip_short_600ms.mp4	37.single_stab_with_nail_file_short_horvertflip_short_600ms.mp4	85.9002553299797	86.50860283446491	0.6083475044852094	n/a	n/a	n/a	n/a
94.05517578125	0.2	192625	19	31	0	0	0	19	266	stimuli\Videos_short_600ms_horvertflip\88.repeated_stroke_with_plastic_brush_short_horvertflip_short_600ms.mp4	88.repeated_stroke_with_plastic_brush_short_horvertflip_short_600ms.mp4	86.7002460633812	87.30859004890408	0.6083439855228789	n/a	n/a	n/a	n/a
94.85546875	0.2	194264	20	31	0	0	0	20	50	stimuli\Videos_short_600ms\55.touch_top_to_bottom_with_nail_file_short_short_600ms.mp4	55.touch_top_to_bottom_with_nail_file_short_short_600ms.mp4	87.50031450718234	88.10857374438274	0.6082592372004001	n/a	n/a	n/a	n/a
95.6552734375	0.2	195902	21	31	0	0	0	21	229	stimuli\Videos_short_600ms_horvertflip\54.repeated_touch_with_knife_short_horvertflip_short_600ms.mp4	54.repeated_touch_with_knife_short_horvertflip_short_600ms.mp4	88.30026447927958	88.90853984505338	0.6082753657738067	n/a	n/a	n/a	n/a
96.455078125	0.2	197540	22	31	0	0	0	22	7	stimuli\Videos_short_600ms\16.repeated_touch_with_plastic_brush_short_short_600ms.mp4	16.repeated_touch_with_plastic_brush_short_short_600ms.mp4	89.10028952255561	89.70855315845802	0.6082636359024036	n/a	n/a	n/a	n/a
97.25537109375	0.2	199179	23	31	0	0	0	23	52	stimuli\Videos_short_600ms\57.single_touch_with_nail_file_short_short_600ms.mp4	57.single_touch_with_nail_file_short_short_600ms.mp4	89.90022747153489	90.50852453757216	0.6082970660372666	n/a	n/a	n/a	n/a
98.05517578125	0.2	200817	24	31	0	0	0	24	296	stimuli\Videos_short_600ms_vertflip\33.scratch_top_to_bottom_with_scissors_short_vertflip_short_600ms.mp4	33.scratch_top_to_bottom_with_scissors_short_vertflip_short_600ms.mp4	90.70020412909072	91.30853609149564	0.6083319624049182	n/a	n/a	n/a	n/a
98.85498046875	0.2	202455	25	31	0	0	0	25	34	stimuli\Videos_short_600ms\40.repeated_push_with_finger_short_short_600ms.mp4	40.repeated_push_with_finger_short_short_600ms.mp4	91.50016524456623	92.10850072593166	0.6083354813654296	n/a	n/a	n/a	n/a
99.6552734375	0.2	204094	26	31	0	0	0	26	304	stimuli\Videos_short_600ms_vertflip\40.repeated_push_with_finger_short_vertflip_short_600ms.mp4	40.repeated_push_with_finger_short_vertflip_short_600ms.mp4	92.30017855797088	92.908550108692	0.6083715507211309	n/a	n/a	n/a	n/a
100.455078125	0.2	205732	27	31	0	0	0	27	19	stimuli\Videos_short_600ms\27.single_push_with_a_plastic_whisk_short_short_600ms.mp4	27.single_push_with_a_plastic_whisk_short_short_600ms.mp4	93.10014788435548	93.70849568208725	0.6083477977317671	n/a	n/a	n/a	n/a
101.2548828125	0.2	207370	28	31	0	0	0	28	358	stimuli\Videos_short_600ms_vertflip\9.single_touch_with_hammer_short_vertflip_short_600ms.mp4	9.single_touch_with_hammer_short_vertflip_short_600ms.mp4	93.90013656502924	94.50849228042534	0.608355715396101	n/a	n/a	n/a	n/a
102.05517578125	0.2	209009	29	31	0	0	0	29	144	stimuli\Videos_short_600ms_horflip\59.single_push_with_long_side_pencil_short_horflip_short_600ms.mp4	59.single_push_with_long_side_pencil_short_horflip_short_600ms.mp4	94.70025574052488	95.30846659200506	0.6082108514801803	n/a	n/a	n/a	n/a
102.85498046875	0.2	210647	30	31	0	0	0	30	49	stimuli\Videos_short_600ms\54.repeated_touch_with_knife_short_short_600ms.mp4	54.repeated_touch_with_knife_short_short_600ms.mp4	95.50062329605316	96.10845615242032	0.6078328563671676	n/a	n/a	n/a	n/a
103.65478515625	0.2	212285	31	31	0	0	0	31	112	stimuli\Videos_short_600ms_horflip\3.single_push_with_finger_short_horflip_short_600ms.mp4	3.single_push_with_finger_short_horflip_short_600ms.mp4	96.30014043588744	96.90844453984757	0.6083041039601085	n/a	n/a	n/a	n/a
104.455078125	0.2	213924	32	31	0	0	0	32	326	stimuli\Videos_short_600ms_vertflip\60.single_push_with_tip_of_pencil_short_vertflip_short_600ms.mp4	60.single_push_with_tip_of_pencil_short_vertflip_short_600ms.mp4	97.1001056568184	97.70843204753328	0.6083263907148648	n/a	n/a	n/a	n/a
105.2548828125	0.2	215562	33	31	0	0	0	33	213	stimuli\Videos_short_600ms_horvertflip\4.repeated_tap_with_finger_slow_short_horvertflip_short_600ms.mp4	4.repeated_tap_with_finger_slow_short_horvertflip_short_600ms.mp4	97.90009844294764	98.508421314702	0.6083228717543534	n/a	n/a	n/a	n/a
106.05517578125	0.2	217201	34	31	0	0	0	34	295	stimuli\Videos_short_600ms_vertflip\32.single_(long)pinch_with_fingers_short_vertflip_short_600ms.mp4	32.single_(long)pinch_with_fingers_short_vertflip_short_600ms.mp4	98.70008360465908	99.30841028862233	0.6083266839632415	n/a	n/a	n/a	n/a
106.85498046875	0.2	218839	35	31	0	0	0	35	137	stimuli\Videos_short_600ms_horflip\52.touch_top_to_bottom_with_hammer_short_horflip_short_600ms.mp4	52.touch_top_to_bottom_with_hammer_short_horflip_short_600ms.mp4	99.50005322429206	100.1083945705941	0.6083413463020406	n/a	n/a	n/a	n/a
107.65478515625	0.2	220477	36	31	0	0	0	36	104	stimuli\Videos_short_600ms_horflip\22.single_touch_with_metal_chopstick_short_horflip_short_600ms.mp4	22.single_touch_with_metal_chopstick_short_horflip_short_600ms.mp4	100.30007562834726	100.9084169746493	0.6083413463020406	n/a	n/a	n/a	n/a
108.455078125	0.2	222116	37	31	0	0	0	37	83	stimuli\Videos_short_600ms\85.touch_top_to_bottom_with_fabric_short_short_600ms.mp4	85.touch_top_to_bottom_with_fabric_short_short_600ms.mp4	101.10034934490068	101.70836899947426	0.6080196545735816	n/a	n/a	n/a	n/a
109.2548828125	0.2	223754	38	31	0	0	1	38	360	stimuli\Targets_short_600ms\brush-stroke_short_short_600ms.mp4	brush-stroke_short_short_600ms.mp4	101.90009844294764	102.50835855988772	0.6082601169400732	n/a	n/a	n/a	n/a
110.0546875	0.2	225392	39	31	0	0	0	39	159	stimuli\Videos_short_600ms_horflip\72.(short)stroke_with_finger_all_over_the_hand_short_horflip_short_600ms.mp4	72.(short)stroke_with_finger_all_over_the_hand_short_horflip_short_600ms.mp4	102.70097302217437	103.30834313510786	0.607370112933495	n/a	n/a	n/a	n/a
110.85498046875	0.2	227031	40	31	0	0	1	40	382	stimuli\Targets_short_600ms_vertflip\hand-pinch_short_horvertflip_short_600ms.mp4	hand-pinch_short_horvertflip_short_600ms.mp4	103.50054089370497	104.1083268305847	0.6077859368797363	n/a	n/a	n/a	n/a
111.65478515625	0.2	228669	41	31	0	0	0	41	319	stimuli\Videos_short_600ms_vertflip\54.repeated_touch_with_knife_short_vertflip_short_600ms.mp4	54.repeated_touch_with_knife_short_vertflip_short_600ms.mp4	104.30007944055616	104.90829879619196	0.6082193556358106	n/a	n/a	n/a	n/a
112.45458984375	0.2	230307	42	31	0	0	0	42	346	stimuli\Videos_short_600ms_vertflip\79.long_with_soft_brush_all_over_the_hand_short_vertflip_short_600ms.mp4	79.long_with_soft_brush_all_over_the_hand_short_vertflip_short_600ms.mp4	105.1000733996716	105.70830565816686	0.6082322584952635	n/a	n/a	n/a	n/a
113.2548828125	0.2	231946	43	31	0	0	1	43	380	stimuli\Targets_short_600ms_vertflip\chopstickwood-tap_short_horvertflip_short_600ms.mp4	chopstickwood-tap_short_horvertflip_short_600ms.mp4	105.89995709799403	106.50830548221892	0.6083483842248825	n/a	n/a	n/a	n/a
114.0546875	0.2	233584	44	31	0	0	0	44	199	stimuli\Videos_short_600ms_horvertflip\27.single_push_with_a_plastic_whisk_short_horvertflip_short_600ms.mp4	27.single_push_with_a_plastic_whisk_short_horvertflip_short_600ms.mp4	106.69995956126697	107.30828067354014	0.6083211122731882	n/a	n/a	n/a	n/a
114.8544921875	0.2	235222	45	31	0	0	0	45	102	stimuli\Videos_short_600ms_horflip\20.single_touch_with_screwdriver_short_horflip_short_600ms.mp4	20.single_touch_with_screwdriver_short_horflip_short_600ms.mp4	107.49992888765335	108.10828108408532	0.6083521964319516	n/a	n/a	n/a	n/a
115.65478515625	0.2	236861	46	31	0	0	1	46	383	stimuli\Targets_short_600ms_vertflip\hand-stroke_short_horvertflip_short_600ms.mp4	hand-stroke_short_horvertflip_short_600ms.mp4	108.29998589482966	108.90826536605891	0.6082794712292525	n/a	n/a	n/a	n/a
116.45458984375	0.2	238499	47	31	0	0	0	47	315	stimuli\Videos_short_600ms_vertflip\50.single_(long)hard_push_with_thumb_short_vertflip_short_600ms.mp4	50.single_(long)hard_push_with_thumb_short_vertflip_short_600ms.mp4	109.10004818044764	109.70825873868124	0.6082105582336226	n/a	n/a	n/a	n/a
117.25439453125	0.2	240137	48	31	0	0	0	48	157	stimuli\Videos_short_600ms_horflip\70.(long)stroke_with_finger_all_over_the_hand_short_horflip_short_600ms.mp4	70.(long)stroke_with_finger_all_over_the_hand_short_horflip_short_600ms.mp4	109.8999339314978	110.50823715571642	0.6083032242186164	n/a	n/a	n/a	n/a
118.0546875	0.2	241776	49	31	0	0	1	49	370	stimuli\Targets_short_600ms_horflip\hand-pinch_short_horflip_short_600ms.mp4	hand-pinch_short_horflip_short_600ms.mp4	110.69989768619416	111.30822495665052	0.6083272704563569	n/a	n/a	n/a	n/a
118.8544921875	0.2	243414	50	31	0	0	0	50	64	stimuli\Videos_short_600ms\68.stroke_top_to_bottom_with_shawl_short_short_600ms.mp4	68.stroke_top_to_bottom_with_shawl_short_short_600ms.mp4	111.49995117440994	112.1082136373243	0.6082624629143538	n/a	n/a	n/a	n/a
119.654296875	0.2	245052	51	31	0	0	0	51	217	stimuli\Videos_short_600ms_horvertflip\43.touch_top_to_bottom_with_sharp_wooden_stick_short_horvertflip_short_600ms.mp4	43.touch_top_to_bottom_with_sharp_wooden_stick_short_horvertflip_short_600ms.mp4	112.29987416780205	112.90820231799808	0.60832815019603	n/a	n/a	n/a	n/a
120.45458984375	0.2	246691	52	31	0	0	0	52	100	stimuli\Videos_short_600ms_horflip\19.single_touch_with_rolling_pin_short_horflip_short_600ms.mp4	19.single_touch_with_rolling_pin_short_horflip_short_600ms.mp4	113.09987809730956	113.7081907054253	0.6083126081157388	n/a	n/a	n/a	n/a
121.25439453125	0.2	248329	53	31	0	0	1	53	361	stimuli\Targets_short_600ms\chopstick-silver-tap_short_short_600ms.mp4	chopstick-silver-tap_short_short_600ms.mp4	113.89984449122676	114.50817528064364	0.6083307894168684	n/a	n/a	n/a	n/a
122.05419921875	0.2	249967	54	31	0	0	0	54	15	stimuli\Videos_short_600ms\23.single_push_with_a_spoon_short_short_600ms.mp4	23.single_push_with_a_spoon_short_short_600ms.mp4	114.6998407963165	115.30816249508462	0.6083216987681226	n/a	n/a	n/a	n/a
122.8544921875	0.2	251606	55	31	0	0	0	55	288	stimuli\Videos_short_600ms_vertflip\26.single_touch_with_a_blunt_syringe_short_vertflip_short_600ms.mp4	26.single_touch_with_a_blunt_syringe_short_vertflip_short_600ms.mp4	115.49996407726758	116.10815352173267	0.608189444465097	n/a	n/a	n/a	n/a
123.654296875	0.2	253244	56	31	0	0	0	56	25	stimuli\Videos_short_600ms\32.single_(long)pinch_with_fingers_short_short_600ms.mp4	32.single_(long)pinch_with_fingers_short_short_600ms.mp4	116.29979557766274	116.9081161034428	0.6083205257800728	n/a	n/a	n/a	n/a
124.4541015625	0.2	254882	57	31	0	0	0	57	68	stimuli\Videos_short_600ms\71.single_stroke_with_finger_top_to_bottom_short_short_600ms.mp4	71.single_stroke_with_finger_top_to_bottom_short_short_600ms.mp4	117.09978161911567	117.70813088308024	0.6083492639645556	n/a	n/a	n/a	n/a
125.25439453125	0.2	256521	58	31	0	0	0	58	17	stimuli\Videos_short_600ms\25.single_touch_with_stanley_knife_short_short_600ms.mp4	25.single_touch_with_stanley_knife_short_short_600ms.mp4	117.89979434602536	118.50811252583117	0.6083181798057922	n/a	n/a	n/a	n/a
126.05419921875	0.2	258159	59	31	0	0	0	59	262	stimuli\Videos_short_600ms_horvertflip\84.single_touch_with_cotton_bud_short_horvertflip_short_600ms.mp4	84.single_touch_with_cotton_bud_short_horvertflip_short_600ms.mp4	118.69990384437732	119.3080824387107	0.6081785943333671	n/a	n/a	n/a	n/a
126.8544921875	0.2	259798	60	31	0	0	0	60	24	stimuli\Videos_short_600ms\31.hand_grabbing_wrist_short_short_600ms.mp4	31.hand_grabbing_wrist_short_short_600ms.mp4	119.49977551958182	120.10807082613792	0.6082953065561014	n/a	n/a	n/a	n/a
127.654296875	0.2	261436	61	31	0	0	0	61	145	stimuli\Videos_short_600ms_horflip\6.single_touch_with_flat_hand_short_horflip_short_600ms.mp4	6.single_touch_with_flat_hand_short_horflip_short_600ms.mp4	120.29986009195636	120.90806713122764	0.6082070392712922	n/a	n/a	n/a	n/a
128.4541015625	0.2	263074	62	31	0	0	0	62	44	stimuli\Videos_short_600ms\5.repeated_tap_with_finger_moving_from_top_to_bottom_short_short_600ms.mp4	5.repeated_tap_with_finger_moving_from_top_to_bottom_short_short_600ms.mp4	121.099826192627	121.70804085631607	0.6082146636890684	n/a	n/a	n/a	n/a
129.25439453125	0.2	264713	63	31	0	0	0	63	206	stimuli\Videos_short_600ms_horvertflip\33.scratch_top_to_bottom_with_scissors_short_horvertflip_short_600ms.mp4	33.scratch_top_to_bottom_with_scissors_short_horvertflip_short_600ms.mp4	121.89970490575432	122.50804771829098	0.6083428125366481	n/a	n/a	n/a	n/a
130.05419921875	0.2	266351	64	31	0	0	0	64	254	stimuli\Videos_short_600ms_horvertflip\77.tapping_with_all_fingers_short_horvertflip_short_600ms.mp4	77.tapping_with_all_fingers_short_horvertflip_short_600ms.mp4	122.69971851240552	123.30805106130356	0.6083325488980336	n/a	n/a	n/a	n/a
130.85400390625	0.2	267989	65	31	0	0	0	65	247	stimuli\Videos_short_600ms_horvertflip\70.(long)stroke_with_finger_all_over_the_hand_short_horvertflip_short_600ms.mp4	70.(long)stroke_with_finger_all_over_the_hand_short_horvertflip_short_600ms.mp4	123.49970250113074	124.10804062171884	0.6083381205880869	n/a	n/a	n/a	n/a
131.654296875	0.2	269628	66	31	0	0	0	66	230	stimuli\Videos_short_600ms_horvertflip\55.touch_top_to_bottom_with_nail_file_short_horvertflip_short_600ms.mp4	55.touch_top_to_bottom_with_nail_file_short_horvertflip_short_600ms.mp4	124.29969030206485	124.90802167797484	0.6083313759099838	n/a	n/a	n/a	n/a
132.4541015625	0.2	271266	67	31	0	0	0	67	91	stimuli\Videos_short_600ms_horflip\10.single_touch_with_knife_short_horflip_short_600ms.mp4	10.single_touch_with_knife_short_horflip_short_600ms.mp4	125.09967751650402	125.70800918566238	0.6083316691583605	n/a	n/a	n/a	n/a
133.25390625	0.2	272904	68	31	0	0	0	68	134	stimuli\Videos_short_600ms_horflip\5.repeated_tap_with_finger_moving_from_top_to_bottom_short_horflip_short_600ms.mp4	5.repeated_tap_with_finger_moving_from_top_to_bottom_short_horflip_short_600ms.mp4	125.89966238497072	126.50800578399868	0.6083433990279445	n/a	n/a	n/a	n/a
134.05419921875	0.2	274543	69	31	0	0	0	69	108	stimuli\Videos_short_600ms_horflip\26.single_touch_with_a_blunt_syringe_short_horflip_short_600ms.mp4	26.single_touch_with_a_blunt_syringe_short_horflip_short_600ms.mp4	126.69968508227248	127.30797980233363	0.608294720061167	n/a	n/a	n/a	n/a
134.85400390625	0.2	276181	70	31	0	0	1	70	368	stimuli\Targets_short_600ms_horflip\chopstickwood-tap_short_horflip_short_600ms.mp4	chopstickwood-tap_short_horflip_short_600ms.mp4	127.49967464268592	128.10796994924203	0.6082953065561014	n/a	n/a	n/a	n/a
135.65380859375	0.2	277819	71	31	0	0	0	71	258	stimuli\Videos_short_600ms_horvertflip\80.stroke_with_sharp_stick_all_over_the_hand_short_horvertflip_short_600ms.mp4	80.stroke_with_sharp_stick_all_over_the_hand_short_horvertflip_short_600ms.mp4	128.29966390985282	128.9079688935526	0.6083049836997816	n/a	n/a	n/a	n/a
136.4541015625	0.2	279458	72	31	0	0	0	72	333	stimuli\Videos_short_600ms_vertflip\67.single_touch_with_sponge_short_vertflip_short_600ms.mp4	67.single_touch_with_sponge_short_vertflip_short_600ms.mp4	129.099614468445	129.70794672409647	0.6083322556514759	n/a	n/a	n/a	n/a
137.25390625	0.2	281096	73	31	0	0	0	73	320	stimuli\Videos_short_600ms_vertflip\55.touch_top_to_bottom_with_nail_file_short_vertflip_short_600ms.mp4	55.touch_top_to_bottom_with_nail_file_short_vertflip_short_600ms.mp4	129.89958614080388	130.50793452502876	0.6083483842248825	n/a	n/a	n/a	n/a
138.0537109375	0.2	282734	74	31	0	0	0	74	167	stimuli\Videos_short_600ms_horflip\8.single_touch_with_hairbrush_short_horflip_short_600ms.mp4	8.single_touch_with_hairbrush_short_horflip_short_600ms.mp4	130.69968801473988	131.3079214462232	0.6082334314833133	n/a	n/a	n/a	n/a
138.85400390625	0.2	284373	75	31	0	0	0	75	284	stimuli\Videos_short_600ms_vertflip\22.single_touch_with_metal_chopstick_short_vertflip_short_600ms.mp4	22.single_touch_with_metal_chopstick_short_vertflip_short_600ms.mp4	131.5001705230079	132.10790924715548	0.6077387241475662	n/a	n/a	n/a	n/a
139.65380859375	0.2	286011	76	31	0	0	0	76	123	stimuli\Videos_short_600ms_horflip\4.repeated_tap_with_finger_slow_short_horflip_short_600ms.mp4	4.repeated_tap_with_finger_slow_short_horflip_short_600ms.mp4	132.2995633262035	132.90786772341016	0.6083043972066662	n/a	n/a	n/a	n/a
140.45361328125	0.2	287649	77	31	0	0	0	77	309	stimuli\Videos_short_600ms_vertflip\45.scratching_with_finger_nails_short_vertflip_short_600ms.mp4	45.scratching_with_finger_nails_short_vertflip_short_600ms.mp4	133.09956608272478	133.70788308954252	0.6083170068177424	n/a	n/a	n/a	n/a
141.25390625	0.2	289288	78	31	0	0	0	78	336	stimuli\Videos_short_600ms_vertflip\7.repeated_touch_with_hairbrush_short_vertflip_short_600ms.mp4	7.repeated_touch_with_hairbrush_short_vertflip_short_600ms.mp4	133.8995530039174	134.50787528917863	0.608322285261238	n/a	n/a	n/a	n/a
142.0537109375	0.2	290926	79	31	0	0	0	79	240	stimuli\Videos_short_600ms_horvertflip\64.repeated_touch_with_screwdriver_short_horvertflip_short_600ms.mp4	64.repeated_touch_with_screwdriver_short_horvertflip_short_600ms.mp4	134.69958391212822	135.30785693192956	0.6082730198013451	n/a	n/a	n/a	n/a
142.853515625	0.2	292564	80	31	0	0	0	80	354	stimuli\Videos_short_600ms_vertflip\86.touch_top_to_bottom_with_hair_brush_short_vertflip_short_600ms.mp4	86.touch_top_to_bottom_with_hair_brush_short_vertflip_short_600ms.mp4	135.49968344008994	136.10783183000422	0.6081483899142768	n/a	n/a	n/a	n/a
143.65380859375	0.2	294203	81	31	0	0	0	81	347	stimuli\Videos_short_600ms_vertflip\8.single_touch_with_hairbrush_short_vertflip_short_600ms.mp4	8.single_touch_with_hairbrush_short_vertflip_short_600ms.mp4	136.29955042334586	136.90778268184113	0.6082322584952635	n/a	n/a	n/a	n/a
144.45361328125	0.2	295841	82	31	0	0	0	82	75	stimuli\Videos_short_600ms\78.single_stroke_top_to_bottom_with_soft_brush_short_short_600ms.mp4	78.single_stroke_top_to_bottom_with_soft_brush_short_short_600ms.mp4	137.09947136401024	137.70782444018369	0.6083530761734437	n/a	n/a	n/a	n/a
145.25390625	0.2	297480	83	31	0	0	0	83	348	stimuli\Videos_short_600ms_vertflip\80.stroke_with_sharp_stick_all_over_the_hand_short_vertflip_short_600ms.mp4	80.stroke_with_sharp_stick_all_over_the_hand_short_vertflip_short_600ms.mp4	137.8994911288446	138.5078195722872	0.6083284434425877	n/a	n/a	n/a	n/a
146.0537109375	0.2	299118	84	31	0	0	0	84	16	stimuli\Videos_short_600ms\24.single_stroke_top_to_bottom_with_a_spoon_short_short_600ms.mp4	24.single_stroke_top_to_bottom_with_a_spoon_short_short_600ms.mp4	138.69947511756982	139.30780385425896	0.6083287366891454	n/a	n/a	n/a	n/a
146.853515625	0.2	300756	85	31	0	0	0	85	40	stimuli\Videos_short_600ms\46.scratching_top_to_bottom_with_finger_nails_short_short_600ms.mp4	46.scratching_top_to_bottom_with_finger_nails_short_short_600ms.mp4	139.4994784605824	140.1077951741554	0.6083167135730037	n/a	n/a	n/a	n/a
147.65380859375	0.2	302395	86	31	0	0	0	86	85	stimuli\Videos_short_600ms\87.single_stroke_top_to_bottom_with_plastic_brush_short_short_600ms.mp4	87.single_stroke_top_to_bottom_with_plastic_brush_short_short_600ms.mp4	140.29953517451213	140.90780760781854	0.6082724333064107	n/a	n/a	n/a	n/a
148.45361328125	0.2	304033	87	31	0	0	0	87	31	stimuli\Videos_short_600ms\38.double_slap_with_pencil_short_short_600ms.mp4	38.double_slap_with_pencil_short_short_600ms.mp4	141.09951857674423	141.70777458823068	0.6082560114864464	n/a	n/a	n/a	n/a
149.25341796875	0.2	305671	88	31	0	0	1	88	371	stimuli\Targets_short_600ms_horflip\hand-stroke_short_horflip_short_600ms.mp4	hand-stroke_short_horflip_short_600ms.mp4	141.89942573480948	142.5077532985124	0.6083275637029146	n/a	n/a	n/a	n/a
150.0537109375	0.2	307310	89	31	0	0	0	89	248	stimuli\Videos_short_600ms_horvertflip\71.single_stroke_with_finger_top_to_bottom_short_horvertflip_short_600ms.mp4	71.single_stroke_with_finger_top_to_bottom_short_horvertflip_short_600ms.mp4	142.69941382899017	143.30772262489882	0.6083087959086697	n/a	n/a	n/a	n/a
150.853515625	0.2	308948	90	31	0	0	0	90	251	stimuli\Videos_short_600ms_horvertflip\74.fingers_walking_from_top_to_bottom_short_horvertflip_short_600ms.mp4	74.fingers_walking_from_top_to_bottom_short_horvertflip_short_600ms.mp4	143.4994019231708	144.10773065985995	0.6083287366891454	n/a	n/a	n/a	n/a
151.6533203125	0.2	310586	91	31	0	0	0	91	172	stimuli\Videos_short_600ms_horflip\84.single_touch_with_cotton_bud_short_horflip_short_600ms.mp4	84.single_touch_with_cotton_bud_short_horflip_short_600ms.mp4	144.29953224204473	144.90771875404062	0.608186511995882	n/a	n/a	n/a	n/a
152.45361328125	0.2	312225	92	31	0	0	0	92	261	stimuli\Videos_short_600ms_horvertflip\83.single_stroke_top_to_bottom_with_cotton_bud_short_horvertflip_short_600ms.mp4	83.single_stroke_top_to_bottom_with_cotton_bud_short_horvertflip_short_600ms.mp4	145.09943822712376	145.70770538198667	0.608267154862915	n/a	n/a	n/a	n/a
153.25341796875	0.2	313863	93	31	0	0	0	93	99	stimuli\Videos_short_600ms_horflip\18.single_stroke_from_top_to_bottom_with_rolling_pin_short_horflip_short_600ms.mp4	18.single_stroke_from_top_to_bottom_with_rolling_pin_short_horflip_short_600ms.mp4	145.89938468025866	146.5076914234396	0.6083067431809468	n/a	n/a	n/a	n/a
154.05322265625	0.2	315501	94	31	0	0	0	94	301	stimuli\Videos_short_600ms_vertflip\38.double_slap_with_pencil_short_vertflip_short_600ms.mp4	38.double_slap_with_pencil_short_vertflip_short_600ms.mp4	146.69934638222912	147.30767834463404	0.6083319624049182	n/a	n/a	n/a	n/a
154.853515625	0.2	317140	95	31	0	0	0	95	45	stimuli\Videos_short_600ms\50.single_(long)hard_push_with_thumb_short_short_600ms.mp4	50.single_(long)hard_push_with_thumb_short_short_600ms.mp4	147.49940602862625	148.1076676118009	0.6082615831746807	n/a	n/a	n/a	n/a
155.6533203125	0.2	318778	96	31	0	0	0	96	270	stimuli\Videos_short_600ms_vertflip\1.repeated_touch_with_finger_fast_short_vertflip_short_600ms.mp4	1.repeated_touch_with_finger_fast_short_vertflip_short_600ms.mp4	148.29933869916204	148.90766098442327	0.608322285261238	n/a	n/a	n/a	n/a
156.453125	0.2	320416	97	31	0	0	0	97	321	stimuli\Videos_short_600ms_vertflip\56.repeated_touch_with_nail_file_short_vertflip_short_600ms.mp4	56.repeated_touch_with_nail_file_short_vertflip_short_600ms.mp4	149.09933031230503	149.70765201107133	0.6083216987663036	n/a	n/a	n/a	n/a
157.25341796875	0.2	322055	98	31	0	0	0	98	242	stimuli\Videos_short_600ms_horvertflip\66.stroke_top_to_bottom_with_sponge_short_horvertflip_short_600ms.mp4	66.stroke_top_to_bottom_with_sponge_short_horvertflip_short_600ms.mp4	149.89931371453713	150.50762925512026	0.6083155405831349	9.0	9.0	2.7839911885203037	1.0
193.2021484375	0.2	395678	99	31	1	0	0	0	260	stimuli\Videos_short_600ms_horvertflip\82.repeated_touch_with_cotton_bud_short_horvertflip_short_600ms.mp4	82.repeated_touch_with_cotton_bud_short_horvertflip_short_600ms.mp4	185.8487702842467	186.45711808197848	0.6083477977317671	n/a	n/a	n/a	n/a
194.001953125	0.2	397316	100	31	1	0	0	1	57	stimuli\Videos_short_600ms\61.single_hit_with_rolling_pin_short_short_600ms.mp4	61.single_hit_with_rolling_pin_short_short_600ms.mp4	186.64875192699765	187.2570786109609	0.6083266839632415	n/a	n/a	n/a	n/a
194.80224609375	0.2	398955	101	31	1	0	1	2	366	stimuli\Targets_short_600ms_horflip\brush-stroke_short_horflip_short_600ms.mp4	brush-stroke_short_horflip_short_600ms.mp4	187.4487394346852	188.05706641189315	0.6083269772079802	n/a	n/a	n/a	n/a
195.60205078125	0.2	400593	102	31	1	0	0	3	299	stimuli\Videos_short_600ms_vertflip\36.single_slap_with_full_hand_short_vertflip_short_600ms.mp4	36.single_slap_with_full_hand_short_vertflip_short_600ms.mp4	188.2487257693847	188.8570553858135	0.6083296164288186	n/a	n/a	n/a	n/a
196.40185546875	0.2	402231	103	31	1	0	0	4	69	stimuli\Videos_short_600ms\72.(short)stroke_with_finger_all_over_the_hand_short_short_600ms.mp4	72.(short)stroke_with_finger_all_over_the_hand_short_short_600ms.mp4	189.04869245654845	189.65704201376136	0.6083495572129323	n/a	n/a	n/a	n/a
197.2021484375	0.2	403870	104	31	1	0	0	5	4	stimuli\Videos_short_600ms\13.single_touch_with_pen_short_short_600ms.mp4	13.single_touch_with_pen_short_short_600ms.mp4	189.8488092860698	190.45703069443516	0.6082214083653525	n/a	n/a	n/a	n/a
198.001953125	0.2	405508	105	31	1	0	0	6	329	stimuli\Videos_short_600ms_vertflip\63.stroke_top_to_bottom_with_screwdriver_short_vertflip_short_600ms.mp4	63.stroke_top_to_bottom_with_screwdriver_short_vertflip_short_600ms.mp4	190.6487135116677	191.25701614939317	0.608302637725501	n/a	n/a	n/a	n/a
198.8017578125	0.2	407146	106	31	1	0	0	7	281	stimuli\Videos_short_600ms_vertflip\2.single_touch_with_finger_short_vertflip_short_600ms.mp4	2.single_touch_with_finger_short_vertflip_short_600ms.mp4	191.44867052168956	192.05700541656188	0.6083348948723142	n/a	n/a	n/a	n/a
199.60205078125	0.2	408785	107	31	1	0	0	8	56	stimuli\Videos_short_600ms\60.single_push_with_tip_of_pencil_short_short_600ms.mp4	60.single_push_with_tip_of_pencil_short_short_600ms.mp4	192.2486580293753	192.85699497697533	0.6083369476000371	n/a	n/a	n/a	n/a
200.40185546875	0.2	410423	108	31	1	0	0	9	291	stimuli\Videos_short_600ms_vertflip\29.single_pinch_with_tweezers_short_vertflip_short_600ms.mp4	29.single_pinch_with_tweezers_short_vertflip_short_600ms.mp4	193.04871620953784	193.6569845373906	0.6082683278527838	n/a	n/a	n/a	n/a
201.20166015625	0.2	412061	109	31	1	0	1	10	363	stimuli\Targets_short_600ms\finger-tap_short_short_600ms.mp4	finger-tap_short_short_600ms.mp4	193.848623954098	194.4569694058555	0.6083454517574864	n/a	n/a	n/a	n/a
202.001953125	0.2	413700	110	31	1	0	0	11	133	stimuli\Videos_short_600ms_horflip\49.repeated_slap_with_hand_short_horflip_short_600ms.mp4	49.repeated_slap_with_hand_short_horflip_short_600ms.mp4	194.64863638776296	195.25695955276387	0.6083231650009111	n/a	n/a	n/a	n/a
202.8017578125	0.2	415338	111	31	1	0	0	12	237	stimuli\Videos_short_600ms_horvertflip\61.single_hit_with_rolling_pin_short_horvertflip_short_600ms.mp4	61.single_hit_with_rolling_pin_short_horvertflip_short_600ms.mp4	195.44865058090727	196.0569514591516	0.6083008782443358	n/a	n/a	n/a	n/a
203.6015625	0.2	416976	112	31	1	0	0	13	355	stimuli\Videos_short_600ms_vertflip\87.single_stroke_top_to_bottom_with_plastic_brush_short_vertflip_short_600ms.mp4	87.single_stroke_top_to_bottom_with_plastic_brush_short_vertflip_short_600ms.mp4	196.2487800200397	196.85690846917169	0.608128449131982	n/a	n/a	n/a	n/a
204.40185546875	0.2	418615	113	31	1	0	0	14	164	stimuli\Videos_short_600ms_horflip\77.tapping_with_all_fingers_short_horflip_short_600ms.mp4	77.tapping_with_all_fingers_short_horflip_short_600ms.mp4	197.04868014018393	197.65691621088808	0.6082360707041516	n/a	n/a	n/a	n/a
205.20166015625	0.2	420253	114	31	1	0	0	15	219	stimuli\Videos_short_600ms_horvertflip\45.scratching_with_finger_nails_short_horvertflip_short_600ms.mp4	45.scratching_with_finger_nails_short_horvertflip_short_600ms.mp4	197.84858524552143	198.4568831912984	0.6082979457769397	n/a	n/a	n/a	n/a
206.00146484375	0.2	421891	115	31	1	0	0	16	290	stimuli\Videos_short_600ms_vertflip\28.single_injection_with_sharp_needle_short_vertflip_short_600ms.mp4	28.single_injection_with_sharp_needle_short_vertflip_short_600ms.mp4	198.64856923424668	199.25687304496023	0.6083038107135508	n/a	n/a	n/a	n/a
206.8017578125	0.2	423530	116	31	1	0	0	17	179	stimuli\Videos_short_600ms_horflip\90.repeated_touch_with_sponge_short_horflip_short_600ms.mp4	90.repeated_touch_with_sponge_short_horflip_short_600ms.mp4	199.4485634866105	200.0568889975857	0.6083255109751917	n/a	n/a	n/a	n/a
207.6015625	0.2	425168	117	31	1	0	0	18	187	stimuli\Videos_short_600ms_horvertflip\16.repeated_touch_with_plastic_brush_short_horvertflip_short_600ms.mp4	16.repeated_touch_with_plastic_brush_short_horvertflip_short_600ms.mp4	200.24852137637023	200.85689204735172	0.6083706709814578	n/a	n/a	n/a	n/a
208.40185546875	0.2	426807	118	31	1	0	0	19	128	stimuli\Videos_short_600ms_horflip\44.pushing_top_to_bottom_with_finger_short_horflip_short_600ms.mp4	44.pushing_top_to_bottom_with_finger_short_horflip_short_600ms.mp4	201.04850917730437	201.6568713441284	0.6083621668240085	n/a	n/a	n/a	n/a
209.20166015625	0.2	428445	119	31	1	0	0	20	155	stimuli\Videos_short_600ms_horflip\69.stroke_with_soft_sock_short_horflip_short_600ms.mp4	69.stroke_with_soft_sock_short_horflip_short_600ms.mp4	201.84852571642296	202.45684829493075	0.6083225785077957	n/a	n/a	n/a	n/a
210.00146484375	0.2	430083	120	31	1	0	0	21	174	stimuli\Videos_short_600ms_horflip\86.touch_top_to_bottom_with_hair_brush_short_horflip_short_600ms.mp4	86.touch_top_to_bottom_with_hair_brush_short_horflip_short_600ms.mp4	202.64855633138905	203.25684196079965	0.6082856294106023	n/a	n/a	n/a	n/a
210.8017578125	0.2	431722	121	31	1	0	0	22	298	stimuli\Videos_short_600ms_vertflip\35.single_punch_with_hand_short_vertflip_short_600ms.mp4	35.single_punch_with_hand_short_vertflip_short_600ms.mp4	203.44877726352024	204.0568227238109	0.6080454602906684	n/a	n/a	n/a	n/a
211.6015625	0.2	433360	122	31	1	0	0	23	263	stimuli\Videos_short_600ms_horvertflip\85.touch_top_to_bottom_with_fabric_short_horvertflip_short_600ms.mp4	85.touch_top_to_bottom_with_fabric_short_horvertflip_short_600ms.mp4	204.24872547613631	204.8568134572124	0.6080879810760962	n/a	n/a	n/a	n/a
212.4013671875	0.2	434998	123	31	1	0	0	24	183	stimuli\Videos_short_600ms_horvertflip\12.repeated_touch_with_nail_file_short_horvertflip_short_600ms.mp4	12.repeated_touch_with_nail_file_short_horvertflip_short_600ms.mp4	205.04846870924848	205.65680184463963	0.608333135391149	n/a	n/a	n/a	n/a
213.20166015625	0.2	436637	124	31	1	0	0	25	350	stimuli\Videos_short_600ms_vertflip\82.repeated_touch_with_cotton_bud_short_vertflip_short_600ms.mp4	82.repeated_touch_with_cotton_bud_short_vertflip_short_600ms.mp4	205.8484620818708	206.45678847258569	0.6083263907148648	n/a	n/a	n/a	n/a
214.00146484375	0.2	438275	125	31	1	0	0	26	280	stimuli\Videos_short_600ms_vertflip\19.single_touch_with_rolling_pin_short_vertflip_short_600ms.mp4	19.single_touch_with_rolling_pin_short_vertflip_short_600ms.mp4	206.64848213994992	207.2567753937783	0.6082932538283785	n/a	n/a	n/a	n/a
214.80126953125	0.2	439913	126	31	1	0	0	27	186	stimuli\Videos_short_600ms_horvertflip\15.single_stroke_top_to_bottom_with_a_plastic_whisk_short_horvertflip_short_600ms.mp4	15.single_stroke_top_to_bottom_with_a_plastic_whisk_short_horvertflip_short_600ms.mp4	207.4484142239944	208.0567719921164	0.6083577681220049	n/a	n/a	n/a	n/a
215.6015625	0.2	441552	127	31	1	0	0	28	90	stimuli\Videos_short_600ms_horflip\1.repeated_touch_with_finger_fast_short_horflip_short_600ms.mp4	1.repeated_touch_with_finger_fast_short_horflip_short_600ms.mp4	208.2483756327165	208.8567521686327	0.6083765359162498	n/a	n/a	n/a	n/a
216.4013671875	0.2	443190	128	31	1	0	0	29	203	stimuli\Videos_short_600ms_horvertflip\30.finger_pulling_back_another_finger_short_horvertflip_short_600ms.mp4	30.finger_pulling_back_another_finger_short_horvertflip_short_600ms.mp4	209.04847340119704	209.65673967632029	0.6082662751232419	n/a	n/a	n/a	n/a
217.201171875	0.2	444828	129	31	1	0	0	30	74	stimuli\Videos_short_600ms\77.tapping_with_all_fingers_short_short_600ms.mp4	77.tapping_with_all_fingers_short_short_600ms.mp4	209.84845093849253	210.45672777050095	0.6082768320084142	n/a	n/a	n/a	n/a
218.00146484375	0.2	446467	130	31	1	0	0	31	196	stimuli\Videos_short_600ms_horvertflip\24.single_stroke_top_to_bottom_with_a_spoon_short_horvertflip_short_600ms.mp4	24.single_stroke_top_to_bottom_with_a_spoon_short_horvertflip_short_600ms.mp4	210.64838360902831	211.25672202286296	0.6083384138346446	n/a	n/a	n/a	n/a
218.80126953125	0.2	448105	131	31	1	0	0	32	184	stimuli\Videos_short_600ms_horvertflip\13.single_touch_with_pen_short_horvertflip_short_600ms.mp4	13.single_touch_with_pen_short_horvertflip_short_600ms.mp4	211.44847815179492	212.0567007331465	0.6082225813515834	n/a	n/a	n/a	n/a
219.60107421875	0.2	449743	132	31	1	0	0	33	318	stimuli\Videos_short_600ms_vertflip\53.touch_top_to_bottom_with_knife_short_vertflip_short_600ms.mp4	53.touch_top_to_bottom_with_knife_short_vertflip_short_600ms.mp4	212.24846331350636	212.85669234628767	0.6082290327813098	n/a	n/a	n/a	n/a
220.4013671875	0.2	451382	133	31	1	0	0	34	60	stimuli\Videos_short_600ms\64.repeated_touch_with_screwdriver_short_short_600ms.mp4	64.repeated_touch_with_screwdriver_short_short_600ms.mp4	213.04833205624345	213.65667604176633	0.6083439855228789	n/a	n/a	n/a	n/a
221.201171875	0.2	453020	134	31	1	0	0	35	5	stimuli\Videos_short_600ms\14.repeated_touch_with_pencil_short_short_600ms.mp4	14.repeated_touch_with_pencil_short_short_600ms.mp4	213.84835006159665	214.45664302217847	0.6082929605818208	n/a	n/a	n/a	n/a
222.0009765625	0.2	454658	135	31	1	0	1	36	373	stimuli\Targets_short_600ms_horvertflip\chopstick-silver-tap_short_vertflip_short_600ms.mp4	chopstick-silver-tap_short_vertflip_short_600ms.mp4	214.64838859422525	215.25665574908817	0.608267154862915	n/a	n/a	n/a	n/a
222.80126953125	0.2	456297	136	31	1	0	0	37	58	stimuli\Videos_short_600ms\62.touch_top_to_bottom_with_scissors_short_short_600ms.mp4	62.touch_top_to_bottom_with_scissors_short_short_600ms.mp4	215.44836407879305	216.05664560275	0.6082815239569754	n/a	n/a	n/a	n/a
223.60107421875	0.2	457935	137	31	1	0	0	38	51	stimuli\Videos_short_600ms\56.repeated_touch_with_nail_file_short_short_600ms.mp4	56.repeated_touch_with_nail_file_short_short_600ms.mp4	216.2483885355759	216.8566392686189	0.6082507330429507	n/a	n/a	n/a	n/a
224.40087890625	0.2	459573	138	31	1	0	0	39	259	stimuli\Videos_short_600ms_horvertflip\81.single_stroke_top_to_bottom_with_cotton_pad_short_horvertflip_short_600ms.mp4	81.single_stroke_top_to_bottom_with_cotton_pad_short_horvertflip_short_600ms.mp4	217.04831827364433	217.656618272149	0.6082999985046627	n/a	n/a	n/a	n/a
225.20947265625	0.2	461229	139	31	1	0	1	40	369	stimuli\Targets_short_600ms_horflip\finger-tap_short_horflip_short_600ms.mp4	finger-tap_short_horflip_short_600ms.mp4	217.85661551562953	218.46496360660603	0.6083480909765058	n/a	n/a	n/a	n/a
226.00927734375	0.2	462867	140	31	1	0	0	41	201	stimuli\Videos_short_600ms_horvertflip\29.single_pinch_with_tweezers_short_horvertflip_short_600ms.mp4	29.single_pinch_with_tweezers_short_horvertflip_short_600ms.mp4	218.6566153396816	219.264928827537	0.608313487855412	n/a	n/a	n/a	n/a
226.8095703125	0.2	464506	141	31	1	0	0	42	156	stimuli\Videos_short_600ms_horflip\7.repeated_touch_with_hairbrush_short_horflip_short_600ms.mp4	7.repeated_touch_with_hairbrush_short_horflip_short_600ms.mp4	219.45665064659445	220.06492073392656	0.6082700873321301	n/a	n/a	n/a	n/a
227.609375	0.2	466144	142	31	1	0	0	43	3	stimuli\Videos_short_600ms\12.repeated_touch_with_nail_file_short_short_600ms.mp4	12.repeated_touch_with_nail_file_short_short_600ms.mp4	220.25690588860016	220.8649126403143	0.6080067517141288	n/a	n/a	n/a	n/a
228.4091796875	0.2	467782	143	31	1	0	0	44	73	stimuli\Videos_short_600ms\76.tickle_with_fingers_from_top_to_bottom_short_short_600ms.mp4	76.tickle_with_fingers_from_top_to_bottom_short_short_600ms.mp4	221.05664530950344	221.6648980952741	0.6082527857706737	n/a	n/a	n/a	n/a
229.20947265625	0.2	469421	144	31	1	0	1	45	377	stimuli\Targets_short_600ms_horvertflip\hand-stroke_short_vertflip_short_600ms.mp4	hand-stroke_short_vertflip_short_600ms.mp4	221.85655334730836	222.46489264088268	0.6083392935743177	n/a	n/a	n/a	n/a
230.00927734375	0.2	471059	145	31	1	0	0	46	180	stimuli\Videos_short_600ms_horvertflip\1.repeated_touch_with_finger_fast_short_horvertflip_short_600ms.mp4	1.repeated_touch_with_finger_fast_short_horvertflip_short_600ms.mp4	222.65654114824247	223.26487281740083	0.6083316691583605	n/a	n/a	n/a	n/a
230.80908203125	0.2	472697	146	31	1	0	0	47	80	stimuli\Videos_short_600ms\82.repeated_touch_with_cotton_bud_short_short_600ms.mp4	82.repeated_touch_with_cotton_bud_short_short_600ms.mp4	223.45652924242313	224.06486003184	0.6083307894168684	n/a	n/a	n/a	n/a
231.609375	0.2	474336	147	31	1	0	0	48	106	stimuli\Videos_short_600ms_horflip\24.single_stroke_top_to_bottom_with_a_spoon_short_horflip_short_600ms.mp4	24.single_stroke_top_to_bottom_with_a_spoon_short_horflip_short_600ms.mp4	224.25651704335723	224.86484665978605	0.6083296164288186	n/a	n/a	n/a	n/a
232.4091796875	0.2	475974	148	31	1	0	0	49	120	stimuli\Videos_short_600ms_horflip\37.single_stab_with_nail_file_short_horflip_short_600ms.mp4	37.single_stab_with_nail_file_short_horflip_short_600ms.mp4	225.05648783597644	225.66483064851127	0.6083428125348291	n/a	n/a	n/a	n/a
233.208984375	0.2	477612	149	31	1	0	0	50	198	stimuli\Videos_short_600ms_horvertflip\26.single_touch_with_a_blunt_syringe_short_horvertflip_short_600ms.mp4	26.single_touch_with_a_blunt_syringe_short_horvertflip_short_600ms.mp4	225.8565773935461	226.46480818580855	0.608230792262475	n/a	n/a	n/a	n/a
234.00927734375	0.2	479251	150	31	1	0	0	51	82	stimuli\Videos_short_600ms\84.single_touch_with_cotton_bud_short_short_600ms.mp4	84.single_touch_with_cotton_bud_short_short_600ms.mp4	226.65647164875372	227.2647868960903	0.6083152473365772	n/a	n/a	n/a	n/a
234.80908203125	0.2	480889	151	31	1	0	0	52	205	stimuli\Videos_short_600ms_horvertflip\32.single_(long)pinch_with_fingers_short_horvertflip_short_600ms.mp4	32.single_(long)pinch_with_fingers_short_horvertflip_short_600ms.mp4	227.45645417124433	228.0647664861135	0.6083123148691811	n/a	n/a	n/a	n/a
235.60888671875	0.2	482527	152	31	1	0	0	53	182	stimuli\Videos_short_600ms_horvertflip\11.single_touch_with_lighter_short_horvertflip_short_600ms.mp4	11.single_touch_with_lighter_short_horvertflip_short_600ms.mp4	228.25654167608627	228.8647449031505	0.608203227064223	n/a	n/a	n/a	n/a
236.4091796875	0.2	484166	153	31	1	0	0	54	37	stimuli\Videos_short_600ms\43.touch_top_to_bottom_with_sharp_wooden_stick_short_short_600ms.mp4	43.touch_top_to_bottom_with_sharp_wooden_stick_short_short_600ms.mp4	229.05642449466905	229.66472947836883	0.6083049836997816	n/a	n/a	n/a	n/a
237.208984375	0.2	485804	154	31	1	0	0	55	173	stimuli\Videos_short_600ms_horflip\85.touch_top_to_bottom_with_fabric_short_horflip_short_600ms.mp4	85.touch_top_to_bottom_with_fabric_short_horflip_short_600ms.mp4	229.856410536122	230.46470525618497	0.608294720062986	n/a	n/a	n/a	n/a
238.0087890625	0.2	487442	155	31	1	0	0	56	93	stimuli\Videos_short_600ms_horflip\12.repeated_touch_with_nail_file_short_horflip_short_600ms.mp4	12.repeated_touch_with_nail_file_short_horflip_short_600ms.mp4	230.65643675238607	231.26468455296165	0.6082478005755547	n/a	n/a	n/a	n/a
238.80908203125	0.2	489081	156	31	1	0	1	57	365	stimuli\Targets_short_600ms\hand-stroke_short_short_600ms.mp4	hand-stroke_short_short_600ms.mp4	231.45646355514145	232.06467821883052	0.6082146636890684	n/a	n/a	n/a	n/a
239.60888671875	0.2	490719	157	31	1	0	0	58	126	stimuli\Videos_short_600ms_horflip\42.single_slap_with_plastic_whisk_short_horflip_short_600ms.mp4	42.single_slap_with_plastic_whisk_short_horflip_short_600ms.mp4	232.25646748464897	232.86467686989457	0.6082093852455728	n/a	n/a	n/a	n/a
240.40869140625	0.2	492357	158	31	1	0	0	59	146	stimuli\Videos_short_600ms_horflip\60.single_push_with_tip_of_pencil_short_horflip_short_600ms.mp4	60.single_push_with_tip_of_pencil_short_horflip_short_600ms.mp4	233.05636760479135	233.66465997888008	0.6082923740887054	n/a	n/a	n/a	n/a
241.208984375	0.2	493996	159	31	1	0	0	60	238	stimuli\Videos_short_600ms_horvertflip\62.touch_top_to_bottom_with_scissors_short_horvertflip_short_600ms.mp4	62.touch_top_to_bottom_with_scissors_short_horvertflip_short_600ms.mp4	233.85641024287543	234.4646483663073	0.6082381234318746	n/a	n/a	n/a	n/a
242.0087890625	0.2	495634	160	31	1	0	0	61	249	stimuli\Videos_short_600ms_horvertflip\72.(short)stroke_with_finger_all_over_the_hand_short_horvertflip_short_600ms.mp4	72.(short)stroke_with_finger_all_over_the_hand_short_horvertflip_short_600ms.mp4	234.65635581627063	235.26463411451368	0.6082782982430217	n/a	n/a	n/a	n/a
242.80908203125	0.2	497273	161	31	1	0	0	62	334	stimuli\Videos_short_600ms_vertflip\68.stroke_top_to_bottom_with_shawl_short_vertflip_short_600ms.mp4	68.stroke_top_to_bottom_with_shawl_short_vertflip_short_600ms.mp4	235.456349188893	236.0646239681737	0.6082747792806913	n/a	n/a	n/a	n/a
243.60888671875	0.2	498911	162	31	1	0	0	63	10	stimuli\Videos_short_600ms\19.single_touch_with_rolling_pin_short_short_600ms.mp4	19.single_touch_with_rolling_pin_short_short_600ms.mp4	236.2563399222945	236.8646199800187	0.6082800577241869	n/a	n/a	n/a	n/a
244.40869140625	0.2	500549	163	31	1	0	1	64	378	stimuli\Targets_short_600ms_vertflip\brush-stroke_short_horvertflip_short_600ms.mp4	brush-stroke_short_horvertflip_short_600ms.mp4	237.05632156504544	237.66459663757269	0.608275072527249	n/a	n/a	n/a	n/a
245.208984375	0.2	502188	164	31	1	0	0	65	243	stimuli\Videos_short_600ms_horvertflip\67.single_touch_with_sponge_short_horvertflip_short_600ms.mp4	67.single_touch_with_sponge_short_horvertflip_short_600ms.mp4	237.85631083221415	238.46458619798796	0.6082753657738067	n/a	n/a	n/a	n/a
246.0087890625	0.2	503826	165	31	1	0	0	66	341	stimuli\Videos_short_600ms_vertflip\74.fingers_walking_from_top_to_bottom_short_vertflip_short_600ms.mp4	74.fingers_walking_from_top_to_bottom_short_vertflip_short_600ms.mp4	238.65662501682527	239.2645745854152	0.6079495685899019	n/a	n/a	n/a	n/a
246.80859375	0.2	505464	166	31	1	0	0	67	59	stimuli\Videos_short_600ms\63.stroke_top_to_bottom_with_screwdriver_short_short_600ms.mp4	63.stroke_top_to_bottom_with_screwdriver_short_short_600ms.mp4	239.45633042109876	240.0645615066078	0.6082310855090327	n/a	n/a	n/a	n/a
247.60888671875	0.2	507103	167	31	1	0	0	68	352	stimuli\Videos_short_600ms_vertflip\84.single_touch_with_cotton_bud_short_vertflip_short_600ms.mp4	84.single_touch_with_cotton_bud_short_vertflip_short_600ms.mp4	240.25629886774368	240.8645490142953	0.6082501465516543	n/a	n/a	n/a	n/a
248.40869140625	0.2	508741	168	31	1	0	0	69	286	stimuli\Videos_short_600ms_vertflip\24.single_stroke_top_to_bottom_with_a_spoon_short_vertflip_short_600ms.mp4	24.single_stroke_top_to_bottom_with_a_spoon_short_vertflip_short_600ms.mp4	241.05625177231013	241.66453798821567	0.6082862159055367	n/a	n/a	n/a	n/a
249.20849609375	0.2	510379	169	31	1	0	0	70	276	stimuli\Videos_short_600ms_vertflip\15.single_stroke_top_to_bottom_with_a_plastic_whisk_short_vertflip_short_600ms.mp4	15.single_stroke_top_to_bottom_with_a_plastic_whisk_short_vertflip_short_600ms.mp4	241.85625100986908	242.46452578914796	0.6082747792788723	n/a	n/a	n/a	n/a
250.0087890625	0.2	512018	170	31	1	0	0	71	245	stimuli\Videos_short_600ms_horvertflip\69.stroke_with_soft_sock_short_horvertflip_short_600ms.mp4	69.stroke_with_soft_sock_short_horvertflip_short_600ms.mp4	242.656219456514	243.26451241709583	0.6082929605818208	n/a	n/a	n/a	n/a
250.80859375	0.2	513656	171	31	1	0	0	72	94	stimuli\Videos_short_600ms_horflip\13.single_touch_with_pen_short_horflip_short_600ms.mp4	13.single_touch_with_pen_short_horflip_short_600ms.mp4	243.4562066709532	244.06449992478156	0.6082932538283785	n/a	n/a	n/a	n/a
251.6083984375	0.2	515294	172	31	1	0	0	73	87	stimuli\Videos_short_600ms\89.single_touch_with_plastic_brush_short_short_600ms.mp4	89.single_touch_with_plastic_brush_short_short_600ms.mp4	244.25624491033523	244.864486845976	0.6082419356407627	n/a	n/a	n/a	n/a
252.40869140625	0.2	516933	173	31	1	0	0	74	132	stimuli\Videos_short_600ms_horflip\48.single_slap_with_hand_short_horflip_short_600ms.mp4	48.single_slap_with_hand_short_horflip_short_600ms.mp4	245.05620983801964	245.66447611314288	0.6082662751232419	n/a	n/a	n/a	n/a
253.20849609375	0.2	518571	174	31	1	0	0	75	97	stimuli\Videos_short_600ms_horflip\16.repeated_touch_with_plastic_brush_short_horflip_short_600ms.mp4	16.repeated_touch_with_plastic_brush_short_horflip_short_600ms.mp4	245.8562043836282	246.4644650870632	0.6082607034350076	n/a	n/a	n/a	n/a
254.00830078125	0.2	520209	175	31	1	0	0	76	160	stimuli\Videos_short_600ms_horflip\73.single_stroke_with_flat_hand_short_horflip_short_600ms.mp4	73.single_stroke_with_flat_hand_short_horflip_short_600ms.mp4	246.6562003954732	247.26446080565984	0.6082604101866309	n/a	n/a	n/a	n/a
254.80859375	0.2	521848	176	31	1	0	0	77	228	stimuli\Videos_short_600ms_horvertflip\53.touch_top_to_bottom_with_knife_short_horvertflip_short_600ms.mp4	53.touch_top_to_bottom_with_knife_short_horvertflip_short_600ms.mp4	247.45620373848575	248.06444244841077	0.60823870992499	n/a	n/a	n/a	n/a
255.6083984375	0.2	523486	177	31	1	0	0	78	232	stimuli\Videos_short_600ms_horvertflip\57.single_touch_with_nail_file_short_horvertflip_short_600ms.mp4	57.single_touch_with_nail_file_short_horvertflip_short_600ms.mp4	248.2561531240899	248.86444637791828	0.6082932538283785	n/a	n/a	n/a	n/a
256.408203125	0.2	525124	178	31	1	0	0	79	197	stimuli\Videos_short_600ms_horvertflip\25.single_touch_with_stanley_knife_short_horvertflip_short_600ms.mp4	25.single_touch_with_stanley_knife_short_horvertflip_short_600ms.mp4	249.05614121827057	249.6644274341761	0.6082862159055367	n/a	n/a	n/a	n/a
257.20849609375	0.2	526763	179	31	1	0	0	80	121	stimuli\Videos_short_600ms_horflip\38.double_slap_with_pencil_short_horflip_short_600ms.mp4	38.double_slap_with_pencil_short_horflip_short_600ms.mp4	249.85670671537991	250.46440379848352	0.6076970831036306	n/a	n/a	n/a	n/a
258.00830078125	0.2	528401	180	31	1	0	0	81	78	stimuli\Videos_short_600ms\80.stroke_with_sharp_stick_all_over_the_hand_short_short_600ms.mp4	80.stroke_with_sharp_stick_all_over_the_hand_short_short_600ms.mp4	250.65674495476196	251.2644001035751	0.6076551488131372	n/a	n/a	n/a	n/a
258.80810546875	0.2	530039	181	31	1	0	0	82	212	stimuli\Videos_short_600ms_horvertflip\39.single_stab_with_scissors_short_horvertflip_short_600ms.mp4	39.single_stab_with_scissors_short_horvertflip_short_600ms.mp4	251.4561893693935	252.06439318295088	0.6082038135573384	n/a	n/a	n/a	n/a
259.6083984375	0.2	531678	182	31	1	0	0	83	39	stimuli\Videos_short_600ms\45.scratching_with_finger_nails_short_short_600ms.mp4	45.scratching_with_finger_nails_short_short_600ms.mp4	252.25612321291737	252.8643745324553	0.6082513195378851	n/a	n/a	n/a	n/a
260.408203125	0.2	533316	183	31	1	0	1	84	375	stimuli\Targets_short_600ms_horvertflip\finger-tap_short_vertflip_short_600ms.mp4	finger-tap_short_vertflip_short_600ms.mp4	253.0560857946275	253.66437025105188	0.6082844564243715	n/a	n/a	n/a	n/a
261.2080078125	0.2	534954	184	31	1	0	0	85	165	stimuli\Videos_short_600ms_horflip\78.single_stroke_top_to_bottom_with_soft_brush_short_horflip_short_600ms.mp4	78.single_stroke_top_to_bottom_with_soft_brush_short_horflip_short_600ms.mp4	253.8560477898427	254.46434632211276	0.6082985322700551	n/a	n/a	n/a	n/a
262.00830078125	0.2	536593	185	31	1	0	0	86	161	stimuli\Videos_short_600ms_horflip\74.fingers_walking_from_top_to_bottom_short_horflip_short_600ms.mp4	74.fingers_walking_from_top_to_bottom_short_horflip_short_600ms.mp4	254.6560564112988	255.26435171785488	0.6082953065561014	n/a	n/a	n/a	n/a
262.80810546875	0.2	538231	186	31	1	0	0	87	211	stimuli\Videos_short_600ms_horvertflip\38.double_slap_with_pencil_short_horvertflip_short_600ms.mp4	38.double_slap_with_pencil_short_horvertflip_short_600ms.mp4	255.45604509197256	256.064367377232	0.608322285259419	n/a	n/a	n/a	n/a
263.6083984375	0.2	539870	187	31	1	0	0	88	235	stimuli\Videos_short_600ms_horvertflip\6.single_touch_with_flat_hand_short_horvertflip_short_600ms.mp4	6.single_touch_with_flat_hand_short_horvertflip_short_600ms.mp4	256.2560311334255	256.8643507794641	0.6083196460385807	n/a	n/a	n/a	n/a
264.408203125	0.2	541508	188	31	1	0	0	89	277	stimuli\Videos_short_600ms_vertflip\16.repeated_touch_with_plastic_brush_short_vertflip_short_600ms.mp4	16.repeated_touch_with_plastic_brush_short_vertflip_short_600ms.mp4	257.0561019232009	257.6643459115676	0.6082439883666666	n/a	n/a	n/a	n/a
265.2080078125	0.2	543146	189	31	1	0	0	90	140	stimuli\Videos_short_600ms_horflip\55.touch_top_to_bottom_with_nail_file_short_horflip_short_600ms.mp4	55.touch_top_to_bottom_with_nail_file_short_horflip_short_600ms.mp4	257.85608796465385	258.46433165977396	0.6082436951201089	n/a	n/a	n/a	n/a
266.00830078125	0.2	544785	190	31	1	0	0	91	171	stimuli\Videos_short_600ms_horflip\83.single_stroke_top_to_bottom_with_cotton_bud_short_horflip_short_600ms.mp4	83.single_stroke_top_to_bottom_with_cotton_bud_short_horflip_short_600ms.mp4	258.65598368609426	259.2643197539546	0.608336067860364	n/a	n/a	n/a	n/a
266.80810546875	0.2	546423	191	31	1	0	0	92	6	stimuli\Videos_short_600ms\15.single_stroke_top_to_bottom_with_a_plastic_whisk_short_short_600ms.mp4	15.single_stroke_top_to_bottom_with_a_plastic_whisk_short_short_600ms.mp4	259.455975592482	260.06430726164035	0.6083316691583605	n/a	n/a	n/a	n/a
267.60791015625	0.2	548061	192	31	1	0	0	93	122	stimuli\Videos_short_600ms_horflip\39.single_stab_with_scissors_short_horflip_short_600ms.mp4	39.single_stab_with_scissors_short_horflip_short_600ms.mp4	260.2559742435478	260.8642982882884	0.6083240447405842	n/a	n/a	n/a	n/a
268.408203125	0.2	549700	193	31	1	0	0	94	23	stimuli\Videos_short_600ms\30.finger_pulling_back_another_finger_short_short_600ms.mp4	30.finger_pulling_back_another_finger_short_short_600ms.mp4	261.05594327668587	261.6642860892225	0.6083428125366481	n/a	n/a	n/a	n/a
269.2080078125	0.2	551338	194	31	1	0	0	95	63	stimuli\Videos_short_600ms\67.single_touch_with_sponge_short_short_600ms.mp4	67.single_touch_with_sponge_short_short_600ms.mp4	261.8559413412586	262.4642782888586	0.6083369476000371	n/a	n/a	n/a	n/a
270.0078125	0.2	552976	195	31	1	0	0	96	239	stimuli\Videos_short_600ms_horvertflip\63.stroke_top_to_bottom_with_screwdriver_short_horvertflip_short_600ms.mp4	63.stroke_top_to_bottom_with_screwdriver_short_horvertflip_short_600ms.mp4	262.6559546546614	263.2642611045958	0.6083064499343891	n/a	n/a	n/a	n/a
270.80810546875	0.2	554615	196	31	1	0	0	97	274	stimuli\Videos_short_600ms_vertflip\13.single_touch_with_pen_short_vertflip_short_600ms.mp4	13.single_touch_with_pen_short_vertflip_short_600ms.mp4	263.4560351215805	264.06424773254184	0.6082126109613455	8.0	8.0	2.7227568599955703	1.0
305.806640625	0.2	626292	197	31	2	0	0	0	275	stimuli\Videos_short_600ms_vertflip\14.repeated_touch_with_pencil_short_vertflip_short_600ms.mp4	14.repeated_touch_with_pencil_short_vertflip_short_600ms.mp4	298.4553996557861	299.0637242870216	0.6083246312355186	n/a	n/a	n/a	n/a
306.60693359375	0.2	627931	198	31	2	0	0	1	111	stimuli\Videos_short_600ms_horflip\29.single_pinch_with_tweezers_short_horflip_short_600ms.mp4	29.single_pinch_with_tweezers_short_horflip_short_600ms.mp4	299.25539449464304	299.86370358379827	0.6083090891552274	n/a	n/a	n/a	n/a
307.40673828125	0.2	629569	199	31	2	0	0	2	332	stimuli\Videos_short_600ms_vertflip\66.stroke_top_to_bottom_with_sponge_short_vertflip_short_600ms.mp4	66.stroke_top_to_bottom_with_sponge_short_vertflip_short_600ms.mp4	300.05536675349686	300.66369079823744	0.6083240447405842	n/a	n/a	n/a	n/a
308.20654296875	0.2	631207	200	31	2	0	0	3	41	stimuli\Videos_short_600ms\47.(long)scratching_with_finger_nails_short_short_600ms.mp4	47.(long)scratching_with_finger_nails_short_short_600ms.mp4	300.8553522084567	301.46367713293694	0.6083249244802573	n/a	n/a	n/a	n/a
309.0068359375	0.2	632846	201	31	2	0	0	4	66	stimuli\Videos_short_600ms\7.repeated_touch_with_hairbrush_short_short_600ms.mp4	7.repeated_touch_with_hairbrush_short_short_600ms.mp4	301.65538663562984	302.26366258789676	0.6082759522669221	n/a	n/a	n/a	n/a
309.806640625	0.2	634484	202	31	2	0	0	5	335	stimuli\Videos_short_600ms_vertflip\69.stroke_with_soft_sock_short_vertflip_short_600ms.mp4	69.stroke_with_soft_sock_short_vertflip_short_600ms.mp4	302.4553336752597	303.0636521483102	0.6083184730505309	n/a	n/a	n/a	n/a
310.6064453125	0.2	636122	203	31	2	0	0	6	324	stimuli\Videos_short_600ms_vertflip\59.single_push_with_long_side_pencil_short_vertflip_short_600ms.mp4	59.single_push_with_long_side_pencil_short_vertflip_short_600ms.mp4	303.25539654737076	303.8636417087255	0.6082451613547164	n/a	n/a	n/a	n/a
311.40673828125	0.2	637761	204	31	2	0	0	7	218	stimuli\Videos_short_600ms_horvertflip\44.pushing_top_to_bottom_with_finger_short_horvertflip_short_600ms.mp4	44.pushing_top_to_bottom_with_finger_short_horvertflip_short_600ms.mp4	304.05536821973146	304.66362892316465	0.6082607034331886	n/a	n/a	n/a	n/a
312.20654296875	0.2	639399	205	31	2	0	0	8	26	stimuli\Videos_short_600ms\33.scratch_top_to_bottom_with_scissors_short_short_600ms.mp4	33.scratch_top_to_bottom_with_scissors_short_short_600ms.mp4	304.8553357866349	305.46361965656615	0.608283869931256	n/a	n/a	n/a	n/a
313.00634765625	0.2	641037	206	31	2	0	0	9	314	stimuli\Videos_short_600ms_vertflip\5.repeated_tap_with_finger_moving_from_top_to_bottom_short_vertflip_short_600ms.mp4	5.repeated_tap_with_finger_moving_from_top_to_bottom_short_vertflip_short_600ms.mp4	305.6555499740916	306.26360247230514	0.6080524982135103	n/a	n/a	n/a	n/a
313.806640625	0.2	642676	207	31	2	0	0	10	189	stimuli\Videos_short_600ms_horvertflip\18.single_stroke_from_top_to_bottom_with_rolling_pin_short_horvertflip_short_600ms.mp4	18.single_stroke_from_top_to_bottom_with_rolling_pin_short_horvertflip_short_600ms.mp4	306.4552489269372	307.0635911529789	0.6083422260417137	n/a	n/a	n/a	n/a
314.6064453125	0.2	644314	208	31	2	0	0	11	169	stimuli\Videos_short_600ms_horflip\81.single_stroke_top_to_bottom_with_cotton_pad_short_horflip_short_600ms.mp4	81.single_stroke_top_to_bottom_with_cotton_pad_short_horflip_short_600ms.mp4	307.2552490442358	307.863578953913	0.6083299096771952	n/a	n/a	n/a	n/a
315.40673828125	0.2	645953	209	31	2	0	0	12	114	stimuli\Videos_short_600ms_horflip\31.hand_grabbing_wrist_short_horflip_short_600ms.mp4	31.hand_grabbing_wrist_short_horflip_short_600ms.mp4	308.0552567859504	308.6635482802976	0.6082914943472133	n/a	n/a	n/a	n/a
316.20654296875	0.2	647591	210	31	2	0	1	13	372	stimuli\Targets_short_600ms_horvertflip\brush-stroke_short_vertflip_short_600ms.mp4	brush-stroke_short_vertflip_short_600ms.mp4	308.8552387219479	309.4635501570774	0.608311435129508	n/a	n/a	n/a	n/a
317.00634765625	0.2	649229	211	31	2	0	0	14	330	stimuli\Videos_short_600ms_vertflip\64.repeated_touch_with_screwdriver_short_vertflip_short_600ms.mp4	64.repeated_touch_with_screwdriver_short_vertflip_short_600ms.mp4	309.6552250566474	310.2635470486621	0.6083219920146803	n/a	n/a	n/a	n/a
317.806640625	0.2	650868	212	31	2	0	0	15	207	stimuli\Videos_short_600ms_horvertflip\34.repeated_punch_with_hand_short_horvertflip_short_600ms.mp4	34.repeated_punch_with_hand_short_horvertflip_short_600ms.mp4	310.4552562581066	311.0635184277744	0.6082621696677961	n/a	n/a	n/a	n/a
318.6064453125	0.2	652506	213	31	2	0	0	16	293	stimuli\Videos_short_600ms_vertflip\30.finger_pulling_back_another_finger_short_vertflip_short_600ms.mp4	30.finger_pulling_back_another_finger_short_vertflip_short_600ms.mp4	311.25519274085127	311.86349919078566	0.6083064499343891	n/a	n/a	n/a	n/a
319.40625	0.2	654144	214	31	2	0	0	17	107	stimuli\Videos_short_600ms_horflip\25.single_touch_with_stanley_knife_short_horflip_short_600ms.mp4	25.single_touch_with_stanley_knife_short_horflip_short_600ms.mp4	312.0552007758142	312.66353567068654	0.6083348948723142	n/a	n/a	n/a	n/a
320.20654296875	0.2	655783	215	31	2	0	1	18	374	stimuli\Targets_short_600ms_horvertflip\chopstickwood-tap_short_vertflip_short_600ms.mp4	chopstickwood-tap_short_vertflip_short_600ms.mp4	312.85518886999307	313.4634768453798	0.6082879753867019	n/a	n/a	n/a	n/a
321.00634765625	0.2	657421	216	31	2	0	0	19	272	stimuli\Videos_short_600ms_vertflip\11.single_touch_with_lighter_short_vertflip_short_600ms.mp4	11.single_touch_with_lighter_short_vertflip_short_600ms.mp4	313.6551567301449	314.2634916250172	0.6083348948723142	n/a	n/a	n/a	n/a
321.80615234375	0.2	659059	217	31	2	0	0	20	345	stimuli\Videos_short_600ms_vertflip\78.single_stroke_top_to_bottom_with_soft_brush_short_vertflip_short_600ms.mp4	78.single_stroke_top_to_bottom_with_soft_brush_short_vertflip_short_600ms.mp4	314.45514335809276	315.0634712150422	0.6083278569494723	n/a	n/a	n/a	n/a
322.6064453125	0.2	660698	218	31	2	0	0	21	151	stimuli\Videos_short_600ms_horflip\65.stroke_top_to_bottom_with_stanley_knife_short_horflip_short_600ms.mp4	65.stroke_top_to_bottom_with_stanley_knife_short_horflip_short_600ms.mp4	315.2551308657785	315.86346018896256	0.6083293231840798	n/a	n/a	n/a	n/a
323.40625	0.2	662336	219	31	2	0	0	22	0	stimuli\Videos_short_600ms\1.repeated_touch_with_finger_fast_short_short_600ms.mp4	1.repeated_touch_with_finger_fast_short_short_600ms.mp4	316.0551198396988	316.66344447093434	0.6083246312355186	n/a	n/a	n/a	n/a
324.2060546875	0.2	663974	220	31	2	0	0	23	307	stimuli\Videos_short_600ms_vertflip\43.touch_top_to_bottom_with_sharp_wooden_stick_short_vertflip_short_600ms.mp4	43.touch_top_to_bottom_with_sharp_wooden_stick_short_vertflip_short_600ms.mp4	316.8551885767465	317.46343197862006	0.6082434018735512	n/a	n/a	n/a	n/a
325.00634765625	0.2	665613	221	31	2	0	0	24	209	stimuli\Videos_short_600ms_horvertflip\36.single_slap_with_full_hand_short_horvertflip_short_600ms.mp4	36.single_slap_with_full_hand_short_horvertflip_short_600ms.mp4	317.65507608727785	318.2634209525422	0.608344865264371	n/a	n/a	n/a	n/a
325.80615234375	0.2	667251	222	31	2	0	0	25	308	stimuli\Videos_short_600ms_vertflip\44.pushing_top_to_bottom_with_finger_short_vertflip_short_600ms.mp4	44.pushing_top_to_bottom_with_finger_short_vertflip_short_600ms.mp4	318.45509555886565	319.06341285892995	0.6083173000643001	n/a	n/a	n/a	n/a
326.60595703125	0.2	668889	223	31	2	0	0	26	195	stimuli\Videos_short_600ms_horvertflip\23.single_push_with_a_spoon_short_horvertflip_short_600ms.mp4	23.single_push_with_a_spoon_short_horvertflip_short_600ms.mp4	319.2550842395394	319.86339332869466	0.6083090891552274	n/a	n/a	n/a	n/a
327.40625	0.2	670528	224	31	2	0	0	27	116	stimuli\Videos_short_600ms_horflip\33.scratch_top_to_bottom_with_scissors_short_horflip_short_600ms.mp4	33.scratch_top_to_bottom_with_scissors_short_horflip_short_600ms.mp4	320.0550435955338	320.6633828891081	0.6083392935743177	n/a	n/a	n/a	n/a
328.2060546875	0.2	672166	225	31	2	0	1	28	367	stimuli\Targets_short_600ms_horflip\chopstick-silver-tap_short_horflip_short_600ms.mp4	chopstick-silver-tap_short_horflip_short_600ms.mp4	320.855023185557	321.4633692238076	0.6083460382506019	n/a	n/a	n/a	n/a
329.005859375	0.2	673804	226	31	2	0	0	29	241	stimuli\Videos_short_600ms_horvertflip\65.stroke_top_to_bottom_with_stanley_knife_short_horvertflip_short_600ms.mp4	65.stroke_top_to_bottom_with_stanley_knife_short_horvertflip_short_600ms.mp4	321.6550177311674	322.2633570247417	0.6083392935743177	n/a	n/a	n/a	n/a
329.80615234375	0.2	675443	227	31	2	0	0	30	294	stimuli\Videos_short_600ms_vertflip\31.hand_grabbing_wrist_short_vertflip_short_600ms.mp4	31.hand_grabbing_wrist_short_vertflip_short_600ms.mp4	322.45505362457334	323.0633468784017	0.6082932538283785	n/a	n/a	n/a	n/a
330.60595703125	0.2	677081	228	31	2	0	0	31	310	stimuli\Videos_short_600ms_vertflip\46.scratching_top_to_bottom_with_finger_nails_short_vertflip_short_600ms.mp4	46.scratching_top_to_bottom_with_finger_nails_short_vertflip_short_600ms.mp4	323.25502236446664	323.8633291076476	0.6083067431809468	n/a	n/a	n/a	n/a
331.40576171875	0.2	678719	229	31	2	0	0	32	71	stimuli\Videos_short_600ms\74.fingers_walking_from_top_to_bottom_short_short_600ms.mp4	74.fingers_walking_from_top_to_bottom_short_short_600ms.mp4	324.0550016612433	324.6632993137737	0.608297652530382	n/a	n/a	n/a	n/a
332.2060546875	0.2	680358	230	31	2	0	0	33	62	stimuli\Videos_short_600ms\66.stroke_top_to_bottom_with_sponge_short_short_600ms.mp4	66.stroke_top_to_bottom_with_sponge_short_short_600ms.mp4	324.85499063516363	325.46328652821285	0.6082958930492168	n/a	n/a	n/a	n/a
333.005859375	0.2	681996	231	31	2	0	0	34	328	stimuli\Videos_short_600ms_vertflip\62.touch_top_to_bottom_with_scissors_short_vertflip_short_600ms.mp4	62.touch_top_to_bottom_with_scissors_short_vertflip_short_600ms.mp4	325.65496348051056	326.26327286291234	0.6083093824017851	n/a	n/a	n/a	n/a
333.8056640625	0.2	683634	232	31	2	0	0	35	223	stimuli\Videos_short_600ms_horvertflip\49.repeated_slap_with_hand_short_horvertflip_short_600ms.mp4	49.repeated_slap_with_hand_short_horvertflip_short_600ms.mp4	326.4549633045626	327.0632618368327	0.6082985322700551	n/a	n/a	n/a	n/a
334.60595703125	0.2	685273	233	31	2	0	0	36	86	stimuli\Videos_short_600ms\88.repeated_stroke_with_plastic_brush_short_short_600ms.mp4	88.repeated_stroke_with_plastic_brush_short_short_600ms.mp4	327.2549499325087	327.863289226083	0.6083392935743177	n/a	n/a	n/a	n/a
335.40576171875	0.2	686911	234	31	2	0	0	37	67	stimuli\Videos_short_600ms\70.(long)stroke_with_finger_all_over_the_hand_short_short_600ms.mp4	70.(long)stroke_with_finger_all_over_the_hand_short_short_600ms.mp4	328.05494007941707	328.6632438901288	0.6083038107117318	n/a	n/a	n/a	n/a
336.2060546875	0.2	688550	235	31	2	0	0	38	255	stimuli\Videos_short_600ms_horvertflip\78.single_stroke_top_to_bottom_with_soft_brush_short_horvertflip_short_600ms.mp4	78.single_stroke_top_to_bottom_with_soft_brush_short_horvertflip_short_600ms.mp4	328.85494635489886	329.46325866976804	0.6083123148691811	n/a	n/a	n/a	n/a
337.005859375	0.2	690188	236	31	2	0	0	39	110	stimuli\Videos_short_600ms_horflip\28.single_injection_with_sharp_needle_short_horflip_short_600ms.mp4	28.single_injection_with_sharp_needle_short_horflip_short_600ms.mp4	329.6549939781762	330.26323825979125	0.6082442816150433	n/a	n/a	n/a	n/a
337.8056640625	0.2	691826	237	31	2	0	0	40	48	stimuli\Videos_short_600ms\53.touch_top_to_bottom_with_knife_short_short_600ms.mp4	53.touch_top_to_bottom_with_knife_short_short_600ms.mp4	330.4549113998801	331.06319966851333	0.6082882686332596	n/a	n/a	n/a	n/a
338.60595703125	0.2	693465	238	31	2	0	0	41	215	stimuli\Videos_short_600ms_horvertflip\41.injection_with_blunt_syringe_short_horvertflip_short_600ms.mp4	41.injection_with_blunt_syringe_short_horvertflip_short_600ms.mp4	331.2548865912031	331.86321298191797	0.6083263907148648	n/a	n/a	n/a	n/a
339.40576171875	0.2	695103	239	31	2	0	0	42	127	stimuli\Videos_short_600ms_horflip\43.touch_top_to_bottom_with_sharp_wooden_stick_short_horflip_short_600ms.mp4	43.touch_top_to_bottom_with_sharp_wooden_stick_short_horflip_short_600ms.mp4	332.05485210538063	332.66319726388974	0.6083451585091098	n/a	n/a	n/a	n/a
340.20556640625	0.2	696741	240	31	2	0	0	43	27	stimuli\Videos_short_600ms\34.repeated_punch_with_hand_short_short_600ms.mp4	34.repeated_punch_with_hand_short_short_600ms.mp4	332.8548607268349	333.4631642443019	0.6083035174669931	n/a	n/a	n/a	n/a
341.005859375	0.2	698380	241	31	2	0	0	44	227	stimuli\Videos_short_600ms_horvertflip\52.touch_top_to_bottom_with_hammer_short_horvertflip_short_600ms.mp4	52.touch_top_to_bottom_with_hammer_short_horvertflip_short_600ms.mp4	333.6548931012803	334.26323884628437	0.6083457450040441	n/a	n/a	n/a	n/a
341.8056640625	0.2	700018	242	31	2	0	0	45	13	stimuli\Videos_short_600ms\21.repeated_touch_with_metal_chopstick_short_short_600ms.mp4	21.repeated_touch_with_metal_chopstick_short_short_600ms.mp4	334.45481462843964	335.06316125318335	0.6083466247437173	n/a	n/a	n/a	n/a
342.60546875	0.2	701656	243	31	2	0	0	46	135	stimuli\Videos_short_600ms_horflip\50.single_(long)hard_push_with_thumb_short_horflip_short_600ms.mp4	50.single_(long)hard_push_with_thumb_short_horflip_short_600ms.mp4	335.25495022575524	335.863149347364	0.6081991216087772	n/a	n/a	n/a	n/a
343.40576171875	0.2	703295	244	31	2	0	0	47	1	stimuli\Videos_short_600ms\10.single_touch_with_knife_short_short_600ms.mp4	10.single_touch_with_knife_short_short_600ms.mp4	336.0548154495318	336.6631136885553	0.6082982390234974	n/a	n/a	n/a	n/a
344.20556640625	0.2	704933	245	31	2	0	0	48	273	stimuli\Videos_short_600ms_vertflip\12.repeated_touch_with_nail_file_short_vertflip_short_600ms.mp4	12.repeated_touch_with_nail_file_short_vertflip_short_600ms.mp4	336.85480354371066	337.4631228965045	0.608319352793842	n/a	n/a	n/a	n/a
345.00537109375	0.2	706571	246	31	2	0	0	49	33	stimuli\Videos_short_600ms\4.repeated_tap_with_finger_slow_short_short_600ms.mp4	4.repeated_tap_with_finger_slow_short_short_600ms.mp4	337.6548065934785	338.26309046340975	0.608283869931256	n/a	n/a	n/a	n/a
345.8056640625	0.2	708210	247	31	2	0	0	50	282	stimuli\Videos_short_600ms_vertflip\20.single_touch_with_screwdriver_short_vertflip_short_600ms.mp4	20.single_touch_with_screwdriver_short_vertflip_short_600ms.mp4	338.4548046580494	339.0630835427837	0.6082788847343181	n/a	n/a	n/a	n/a
346.60546875	0.2	709848	248	31	2	0	1	51	364	stimuli\Targets_short_600ms\hand-pinch_short_short_600ms.mp4	hand-pinch_short_short_600ms.mp4	339.2547651870318	339.8630713437178	0.6083061566860124	n/a	n/a	n/a	n/a
347.4052734375	0.2	711486	249	31	2	0	0	52	292	stimuli\Videos_short_600ms_vertflip\3.single_push_with_finger_short_vertflip_short_600ms.mp4	3.single_push_with_finger_short_vertflip_short_600ms.mp4	340.05475914614726	340.6630518134825	0.6082926673352631	n/a	n/a	n/a	n/a
348.20556640625	0.2	713125	250	31	2	0	0	53	353	stimuli\Videos_short_600ms_vertflip\85.touch_top_to_bottom_with_fabric_short_vertflip_short_600ms.mp4	85.touch_top_to_bottom_with_fabric_short_vertflip_short_600ms.mp4	340.8547399091585	341.4630595551971	0.6083196460385807	n/a	n/a	n/a	n/a
349.00537109375	0.2	714763	251	31	2	0	0	54	267	stimuli\Videos_short_600ms_horvertflip\89.single_touch_with_plastic_brush_short_horvertflip_short_600ms.mp4	89.single_touch_with_plastic_brush_short_horvertflip_short_600ms.mp4	341.6547256573631	342.26302565586775	0.6082999985046627	n/a	n/a	n/a	n/a
349.80517578125	0.2	716401	252	31	2	0	0	55	359	stimuli\Videos_short_600ms_vertflip\90.repeated_touch_with_sponge_short_vertflip_short_600ms.mp4	90.repeated_touch_with_sponge_short_vertflip_short_600ms.mp4	342.4547744536303	343.06301697576237	0.6082425221320591	n/a	n/a	n/a	n/a
350.60546875	0.2	718040	253	31	2	0	0	56	95	stimuli\Videos_short_600ms_horflip\14.repeated_touch_with_pencil_short_horflip_short_600ms.mp4	14.repeated_touch_with_pencil_short_horflip_short_600ms.mp4	343.2547857143072	343.8630546286513	0.6082689143440803	n/a	n/a	n/a	n/a
351.4052734375	0.2	719678	254	31	2	0	1	57	381	stimuli\Targets_short_600ms_vertflip\finger-tap_short_horvertflip_short_600ms.mp4	finger-tap_short_horvertflip_short_600ms.mp4	344.0547368593907	344.66299433711174	0.6082574777210539	n/a	n/a	n/a	n/a
352.205078125	0.2	721316	255	31	2	0	0	58	338	stimuli\Videos_short_600ms_vertflip\71.single_stroke_with_finger_top_to_bottom_short_vertflip_short_600ms.mp4	71.single_stroke_with_finger_top_to_bottom_short_vertflip_short_600ms.mp4	344.8552381354548	345.463036975194	0.6077988397391891	n/a	n/a	n/a	n/a
353.00537109375	0.2	722955	256	31	2	0	0	59	147	stimuli\Videos_short_600ms_horflip\61.single_hit_with_rolling_pin_short_horflip_short_600ms.mp4	61.single_hit_with_rolling_pin_short_horflip_short_600ms.mp4	345.6546802041121	346.2629975041764	0.6083173000643001	n/a	n/a	n/a	n/a
353.80517578125	0.2	724593	257	31	2	0	0	60	96	stimuli\Videos_short_600ms_horflip\15.single_stroke_top_to_bottom_with_a_plastic_whisk_short_horflip_short_600ms.mp4	15.single_stroke_top_to_bottom_with_a_plastic_whisk_short_horflip_short_600ms.mp4	346.4546524629641	347.06295539393795	0.6083029309738777	n/a	n/a	n/a	n/a
354.60498046875	0.2	726231	258	31	2	0	1	61	362	stimuli\Targets_short_600ms\chopstickwood-tap_short_short_600ms.mp4	chopstickwood-tap_short_short_600ms.mp4	347.2546402638982	347.8629648951337	0.6083246312355186	n/a	n/a	n/a	n/a
355.4052734375	0.2	727870	259	31	2	0	0	62	268	stimuli\Videos_short_600ms_horvertflip\9.single_touch_with_hammer_short_horvertflip_short_600ms.mp4	9.single_touch_with_hammer_short_horvertflip_short_600ms.mp4	348.0546286513254	348.6629277700904	0.6082991187649895	n/a	n/a	n/a	n/a
356.205078125	0.2	729508	260	31	2	0	0	63	166	stimuli\Videos_short_600ms_horflip\79.long_with_soft_brush_all_over_the_hand_short_horflip_short_600ms.mp4	79.long_with_soft_brush_all_over_the_hand_short_horflip_short_600ms.mp4	348.85462407667546	349.46291733050384	0.6082932538283785	n/a	n/a	n/a	n/a
357.00537109375	0.2	731147	261	31	2	0	1	64	376	stimuli\Targets_short_600ms_horvertflip\hand-pinch_short_vertflip_short_600ms.mp4	hand-pinch_short_vertflip_short_600ms.mp4	349.6545857786441	350.262925365465	0.6083395868208754	n/a	n/a	n/a	n/a
357.80517578125	0.2	732785	262	31	2	0	0	65	185	stimuli\Videos_short_600ms_horvertflip\14.repeated_touch_with_pencil_short_horvertflip_short_600ms.mp4	14.repeated_touch_with_pencil_short_horvertflip_short_600ms.mp4	350.4545765120456	351.06291433938713	0.6083378273415292	n/a	n/a	n/a	n/a
358.60498046875	0.2	734423	263	31	2	0	1	66	378	stimuli\Targets_short_600ms_vertflip\brush-stroke_short_horvertflip_short_600ms.mp4	brush-stroke_short_horvertflip_short_600ms.mp4	351.2545569818103	351.8629575639643	0.6084005821539904	n/a	n/a	n/a	n/a
359.4052734375	0.2	736062	264	31	2	0	0	67	322	stimuli\Videos_short_600ms_vertflip\57.single_touch_with_nail_file_short_vertflip_short_600ms.mp4	57.single_touch_with_nail_file_short_vertflip_short_600ms.mp4	352.0546104700243	352.662868827485	0.608258357460727	n/a	n/a	n/a	n/a
360.205078125	0.2	737700	265	31	2	0	0	68	55	stimuli\Videos_short_600ms\6.single_touch_with_flat_hand_short_short_600ms.mp4	6.single_touch_with_flat_hand_short_short_600ms.mp4	352.85453610263903	353.46287539621335	0.6083392935743177	n/a	n/a	n/a	n/a
361.0048828125	0.2	739338	266	31	2	0	0	69	20	stimuli\Videos_short_600ms\28.single_injection_with_sharp_needle_short_short_600ms.mp4	28.single_injection_with_sharp_needle_short_short_600ms.mp4	353.654546776821	354.2628643701337	0.6083175933126768	n/a	n/a	n/a	n/a
361.80517578125	0.2	740977	267	31	2	0	0	70	129	stimuli\Videos_short_600ms_horflip\45.scratching_with_finger_nails_short_horflip_short_600ms.mp4	45.scratching_with_finger_nails_short_horflip_short_600ms.mp4	354.45451962216794	355.06286566041854	0.6083460382506019	n/a	n/a	n/a	n/a
362.60498046875	0.2	742615	268	31	2	0	0	71	204	stimuli\Videos_short_600ms_horvertflip\31.hand_grabbing_wrist_short_horvertflip_short_600ms.mp4	31.hand_grabbing_wrist_short_horvertflip_short_600ms.mp4	355.25456695220055	355.86282618940095	0.6082592372004001	n/a	n/a	n/a	n/a
363.40478515625	0.2	744253	269	31	2	0	0	72	202	stimuli\Videos_short_600ms_horvertflip\3.single_push_with_finger_short_horvertflip_short_600ms.mp4	3.single_push_with_finger_short_horvertflip_short_600ms.mp4	356.05448496039753	356.66280519293105	0.6083202325335151	n/a	n/a	n/a	n/a
364.205078125	0.2	745892	270	31	2	0	0	73	316	stimuli\Videos_short_600ms_vertflip\51.repeated_touch_with_hammer_short_vertflip_short_600ms.mp4	51.repeated_touch_with_hammer_short_vertflip_short_600ms.mp4	356.85455662991444	357.4627938736048	0.6082372436903825	n/a	n/a	n/a	n/a
365.0048828125	0.2	747530	271	31	2	0	1	74	370	stimuli\Targets_short_600ms_horflip\hand-pinch_short_horflip_short_600ms.mp4	hand-pinch_short_horflip_short_600ms.mp4	357.65447815707194	358.26287580675853	0.6083976496865944	n/a	n/a	n/a	n/a
365.8046875	0.2	749168	272	31	2	0	0	75	53	stimuli\Videos_short_600ms\58.single_slap_with_pencil_short_short_600ms.mp4	58.single_slap_with_pencil_short_short_600ms.mp4	358.45446889047344	359.06282225989526	0.6083533694218204	n/a	n/a	n/a	n/a
366.60498046875	0.2	750807	273	31	2	0	0	76	257	stimuli\Videos_short_600ms_horvertflip\8.single_touch_with_hairbrush_short_horvertflip_short_600ms.mp4	8.single_touch_with_hairbrush_short_horvertflip_short_600ms.mp4	359.2544575711472	359.8627690062767	0.608311435129508	n/a	n/a	n/a	n/a
367.40478515625	0.2	752445	274	31	2	0	0	77	9	stimuli\Videos_short_600ms\18.single_stroke_from_top_to_bottom_with_rolling_pin_short_short_600ms.mp4	18.single_stroke_from_top_to_bottom_with_rolling_pin_short_short_600ms.mp4	360.0544418531208	360.6627436111048	0.6083017579840089	n/a	n/a	n/a	n/a
368.20458984375	0.2	754083	275	31	2	0	0	78	119	stimuli\Videos_short_600ms_horflip\36.single_slap_with_full_hand_short_horflip_short_600ms.mp4	36.single_slap_with_full_hand_short_horflip_short_600ms.mp4	360.8544243756114	361.4627622029511	0.6083378273397102	n/a	n/a	n/a	n/a
369.0048828125	0.2	755722	276	31	2	0	0	79	163	stimuli\Videos_short_600ms_horflip\76.tickle_with_fingers_from_top_to_bottom_short_horflip_short_600ms.mp4	76.tickle_with_fingers_from_top_to_bottom_short_horflip_short_600ms.mp4	361.65446789343514	362.26271979946614	0.6082519060310005	n/a	n/a	n/a	n/a
369.8046875	0.2	757360	277	31	2	0	0	80	357	stimuli\Videos_short_600ms_vertflip\89.single_touch_with_plastic_brush_short_vertflip_short_600ms.mp4	89.single_touch_with_plastic_brush_short_vertflip_short_600ms.mp4	362.4543815029301	363.0627290074153	0.6083475044852094	n/a	n/a	n/a	n/a
370.6044921875	0.2	758998	278	31	2	0	0	81	70	stimuli\Videos_short_600ms\73.single_stroke_with_flat_hand_short_short_600ms.mp4	73.single_stroke_with_flat_hand_short_short_600ms.mp4	363.2544244342607	363.862696281074	0.6082718468132953	n/a	n/a	n/a	n/a
371.40478515625	0.2	760637	279	31	2	0	0	82	125	stimuli\Videos_short_600ms_horflip\41.injection_with_blunt_syringe_short_horflip_short_600ms.mp4	41.injection_with_blunt_syringe_short_horflip_short_600ms.mp4	364.0543779253203	364.6627019700609	0.6083240447405842	n/a	n/a	n/a	n/a
372.20458984375	0.2	762275	280	31	2	0	0	83	30	stimuli\Videos_short_600ms\37.single_stab_with_nail_file_short_short_600ms.mp4	37.single_stab_with_nail_file_short_short_600ms.mp4	364.8543710046961	365.46269651567127	0.6083255109751917	n/a	n/a	n/a	n/a
373.00439453125	0.2	763913	281	31	2	0	0	84	141	stimuli\Videos_short_600ms_horflip\56.repeated_touch_with_nail_file_short_horflip_short_600ms.mp4	56.repeated_touch_with_nail_file_short_horflip_short_600ms.mp4	365.6543963412186	366.26265851088647	0.6082621696677961	n/a	n/a	n/a	n/a
373.8046875	0.2	765552	282	31	2	0	0	85	54	stimuli\Videos_short_600ms\59.single_push_with_long_side_pencil_short_short_600ms.mp4	59.single_push_with_long_side_pencil_short_short_600ms.mp4	366.45432109409194	367.0626694783168	0.6083483842248825	n/a	n/a	n/a	n/a
374.6044921875	0.2	767190	283	31	2	0	0	86	285	stimuli\Videos_short_600ms_vertflip\23.single_push_with_a_spoon_short_vertflip_short_600ms.mp4	23.single_push_with_a_spoon_short_vertflip_short_600ms.mp4	367.2543223843768	367.8626552265232	0.6083328421464103	n/a	n/a	n/a	n/a
375.40478515625	0.2	768829	284	31	2	0	0	87	351	stimuli\Videos_short_600ms_vertflip\83.single_stroke_top_to_bottom_with_cotton_bud_short_vertflip_short_600ms.mp4	83.single_stroke_top_to_bottom_with_cotton_bud_short_vertflip_short_600ms.mp4	368.0543330585606	368.6626195677127	0.6082865091520944	n/a	n/a	n/a	n/a
376.20458984375	0.2	770467	285	31	2	0	0	88	84	stimuli\Videos_short_600ms\86.touch_top_to_bottom_with_hair_brush_short_short_600ms.mp4	86.touch_top_to_bottom_with_hair_brush_short_short_600ms.mp4	368.8542894820875	369.4626284824153	0.60833900032776	n/a	n/a	n/a	n/a
377.00439453125	0.2	772105	286	31	2	0	0	89	300	stimuli\Videos_short_600ms_vertflip\37.single_stab_with_nail_file_short_vertflip_short_600ms.mp4	37.single_stab_with_nail_file_short_vertflip_short_600ms.mp4	369.65429282510195	370.2626016210088	0.6083087959068507	n/a	n/a	n/a	n/a
377.8046875	0.2	773744	287	31	2	0	0	90	72	stimuli\Videos_short_600ms\75.(long)stroke_with_fingers_all_over_the_hand_short_short_600ms.mp4	75.(long)stroke_with_fingers_all_over_the_hand_short_short_600ms.mp4	370.45429382214024	371.0626049640232	0.6083111418829503	n/a	n/a	n/a	n/a
378.6044921875	0.2	775382	288	31	2	0	0	91	226	stimuli\Videos_short_600ms_horvertflip\51.repeated_touch_with_hammer_short_horvertflip_short_600ms.mp4	51.repeated_touch_with_hammer_short_horvertflip_short_600ms.mp4	371.25434408464025	371.8625725309285	0.6082284462881944	n/a	n/a	n/a	n/a
379.404296875	0.2	777020	289	31	2	0	0	92	337	stimuli\Videos_short_600ms_vertflip\70.(long)stroke_with_finger_all_over_the_hand_short_vertflip_short_600ms.mp4	70.(long)stroke_with_finger_all_over_the_hand_short_vertflip_short_600ms.mp4	372.0543682481748	372.66255945212106	0.6081912039462622	n/a	n/a	n/a	n/a
380.20458984375	0.2	778659	290	31	2	0	0	93	220	stimuli\Videos_short_600ms_horvertflip\46.scratching_top_to_bottom_with_finger_nails_short_horvertflip_short_600ms.mp4	46.scratching_top_to_bottom_with_finger_nails_short_horvertflip_short_600ms.mp4	372.8542229150662	373.4625666073425	0.6083436922763212	n/a	n/a	n/a	n/a
381.00439453125	0.2	780297	291	31	2	0	0	94	317	stimuli\Videos_short_600ms_vertflip\52.touch_top_to_bottom_with_hammer_short_vertflip_short_600ms.mp4	52.touch_top_to_bottom_with_hammer_short_vertflip_short_600ms.mp4	373.6542315365223	374.26255880697863	0.6083272704563569	n/a	n/a	n/a	n/a
381.80419921875	0.2	781935	292	31	2	0	0	95	81	stimuli\Videos_short_600ms\83.single_stroke_top_to_bottom_with_cotton_bud_short_short_600ms.mp4	83.single_stroke_top_to_bottom_with_cotton_bud_short_short_600ms.mp4	374.4542375187557	375.0625507133664	0.6083131946106732	n/a	n/a	n/a	n/a
382.6044921875	0.2	783574	293	31	2	0	0	96	236	stimuli\Videos_short_600ms_horvertflip\60.single_push_with_tip_of_pencil_short_horvertflip_short_600ms.mp4	60.single_push_with_tip_of_pencil_short_horvertflip_short_600ms.mp4	375.25428015683974	375.86253118313107	0.6082510262913274	n/a	n/a	n/a	n/a
383.404296875	0.2	785212	294	31	2	0	0	97	342	stimuli\Videos_short_600ms_vertflip\75.(long)stroke_with_fingers_all_over_the_hand_short_vertflip_short_600ms.mp4	75.(long)stroke_with_fingers_all_over_the_hand_short_vertflip_short_600ms.mp4	376.0541969920505	376.6625178110771	0.6083208190266305	n/a	n/a	n/a	n/a
384.2041015625	0.2	786850	295	31	2	0	0	98	158	stimuli\Videos_short_600ms_horflip\71.single_stroke_with_finger_top_to_bottom_short_horflip_short_600ms.mp4	71.single_stroke_with_finger_top_to_bottom_short_horflip_short_600ms.mp4	376.8553718559906	377.4625844953971	0.6072126394064981	9.0	9.0	2.075763827246192	1.0
418.03662109375	0.2	856139	296	31	3	0	0	0	109	stimuli\Videos_short_600ms_horflip\27.single_push_with_a_plastic_whisk_short_horflip_short_600ms.mp4	27.single_push_with_a_plastic_whisk_short_horflip_short_600ms.mp4	410.6869933611851	411.2953259100832	0.6083325488980336	n/a	n/a	n/a	n/a
418.83642578125	0.2	857777	297	31	3	0	0	1	234	stimuli\Videos_short_600ms_horvertflip\59.single_push_with_long_side_pencil_short_horvertflip_short_600ms.mp4	59.single_push_with_long_side_pencil_short_horvertflip_short_600ms.mp4	411.4869873203024	412.0953057933548	0.6083184730523499	n/a	n/a	n/a	n/a
419.63623046875	0.2	859415	298	31	3	0	0	2	233	stimuli\Videos_short_600ms_horvertflip\58.single_slap_with_pencil_short_horvertflip_short_600ms.mp4	58.single_slap_with_pencil_short_horvertflip_short_600ms.mp4	412.2870091378627	412.89530415117224	0.6082950133095437	n/a	n/a	n/a	n/a
420.4365234375	0.2	861054	299	31	3	0	0	3	150	stimuli\Videos_short_600ms_horflip\64.repeated_touch_with_screwdriver_short_horflip_short_600ms.mp4	64.repeated_touch_with_screwdriver_short_horflip_short_600ms.mp4	413.086933890736	413.6952811019746	0.6083472112386517	n/a	n/a	n/a	n/a
421.236328125	0.2	862692	300	31	3	0	0	4	190	stimuli\Videos_short_600ms_horvertflip\19.single_touch_with_rolling_pin_short_horvertflip_short_600ms.mp4	19.single_touch_with_rolling_pin_short_horvertflip_short_600ms.mp4	413.8869404594643	414.4952691961553	0.6083287366909644	n/a	n/a	n/a	n/a
422.0361328125	0.2	864330	301	31	3	0	0	5	224	stimuli\Videos_short_600ms_horvertflip\5.repeated_tap_with_finger_moving_from_top_to_bottom_short_horvertflip_short_600ms.mp4	5.repeated_tap_with_finger_moving_from_top_to_bottom_short_horvertflip_short_600ms.mp4	414.6869273806569	415.2952552376082	0.6083278569512913	n/a	n/a	n/a	n/a
422.83642578125	0.2	865969	302	31	3	0	0	6	2	stimuli\Videos_short_600ms\11.single_touch_with_lighter_short_short_600ms.mp4	11.single_touch_with_lighter_short_short_600ms.mp4	415.48689436106906	416.09524127905934	0.608346917990275	n/a	n/a	n/a	n/a
423.63623046875	0.2	867607	303	31	3	0	0	7	79	stimuli\Videos_short_600ms\81.single_stroke_top_to_bottom_with_cotton_pad_short_short_600ms.mp4	81.single_stroke_top_to_bottom_with_cotton_pad_short_short_600ms.mp4	416.2868880269379	416.8952276137588	0.6083395868208754	n/a	n/a	n/a	n/a
424.4365234375	0.2	869246	304	31	3	0	0	8	214	stimuli\Videos_short_600ms_horvertflip\40.repeated_push_with_finger_short_horvertflip_short_600ms.mp4	40.repeated_push_with_finger_short_horvertflip_short_600ms.mp4	417.0869447408677	417.69521688092755	0.608272140059853	n/a	n/a	n/a	n/a
425.236328125	0.2	870884	305	31	3	0	0	9	231	stimuli\Videos_short_600ms_horvertflip\56.repeated_touch_with_nail_file_short_horvertflip_short_600ms.mp4	56.repeated_touch_with_nail_file_short_horvertflip_short_600ms.mp4	417.8869372337504	418.4952043886133	0.608267154862915	n/a	n/a	n/a	n/a
426.0361328125	0.2	872522	306	31	3	0	0	10	103	stimuli\Videos_short_600ms_horflip\21.repeated_touch_with_metal_chopstick_short_horflip_short_600ms.mp4	21.repeated_touch_with_metal_chopstick_short_horflip_short_600ms.mp4	418.68693031312614	419.2951883773385	0.6082580642123503	n/a	n/a	n/a	n/a
426.83642578125	0.2	874161	307	31	3	0	0	11	168	stimuli\Videos_short_600ms_horflip\80.stroke_with_sharp_stick_all_over_the_hand_short_horflip_short_600ms.mp4	80.stroke_with_sharp_stick_all_over_the_hand_short_horflip_short_600ms.mp4	419.4869052112008	420.0951820432092	0.6082768320084142	n/a	n/a	n/a	n/a
427.63623046875	0.2	875799	308	31	3	0	0	12	250	stimuli\Videos_short_600ms_horvertflip\73.single_stroke_with_flat_hand_short_horvertflip_short_600ms.mp4	73.single_stroke_with_flat_hand_short_horvertflip_short_600ms.mp4	420.2868443331663	420.89516427245326	0.6083199392869574	n/a	n/a	n/a	n/a
428.43603515625	0.2	877437	309	31	3	0	0	13	139	stimuli\Videos_short_600ms_horflip\54.repeated_touch_with_knife_short_horflip_short_600ms.mp4	54.repeated_touch_with_knife_short_horflip_short_600ms.mp4	421.0868382922836	421.6951509003993	0.6083126081157388	n/a	n/a	n/a	n/a
429.236328125	0.2	879076	310	31	3	0	0	14	325	stimuli\Videos_short_600ms_vertflip\6.single_touch_with_flat_hand_short_vertflip_short_600ms.mp4	6.single_touch_with_flat_hand_short_vertflip_short_600ms.mp4	421.8868155363325	422.4951381148385	0.6083225785059767	n/a	n/a	n/a	n/a
430.0361328125	0.2	880714	311	31	3	0	0	15	303	stimuli\Videos_short_600ms_vertflip\4.repeated_tap_with_finger_slow_short_vertflip_short_600ms.mp4	4.repeated_tap_with_finger_slow_short_vertflip_short_600ms.mp4	422.686779877522	423.2951053884972	0.6083255109751917	n/a	n/a	n/a	n/a
430.8359375	0.2	882352	312	31	3	0	0	16	349	stimuli\Videos_short_600ms_vertflip\81.single_stroke_top_to_bottom_with_cotton_pad_short_vertflip_short_600ms.mp4	81.single_stroke_top_to_bottom_with_cotton_pad_short_vertflip_short_600ms.mp4	423.4868603444411	424.0950920164432	0.6082316720021481	n/a	n/a	n/a	n/a
431.63623046875	0.2	883991	313	31	3	0	0	17	176	stimuli\Videos_short_600ms_horflip\88.repeated_stroke_with_plastic_brush_short_horflip_short_600ms.mp4	88.repeated_stroke_with_plastic_brush_short_horflip_short_600ms.mp4	424.2868290843344	424.89512966933216	0.6083005849977781	n/a	n/a	n/a	n/a
432.43603515625	0.2	885629	314	31	3	0	0	18	12	stimuli\Videos_short_600ms\20.single_touch_with_screwdriver_short_short_600ms.mp4	20.single_touch_with_screwdriver_short_short_600ms.mp4	425.08675735616816	425.6950978227306	0.6083404665623675	n/a	n/a	n/a	n/a
433.23583984375	0.2	887267	315	31	3	0	0	19	136	stimuli\Videos_short_600ms_horflip\51.repeated_touch_with_hammer_short_horflip_short_600ms.mp4	51.repeated_touch_with_hammer_short_horflip_short_600ms.mp4	425.88675248827167	426.49509060885975	0.6083381205880869	n/a	n/a	n/a	n/a
434.0361328125	0.2	888906	316	31	3	0	0	20	89	stimuli\Videos_short_600ms\90.repeated_touch_with_sponge_short_short_600ms.mp4	90.repeated_touch_with_sponge_short_short_600ms.mp4	426.68674116894545	427.2950690258949	0.6083278569494723	n/a	n/a	n/a	n/a
434.8359375	0.2	890544	317	31	3	0	0	21	311	stimuli\Videos_short_600ms_vertflip\47.(long)scratching_with_finger_nails_short_vertflip_short_600ms.mp4	47.(long)scratching_with_finger_nails_short_vertflip_short_600ms.mp4	427.48673043611416	428.0950541876082	0.6083237514940265	n/a	n/a	n/a	n/a
435.6357421875	0.2	892182	318	31	3	0	0	22	105	stimuli\Videos_short_600ms_horflip\23.single_push_with_a_spoon_short_horflip_short_600ms.mp4	23.single_push_with_a_spoon_short_horflip_short_600ms.mp4	428.2867150113325	428.8950466804909	0.6083316691583605	n/a	n/a	n/a	n/a
436.43603515625	0.2	893821	319	31	3	0	0	23	221	stimuli\Videos_short_600ms_horvertflip\47.(long)scratching_with_finger_nails_short_horvertflip_short_600ms.mp4	47.(long)scratching_with_finger_nails_short_horvertflip_short_600ms.mp4	429.0866784727823	429.6950303759677	0.6083519031853939	n/a	n/a	n/a	n/a
437.23583984375	0.2	895459	320	31	3	0	0	24	115	stimuli\Videos_short_600ms_horflip\32.single_(long)pinch_with_fingers_short_horflip_short_600ms.mp4	32.single_(long)pinch_with_fingers_short_horflip_short_600ms.mp4	429.8867583532083	430.49501641742063	0.6082580642123503	n/a	n/a	n/a	n/a
438.03564453125	0.2	897097	321	31	3	0	0	25	269	stimuli\Videos_short_600ms_horvertflip\90.repeated_touch_with_sponge_short_horvertflip_short_600ms.mp4	90.repeated_touch_with_sponge_short_horvertflip_short_600ms.mp4	430.6866722559498	431.29500480484785	0.6083325488980336	n/a	n/a	n/a	n/a
438.8359375	0.2	898736	322	31	3	0	0	26	302	stimuli\Videos_short_600ms_vertflip\39.single_stab_with_scissors_short_vertflip_short_600ms.mp4	39.single_stab_with_scissors_short_vertflip_short_600ms.mp4	431.4866647488325	432.0949937787682	0.6083290299357031	n/a	n/a	n/a	n/a
439.6357421875	0.2	900374	323	31	3	0	0	27	175	stimuli\Videos_short_600ms_horflip\87.single_stroke_top_to_bottom_with_plastic_brush_short_horflip_short_600ms.mp4	87.single_stroke_top_to_bottom_with_plastic_brush_short_horflip_short_600ms.mp4	432.2866698513262	432.8949824594438	0.6083126081175578	n/a	n/a	n/a	n/a
440.435546875	0.2	902012	324	31	3	0	0	28	117	stimuli\Videos_short_600ms_horflip\34.repeated_punch_with_hand_short_horflip_short_600ms.mp4	34.repeated_punch_with_hand_short_horflip_short_600ms.mp4	433.0866462156355	433.6949687941433	0.6083225785077957	n/a	n/a	n/a	n/a
441.23583984375	0.2	903651	325	31	3	0	0	29	88	stimuli\Videos_short_600ms\9.single_touch_with_hammer_short_short_600ms.mp4	9.single_touch_with_hammer_short_short_600ms.mp4	433.88660997033185	434.4949571815705	0.6083472112386517	n/a	n/a	n/a	n/a
442.03564453125	0.2	905289	326	31	3	0	0	30	42	stimuli\Videos_short_600ms\48.single_slap_with_hand_short_short_600ms.mp4	48.single_slap_with_hand_short_short_600ms.mp4	434.6866004104868	435.2949414635423	0.6083410530554829	n/a	n/a	n/a	n/a
442.83544921875	0.2	906927	327	31	3	0	0	31	152	stimuli\Videos_short_600ms_horflip\66.stroke_top_to_bottom_with_sponge_short_horflip_short_600ms.mp4	66.stroke_top_to_bottom_with_sponge_short_horflip_short_600ms.mp4	435.4867638662472	436.0949280914883	0.6081642252411257	n/a	n/a	n/a	n/a
443.6357421875	0.2	908566	328	31	3	0	0	32	208	stimuli\Videos_short_600ms_horvertflip\35.single_punch_with_hand_short_horvertflip_short_600ms.mp4	35.single_punch_with_hand_short_horvertflip_short_600ms.mp4	436.28665929444287	436.8949000570956	0.6082407626527129	n/a	n/a	n/a	n/a
444.435546875	0.2	910204	329	31	3	0	0	33	323	stimuli\Videos_short_600ms_vertflip\58.single_slap_with_pencil_short_vertflip_short_600ms.mp4	58.single_slap_with_pencil_short_vertflip_short_600ms.mp4	437.0871591042723	437.6949001743942	0.6077410701218469	n/a	n/a	n/a	n/a
445.23583984375	0.2	911843	330	31	3	0	0	34	8	stimuli\Videos_short_600ms\17.repeated_touch_with_rolling_pin_short_short_600ms.mp4	17.repeated_touch_with_rolling_pin_short_short_600ms.mp4	437.8870178766174	438.49488768207993	0.607869805462542	n/a	n/a	n/a	n/a
446.03564453125	0.2	913481	331	31	3	0	0	35	178	stimuli\Videos_short_600ms_horflip\9.single_touch_with_hammer_short_horflip_short_600ms.mp4	9.single_touch_with_hammer_short_horflip_short_600ms.mp4	438.6869358848144	439.2948778289883	0.6079419441739446	n/a	n/a	n/a	n/a
446.83544921875	0.2	915119	332	31	3	0	0	36	32	stimuli\Videos_short_600ms\39.single_stab_with_scissors_short_short_600ms.mp4	39.single_stab_with_scissors_short_short_600ms.mp4	439.48662252129543	440.09487208135033	0.6082495600549009	n/a	n/a	n/a	n/a
447.6357421875	0.2	916758	333	31	3	0	0	37	177	stimuli\Videos_short_600ms_horflip\89.single_touch_with_plastic_brush_short_horflip_short_600ms.mp4	89.single_touch_with_plastic_brush_short_horflip_short_600ms.mp4	440.2865299726072	440.8948590025448	0.6083290299375221	n/a	n/a	n/a	n/a
448.435546875	0.2	918396	334	31	3	0	0	38	92	stimuli\Videos_short_600ms_horflip\11.single_touch_with_lighter_short_horflip_short_600ms.mp4	11.single_touch_with_lighter_short_horflip_short_600ms.mp4	441.0865160140602	441.694872022701	0.6083560086408397	n/a	n/a	n/a	n/a
449.2353515625	0.2	920034	335	31	3	0	0	39	148	stimuli\Videos_short_600ms_horflip\62.touch_top_to_bottom_with_scissors_short_horflip_short_600ms.mp4	62.touch_top_to_bottom_with_scissors_short_horflip_short_600ms.mp4	441.88650557447545	442.4948302057091	0.6083246312336996	n/a	n/a	n/a	n/a
450.03564453125	0.2	921673	336	31	3	0	0	40	18	stimuli\Videos_short_600ms\26.single_touch_with_a_blunt_syringe_short_short_600ms.mp4	26.single_touch_with_a_blunt_syringe_short_short_600ms.mp4	442.6865356029466	443.2948168336552	0.6082812307085987	n/a	n/a	n/a	n/a
450.83544921875	0.2	923311	337	31	3	0	0	41	149	stimuli\Videos_short_600ms_horflip\63.stroke_top_to_bottom_with_screwdriver_short_horflip_short_600ms.mp4	63.stroke_top_to_bottom_with_screwdriver_short_horflip_short_600ms.mp4	443.48651783219066	444.0948052210824	0.6082873888917675	n/a	n/a	n/a	n/a
451.63525390625	0.2	924949	338	31	3	0	0	42	252	stimuli\Videos_short_600ms_horvertflip\75.(long)stroke_with_fingers_all_over_the_hand_short_horvertflip_short_600ms.mp4	75.(long)stroke_with_fingers_all_over_the_hand_short_horvertflip_short_600ms.mp4	444.2865906746938	444.89479272877	0.6082020540761732	n/a	n/a	n/a	n/a
452.435546875	0.2	926588	339	31	3	0	0	43	253	stimuli\Videos_short_600ms_horvertflip\76.tickle_with_fingers_from_top_to_bottom_short_horvertflip_short_600ms.mp4	76.tickle_with_fingers_from_top_to_bottom_short_horvertflip_short_600ms.mp4	445.0869948860691	445.6947817026903	0.6077868166212284	n/a	n/a	n/a	n/a
453.2353515625	0.2	928226	340	31	3	0	0	44	22	stimuli\Videos_short_600ms\3.single_push_with_finger_short_short_600ms.mp4	3.single_push_with_finger_short_short_600ms.mp4	445.88678298593913	446.4947677441433	0.6079847582041111	n/a	n/a	n/a	n/a
454.03515625	0.2	929864	341	31	3	0	0	45	287	stimuli\Videos_short_600ms_vertflip\25.single_touch_with_stanley_knife_short_vertflip_short_600ms.mp4	25.single_touch_with_stanley_knife_short_vertflip_short_600ms.mp4	446.686827090256	447.2947558383239	0.6079287480679341	n/a	n/a	n/a	n/a
454.83544921875	0.2	931503	342	31	3	0	0	46	113	stimuli\Videos_short_600ms_horflip\30.finger_pulling_back_another_finger_short_horflip_short_600ms.mp4	30.finger_pulling_back_another_finger_short_horflip_short_600ms.mp4	447.48684304288145	448.0947415865303	0.6078985436488438	n/a	n/a	n/a	n/a
455.63525390625	0.2	933141	343	31	3	0	1	47	361	stimuli\Targets_short_600ms\chopstick-silver-tap_short_short_600ms.mp4	chopstick-silver-tap_short_short_600ms.mp4	448.28687043213176	448.89472733473485	0.6078569026030891	n/a	n/a	n/a	n/a
456.43505859375	0.2	934779	344	31	3	0	0	48	138	stimuli\Videos_short_600ms_horflip\53.touch_top_to_bottom_with_knife_short_horflip_short_600ms.mp4	53.touch_top_to_bottom_with_knife_short_horflip_short_600ms.mp4	449.0865476847139	449.6947174816432	0.60816979692936	n/a	n/a	n/a	n/a
457.2353515625	0.2	936418	345	31	3	0	0	49	256	stimuli\Videos_short_600ms_horvertflip\79.long_with_soft_brush_all_over_the_hand_short_horvertflip_short_600ms.mp4	79.long_with_soft_brush_all_over_the_hand_short_horvertflip_short_600ms.mp4	449.88645484277913	450.4947070420567	0.6082521992775582	n/a	n/a	n/a	n/a
458.03515625	0.2	938056	346	31	3	0	0	50	264	stimuli\Videos_short_600ms_horvertflip\86.touch_top_to_bottom_with_hair_brush_short_horvertflip_short_600ms.mp4	86.touch_top_to_bottom_with_hair_brush_short_horvertflip_short_600ms.mp4	450.6864294476072	451.2946878050679	0.608258357460727	n/a	n/a	n/a	n/a
458.8349609375	0.2	939694	347	31	3	0	0	51	170	stimuli\Videos_short_600ms_horflip\82.repeated_touch_with_cotton_bud_short_horflip_short_600ms.mp4	82.repeated_touch_with_cotton_bud_short_horflip_short_600ms.mp4	451.48636475736566	452.0946606504149	0.6082958930492168	n/a	n/a	n/a	n/a
459.63525390625	0.2	941333	348	31	3	0	0	52	162	stimuli\Videos_short_600ms_horflip\75.(long)stroke_with_fingers_all_over_the_hand_short_horflip_short_600ms.mp4	75.(long)stroke_with_fingers_all_over_the_hand_short_horflip_short_600ms.mp4	452.28633056478975	452.8946422931658	0.6083117283760657	n/a	n/a	n/a	n/a
460.43505859375	0.2	942971	349	31	3	0	0	53	305	stimuli\Videos_short_600ms_vertflip\41.injection_with_blunt_syringe_short_vertflip_short_600ms.mp4	41.injection_with_blunt_syringe_short_vertflip_short_600ms.mp4	453.0863327348161	453.6946324400742	0.608299705258105	n/a	n/a	n/a	n/a
461.23486328125	0.2	944609	350	31	3	0	0	54	331	stimuli\Videos_short_600ms_vertflip\65.stroke_top_to_bottom_with_stanley_knife_short_vertflip_short_600ms.mp4	65.stroke_top_to_bottom_with_stanley_knife_short_vertflip_short_600ms.mp4	453.8863164302947	454.4946363695817	0.6083199392869574	n/a	n/a	n/a	n/a
462.03515625	0.2	946248	351	31	3	0	0	55	340	stimuli\Videos_short_600ms_vertflip\73.single_stroke_with_flat_hand_short_vertflip_short_600ms.mp4	73.single_stroke_with_flat_hand_short_vertflip_short_600ms.mp4	454.686301592008	455.29463414090606	0.6083325488980336	n/a	n/a	n/a	n/a
462.8349609375	0.2	947886	352	31	3	0	0	56	265	stimuli\Videos_short_600ms_horvertflip\87.single_stroke_top_to_bottom_with_plastic_brush_short_horvertflip_short_600ms.mp4	87.single_stroke_top_to_bottom_with_plastic_brush_short_horvertflip_short_600ms.mp4	455.48633689892085	456.0946459880761	0.6083090891552274	n/a	n/a	n/a	n/a
463.634765625	0.2	949524	353	31	3	0	0	57	222	stimuli\Videos_short_600ms_horvertflip\48.single_slap_with_hand_short_horvertflip_short_600ms.mp4	48.single_slap_with_hand_short_horvertflip_short_600ms.mp4	456.2863264593343	456.8946153144607	0.608288855126375	n/a	n/a	n/a	n/a
464.43505859375	0.2	951163	354	31	3	0	0	58	38	stimuli\Videos_short_600ms\44.pushing_top_to_bottom_with_finger_short_short_600ms.mp4	44.pushing_top_to_bottom_with_finger_short_short_600ms.mp4	457.086345344429	457.69459226526305	0.6082469208340626	n/a	n/a	n/a	n/a
465.23486328125	0.2	952801	355	31	3	0	0	59	216	stimuli\Videos_short_600ms_horvertflip\42.single_slap_with_plastic_whisk_short_horvertflip_short_600ms.mp4	42.single_slap_with_plastic_whisk_short_horvertflip_short_600ms.mp4	457.8865067474617	458.4945938487963	0.6080871013346041	n/a	n/a	n/a	n/a
466.03515625	0.2	954440	356	31	3	0	1	60	376	stimuli\Targets_short_600ms_horvertflip\hand-pinch_short_vertflip_short_600ms.mp4	hand-pinch_short_vertflip_short_600ms.mp4	458.68630276499425	459.2945690401175	0.6082662751232419	n/a	n/a	n/a	n/a
466.8349609375	0.2	956078	357	31	3	0	0	61	101	stimuli\Videos_short_600ms_horflip\2.single_touch_with_finger_short_horflip_short_600ms.mp4	2.single_touch_with_finger_short_horflip_short_600ms.mp4	459.48620816358016	460.0945550815704	0.608346917990275	n/a	n/a	n/a	n/a
467.634765625	0.2	957716	358	31	3	0	0	62	76	stimuli\Videos_short_600ms\79.long_with_soft_brush_all_over_the_hand_short_short_600ms.mp4	79.long_with_soft_brush_all_over_the_hand_short_short_600ms.mp4	460.2862153188016	460.8945431757511	0.6083278569494723	n/a	n/a	n/a	n/a
