onset	duration	onsetsample	eventnumber	subjectnr	sequencenumber	blocksequencenumber	istarget	presentationnumber	stimnumber	stim	stimname	time_stimon	time_stimoff	stimdur	cresp	resp	rt	correct
62.90234375	0.2	128824	0	5	0	0	0	0	26	stimuli\Videos_short_600ms\33.scratch_top_to_bottom_with_scissors_short_short_600ms.mp4	33.scratch_top_to_bottom_with_scissors_short_short_600ms.mp4	132.36426132054953	132.97465460220542	0.6103932816558881				
63.7021484375	0.2	130462	1	5	0	0	0	1	350	stimuli\Videos_short_600ms_vertflip\82.repeated_touch_with_cotton_bud_short_vertflip_short_600ms.mp4	82.repeated_touch_with_cotton_bud_short_vertflip_short_600ms.mp4	133.16631672847257	133.77462152424846	0.6083047957758936				
64.501953125	0.2	132100	2	5	0	0	0	2	39	stimuli\Videos_short_600ms\45.scratching_with_finger_nails_short_short_600ms.mp4	45.scratching_with_finger_nails_short_short_600ms.mp4	133.9662997789526	134.57461718423315	0.6083174052805589				
65.30224609375	0.2	133739	3	5	0	0	0	3	209	stimuli\Videos_short_600ms_horvertflip\36.single_slap_with_full_hand_short_horvertflip_short_600ms.mp4	36.single_slap_with_full_hand_short_horvertflip_short_600ms.mp4	134.7662772577903	135.37459612929274	0.6083188715024335				
66.10205078125	0.2	135377	4	5	0	0	0	4	111	stimuli\Videos_short_600ms_horflip\29.single_pinch_with_tweezers_short_horflip_short_600ms.mp4	29.single_pinch_with_tweezers_short_horflip_short_600ms.mp4	135.5662600150256	136.17455982564866	0.6082998106230662				
66.90234375	0.2	137016	5	5	0	0	0	5	40	stimuli\Videos_short_600ms\46.scratching_top_to_bottom_with_finger_nails_short_short_600ms.mp4	46.scratching_top_to_bottom_with_finger_nails_short_short_600ms.mp4	136.36624013306232	136.97456252349616	0.6083223904338411				
67.7021484375	0.2	138654	6	5	0	0	0	6	0	stimuli\Videos_short_600ms\1.repeated_touch_with_finger_fast_short_short_600ms.mp4	1.repeated_touch_with_finger_fast_short_short_600ms.mp4	137.16622025109905	137.77454967939616	0.608329428297111				
68.501953125	0.2	140292	7	5	0	0	0	7	320	stimuli\Videos_short_600ms_vertflip\55.touch_top_to_bottom_with_nail_file_short_vertflip_short_600ms.mp4	55.touch_top_to_bottom_with_nail_file_short_vertflip_short_600ms.mp4	137.96620124886863	138.57452187983677	0.6083206309681373				
69.30224609375	0.2	141931	8	5	0	0	0	8	33	stimuli\Videos_short_600ms\4.repeated_tap_with_finger_slow_short_short_600ms.mp4	4.repeated_tap_with_finger_slow_short_short_600ms.mp4	138.7661840061039	139.37451519386673	0.6083311877628148				
70.10205078125	0.2	143569	9	5	0	0	0	9	81	stimuli\Videos_short_600ms\83.single_stroke_top_to_bottom_with_cotton_bud_short_short_600ms.mp4	83.single_stroke_top_to_bottom_with_cotton_bud_short_short_600ms.mp4	139.5661526876131	140.17448387537593	0.6083311877628148				
70.90185546875	0.2	145207	10	5	0	0	1	10	374	stimuli\Targets_short_600ms_horvertflip\chopstickwood-tap_short_vertflip_short_600ms.mp4	chopstickwood-tap_short_vertflip_short_600ms.mp4	140.3661462948878	140.97446428665694	0.6083179917691268				
71.7021484375	0.2	146846	11	5	0	0	0	11	25	stimuli\Videos_short_600ms\32.single_(long)pinch_with_fingers_short_short_600ms.mp4	32.single_(long)pinch_with_fingers_short_short_600ms.mp4	141.16614518055917	141.77444528442652	0.6083001038673501				
72.501953125	0.2	148484	12	5	0	0	0	12	172	stimuli\Videos_short_600ms_horflip\84.single_touch_with_cotton_bud_short_horflip_short_600ms.mp4	84.single_touch_with_cotton_bud_short_horflip_short_600ms.mp4	141.96610829042697	142.57442540246325	0.6083171120362749				
73.3017578125	0.2	150122	13	5	0	0	0	13	96	stimuli\Videos_short_600ms_horflip\15.single_stroke_top_to_bottom_with_a_plastic_whisk_short_horflip_short_600ms.mp4	15.single_stroke_top_to_bottom_with_a_plastic_whisk_short_horflip_short_600ms.mp4	142.7660875287304	143.3744069867214	0.6083194579910014				
74.10205078125	0.2	151761	14	5	0	0	0	14	30	stimuli\Videos_short_600ms\37.single_stab_with_nail_file_short_short_600ms.mp4	37.single_stab_with_nail_file_short_short_600ms.mp4	143.56606236837	144.17438827773526	0.6083259093652487				
74.90185546875	0.2	153399	15	5	0	0	0	15	342	stimuli\Videos_short_600ms_vertflip\75.(long)stroke_with_fingers_all_over_the_hand_short_vertflip_short_600ms.mp4	75.(long)stroke_with_fingers_all_over_the_hand_short_vertflip_short_600ms.mp4	144.36604747155957	144.97436604981726	0.6083185782576948				
75.70166015625	0.2	155037	16	5	0	0	0	16	268	stimuli\Videos_short_600ms_horvertflip\9.single_touch_with_hammer_short_horvertflip_short_600ms.mp4	9.single_touch_with_hammer_short_horvertflip_short_600ms.mp4	145.16602788284058	145.774348807053	0.6083209242124212				
76.501953125	0.2	156676	17	5	0	0	0	17	55	stimuli\Videos_short_600ms\6.single_touch_with_flat_hand_short_short_600ms.mp4	6.single_touch_with_flat_hand_short_short_600ms.mp4	145.9659860075551	146.57433068455543	0.608344677000332				
77.3017578125	0.2	158314	18	5	0	0	0	18	247	stimuli\Videos_short_600ms_horvertflip\70.(long)stroke_with_finger_all_over_the_hand_short_horvertflip_short_600ms.mp4	70.(long)stroke_with_finger_all_over_the_hand_short_horvertflip_short_600ms.mp4	146.76599955544157	147.37431109583645	0.6083115403948796				
78.1015625	0.2	159952	19	5	0	0	0	19	88	stimuli\Videos_short_600ms\9.single_touch_with_hammer_short_short_600ms.mp4	9.single_touch_with_hammer_short_short_600ms.mp4	147.56597380859216	148.17429355982745	0.6083197512352854				
78.90185546875	0.2	161591	20	5	0	0	0	20	351	stimuli\Videos_short_600ms_vertflip\83.single_stroke_top_to_bottom_with_cotton_bud_short_vertflip_short_600ms.mp4	83.single_stroke_top_to_bottom_with_cotton_bud_short_vertflip_short_600ms.mp4	148.36595539285076	148.97426077511523	0.6083053822644615				
79.70166015625	0.2	163229	21	5	0	0	0	21	250	stimuli\Videos_short_600ms_horvertflip\73.single_stroke_with_flat_hand_short_horvertflip_short_600ms.mp4	73.single_stroke_with_flat_hand_short_horvertflip_short_600ms.mp4	149.16593199195563	149.77424265261766	0.6083106606620277				
80.50146484375	0.2	164867	22	5	0	0	0	22	106	stimuli\Videos_short_600ms_horflip\24.single_stroke_top_to_bottom_with_a_spoon_short_horflip_short_600ms.mp4	24.single_stroke_top_to_bottom_with_a_spoon_short_horflip_short_600ms.mp4	149.96593381007028	150.5742345004262	0.608300690355918				
81.3017578125	0.2	166506	23	5	0	0	0	23	76	stimuli\Videos_short_600ms\79.long_with_soft_brush_all_over_the_hand_short_short_600ms.mp4	79.long_with_soft_brush_all_over_the_hand_short_short_600ms.mp4	150.76589985238093	151.37419878327069	0.6082989308897595				
82.1015625	0.2	168144	24	5	0	0	0	24	125	stimuli\Videos_short_600ms_horflip\41.injection_with_blunt_syringe_short_horflip_short_600ms.mp4	41.injection_with_blunt_syringe_short_horflip_short_600ms.mp4	151.5658746920201	152.1741789013074	0.6083042092873256				
82.9013671875	0.2	169782	25	5	0	0	0	25	227	stimuli\Videos_short_600ms_horvertflip\52.touch_top_to_bottom_with_hammer_short_horvertflip_short_600ms.mp4	52.touch_top_to_bottom_with_hammer_short_horvertflip_short_600ms.mp4	152.36586008845438	152.97417954644493	0.6083194579905467				
83.70166015625	0.2	171421	26	5	0	0	0	26	71	stimuli\Videos_short_600ms\74.fingers_walking_from_top_to_bottom_short_short_600ms.mp4	74.fingers_walking_from_top_to_bottom_short_short_600ms.mp4	153.16584489839963	153.77416025097023	0.6083153525705711				
84.50146484375	0.2	173059	27	5	0	0	0	27	137	stimuli\Videos_short_600ms_horflip\52.touch_top_to_bottom_with_hammer_short_horflip_short_600ms.mp4	52.touch_top_to_bottom_with_hammer_short_horflip_short_600ms.mp4	153.96581915155025	154.57415209877877	0.6083329472285186				
85.30126953125	0.2	174697	28	5	0	0	0	28	311	stimuli\Videos_short_600ms_vertflip\47.(long)scratching_with_finger_nails_short_vertflip_short_600ms.mp4	47.(long)scratching_with_finger_nails_short_vertflip_short_600ms.mp4	154.76580132229697	155.3741237127308	0.6083223904338411				
86.1015625	0.2	176336	29	5	0	0	0	29	200	stimuli\Videos_short_600ms_horvertflip\28.single_injection_with_sharp_needle_short_horvertflip_short_600ms.mp4	28.single_injection_with_sharp_needle_short_horvertflip_short_600ms.mp4	155.56578085384513	156.17410119156898	0.6083203377238533				
86.9013671875	0.2	177974	30	5	0	0	0	30	68	stimuli\Videos_short_600ms\71.single_stroke_with_finger_top_to_bottom_short_short_600ms.mp4	71.single_stroke_with_finger_top_to_bottom_short_short_600ms.mp4	156.36576331783613	156.97408248258284	0.6083191647467174				
87.70166015625	0.2	179613	31	5	0	0	0	31	130	stimuli\Videos_short_600ms_horflip\46.scratching_top_to_bottom_with_finger_nails_short_horflip_short_600ms.mp4	46.scratching_top_to_bottom_with_finger_nails_short_horflip_short_600ms.mp4	157.16574666156043	157.77406611955098	0.6083194579905467				
88.50146484375	0.2	181251	32	5	0	0	0	32	173	stimuli\Videos_short_600ms_horflip\85.touch_top_to_bottom_with_fabric_short_horflip_short_600ms.mp4	85.touch_top_to_bottom_with_fabric_short_horflip_short_600ms.mp4	157.96572912555143	158.57404506461057	0.608315939059139				
89.30126953125	0.2	182889	33	5	0	0	0	33	243	stimuli\Videos_short_600ms_horvertflip\67.single_touch_with_sponge_short_horvertflip_short_600ms.mp4	67.single_touch_with_sponge_short_horvertflip_short_600ms.mp4	158.76570484492345	159.37402459615873	0.6083197512352854				
90.1015625	0.2	184528	34	5	0	0	0	34	18	stimuli\Videos_short_600ms\26.single_touch_with_a_blunt_syringe_short_short_600ms.mp4	26.single_touch_with_a_blunt_syringe_short_short_600ms.mp4	159.56568203051734	160.17400442095118	0.6083223904338411				
90.9013671875	0.2	186166	35	5	0	0	0	35	269	stimuli\Videos_short_600ms_horvertflip\90.repeated_touch_with_sponge_short_horvertflip_short_600ms.mp4	90.repeated_touch_with_sponge_short_horvertflip_short_600ms.mp4	160.36564396740755	160.97398747143075	0.6083435040231961				
91.701171875	0.2	187804	36	5	0	0	0	36	41	stimuli\Videos_short_600ms\47.(long)scratching_with_finger_nails_short_short_600ms.mp4	47.(long)scratching_with_finger_nails_short_short_600ms.mp4	161.16563083006326	161.7739672962232	0.6083364661599262				
92.50146484375	0.2	189443	37	5	0	0	0	37	153	stimuli\Videos_short_600ms_horflip\67.single_touch_with_sponge_short_horflip_short_600ms.mp4	67.single_touch_with_sponge_short_horflip_short_600ms.mp4	161.96563323466648	162.57395650483272	0.6083232701662382				
93.30126953125	0.2	191081	38	5	0	0	0	38	93	stimuli\Videos_short_600ms_horflip\12.repeated_touch_with_nail_file_short_horflip_short_600ms.mp4	12.repeated_touch_with_nail_file_short_horflip_short_600ms.mp4	162.76561159323705	163.37395304455026	0.6083414513132084				
94.10107421875	0.2	192719	39	5	0	0	0	39	58	stimuli\Videos_short_600ms\62.touch_top_to_bottom_with_scissors_short_short_600ms.mp4	62.touch_top_to_bottom_with_scissors_short_short_600ms.mp4	163.5656031478013	164.1738988530044	0.6082957052030906				
94.9013671875	0.2	194358	40	5	0	0	0	40	165	stimuli\Videos_short_600ms_horflip\78.single_stroke_top_to_bottom_with_soft_brush_short_horflip_short_600ms.mp4	78.single_stroke_top_to_bottom_with_soft_brush_short_horflip_short_600ms.mp4	164.3655721225548	164.9738865953925	0.6083144728377192				
95.701171875	0.2	195996	41	5	0	0	0	41	2	stimuli\Videos_short_600ms\11.single_touch_with_lighter_short_short_600ms.mp4	11.single_touch_with_lighter_short_short_600ms.mp4	165.16553376620118	165.77385498365743	0.6083212174562505				
96.5009765625	0.2	197634	42	5	0	0	0	42	292	stimuli\Videos_short_600ms_vertflip\3.single_push_with_finger_short_vertflip_short_600ms.mp4	3.single_push_with_finger_short_vertflip_short_600ms.mp4	165.96553646404868	166.57384067333555	0.6083042092868709				
97.30126953125	0.2	199273	43	5	0	0	1	43	365	stimuli\Targets_short_600ms\hand-stroke_short_short_600ms.mp4	hand-stroke_short_short_600ms.mp4	166.76612565048913	167.3738187386623	0.6076930881731641				
98.10107421875	0.2	200911	44	5	0	0	0	44	289	stimuli\Videos_short_600ms_vertflip\27.single_push_with_a_plastic_whisk_short_vertflip_short_600ms.mp4	27.single_push_with_a_plastic_whisk_short_vertflip_short_600ms.mp4	167.56554831111794	168.1738196770441	0.6082713659261572				
98.90087890625	0.2	202549	45	5	0	0	0	45	160	stimuli\Videos_short_600ms_horflip\73.single_stroke_with_flat_hand_short_horflip_short_600ms.mp4	73.single_stroke_with_flat_hand_short_horflip_short_600ms.mp4	168.36548092357884	168.9737983288594	0.6083174052805589				
99.701171875	0.2	204188	46	5	0	0	0	46	114	stimuli\Videos_short_600ms_horflip\31.hand_grabbing_wrist_short_horflip_short_600ms.mp4	31.hand_grabbing_wrist_short_horflip_short_600ms.mp4	169.16545898890513	169.77378519151466	0.6083262026095326				
100.5009765625	0.2	205826	47	5	0	0	0	47	203	stimuli\Videos_short_600ms_horvertflip\30.finger_pulling_back_another_finger_short_horvertflip_short_600ms.mp4	30.finger_pulling_back_another_finger_short_horvertflip_short_600ms.mp4	169.96544233262944	170.57376384332997	0.6083215107005344				
101.30078125	0.2	207464	48	5	0	0	0	48	179	stimuli\Videos_short_600ms_horflip\90.repeated_touch_with_sponge_short_horflip_short_600ms.mp4	90.repeated_touch_with_sponge_short_horflip_short_600ms.mp4	170.7654136533372	171.37374073567958	0.6083270823423845				
102.10107421875	0.2	209103	49	5	0	0	0	49	92	stimuli\Videos_short_600ms_horflip\11.single_touch_with_lighter_short_horflip_short_600ms.mp4	11.single_touch_with_lighter_short_horflip_short_600ms.mp4	171.5654022754586	172.17372144020487	0.6083191647462627				
102.90087890625	0.2	210741	50	5	0	0	0	50	276	stimuli\Videos_short_600ms_vertflip\15.single_stroke_top_to_bottom_with_a_plastic_whisk_short_vertflip_short_600ms.mp4	15.single_stroke_top_to_bottom_with_a_plastic_whisk_short_vertflip_short_600ms.mp4	172.3653847394496	172.97370243797445	0.6083176985248429				
103.70068359375	0.2	212379	51	5	0	0	0	51	171	stimuli\Videos_short_600ms_horflip\83.single_stroke_top_to_bottom_with_cotton_bud_short_horflip_short_600ms.mp4	83.single_stroke_top_to_bottom_with_cotton_bud_short_horflip_short_600ms.mp4	173.1653757075253	173.7736819695226	0.6083062619973134				
104.5009765625	0.2	214018	52	5	0	0	0	52	358	stimuli\Videos_short_600ms_vertflip\9.single_touch_with_hammer_short_vertflip_short_600ms.mp4	9.single_touch_with_hammer_short_vertflip_short_600ms.mp4	173.96532826059797	174.57366326053648	0.6083349999385064				
105.30078125	0.2	215656	53	5	0	0	0	53	296	stimuli\Videos_short_600ms_vertflip\33.scratch_top_to_bottom_with_scissors_short_vertflip_short_600ms.mp4	33.scratch_top_to_bottom_with_scissors_short_vertflip_short_600ms.mp4	174.76530251374857	175.3736451380389	0.6083426242903442				
106.10107421875	0.2	217295	54	5	0	0	0	54	305	stimuli\Videos_short_600ms_vertflip\41.injection_with_blunt_syringe_short_vertflip_short_600ms.mp4	41.injection_with_blunt_syringe_short_vertflip_short_600ms.mp4	175.56533394953726	176.17362554931992	0.6082915997826603				
106.90087890625	0.2	218933	55	5	0	0	1	55	383	stimuli\Targets_short_600ms_vertflip\hand-stroke_short_horvertflip_short_600ms.mp4	hand-stroke_short_horvertflip_short_600ms.mp4	176.36526450928773	176.9736083065552	0.6083437972674801				
107.70068359375	0.2	220571	56	5	0	0	0	56	321	stimuli\Videos_short_600ms_vertflip\56.repeated_touch_with_nail_file_short_vertflip_short_600ms.mp4	56.repeated_touch_with_nail_file_short_vertflip_short_600ms.mp4	177.1652707260671	177.77358989081335	0.6083191647462627				
108.5009765625	0.2	222210	57	5	0	0	0	57	313	stimuli\Videos_short_600ms_vertflip\49.repeated_slap_with_hand_short_vertflip_short_600ms.mp4	49.repeated_slap_with_hand_short_vertflip_short_600ms.mp4	177.96525377654666	178.5735749940029	0.6083212174562505				
109.30078125	0.2	223848	58	5	0	0	0	58	336	stimuli\Videos_short_600ms_vertflip\7.repeated_touch_with_hairbrush_short_vertflip_short_600ms.mp4	7.repeated_touch_with_hairbrush_short_vertflip_short_600ms.mp4	178.76524151893523	179.37355511203964	0.6083135931044126				
110.1005859375	0.2	225486	59	5	0	0	0	59	254	stimuli\Videos_short_600ms_horvertflip\77.tapping_with_all_fingers_short_horvertflip_short_600ms.mp4	77.tapping_with_all_fingers_short_horvertflip_short_600ms.mp4	179.5652131328873	180.17353347061064	0.6083203377233986				
110.90087890625	0.2	227125	60	5	0	0	0	60	63	stimuli\Videos_short_600ms\67.single_touch_with_sponge_short_short_600ms.mp4	67.single_touch_with_sponge_short_short_600ms.mp4	180.36519618336683	180.9735135886474	0.6083174052805589				
111.70068359375	0.2	228763	61	5	0	0	0	61	136	stimuli\Videos_short_600ms_horflip\51.repeated_touch_with_hammer_short_horflip_short_600ms.mp4	51.repeated_touch_with_hammer_short_horflip_short_600ms.mp4	181.16517454193783	181.7734737660719	0.6082992241340435				
112.50048828125	0.2	230401	62	5	0	0	0	62	224	stimuli\Videos_short_600ms_horvertflip\5.repeated_tap_with_finger_moving_from_top_to_bottom_short_horvertflip_short_600ms.mp4	5.repeated_tap_with_finger_moving_from_top_to_bottom_short_horvertflip_short_600ms.mp4	181.965156126196	182.57346004223905	0.6083039160430417				
113.30078125	0.2	232040	63	5	0	0	0	63	62	stimuli\Videos_short_600ms\66.stroke_top_to_bottom_with_sponge_short_short_600ms.mp4	66.stroke_top_to_bottom_with_sponge_short_short_600ms.mp4	182.76513829694272	183.373462153598	0.6083238566552609				
114.1005859375	0.2	233678	64	5	0	0	0	64	113	stimuli\Videos_short_600ms_horflip\30.finger_pulling_back_another_finger_short_horflip_short_600ms.mp4	30.finger_pulling_back_another_finger_short_horflip_short_600ms.mp4	183.5651175352466	184.17343933919145	0.6083218039448184				
114.900390625	0.2	235316	65	5	0	0	0	65	116	stimuli\Videos_short_600ms_horflip\33.scratch_top_to_bottom_with_scissors_short_horflip_short_600ms.mp4	33.scratch_top_to_bottom_with_scissors_short_horflip_short_600ms.mp4	184.3651011722147	184.97342092344957	0.6083197512348306				
115.70068359375	0.2	236955	66	5	0	0	0	66	303	stimuli\Videos_short_600ms_vertflip\4.repeated_tap_with_finger_slow_short_vertflip_short_600ms.mp4	4.repeated_tap_with_finger_slow_short_vertflip_short_600ms.mp4	185.16508187674003	185.77340045499773	0.6083185782576948				
116.50048828125	0.2	238593	67	5	0	0	0	67	349	stimuli\Videos_short_600ms_vertflip\81.single_stroke_top_to_bottom_with_cotton_pad_short_vertflip_short_600ms.mp4	81.single_stroke_top_to_bottom_with_cotton_pad_short_vertflip_short_600ms.mp4	185.9650628745096	186.5733817460116	0.6083188715019787				
117.30029296875	0.2	240231	68	5	0	0	0	68	348	stimuli\Videos_short_600ms_vertflip\80.stroke_with_sharp_stick_all_over_the_hand_short_vertflip_short_600ms.mp4	80.stroke_with_sharp_stick_all_over_the_hand_short_vertflip_short_600ms.mp4	186.7650453385006	187.37336538297973	0.6083200444791146				
118.1005859375	0.2	241870	69	5	0	0	0	69	83	stimuli\Videos_short_600ms\85.touch_top_to_bottom_with_fabric_short_short_600ms.mp4	85.touch_top_to_bottom_with_fabric_short_short_600ms.mp4	187.5650263362702	188.1733425685736	0.608316232303423				
118.900390625	0.2	243508	70	5	0	0	0	70	270	stimuli\Videos_short_600ms_vertflip\1.repeated_touch_with_finger_fast_short_vertflip_short_600ms.mp4	1.repeated_touch_with_finger_fast_short_vertflip_short_600ms.mp4	188.3650129056816	188.97335113130725	0.60833822562563				
119.7001953125	0.2	245146	71	5	0	0	0	71	167	stimuli\Videos_short_600ms_horflip\8.single_touch_with_hairbrush_short_horflip_short_600ms.mp4	8.single_touch_with_hairbrush_short_horflip_short_600ms.mp4	189.1649821736794	189.7733306628554	0.6083484891760236				
120.50048828125	0.2	246785	72	5	0	0	0	72	256	stimuli\Videos_short_600ms_horvertflip\79.long_with_soft_brush_all_over_the_hand_short_horvertflip_short_600ms.mp4	79.long_with_soft_brush_all_over_the_hand_short_horvertflip_short_600ms.mp4	189.96494469705817	190.5733113673807	0.608366670322539				
121.30029296875	0.2	248423	73	5	0	0	0	73	79	stimuli\Videos_short_600ms\81.single_stroke_top_to_bottom_with_cotton_pad_short_short_600ms.mp4	81.single_stroke_top_to_bottom_with_cotton_pad_short_short_600ms.mp4	190.76494446246284	191.373292071906	0.6083476094431717				
122.10009765625	0.2	250061	74	5	0	0	0	74	94	stimuli\Videos_short_600ms_horflip\13.single_touch_with_pen_short_horflip_short_600ms.mp4	13.single_touch_with_pen_short_horflip_short_600ms.mp4	191.56492897916385	192.1732481439101	0.6083191647462627				
122.900390625	0.2	251700	75	5	0	0	0	75	104	stimuli\Videos_short_600ms_horflip\22.single_touch_with_metal_chopstick_short_horflip_short_600ms.mp4	22.single_touch_with_metal_chopstick_short_horflip_short_600ms.mp4	192.36491408235335	192.97323002141252	0.608315939059139				
123.7001953125	0.2	253338	76	5	0	0	0	76	285	stimuli\Videos_short_600ms_vertflip\23.single_push_with_a_spoon_short_vertflip_short_600ms.mp4	23.single_push_with_a_spoon_short_vertflip_short_600ms.mp4	193.16489830581057	193.77320632727356	0.6083080214630172				
124.5	0.2	254976	77	5	0	0	0	77	84	stimuli\Videos_short_600ms\86.touch_top_to_bottom_with_hair_brush_short_short_600ms.mp4	86.touch_top_to_bottom_with_hair_brush_short_short_600ms.mp4	193.9648851684658	194.57318849802027	0.6083033295544737				
125.30029296875	0.2	256615	78	5	0	0	0	78	168	stimuli\Videos_short_600ms_horflip\80.stroke_with_sharp_stick_all_over_the_hand_short_horflip_short_600ms.mp4	80.stroke_with_sharp_stick_all_over_the_hand_short_horflip_short_600ms.mp4	194.764853849975	195.37316802956843	0.6083141795934353				
126.10009765625	0.2	258253	79	5	0	0	0	79	326	stimuli\Videos_short_600ms_vertflip\60.single_push_with_tip_of_pencil_short_vertflip_short_600ms.mp4	60.single_push_with_tip_of_pencil_short_vertflip_short_600ms.mp4	195.5648480437378	196.1731613435984	0.6083132998605834				
126.900390625	0.2	259892	80	5	0	0	0	80	258	stimuli\Videos_short_600ms_horvertflip\80.stroke_with_sharp_stick_all_over_the_hand_short_horvertflip_short_600ms.mp4	80.stroke_with_sharp_stick_all_over_the_hand_short_horvertflip_short_600ms.mp4	196.36478153593157	196.9731317845733	0.6083502486417274				
127.7001953125	0.2	261530	81	5	0	0	0	81	75	stimuli\Videos_short_600ms\78.single_stroke_top_to_bottom_with_soft_brush_short_short_600ms.mp4	78.single_stroke_top_to_bottom_with_soft_brush_short_short_600ms.mp4	197.1647994824823	197.77310691745672	0.6083074349744493				
128.5	0.2	263168	82	5	0	0	0	82	237	stimuli\Videos_short_600ms_horvertflip\61.single_hit_with_rolling_pin_short_horvertflip_short_600ms.mp4	61.single_hit_with_rolling_pin_short_horvertflip_short_600ms.mp4	197.96477696132047	198.57309553957816	0.6083185782576948				
129.30029296875	0.2	264807	83	5	0	0	0	83	36	stimuli\Videos_short_600ms\42.single_slap_with_plastic_whisk_short_short_600ms.mp4	42.single_slap_with_plastic_whisk_short_short_600ms.mp4	198.76475766584576	199.3730900265853	0.6083323607394959				
130.10009765625	0.2	266445	84	5	0	0	0	84	238	stimuli\Videos_short_600ms_horvertflip\62.touch_top_to_bottom_with_scissors_short_horvertflip_short_600ms.mp4	62.touch_top_to_bottom_with_scissors_short_horvertflip_short_600ms.mp4	199.5647413028139	200.17305929458303	0.6083179917691268				
130.89990234375	0.2	268083	85	5	0	0	1	85	370	stimuli\Targets_short_600ms_horflip\hand-pinch_short_horflip_short_600ms.mp4	hand-pinch_short_horflip_short_600ms.mp4	200.36472142085063	200.9730435180402	0.6083220971895571				
131.7001953125	0.2	269722	86	5	0	0	0	86	279	stimuli\Videos_short_600ms_vertflip\18.single_stroke_from_top_to_bottom_with_rolling_pin_short_vertflip_short_600ms.mp4	18.single_stroke_from_top_to_bottom_with_rolling_pin_short_vertflip_short_600ms.mp4	201.16470124564307	201.77302187661076	0.6083206309676825				
132.5	0.2	271360	87	5	0	0	0	87	10	stimuli\Videos_short_600ms\19.single_touch_with_rolling_pin_short_short_600ms.mp4	19.single_touch_with_rolling_pin_short_short_600ms.mp4	201.9646851758555	202.57298821216568	0.6083030363101898				
133.2998046875	0.2	272998	88	5	0	0	0	88	52	stimuli\Videos_short_600ms\57.single_touch_with_nail_file_short_short_600ms.mp4	57.single_touch_with_nail_file_short_short_600ms.mp4	202.7646685195798	203.37298181943993	0.6083132998601286				
134.10009765625	0.2	274637	89	5	0	0	0	89	298	stimuli\Videos_short_600ms_vertflip\35.single_punch_with_hand_short_vertflip_short_600ms.mp4	35.single_punch_with_hand_short_vertflip_short_600ms.mp4	203.5646462916618	204.17296428343093	0.6083179917691268				
134.89990234375	0.2	276275	90	5	0	0	0	90	229	stimuli\Videos_short_600ms_horvertflip\54.repeated_touch_with_knife_short_horvertflip_short_600ms.mp4	54.repeated_touch_with_knife_short_horvertflip_short_600ms.mp4	204.36462377049995	204.97294586768908	0.6083220971891024				
135.69970703125	0.2	277913	91	5	0	0	0	91	46	stimuli\Videos_short_600ms\51.repeated_touch_with_hammer_short_short_600ms.mp4	51.repeated_touch_with_hammer_short_short_600ms.mp4	205.1645851209016	205.7729271587034	0.6083420378017763				
136.5	0.2	279552	92	5	0	0	0	92	44	stimuli\Videos_short_600ms\5.repeated_tap_with_finger_moving_from_top_to_bottom_short_short_600ms.mp4	5.repeated_tap_with_finger_moving_from_top_to_bottom_short_short_600ms.mp4	205.96458928497057	206.57291079567153	0.6083215107009892				
137.2998046875	0.2	281190	93	5	0	0	0	93	194	stimuli\Videos_short_600ms_horvertflip\22.single_touch_with_metal_chopstick_short_horvertflip_short_600ms.mp4	22.single_touch_with_metal_chopstick_short_horvertflip_short_600ms.mp4	206.76456735029728	207.37288768802068	0.6083203377233986	4.0	4.0	3.069363419415822	1.0
174.32373046875	0.2	357015	94	5	1	0	0	0	288	stimuli\Videos_short_600ms_vertflip\26.single_touch_with_a_blunt_syringe_short_vertflip_short_600ms.mp4	26.single_touch_with_a_blunt_syringe_short_vertflip_short_600ms.mp4	244.58867766176377	245.19700503735044	0.6083273755866685				
175.12353515625	0.2	358653	95	5	1	0	0	1	4	stimuli\Videos_short_600ms\13.single_touch_with_pen_short_short_600ms.mp4	13.single_touch_with_pen_short_short_600ms.mp4	245.38865690006764	245.99697665130248	0.6083197512348306				
175.923828125	0.2	360292	96	5	1	0	1	2	366	stimuli\Targets_short_600ms_horflip\brush-stroke_short_horflip_short_600ms.mp4	brush-stroke_short_horflip_short_600ms.mp4	246.1886399505472	246.7969690855996	0.6083291350523723				
176.7236328125	0.2	361930	97	5	1	0	0	3	82	stimuli\Videos_short_600ms\84.single_touch_with_cotton_bud_short_short_600ms.mp4	84.single_touch_with_cotton_bud_short_short_600ms.mp4	246.98862182804965	247.5969421657735	0.6083203377238533				
177.5234375	0.2	363568	98	5	1	0	0	4	9	stimuli\Videos_short_600ms\18.single_stroke_from_top_to_bottom_with_rolling_pin_short_short_600ms.mp4	18.single_stroke_from_top_to_bottom_with_rolling_pin_short_short_600ms.mp4	247.78860047986495	248.39692140407692	0.6083209242119665				
178.32373046875	0.2	365207	99	5	1	0	0	5	43	stimuli\Videos_short_600ms\49.repeated_slap_with_hand_short_short_600ms.mp4	49.repeated_slap_with_hand_short_short_600ms.mp4	248.5885838235888	249.19690210860225	0.6083182850134108				
179.12353515625	0.2	366845	100	5	1	0	0	6	37	stimuli\Videos_short_600ms\43.touch_top_to_bottom_with_sharp_wooden_stick_short_short_600ms.mp4	43.touch_top_to_bottom_with_sharp_wooden_stick_short_short_600ms.mp4	249.38856423486985	249.99688369286037	0.6083194579905467				
179.92333984375	0.2	368483	101	5	1	0	0	7	11	stimuli\Videos_short_600ms\2.single_touch_with_finger_short_short_600ms.mp4	2.single_touch_with_finger_short_short_600ms.mp4	250.18854611237225	250.7968664500961	0.6083203377238533				
180.7236328125	0.2	370122	102	5	1	0	0	8	267	stimuli\Videos_short_600ms_horvertflip\89.single_touch_with_plastic_brush_short_horvertflip_short_600ms.mp4	89.single_touch_with_plastic_brush_short_horvertflip_short_600ms.mp4	250.9885074627739	251.5968436356895	0.6083361729156422				
181.5234375	0.2	371760	103	5	1	0	0	9	53	stimuli\Videos_short_600ms\58.single_slap_with_pencil_short_short_600ms.mp4	58.single_slap_with_pencil_short_short_600ms.mp4	251.78850341600287	252.3968263929248	0.6083229769219543				
182.3232421875	0.2	373398	104	5	1	0	1	10	380	stimuli\Targets_short_600ms_vertflip\chopstickwood-tap_short_horvertflip_short_600ms.mp4	chopstickwood-tap_short_horvertflip_short_600ms.mp4	252.5884855867496	253.19681149611483	0.6083259093652487				
183.12353515625	0.2	375037	105	5	1	0	0	11	5	stimuli\Videos_short_600ms\14.repeated_touch_with_pencil_short_short_600ms.mp4	14.repeated_touch_with_pencil_short_short_600ms.mp4	253.3884677574963	253.99678780197544	0.6083200444791146				
183.92333984375	0.2	376675	106	5	1	0	0	12	345	stimuli\Videos_short_600ms_vertflip\78.single_stroke_top_to_bottom_with_soft_brush_short_vertflip_short_600ms.mp4	78.single_stroke_top_to_bottom_with_soft_brush_short_vertflip_short_600ms.mp4	254.1884534471744	254.79678140925012	0.6083279620756912				
184.72314453125	0.2	378313	107	5	1	0	0	13	156	stimuli\Videos_short_600ms_horflip\7.repeated_touch_with_hairbrush_short_horflip_short_600ms.mp4	7.repeated_touch_with_hairbrush_short_horflip_short_600ms.mp4	254.98845145311336	255.59673132312423	0.6082798700108469				
185.5234375	0.2	379952	108	5	1	0	0	14	216	stimuli\Videos_short_600ms_horvertflip\42.single_slap_with_plastic_whisk_short_horvertflip_short_600ms.mp4	42.single_slap_with_plastic_whisk_short_horvertflip_short_600ms.mp4	255.78841896164545	256.39673929936885	0.6083203377233986				
186.3232421875	0.2	381590	109	5	1	0	1	15	373	stimuli\Targets_short_600ms_horvertflip\chopstick-silver-tap_short_vertflip_short_600ms.mp4	chopstick-silver-tap_short_vertflip_short_600ms.mp4	256.5883926283075	257.19670798087805	0.6083153525705711				
187.123046875	0.2	383228	110	5	1	0	0	16	59	stimuli\Videos_short_600ms\63.stroke_top_to_bottom_with_screwdriver_short_short_600ms.mp4	63.stroke_top_to_bottom_with_screwdriver_short_short_600ms.mp4	257.3883847693603	257.9966892718919	0.6083045025316096				
187.92333984375	0.2	384867	111	5	1	0	0	17	322	stimuli\Videos_short_600ms_vertflip\57.single_touch_with_nail_file_short_vertflip_short_600ms.mp4	57.single_touch_with_nail_file_short_vertflip_short_600ms.mp4	258.18835609006805	258.7966752548148	0.6083191647467174				
188.72314453125	0.2	386505	112	5	1	0	0	18	193	stimuli\Videos_short_600ms_horvertflip\21.repeated_touch_with_metal_chopstick_short_horvertflip_short_600ms.mp4	21.repeated_touch_with_metal_chopstick_short_horvertflip_short_600ms.mp4	258.9883373810819	259.5966568390729	0.6083194579910014				
189.52294921875	0.2	388143	113	5	1	0	0	19	228	stimuli\Videos_short_600ms_horvertflip\53.touch_top_to_bottom_with_knife_short_horvertflip_short_600ms.mp4	53.touch_top_to_bottom_with_knife_short_horvertflip_short_600ms.mp4	259.78831779236293	260.39664223550676	0.6083244431438288				
190.3232421875	0.2	389782	114	5	1	0	0	20	146	stimuli\Videos_short_600ms_horflip\60.single_push_with_tip_of_pencil_short_horflip_short_600ms.mp4	60.single_push_with_tip_of_pencil_short_horflip_short_600ms.mp4	260.58830025635393	261.1966188346121	0.6083185782581495				
191.123046875	0.2	391420	115	5	1	0	0	21	51	stimuli\Videos_short_600ms\56.repeated_touch_with_nail_file_short_short_600ms.mp4	56.repeated_touch_with_nail_file_short_short_600ms.mp4	261.38827890816924	261.9966098026878	0.6083308945185308				
191.9228515625	0.2	393058	116	5	1	0	0	22	69	stimuli\Videos_short_600ms\72.(short)stroke_with_finger_all_over_the_hand_short_short_600ms.mp4	72.(short)stroke_with_finger_all_over_the_hand_short_short_600ms.mp4	262.1882607856717	262.7965817098841	0.6083209242124212				
192.72314453125	0.2	394697	117	5	1	0	0	23	180	stimuli\Videos_short_600ms_horvertflip\1.repeated_touch_with_finger_fast_short_horvertflip_short_600ms.mp4	1.repeated_touch_with_finger_fast_short_horvertflip_short_600ms.mp4	262.9882432496627	263.59656300089796	0.6083197512352854				
193.52294921875	0.2	396335	118	5	1	0	0	24	291	stimuli\Videos_short_600ms_vertflip\29.single_pinch_with_tweezers_short_vertflip_short_600ms.mp4	29.single_pinch_with_tweezers_short_vertflip_short_600ms.mp4	263.7882236609437	264.3965431189347	0.6083194579910014				
194.32275390625	0.2	397973	119	5	1	0	0	25	211	stimuli\Videos_short_600ms_horvertflip\38.double_slap_with_pencil_short_horvertflip_short_600ms.mp4	38.double_slap_with_pencil_short_horvertflip_short_600ms.mp4	264.5882169749741	265.19652382346	0.6083068484858813				
195.123046875	0.2	399612	120	5	1	0	0	26	99	stimuli\Videos_short_600ms_horflip\18.single_stroke_from_top_to_bottom_with_rolling_pin_short_horflip_short_600ms.mp4	18.single_stroke_from_top_to_bottom_with_rolling_pin_short_horflip_short_600ms.mp4	265.38818536323856	265.9965080469167	0.608322683678125				
195.9228515625	0.2	401250	121	5	1	0	0	27	265	stimuli\Videos_short_600ms_horvertflip\87.single_stroke_top_to_bottom_with_plastic_brush_short_horvertflip_short_600ms.mp4	87.single_stroke_top_to_bottom_with_plastic_brush_short_horvertflip_short_600ms.mp4	266.1881634285653	266.7964849392663	0.6083215107009892				
196.72314453125	0.2	402889	122	5	1	0	0	28	32	stimuli\Videos_short_600ms\39.single_stab_with_scissors_short_short_600ms.mp4	39.single_stab_with_scissors_short_short_600ms.mp4	266.988145599312	267.5964668167687	0.6083212174567052				
197.52294921875	0.2	404527	123	5	1	0	0	29	124	stimuli\Videos_short_600ms_horflip\40.repeated_push_with_finger_short_horflip_short_600ms.mp4	40.repeated_push_with_finger_short_horflip_short_600ms.mp4	267.788136860632	268.3964481077826	0.6083112471505956				
198.32275390625	0.2	406165	124	5	1	0	0	30	158	stimuli\Videos_short_600ms_horflip\71.single_stroke_with_finger_top_to_bottom_short_horflip_short_600ms.mp4	71.single_stroke_with_finger_top_to_bottom_short_horflip_short_600ms.mp4	268.588085601529	269.1964258798646	0.6083402783356178				
199.123046875	0.2	407804	125	5	1	0	0	31	90	stimuli\Videos_short_600ms_horflip\1.repeated_touch_with_finger_fast_short_horflip_short_600ms.mp4	1.repeated_touch_with_finger_fast_short_horflip_short_600ms.mp4	269.3881182102948	269.9964089303446	0.6082907200498084				
199.9228515625	0.2	409442	126	5	1	0	0	32	23	stimuli\Videos_short_600ms\30.finger_pulling_back_another_finger_short_short_600ms.mp4	30.finger_pulling_back_another_finger_short_short_600ms.mp4	270.1880734025665	270.7963916875799	0.6083182850134108				
200.72265625	0.2	411080	127	5	1	0	0	33	220	stimuli\Videos_short_600ms_horvertflip\46.scratching_top_to_bottom_with_finger_nails_short_horvertflip_short_600ms.mp4	46.scratching_top_to_bottom_with_finger_nails_short_horvertflip_short_600ms.mp4	270.9880614381989	271.596347759584	0.6082863213850942				
201.52294921875	0.2	412719	128	5	1	0	0	34	337	stimuli\Videos_short_600ms_vertflip\70.(long)stroke_with_finger_all_over_the_hand_short_vertflip_short_600ms.mp4	70.(long)stroke_with_finger_all_over_the_hand_short_vertflip_short_600ms.mp4	271.78803745081564	272.39634752498864	0.608310074173005				
202.32275390625	0.2	414357	129	5	1	0	0	35	225	stimuli\Videos_short_600ms_horvertflip\50.single_(long)hard_push_with_thumb_short_horvertflip_short_600ms.mp4	50.single_(long)hard_push_with_thumb_short_horvertflip_short_600ms.mp4	272.58801610263095	273.1963305754682	0.6083144728372645				
203.12255859375	0.2	415995	130	5	1	0	0	36	192	stimuli\Videos_short_600ms_horvertflip\20.single_touch_with_screwdriver_short_horvertflip_short_600ms.mp4	20.single_touch_with_screwdriver_short_horvertflip_short_600ms.mp4	273.3879971004005	273.9963162651468	0.6083191647462627				
203.9228515625	0.2	417634	131	5	1	0	0	37	328	stimuli\Videos_short_600ms_vertflip\62.touch_top_to_bottom_with_scissors_short_vertflip_short_600ms.mp4	62.touch_top_to_bottom_with_scissors_short_vertflip_short_600ms.mp4	274.1879956928276	274.7962966764278	0.608300983600202				
204.72265625	0.2	419272	132	5	1	0	0	38	343	stimuli\Videos_short_600ms_vertflip\76.tickle_with_fingers_from_top_to_bottom_short_vertflip_short_600ms.mp4	76.tickle_with_fingers_from_top_to_bottom_short_vertflip_short_600ms.mp4	274.9879588026954	275.59628441881637	0.6083256161209647				
205.5224609375	0.2	420910	133	5	1	0	0	39	119	stimuli\Videos_short_600ms_horflip\36.single_slap_with_full_hand_short_horflip_short_600ms.mp4	36.single_slap_with_full_hand_short_horflip_short_600ms.mp4	275.78794185317497	276.3962595516998	0.6083176985248429				
206.32275390625	0.2	422549	134	5	1	0	1	40	367	stimuli\Targets_short_600ms_horflip\chopstick-silver-tap_short_horflip_short_600ms.mp4	chopstick-silver-tap_short_horflip_short_600ms.mp4	276.5879219712117	277.19624142920225	0.6083194579905467				
207.12255859375	0.2	424187	135	5	1	0	0	41	140	stimuli\Videos_short_600ms_horflip\55.touch_top_to_bottom_with_nail_file_short_horflip_short_600ms.mp4	55.touch_top_to_bottom_with_nail_file_short_horflip_short_600ms.mp4	277.38790326222556	277.9962212539947	0.6083179917691268				
207.92236328125	0.2	425825	136	5	1	0	0	42	332	stimuli\Videos_short_600ms_vertflip\66.stroke_top_to_bottom_with_sponge_short_vertflip_short_600ms.mp4	66.stroke_top_to_bottom_with_sponge_short_vertflip_short_600ms.mp4	278.187885139728	278.7962031314971	0.6083179917691268				
208.72265625	0.2	427464	137	5	1	0	0	43	334	stimuli\Videos_short_600ms_vertflip\68.stroke_top_to_bottom_with_shawl_short_vertflip_short_600ms.mp4	68.stroke_top_to_bottom_with_shawl_short_vertflip_short_600ms.mp4	278.98786643074186	279.5961838360224	0.6083174052805589				
209.5224609375	0.2	429102	138	5	1	0	0	44	73	stimuli\Videos_short_600ms\76.tickle_with_fingers_from_top_to_bottom_short_short_600ms.mp4	76.tickle_with_fingers_from_top_to_bottom_short_short_600ms.mp4	279.78784097713674	280.39616424730343	0.608323270166693				
210.322265625	0.2	430740	139	5	1	0	0	45	72	stimuli\Videos_short_600ms\75.(long)stroke_with_fingers_all_over_the_hand_short_short_600ms.mp4	75.(long)stroke_with_fingers_all_over_the_hand_short_short_600ms.mp4	280.5878287195253	281.19614465858444	0.608315939059139				
211.12255859375	0.2	432379	140	5	1	0	0	46	34	stimuli\Videos_short_600ms\40.repeated_push_with_finger_short_short_600ms.mp4	40.repeated_push_with_finger_short_short_600ms.mp4	281.38781001053917	281.9961265360869	0.608316525547707				
211.92236328125	0.2	434017	141	5	1	0	0	47	143	stimuli\Videos_short_600ms_horflip\58.single_slap_with_pencil_short_horflip_short_600ms.mp4	58.single_slap_with_pencil_short_horflip_short_600ms.mp4	282.18778426368976	282.79610782710074	0.6083235634109769				
212.72216796875	0.2	435655	142	5	1	0	0	48	122	stimuli\Videos_short_600ms_horflip\39.single_stab_with_scissors_short_horflip_short_600ms.mp4	39.single_stab_with_scissors_short_horflip_short_600ms.mp4	282.9877702466126	283.59608794513747	0.6083176985248429				
213.5224609375	0.2	437294	143	5	1	0	0	49	301	stimuli\Videos_short_600ms_vertflip\38.double_slap_with_pencil_short_vertflip_short_600ms.mp4	38.double_slap_with_pencil_short_vertflip_short_600ms.mp4	283.78776444037544	284.3960698226399	0.6083053822644615				
214.322265625	0.2	438932	144	5	1	0	1	50	362	stimuli\Targets_short_600ms\chopstickwood-tap_short_short_600ms.mp4	chopstickwood-tap_short_short_600ms.mp4	284.58773253539607	285.1960464217452	0.6083138863491513				
215.12255859375	0.2	440571	145	5	1	0	0	51	66	stimuli\Videos_short_600ms\7.repeated_touch_with_hairbrush_short_short_600ms.mp4	7.repeated_touch_with_hairbrush_short_short_600ms.mp4	285.3877179318299	285.9960312316905	0.6083132998605834				
215.92236328125	0.2	442209	146	5	1	0	1	52	375	stimuli\Targets_short_600ms_horvertflip\finger-tap_short_vertflip_short_600ms.mp4	finger-tap_short_vertflip_short_600ms.mp4	286.18772297563214	286.79601662812433	0.6082936524921934				
216.72216796875	0.2	443847	147	5	1	0	0	53	115	stimuli\Videos_short_600ms_horflip\32.single_(long)pinch_with_fingers_short_horflip_short_600ms.mp4	32.single_(long)pinch_with_fingers_short_horflip_short_600ms.mp4	286.9876981085156	287.5959668352432	0.6082687267276015				
217.5224609375	0.2	445486	148	5	1	0	0	54	86	stimuli\Videos_short_600ms\88.repeated_stroke_with_plastic_brush_short_short_600ms.mp4	88.repeated_stroke_with_plastic_brush_short_short_600ms.mp4	287.7876559399858	288.395969826335	0.6083138863491513				
218.322265625	0.2	447124	149	5	1	0	0	55	65	stimuli\Videos_short_600ms\69.stroke_with_soft_sock_short_short_600ms.mp4	69.stroke_with_soft_sock_short_short_600ms.mp4	288.5876369377554	289.1959519970817	0.6083150593262872				
219.1220703125	0.2	448762	150	5	1	0	0	56	299	stimuli\Videos_short_600ms_vertflip\36.single_slap_with_full_hand_short_vertflip_short_600ms.mp4	36.single_slap_with_full_hand_short_vertflip_short_600ms.mp4	289.38761676254785	289.9959400327141	0.6083232701662382				
219.92236328125	0.2	450401	151	5	1	0	0	57	283	stimuli\Videos_short_600ms_vertflip\21.repeated_touch_with_metal_chopstick_short_vertflip_short_600ms.mp4	21.repeated_touch_with_metal_chopstick_short_vertflip_short_600ms.mp4	290.1875986400503	290.79591956426225	0.6083209242119665				
220.72216796875	0.2	452039	152	5	1	0	0	58	340	stimuli\Videos_short_600ms_vertflip\73.single_stroke_with_flat_hand_short_vertflip_short_600ms.mp4	73.single_stroke_with_flat_hand_short_vertflip_short_600ms.mp4	290.98758520946126	291.5959052539408	0.6083200444795693				
221.52197265625	0.2	453677	153	5	1	0	0	59	27	stimuli\Videos_short_600ms\34.repeated_punch_with_hand_short_short_600ms.mp4	34.repeated_punch_with_hand_short_short_600ms.mp4	291.7875600491009	292.3958818530457	0.6083218039448184				
222.322265625	0.2	455316	154	5	1	0	0	60	78	stimuli\Videos_short_600ms\80.stroke_with_sharp_stick_all_over_the_hand_short_short_600ms.mp4	80.stroke_with_sharp_stick_all_over_the_hand_short_short_600ms.mp4	292.587547791489	293.195860504861	0.6083127133720154				
223.1220703125	0.2	456954	155	5	1	0	0	61	6	stimuli\Videos_short_600ms\15.single_stroke_top_to_bottom_with_a_plastic_whisk_short_short_600ms.mp4	15.single_stroke_top_to_bottom_with_a_plastic_whisk_short_short_600ms.mp4	293.3875243905943	293.99584032965345	0.608315939059139				
223.921875	0.2	458592	156	5	1	0	0	62	105	stimuli\Videos_short_600ms_horflip\23.single_push_with_a_spoon_short_horflip_short_600ms.mp4	23.single_push_with_a_spoon_short_horflip_short_600ms.mp4	294.18750626809674	294.79582601933157	0.6083197512348306				
224.72216796875	0.2	460231	157	5	1	0	0	63	295	stimuli\Videos_short_600ms_vertflip\32.single_(long)pinch_with_fingers_short_vertflip_short_600ms.mp4	32.single_(long)pinch_with_fingers_short_vertflip_short_600ms.mp4	294.9874899050649	295.59580496439116	0.6083150593262872				
225.52197265625	0.2	461869	158	5	1	0	0	64	286	stimuli\Videos_short_600ms_vertflip\24.single_stroke_top_to_bottom_with_a_spoon_short_vertflip_short_600ms.mp4	24.single_stroke_top_to_bottom_with_a_spoon_short_vertflip_short_600ms.mp4	295.78746885012447	296.39578566891646	0.608316818791991				
226.32177734375	0.2	463507	159	5	1	0	0	65	307	stimuli\Videos_short_600ms_vertflip\43.touch_top_to_bottom_with_sharp_wooden_stick_short_vertflip_short_600ms.mp4	43.touch_top_to_bottom_with_sharp_wooden_stick_short_vertflip_short_600ms.mp4	296.58748005205666	297.19576842615174	0.608288374095082				
227.1220703125	0.2	465146	160	5	1	0	1	66	372	stimuli\Targets_short_600ms_horvertflip\brush-stroke_short_vertflip_short_600ms.mp4	brush-stroke_short_vertflip_short_600ms.mp4	297.38744726734444	297.9957479576999	0.6083006903554633				
227.921875	0.2	466784	161	5	1	0	0	67	330	stimuli\Videos_short_600ms_vertflip\64.repeated_touch_with_screwdriver_short_vertflip_short_600ms.mp4	64.repeated_touch_with_screwdriver_short_vertflip_short_600ms.mp4	298.18740568530325	298.79570373646015	0.6082980511569076				
228.7216796875	0.2	468422	162	5	1	0	0	68	38	stimuli\Videos_short_600ms\44.pushing_top_to_bottom_with_finger_short_short_600ms.mp4	44.pushing_top_to_bottom_with_finger_short_short_600ms.mp4	298.9873869763171	299.59571053972763	0.6083235634105222				
229.52197265625	0.2	470061	163	5	1	0	0	69	29	stimuli\Videos_short_600ms\36.single_slap_with_full_hand_short_short_600ms.mp4	36.single_slap_with_full_hand_short_short_600ms.mp4	299.78737911736994	300.39569388345194	0.6083147660820032				
230.32177734375	0.2	471699	164	5	1	0	0	70	255	stimuli\Videos_short_600ms_horvertflip\78.single_stroke_top_to_bottom_with_soft_brush_short_horvertflip_short_600ms.mp4	78.single_stroke_top_to_bottom_with_soft_brush_short_horvertflip_short_600ms.mp4	300.5873738976213	301.19566784335825	0.6082939457369321				
231.12158203125	0.2	473337	165	5	1	0	0	71	347	stimuli\Videos_short_600ms_vertflip\8.single_touch_with_hairbrush_short_vertflip_short_600ms.mp4	8.single_touch_with_hairbrush_short_vertflip_short_600ms.mp4	301.3873428723748	301.99565236005924	0.608309487684437				
231.921875	0.2	474976	166	5	1	0	0	72	287	stimuli\Videos_short_600ms_vertflip\25.single_touch_with_stanley_knife_short_vertflip_short_600ms.mp4	25.single_touch_with_stanley_knife_short_vertflip_short_600ms.mp4	302.18731419308256	302.79562925240884	0.6083150593262872				
232.7216796875	0.2	476614	167	5	1	0	0	73	341	stimuli\Videos_short_600ms_vertflip\74.fingers_walking_from_top_to_bottom_short_vertflip_short_600ms.mp4	74.fingers_walking_from_top_to_bottom_short_vertflip_short_600ms.mp4	302.9873101463111	303.5955882568562	0.6082781105451431				
233.52197265625	0.2	478253	168	5	1	0	0	74	251	stimuli\Videos_short_600ms_horvertflip\74.fingers_walking_from_top_to_bottom_short_horvertflip_short_600ms.mp4	74.fingers_walking_from_top_to_bottom_short_horvertflip_short_600ms.mp4	303.78727589537743	304.3955965263451	0.6083206309676825				
234.32177734375	0.2	479891	169	5	1	0	0	75	35	stimuli\Videos_short_600ms\41.injection_with_blunt_syringe_short_short_600ms.mp4	41.injection_with_blunt_syringe_short_short_600ms.mp4	304.58725777287987	305.19558309575655	0.6083253228766807				
235.12158203125	0.2	481529	170	5	1	0	0	76	315	stimuli\Videos_short_600ms_vertflip\50.single_(long)hard_push_with_thumb_short_vertflip_short_600ms.mp4	50.single_(long)hard_push_with_thumb_short_vertflip_short_600ms.mp4	305.38725724504025	305.9955605745947	0.6083033295544737				
235.921875	0.2	483168	171	5	1	0	0	77	123	stimuli\Videos_short_600ms_horflip\4.repeated_tap_with_finger_slow_short_horflip_short_600ms.mp4	4.repeated_tap_with_finger_slow_short_horflip_short_600ms.mp4	306.18722094139616	306.7955465575171	0.6083256161209647				
236.7216796875	0.2	484806	172	5	1	0	0	78	150	stimuli\Videos_short_600ms_horflip\64.repeated_touch_with_screwdriver_short_horflip_short_600ms.mp4	64.repeated_touch_with_screwdriver_short_horflip_short_600ms.mp4	306.98719959321147	307.59552169040103	0.6083220971895571				
237.521484375	0.2	486444	173	5	1	0	1	79	379	stimuli\Targets_short_600ms_vertflip\chopstick-silver-tap_short_horvertflip_short_600ms.mp4	chopstick-silver-tap_short_horvertflip_short_600ms.mp4	307.7871800044925	308.39550063546017	0.6083206309676825				
238.32177734375	0.2	488083	174	5	1	0	0	80	306	stimuli\Videos_short_600ms_vertflip\42.single_slap_with_plastic_whisk_short_vertflip_short_600ms.mp4	42.single_slap_with_plastic_whisk_short_vertflip_short_600ms.mp4	308.58716334821634	309.19548427242876	0.6083209242124212				
239.12158203125	0.2	489721	175	5	1	0	0	81	335	stimuli\Videos_short_600ms_vertflip\69.stroke_with_soft_sock_short_vertflip_short_600ms.mp4	69.stroke_with_soft_sock_short_vertflip_short_600ms.mp4	309.3871428797645	309.9954638039769	0.6083209242124212				
239.92138671875	0.2	491359	176	5	1	0	0	82	195	stimuli\Videos_short_600ms_horvertflip\23.single_push_with_a_spoon_short_horvertflip_short_600ms.mp4	23.single_push_with_a_spoon_short_horvertflip_short_600ms.mp4	310.1871271032212	310.7954436287689	0.608316525547707				
240.7216796875	0.2	492998	177	5	1	0	0	83	223	stimuli\Videos_short_600ms_horvertflip\49.repeated_slap_with_hand_short_horvertflip_short_600ms.mp4	49.repeated_slap_with_hand_short_horvertflip_short_600ms.mp4	310.9871054617922	311.5954240400499	0.6083185782576948				
241.521484375	0.2	494636	178	5	1	0	0	84	67	stimuli\Videos_short_600ms\70.(long)stroke_with_finger_all_over_the_hand_short_short_600ms.mp4	70.(long)stroke_with_finger_all_over_the_hand_short_short_600ms.mp4	311.78708411360753	312.39540709052994	0.608322976922409				
242.3212890625	0.2	496274	179	5	1	0	0	85	110	stimuli\Videos_short_600ms_horflip\28.single_injection_with_sharp_needle_short_horflip_short_600ms.mp4	28.single_injection_with_sharp_needle_short_horflip_short_600ms.mp4	312.5870759614161	313.1953872085662	0.6083112471501408				
243.1298828125	0.2	497930	180	5	1	0	0	86	74	stimuli\Videos_short_600ms\77.tapping_with_all_fingers_short_short_600ms.mp4	77.tapping_with_all_fingers_short_short_600ms.mp4	313.3954035715981	314.0037025024883	0.6082989308902143				
243.9296875	0.2	499568	181	5	1	0	0	87	324	stimuli\Videos_short_600ms_vertflip\59.single_push_with_long_side_pencil_short_vertflip_short_600ms.mp4	59.single_push_with_long_side_pencil_short_vertflip_short_600ms.mp4	314.1953640422669	314.8036802745703	0.608316232303423				
244.7294921875	0.2	501206	182	5	1	0	0	88	127	stimuli\Videos_short_600ms_horflip\43.touch_top_to_bottom_with_sharp_wooden_stick_short_horflip_short_600ms.mp4	43.touch_top_to_bottom_with_sharp_wooden_stick_short_horflip_short_600ms.mp4	314.9953465062579	315.603667137226	0.6083206309681373				
245.52978515625	0.2	502845	183	5	1	0	1	89	376	stimuli\Targets_short_600ms_horvertflip\hand-pinch_short_vertflip_short_600ms.mp4	hand-pinch_short_vertflip_short_600ms.mp4	315.7953298499822	316.4036440295756	0.6083141795934353				
246.32958984375	0.2	504483	184	5	1	0	0	90	197	stimuli\Videos_short_600ms_horvertflip\25.single_touch_with_stanley_knife_short_horvertflip_short_600ms.mp4	25.single_touch_with_stanley_knife_short_horvertflip_short_600ms.mp4	316.595288267941	317.2036247341009	0.6083364661599262				
247.12939453125	0.2	506121	185	5	1	0	0	91	244	stimuli\Videos_short_600ms_horvertflip\68.stroke_top_to_bottom_with_shawl_short_horvertflip_short_600ms.mp4	68.stroke_top_to_bottom_with_shawl_short_horvertflip_short_600ms.mp4	317.39526281433587	318.00360543862575	0.6083426242898895				
247.9296875	0.2	507760	186	5	1	0	0	92	102	stimuli\Videos_short_600ms_horflip\20.single_touch_with_screwdriver_short_horflip_short_600ms.mp4	20.single_touch_with_screwdriver_short_horflip_short_600ms.mp4	318.1952514364573	318.8035867296401	0.6083352931827903				
248.7294921875	0.2	509398	187	5	1	0	0	93	329	stimuli\Videos_short_600ms_vertflip\63.stroke_top_to_bottom_with_screwdriver_short_vertflip_short_600ms.mp4	63.stroke_top_to_bottom_with_screwdriver_short_vertflip_short_600ms.mp4	318.99527231545085	319.6035691936311	0.6082968781802265				
249.52978515625	0.2	511037	188	5	1	0	0	94	15	stimuli\Videos_short_600ms\23.single_push_with_a_spoon_short_short_600ms.mp4	23.single_push_with_a_spoon_short_short_600ms.mp4	319.79522310905827	320.4035496049121	0.6083264958538166				
250.32958984375	0.2	512675	189	5	1	0	0	95	226	stimuli\Videos_short_600ms_horvertflip\51.repeated_touch_with_hammer_short_horvertflip_short_600ms.mp4	51.repeated_touch_with_hammer_short_horvertflip_short_600ms.mp4	320.5952228744625	321.2035303094374	0.608307434974904				
251.12939453125	0.2	514313	190	5	1	0	0	96	218	stimuli\Videos_short_600ms_horvertflip\44.pushing_top_to_bottom_with_finger_short_horvertflip_short_600ms.mp4	44.pushing_top_to_bottom_with_finger_short_horvertflip_short_600ms.mp4	321.3951974208578	322.0035074950308	0.608310074173005				
251.9296875	0.2	515952	191	5	1	0	0	97	174	stimuli\Videos_short_600ms_horflip\86.touch_top_to_bottom_with_hair_brush_short_horflip_short_600ms.mp4	86.touch_top_to_bottom_with_hair_brush_short_horflip_short_600ms.mp4	322.1951851632459	322.8034952374194	0.6083100741734597				
252.7294921875	0.2	517590	192	5	1	0	0	98	302	stimuli\Videos_short_600ms_vertflip\39.single_stab_with_scissors_short_vertflip_short_600ms.mp4	39.single_stab_with_scissors_short_vertflip_short_600ms.mp4	322.99515795017555	323.6034706635471	0.6083127133715607	9.0	9.0	3.4290378126793257	1.0
289.4697265625	0.2	592834	193	5	2	0	0	0	170	stimuli\Videos_short_600ms_horflip\82.repeated_touch_with_cotton_bud_short_horflip_short_600ms.mp4	82.repeated_touch_with_cotton_bud_short_horflip_short_600ms.mp4	359.73594905290906	360.3442649919682	0.608315939059139				
290.27001953125	0.2	594473	194	5	2	0	1	1	377	stimuli\Targets_short_600ms_horvertflip\hand-stroke_short_vertflip_short_600ms.mp4	hand-stroke_short_vertflip_short_600ms.mp4	360.5359042451803	361.1442445235159	0.6083402783356178				
291.06982421875	0.2	596111	195	5	2	0	0	2	17	stimuli\Videos_short_600ms\25.single_touch_with_stanley_knife_short_short_600ms.mp4	25.single_touch_with_stanley_knife_short_short_600ms.mp4	361.3359154471125	361.94422464155264	0.6083091944401531				
291.86962890625	0.2	597749	196	5	2	0	1	3	363	stimuli\Targets_short_600ms\finger-tap_short_short_600ms.mp4	finger-tap_short_short_600ms.mp4	362.1358908732402	362.7441854054657	0.6082945322255				
292.669921875	0.2	599388	197	5	2	0	0	4	327	stimuli\Videos_short_600ms_vertflip\61.single_hit_with_rolling_pin_short_vertflip_short_600ms.mp4	61.single_hit_with_rolling_pin_short_vertflip_short_600ms.mp4	362.9358827210488	363.5441933817108	0.6083106606620277				
293.4697265625	0.2	601026	198	5	2	0	0	5	54	stimuli\Videos_short_600ms\59.single_push_with_long_side_pencil_short_short_600ms.mp4	59.single_push_with_long_side_pencil_short_short_600ms.mp4	363.73585609446695	364.34414622802774	0.6082901335607858				
294.26953125	0.2	602664	199	5	2	0	0	6	145	stimuli\Videos_short_600ms_horflip\6.single_touch_with_flat_hand_short_horflip_short_600ms.mp4	6.single_touch_with_flat_hand_short_horflip_short_600ms.mp4	364.53583474628226	365.1441495123638	0.6083147660815484				
295.06982421875	0.2	604303	200	5	2	0	0	7	310	stimuli\Videos_short_600ms_vertflip\46.scratching_top_to_bottom_with_finger_nails_short_vertflip_short_600ms.mp4	46.scratching_top_to_bottom_with_finger_nails_short_vertflip_short_600ms.mp4	365.3358139845857	365.9441217128049	0.608307728219188				
295.86962890625	0.2	605941	201	5	2	0	0	8	117	stimuli\Videos_short_600ms_horflip\34.repeated_punch_with_hand_short_horflip_short_600ms.mp4	34.repeated_punch_with_hand_short_horflip_short_600ms.mp4	366.1357967418214	366.7441135606134	0.608316818791991				
296.669921875	0.2	607580	202	5	2	0	0	9	47	stimuli\Videos_short_600ms\52.touch_top_to_bottom_with_hammer_short_short_600ms.mp4	52.touch_top_to_bottom_with_hammer_short_short_600ms.mp4	366.9357774463467	367.5440980773144	0.6083206309676825				
297.4697265625	0.2	609218	203	5	2	0	0	10	109	stimuli\Videos_short_600ms_horflip\27.single_push_with_a_plastic_whisk_short_horflip_short_600ms.mp4	27.single_push_with_a_plastic_whisk_short_horflip_short_600ms.mp4	367.735758150872	368.34407614264114	0.6083179917691268				
298.26953125	0.2	610856	204	5	2	0	0	11	236	stimuli\Videos_short_600ms_horvertflip\60.single_push_with_tip_of_pencil_short_horvertflip_short_600ms.mp4	60.single_push_with_tip_of_pencil_short_horvertflip_short_600ms.mp4	368.5357362161983	369.1440559674336	0.6083197512352854				
299.06982421875	0.2	612495	205	5	2	0	0	12	157	stimuli\Videos_short_600ms_horflip\70.(long)stroke_with_finger_all_over_the_hand_short_horflip_short_600ms.mp4	70.(long)stroke_with_finger_all_over_the_hand_short_horflip_short_600ms.mp4	369.3357178004565	369.9440384314246	0.6083206309681373				
299.86962890625	0.2	614133	206	5	2	0	0	13	273	stimuli\Videos_short_600ms_vertflip\12.repeated_touch_with_nail_file_short_vertflip_short_600ms.mp4	12.repeated_touch_with_nail_file_short_vertflip_short_600ms.mp4	370.13570319689074	370.74401825621703	0.6083150593262872				
300.66943359375	0.2	615771	207	5	2	0	0	14	294	stimuli\Videos_short_600ms_vertflip\31.hand_grabbing_wrist_short_vertflip_short_600ms.mp4	31.hand_grabbing_wrist_short_vertflip_short_600ms.mp4	370.93568184870605	371.5439980810095	0.608316232303423				
301.4697265625	0.2	617410	208	5	2	0	1	15	361	stimuli\Targets_short_600ms\chopstick-silver-tap_short_short_600ms.mp4	chopstick-silver-tap_short_short_600ms.mp4	371.73566138025376	372.3439787855348	0.6083174052810136				
302.26953125	0.2	619048	209	5	2	0	0	16	49	stimuli\Videos_short_600ms\54.repeated_touch_with_knife_short_short_600ms.mp4	54.repeated_touch_with_knife_short_short_600ms.mp4	372.5356224374116	373.1439612495258	0.6083388121141979				
303.0693359375	0.2	620686	210	5	2	0	1	17	382	stimuli\Targets_short_600ms_vertflip\hand-pinch_short_horvertflip_short_600ms.mp4	hand-pinch_short_horvertflip_short_600ms.mp4	373.33562542850336	373.9439413675625	0.608315939059139				
303.86962890625	0.2	622325	211	5	2	0	0	18	45	stimuli\Videos_short_600ms\50.single_(long)hard_push_with_thumb_short_short_600ms.mp4	50.single_(long)hard_push_with_thumb_short_short_600ms.mp4	374.1356008546311	374.7439220720878	0.6083212174567052				
304.66943359375	0.2	623963	212	5	2	0	0	19	293	stimuli\Videos_short_600ms_vertflip\30.finger_pulling_back_another_finger_short_vertflip_short_600ms.mp4	30.finger_pulling_back_another_finger_short_vertflip_short_600ms.mp4	374.93556161854417	375.543906882033	0.6083452634889				
305.46923828125	0.2	625601	213	5	2	0	0	20	148	stimuli\Videos_short_600ms_horflip\62.touch_top_to_bottom_with_scissors_short_horflip_short_600ms.mp4	62.touch_top_to_bottom_with_scissors_short_horflip_short_600ms.mp4	375.7355886556686	376.3438831878941	0.6082945322255				
306.26953125	0.2	627240	214	5	2	0	0	21	48	stimuli\Videos_short_600ms\53.touch_top_to_bottom_with_knife_short_short_600ms.mp4	53.touch_top_to_bottom_with_knife_short_short_600ms.mp4	376.5355488330931	377.1438641856637	0.6083153525705711				
307.0693359375	0.2	628878	215	5	2	0	0	22	198	stimuli\Videos_short_600ms_horvertflip\26.single_touch_with_a_blunt_syringe_short_horvertflip_short_600ms.mp4	26.single_touch_with_a_blunt_syringe_short_horvertflip_short_600ms.mp4	377.33553804170265	377.9438278820196	0.6082898403169565				
307.869140625	0.2	630516	216	5	2	0	0	23	354	stimuli\Videos_short_600ms_vertflip\86.touch_top_to_bottom_with_hair_brush_short_vertflip_short_600ms.mp4	86.touch_top_to_bottom_with_hair_brush_short_vertflip_short_600ms.mp4	378.1356392696341	378.7438305798671	0.6081913102329963				
308.66943359375	0.2	632155	217	5	2	0	0	24	359	stimuli\Videos_short_600ms_vertflip\90.repeated_touch_with_sponge_short_vertflip_short_600ms.mp4	90.repeated_touch_with_sponge_short_vertflip_short_600ms.mp4	378.9354891872029	379.543807765461	0.6083185782581495				
309.46923828125	0.2	633793	218	5	2	0	0	25	147	stimuli\Videos_short_600ms_horflip\61.single_hit_with_rolling_pin_short_horflip_short_600ms.mp4	61.single_hit_with_rolling_pin_short_horflip_short_600ms.mp4	379.73548250123326	380.34378934971915	0.6083068484858813				
310.26904296875	0.2	635431	219	5	2	0	0	26	87	stimuli\Videos_short_600ms\89.single_touch_with_plastic_brush_short_short_600ms.mp4	89.single_touch_with_plastic_brush_short_short_600ms.mp4	380.5354503030091	381.14374982038794	0.6082995173787822				
311.0693359375	0.2	637070	220	5	2	0	0	27	31	stimuli\Videos_short_600ms\38.double_slap_with_pencil_short_short_600ms.mp4	38.double_slap_with_pencil_short_short_600ms.mp4	381.3354318872673	381.9437522249912	0.6083203377238533				
311.869140625	0.2	638708	221	5	2	0	0	28	112	stimuli\Videos_short_600ms_horflip\3.single_push_with_finger_short_horflip_short_600ms.mp4	3.single_push_with_finger_short_horflip_short_600ms.mp4	382.13541347152545	382.74373087680647	0.6083174052810136				
312.6689453125	0.2	640346	222	5	2	0	0	29	103	stimuli\Videos_short_600ms_horflip\21.repeated_touch_with_metal_chopstick_short_horflip_short_600ms.mp4	21.repeated_touch_with_metal_chopstick_short_horflip_short_600ms.mp4	382.9353930030736	383.5437230178593	0.6083300147856789				
313.46923828125	0.2	641985	223	5	2	0	0	30	20	stimuli\Videos_short_600ms\28.single_injection_with_sharp_needle_short_short_600ms.mp4	28.single_injection_with_sharp_needle_short_short_600ms.mp4	383.7353748805761	384.343691699368	0.608316818791991				
314.26904296875	0.2	643623	224	5	2	0	0	31	196	stimuli\Videos_short_600ms_horvertflip\24.single_stroke_top_to_bottom_with_a_spoon_short_horvertflip_short_600ms.mp4	24.single_stroke_top_to_bottom_with_a_spoon_short_horvertflip_short_600ms.mp4	384.5353564648342	385.1436744566038	0.6083179917695816				
315.0693359375	0.2	645262	225	5	2	0	0	32	266	stimuli\Videos_short_600ms_horvertflip\88.repeated_stroke_with_plastic_brush_short_horvertflip_short_600ms.mp4	88.repeated_stroke_with_plastic_brush_short_horvertflip_short_600ms.mp4	385.33533570313807	385.94365545437336	0.6083197512352854				
315.869140625	0.2	646900	226	5	2	0	0	33	234	stimuli\Videos_short_600ms_horvertflip\59.single_push_with_long_side_pencil_short_horvertflip_short_600ms.mp4	59.single_push_with_long_side_pencil_short_horvertflip_short_600ms.mp4	386.1353167009077	386.7436367453872	0.6083200444795693				
316.6689453125	0.2	648538	227	5	2	0	0	34	230	stimuli\Videos_short_600ms_horvertflip\55.touch_top_to_bottom_with_nail_file_short_horvertflip_short_600ms.mp4	55.touch_top_to_bottom_with_nail_file_short_horvertflip_short_600ms.mp4	386.9352968189444	387.5436162769354	0.6083194579910014				
317.46923828125	0.2	650177	228	5	2	0	0	35	232	stimuli\Videos_short_600ms_horvertflip\57.single_touch_with_nail_file_short_horvertflip_short_600ms.mp4	57.single_touch_with_nail_file_short_horvertflip_short_600ms.mp4	387.7352822153787	388.3435966882164	0.6083144728377192				
318.26904296875	0.2	651815	229	5	2	0	0	36	8	stimuli\Videos_short_600ms\17.repeated_touch_with_rolling_pin_short_short_600ms.mp4	17.repeated_touch_with_rolling_pin_short_short_600ms.mp4	388.535243272536	389.143577685986	0.6083344134499384				
319.06884765625	0.2	653453	230	5	2	0	0	37	353	stimuli\Videos_short_600ms_vertflip\85.touch_top_to_bottom_with_fabric_short_vertflip_short_600ms.mp4	85.touch_top_to_bottom_with_fabric_short_vertflip_short_600ms.mp4	389.33523600007743	389.9435583905108	0.6083223904333863				
319.869140625	0.2	655092	231	5	2	0	0	38	206	stimuli\Videos_short_600ms_horvertflip\33.scratch_top_to_bottom_with_scissors_short_horvertflip_short_600ms.mp4	33.scratch_top_to_bottom_with_scissors_short_horvertflip_short_600ms.mp4	390.1352196370456	390.7435399747694	0.6083203377238533				
320.6689453125	0.2	656730	232	5	2	0	0	39	204	stimuli\Videos_short_600ms_horvertflip\31.hand_grabbing_wrist_short_horvertflip_short_600ms.mp4	31.hand_grabbing_wrist_short_horvertflip_short_600ms.mp4	390.9351774685158	391.5435212657833	0.6083437972674801				
321.46875	0.2	658368	233	5	2	0	0	40	89	stimuli\Videos_short_600ms\90.repeated_touch_with_sponge_short_short_600ms.mp4	90.repeated_touch_with_sponge_short_short_600ms.mp4	391.735190723158	392.34350402301857	0.6083132998605834				
322.26904296875	0.2	660007	234	5	2	0	0	41	339	stimuli\Videos_short_600ms_vertflip\72.(short)stroke_with_finger_all_over_the_hand_short_vertflip_short_600ms.mp4	72.(short)stroke_with_finger_all_over_the_hand_short_vertflip_short_600ms.mp4	392.5351640965757	393.143479155902	0.6083150593262872				
323.06884765625	0.2	661645	235	5	2	0	0	42	129	stimuli\Videos_short_600ms_horflip\45.scratching_with_finger_nails_short_horflip_short_600ms.mp4	45.scratching_with_finger_nails_short_horflip_short_600ms.mp4	393.3361705696505	393.9434463711898	0.6072758015393447				
323.86865234375	0.2	663283	236	5	2	0	0	43	118	stimuli\Videos_short_600ms_horflip\35.single_punch_with_hand_short_horflip_short_600ms.mp4	35.single_punch_with_hand_short_horflip_short_600ms.mp4	394.13512990429103	394.74344789606016	0.6083179917691268				
324.6689453125	0.2	664922	237	5	2	0	1	44	368	stimuli\Targets_short_600ms_horflip\chopstickwood-tap_short_horflip_short_600ms.mp4	chopstickwood-tap_short_horflip_short_600ms.mp4	394.9351167669463	395.54343065329545	0.6083138863491513				
325.46875	0.2	666560	238	5	2	0	0	45	249	stimuli\Videos_short_600ms_horvertflip\72.(short)stroke_with_finger_all_over_the_hand_short_horvertflip_short_600ms.mp4	72.(short)stroke_with_finger_all_over_the_hand_short_horvertflip_short_600ms.mp4	395.73508603494406	396.3434054929346	0.6083194579905467				
326.2685546875	0.2	668198	239	5	2	0	0	46	149	stimuli\Videos_short_600ms_horflip\63.stroke_top_to_bottom_with_screwdriver_short_horflip_short_600ms.mp4	63.stroke_top_to_bottom_with_screwdriver_short_horflip_short_600ms.mp4	396.53506879217935	397.1433979272322	0.608329135052827				
327.06884765625	0.2	669837	240	5	2	0	0	47	202	stimuli\Videos_short_600ms_horvertflip\3.single_push_with_finger_short_horvertflip_short_600ms.mp4	3.single_push_with_finger_short_horvertflip_short_600ms.mp4	397.3350527223922	397.9433671952295	0.6083144728372645				
327.86865234375	0.2	671475	241	5	2	0	0	48	132	stimuli\Videos_short_600ms_horflip\48.single_slap_with_hand_short_horflip_short_600ms.mp4	48.single_slap_with_hand_short_horflip_short_600ms.mp4	398.13502961474137	398.7433578700609	0.6083282553195204				
328.66845703125	0.2	673113	242	5	2	0	0	49	215	stimuli\Videos_short_600ms_horvertflip\41.injection_with_blunt_syringe_short_horvertflip_short_600ms.mp4	41.injection_with_blunt_syringe_short_horvertflip_short_600ms.mp4	398.93501237197665	399.54332977725767	0.6083174052810136				
329.46875	0.2	674752	243	5	2	0	0	50	12	stimuli\Videos_short_600ms\20.single_touch_with_screwdriver_short_short_600ms.mp4	20.single_touch_with_screwdriver_short_short_600ms.mp4	399.73498955757054	400.3433069628511	0.6083174052805589				
330.2685546875	0.2	676390	244	5	2	0	1	51	369	stimuli\Targets_short_600ms_horflip\finger-tap_short_horflip_short_600ms.mp4	finger-tap_short_horflip_short_600ms.mp4	400.5349737810273	401.14329030657495	0.608316525547707				
331.068359375	0.2	678028	245	5	2	0	0	52	346	stimuli\Videos_short_600ms_vertflip\79.long_with_soft_brush_all_over_the_hand_short_vertflip_short_600ms.mp4	79.long_with_soft_brush_all_over_the_hand_short_vertflip_short_600ms.mp4	401.3349547787968	401.943270717856	0.608315939059139				
331.86865234375	0.2	679667	246	5	2	0	0	53	241	stimuli\Videos_short_600ms_horvertflip\65.stroke_top_to_bottom_with_stanley_knife_short_horvertflip_short_600ms.mp4	65.stroke_top_to_bottom_with_stanley_knife_short_horvertflip_short_600ms.mp4	402.13493519007784	402.7432540615803	0.6083188715024335				
332.66845703125	0.2	681305	247	5	2	0	0	54	282	stimuli\Videos_short_600ms_vertflip\20.single_touch_with_screwdriver_short_vertflip_short_600ms.mp4	20.single_touch_with_screwdriver_short_vertflip_short_600ms.mp4	402.934912668916	403.5432318336623	0.6083191647462627				
333.46875	0.2	682944	248	5	2	0	0	55	356	stimuli\Videos_short_600ms_vertflip\88.repeated_stroke_with_plastic_brush_short_vertflip_short_600ms.mp4	88.repeated_stroke_with_plastic_brush_short_vertflip_short_600ms.mp4	403.73489835859414	404.34321488414184	0.608316525547707				
334.2685546875	0.2	684582	249	5	2	0	1	56	364	stimuli\Targets_short_600ms\hand-pinch_short_short_600ms.mp4	hand-pinch_short_short_600ms.mp4	404.534875544188	405.1431958819114	0.6083203377233986				
335.068359375	0.2	686220	250	5	2	0	0	57	212	stimuli\Videos_short_600ms_horvertflip\39.single_stab_with_scissors_short_horvertflip_short_600ms.mp4	39.single_stab_with_scissors_short_horvertflip_short_600ms.mp4	405.3348556622247	405.943174826971	0.6083191647462627				
335.86865234375	0.2	687859	251	5	2	0	0	58	134	stimuli\Videos_short_600ms_horflip\5.repeated_tap_with_finger_moving_from_top_to_bottom_short_horflip_short_600ms.mp4	5.repeated_tap_with_finger_moving_from_top_to_bottom_short_horflip_short_600ms.mp4	406.1348442843462	406.7431561179849	0.6083118336387088				
336.66845703125	0.2	689497	252	5	2	0	0	59	338	stimuli\Videos_short_600ms_vertflip\71.single_stroke_with_finger_top_to_bottom_short_vertflip_short_600ms.mp4	71.single_stroke_with_finger_top_to_bottom_short_vertflip_short_600ms.mp4	406.9348197104739	407.5431365292659	0.608316818791991				
337.46826171875	0.2	691135	253	5	2	0	0	60	135	stimuli\Videos_short_600ms_horflip\50.single_(long)hard_push_with_thumb_short_horflip_short_600ms.mp4	50.single_(long)hard_push_with_thumb_short_horflip_short_600ms.mp4	407.7348083325953	408.3431175270355	0.6083091944401531				
338.2685546875	0.2	692774	254	5	2	0	0	61	42	stimuli\Videos_short_600ms\48.single_slap_with_hand_short_short_600ms.mp4	48.single_slap_with_hand_short_short_600ms.mp4	408.5347808262802	409.1430800504147	0.6082992241344982				
339.068359375	0.2	694412	255	5	2	0	0	62	121	stimuli\Videos_short_600ms_horflip\38.double_slap_with_pencil_short_horflip_short_600ms.mp4	38.double_slap_with_pencil_short_horflip_short_600ms.mp4	409.33476886191306	409.943056063031	0.6082872011179461				
339.8681640625	0.2	696050	256	5	2	0	0	63	139	stimuli\Videos_short_600ms_horflip\54.repeated_touch_with_knife_short_horflip_short_600ms.mp4	54.repeated_touch_with_knife_short_horflip_short_600ms.mp4	410.1347442880408	410.743034421602	0.6082901335612405				
340.66845703125	0.2	697689	257	5	2	0	0	64	274	stimuli\Videos_short_600ms_vertflip\13.single_touch_with_pen_short_vertflip_short_600ms.mp4	13.single_touch_with_pen_short_vertflip_short_600ms.mp4	410.9347273385203	411.5430377059381	0.6083103674177437				
341.46826171875	0.2	699327	258	5	2	0	0	65	24	stimuli\Videos_short_600ms\31.hand_grabbing_wrist_short_short_600ms.mp4	31.hand_grabbing_wrist_short_short_600ms.mp4	411.73470452411425	412.3430289672581	0.6083244431438288				
342.26806640625	0.2	700965	259	5	2	0	0	66	56	stimuli\Videos_short_600ms\60.single_push_with_tip_of_pencil_short_short_600ms.mp4	60.single_push_with_tip_of_pencil_short_short_600ms.mp4	412.53468669486097	413.14300996502766	0.608323270166693				
343.068359375	0.2	702604	260	5	2	0	0	67	221	stimuli\Videos_short_600ms_horvertflip\47.(long)scratching_with_finger_nails_short_horvertflip_short_600ms.mp4	47.(long)scratching_with_finger_nails_short_horvertflip_short_600ms.mp4	413.33466563992056	413.9429921357744	0.6083264958538166				
343.8681640625	0.2	704242	261	5	2	0	0	68	163	stimuli\Videos_short_600ms_horflip\76.tickle_with_fingers_from_top_to_bottom_short_horflip_short_600ms.mp4	76.tickle_with_fingers_from_top_to_bottom_short_horflip_short_600ms.mp4	414.1346486904001	414.7429640429707	0.6083153525705711				
344.66796875	0.2	705880	262	5	2	0	0	69	344	stimuli\Videos_short_600ms_vertflip\77.tapping_with_all_fingers_short_vertflip_short_600ms.mp4	77.tapping_with_all_fingers_short_vertflip_short_600ms.mp4	414.934625875994	415.5429509056264	0.6083250296323968				
345.46826171875	0.2	707519	263	5	2	0	0	70	185	stimuli\Videos_short_600ms_horvertflip\14.repeated_touch_with_pencil_short_horvertflip_short_600ms.mp4	14.repeated_touch_with_pencil_short_horvertflip_short_600ms.mp4	415.7346106859393	416.3429254520213	0.6083147660820032				
346.26806640625	0.2	709157	264	5	2	0	0	71	304	stimuli\Videos_short_600ms_vertflip\40.repeated_push_with_finger_short_vertflip_short_600ms.mp4	40.repeated_push_with_finger_short_vertflip_short_600ms.mp4	416.53458816477746	417.1429079160123	0.6083197512348306				
347.06787109375	0.2	710795	265	5	2	0	0	72	85	stimuli\Videos_short_600ms\87.single_stroke_top_to_bottom_with_plastic_brush_short_short_600ms.mp4	87.single_stroke_top_to_bottom_with_plastic_brush_short_short_600ms.mp4	417.3345697490356	417.9428886205376	0.6083188715019787				
347.8681640625	0.2	712434	266	5	2	0	0	73	253	stimuli\Videos_short_600ms_horvertflip\76.tickle_with_fingers_from_top_to_bottom_short_horvertflip_short_600ms.mp4	76.tickle_with_fingers_from_top_to_bottom_short_horvertflip_short_600ms.mp4	418.1345501603166	418.7428690318186	0.6083188715019787				
348.66796875	0.2	714072	267	5	2	0	0	74	177	stimuli\Videos_short_600ms_horflip\89.single_touch_with_plastic_brush_short_horflip_short_600ms.mp4	89.single_touch_with_plastic_brush_short_horflip_short_600ms.mp4	418.9345273459105	419.5428500295882	0.6083226836776703				
349.4677734375	0.2	715710	268	5	2	0	0	75	95	stimuli\Videos_short_600ms_horflip\14.repeated_touch_with_pencil_short_horflip_short_600ms.mp4	14.repeated_touch_with_pencil_short_horflip_short_600ms.mp4	419.7344884030678	420.3428301476249	0.6083417445570376				
350.26806640625	0.2	717349	269	5	2	0	0	76	187	stimuli\Videos_short_600ms_horvertflip\16.repeated_touch_with_plastic_brush_short_horvertflip_short_600ms.mp4	16.repeated_touch_with_plastic_brush_short_horvertflip_short_600ms.mp4	420.5344928603811	421.1428140778374	0.6083212174562505				
351.06787109375	0.2	718987	270	5	2	0	0	77	183	stimuli\Videos_short_600ms_horvertflip\12.repeated_touch_with_nail_file_short_horvertflip_short_600ms.mp4	12.repeated_touch_with_nail_file_short_horvertflip_short_600ms.mp4	421.3344489323856	421.9427936093855	0.6083446769998773				
351.86767578125	0.2	720625	271	5	2	0	0	78	213	stimuli\Videos_short_600ms_horvertflip\4.repeated_tap_with_finger_slow_short_horvertflip_short_600ms.mp4	4.repeated_tap_with_finger_slow_short_horvertflip_short_600ms.mp4	422.1344560288974	422.7427740206665	0.6083179917691268				
352.66796875	0.2	722264	272	5	2	0	0	79	271	stimuli\Videos_short_600ms_vertflip\10.single_touch_with_knife_short_vertflip_short_600ms.mp4	10.single_touch_with_knife_short_vertflip_short_600ms.mp4	422.9344689902953	423.54273537106815	0.608266380772875				
353.4677734375	0.2	723902	273	5	2	0	0	80	191	stimuli\Videos_short_600ms_horvertflip\2.single_touch_with_finger_short_horvertflip_short_600ms.mp4	2.single_touch_with_finger_short_horvertflip_short_600ms.mp4	423.7344244758112	424.3427313242971	0.6083068484858813				
354.26806640625	0.2	725541	274	5	2	0	0	81	264	stimuli\Videos_short_600ms_horvertflip\86.touch_top_to_bottom_with_hair_brush_short_horvertflip_short_600ms.mp4	86.touch_top_to_bottom_with_hair_brush_short_horvertflip_short_600ms.mp4	424.5343963830075	425.142712615311	0.608316232303423				
355.06787109375	0.2	727179	275	5	2	0	1	82	378	stimuli\Targets_short_600ms_vertflip\brush-stroke_short_horvertflip_short_600ms.mp4	brush-stroke_short_horvertflip_short_600ms.mp4	425.33438236593	425.9426716197584	0.6082892538283886				
355.86767578125	0.2	728817	276	5	2	0	0	83	325	stimuli\Videos_short_600ms_vertflip\6.single_touch_with_flat_hand_short_vertflip_short_600ms.mp4	6.single_touch_with_flat_hand_short_vertflip_short_600ms.mp4	426.1343305203384	426.7426749040944	0.608344383756048				
356.66796875	0.2	730456	277	5	2	0	0	84	278	stimuli\Videos_short_600ms_vertflip\17.repeated_touch_with_rolling_pin_short_vertflip_short_600ms.mp4	17.repeated_touch_with_rolling_pin_short_vertflip_short_600ms.mp4	426.9343393763163	427.5426623532387	0.608322976922409				
357.4677734375	0.2	732094	278	5	2	0	0	85	263	stimuli\Videos_short_600ms_horvertflip\85.touch_top_to_bottom_with_fabric_short_horvertflip_short_600ms.mp4	85.touch_top_to_bottom_with_fabric_short_horvertflip_short_600ms.mp4	427.7343197875973	428.3426506821154	0.6083308945180761				
358.267578125	0.2	733732	279	5	2	0	0	86	240	stimuli\Videos_short_600ms_horvertflip\64.repeated_touch_with_screwdriver_short_horvertflip_short_600ms.mp4	64.repeated_touch_with_screwdriver_short_horvertflip_short_600ms.mp4	428.5343022515883	429.1426293339307	0.6083270823423845				
359.06787109375	0.2	735371	280	5	2	0	0	87	21	stimuli\Videos_short_600ms\29.single_pinch_with_tweezers_short_short_600ms.mp4	29.single_pinch_with_tweezers_short_short_600ms.mp4	429.3342809034036	429.9425994816613	0.6083185782576948				
359.86767578125	0.2	737009	281	5	2	0	0	88	169	stimuli\Videos_short_600ms_horflip\81.single_stroke_top_to_bottom_with_cotton_pad_short_horflip_short_600ms.mp4	81.single_stroke_top_to_bottom_with_cotton_pad_short_horflip_short_600ms.mp4	430.13426278090606	430.742583705118	0.6083209242119665				
360.66748046875	0.2	738647	282	5	2	0	0	89	214	stimuli\Videos_short_600ms_horvertflip\40.repeated_push_with_finger_short_horvertflip_short_600ms.mp4	40.repeated_push_with_finger_short_horvertflip_short_600ms.mp4	430.9342467111185	431.5425605974676	0.6083138863491513				
361.4677734375	0.2	740286	283	5	2	0	0	90	201	stimuli\Videos_short_600ms_horvertflip\29.single_pinch_with_tweezers_short_horvertflip_short_600ms.mp4	29.single_pinch_with_tweezers_short_horvertflip_short_600ms.mp4	431.7342227237352	432.3425436479472	0.6083209242119665				
362.267578125	0.2	741924	284	5	2	0	0	91	13	stimuli\Videos_short_600ms\21.repeated_touch_with_metal_chopstick_short_short_600ms.mp4	21.repeated_touch_with_metal_chopstick_short_short_600ms.mp4	432.5342054809705	433.1425246457168	0.6083191647462627				
363.0673828125	0.2	743562	285	5	2	0	0	92	19	stimuli\Videos_short_600ms\27.single_push_with_a_plastic_whisk_short_short_600ms.mp4	27.single_push_with_a_plastic_whisk_short_short_600ms.mp4	433.33418383954154	433.9425015380664	0.6083176985248429				
363.86767578125	0.2	745201	286	5	2	0	0	93	186	stimuli\Videos_short_600ms_horvertflip\15.single_stroke_top_to_bottom_with_a_plastic_whisk_short_horvertflip_short_600ms.mp4	15.single_stroke_top_to_bottom_with_a_plastic_whisk_short_horvertflip_short_600ms.mp4	434.1341671832654	434.74248634801165	0.6083191647462627				
364.66748046875	0.2	746839	287	5	2	0	0	94	120	stimuli\Videos_short_600ms_horflip\37.single_stab_with_nail_file_short_horflip_short_600ms.mp4	37.single_stab_with_nail_file_short_horflip_short_600ms.mp4	434.9341212025595	435.5424652930713	0.6083440905117641				
365.46728515625	0.2	748477	288	5	2	0	0	95	107	stimuli\Videos_short_600ms_horflip\25.single_touch_with_stanley_knife_short_horflip_short_600ms.mp4	25.single_touch_with_stanley_knife_short_horflip_short_600ms.mp4	435.7341282990717	436.34244599759654	0.6083176985248429				
366.267578125	0.2	750116	289	5	2	0	0	96	281	stimuli\Videos_short_600ms_vertflip\2.single_touch_with_finger_short_vertflip_short_600ms.mp4	2.single_touch_with_finger_short_vertflip_short_600ms.mp4	436.534104311688	437.14242494265613	0.6083206309681373				
367.0673828125	0.2	751754	290	5	2	0	0	97	239	stimuli\Videos_short_600ms_horvertflip\63.stroke_top_to_bottom_with_screwdriver_short_horvertflip_short_600ms.mp4	63.stroke_top_to_bottom_with_screwdriver_short_horvertflip_short_600ms.mp4	437.3340814972819	437.9424097526014	0.6083282553195204	8.0	8.0	3.176505794800505	1.0
403.7744140625	0.2	826930	291	5	3	0	0	0	275	stimuli\Videos_short_600ms_vertflip\14.repeated_touch_with_pencil_short_vertflip_short_600ms.mp4	14.repeated_touch_with_pencil_short_vertflip_short_600ms.mp4	474.0415468519343	474.649831707098	0.6082848551636744				
404.57470703125	0.2	828569	292	5	3	0	1	1	360	stimuli\Targets_short_600ms\brush-stroke_short_short_600ms.mp4	brush-stroke_short_short_600ms.mp4	474.84152491726104	475.4498455482292	0.6083206309681373				
405.37451171875	0.2	830207	293	5	3	0	0	2	162	stimuli\Videos_short_600ms_horflip\75.(long)stroke_with_fingers_all_over_the_hand_short_horflip_short_600ms.mp4	75.(long)stroke_with_fingers_all_over_the_hand_short_horflip_short_600ms.mp4	475.6415006366335	476.24979839454613	0.6082977579126236				
406.17431640625	0.2	831845	294	5	3	0	0	3	164	stimuli\Videos_short_600ms_horflip\77.tapping_with_all_fingers_short_horflip_short_600ms.mp4	77.tapping_with_all_fingers_short_horflip_short_600ms.mp4	476.4414930709306	477.0497799788043	0.6082869078736621				
406.974609375	0.2	833484	295	5	3	0	0	4	97	stimuli\Videos_short_600ms_horflip\16.repeated_touch_with_plastic_brush_short_horflip_short_600ms.mp4	16.repeated_touch_with_plastic_brush_short_horflip_short_600ms.mp4	477.24146028621794	477.8497615630624	0.608301276844486				
407.7744140625	0.2	835122	296	5	3	0	0	5	222	stimuli\Videos_short_600ms_horvertflip\48.single_slap_with_hand_short_horvertflip_short_600ms.mp4	48.single_slap_with_hand_short_horvertflip_short_600ms.mp4	478.0414409907432	478.6497510649167	0.6083100741734597				
408.57421875	0.2	836760	297	5	3	0	1	6	381	stimuli\Targets_short_600ms_vertflip\finger-tap_short_horvertflip_short_600ms.mp4	finger-tap_short_horvertflip_short_600ms.mp4	478.8414199358028	479.44974261948096	0.608322683678125				
409.37451171875	0.2	838399	298	5	3	0	0	7	70	stimuli\Videos_short_600ms\73.single_stroke_with_flat_hand_short_short_600ms.mp4	73.single_stroke_with_flat_hand_short_short_600ms.mp4	479.6414021065495	480.2497324145795	0.6083303080299629				
410.17431640625	0.2	840037	299	5	3	0	0	8	77	stimuli\Videos_short_600ms\8.single_touch_with_hairbrush_short_short_600ms.mp4	8.single_touch_with_hairbrush_short_short_600ms.mp4	480.4413851570291	481.04970608124154	0.6083209242124212				
410.97412109375	0.2	841675	300	5	3	0	0	9	57	stimuli\Videos_short_600ms\61.single_hit_with_rolling_pin_short_short_600ms.mp4	61.single_hit_with_rolling_pin_short_short_600ms.mp4	481.2413658615544	481.8496841465683	0.6083182850138655				
411.7744140625	0.2	843314	301	5	3	0	1	10	371	stimuli\Targets_short_600ms_horflip\hand-stroke_short_horflip_short_600ms.mp4	hand-stroke_short_horflip_short_600ms.mp4	482.041346859324	482.6496648510936	0.6083179917695816				
412.57421875	0.2	844952	302	5	3	0	0	11	290	stimuli\Videos_short_600ms_vertflip\28.single_injection_with_sharp_needle_short_vertflip_short_600ms.mp4	28.single_injection_with_sharp_needle_short_vertflip_short_600ms.mp4	482.8413260976278	483.4496481948174	0.6083220971895571				
413.3740234375	0.2	846590	303	5	3	0	0	12	159	stimuli\Videos_short_600ms_horflip\72.(short)stroke_with_finger_all_over_the_hand_short_horflip_short_600ms.mp4	72.(short)stroke_with_finger_all_over_the_hand_short_horflip_short_600ms.mp4	483.64130709539745	484.2495998681573	0.6082927727597962				
414.17431640625	0.2	848229	304	5	3	0	0	13	50	stimuli\Videos_short_600ms\55.touch_top_to_bottom_with_nail_file_short_short_600ms.mp4	55.touch_top_to_bottom_with_nail_file_short_short_600ms.mp4	484.4412895593885	485.04958233214825	0.6082927727597962				
414.97412109375	0.2	849867	305	5	3	0	0	14	205	stimuli\Videos_short_600ms_horvertflip\32.single_(long)pinch_with_fingers_short_horvertflip_short_600ms.mp4	32.single_(long)pinch_with_fingers_short_horvertflip_short_600ms.mp4	485.24126322605093	485.8495636231621	0.6083003971111793				
415.7744140625	0.2	851506	306	5	3	0	0	15	235	stimuli\Videos_short_600ms_horvertflip\6.single_touch_with_flat_hand_short_horvertflip_short_600ms.mp4	6.single_touch_with_flat_hand_short_horvertflip_short_600ms.mp4	486.041246863019	486.6495437411989	0.6082968781797717				
416.57421875	0.2	853144	307	5	3	0	0	16	142	stimuli\Videos_short_600ms_horflip\57.single_touch_with_nail_file_short_horflip_short_600ms.mp4	57.single_touch_with_nail_file_short_horflip_short_600ms.mp4	486.8412140783069	487.4495229795027	0.6083089011958691				
417.3740234375	0.2	854782	308	5	3	0	0	17	64	stimuli\Videos_short_600ms\68.stroke_top_to_bottom_with_shawl_short_short_600ms.mp4	68.stroke_top_to_bottom_with_shawl_short_short_600ms.mp4	487.641206512604	488.2495365273892	0.6083300147852242				
418.17431640625	0.2	856421	309	5	3	0	0	18	22	stimuli\Videos_short_600ms\3.single_push_with_finger_short_short_600ms.mp4	3.single_push_with_finger_short_short_600ms.mp4	488.4411998266339	489.0495090210741	0.6083091944401531				
418.97412109375	0.2	858059	310	5	3	0	0	19	7	stimuli\Videos_short_600ms\16.repeated_touch_with_plastic_brush_short_short_600ms.mp4	16.repeated_touch_with_plastic_brush_short_short_600ms.mp4	489.24117320005166	489.8494650930786	0.6082918930269443				
419.77392578125	0.2	859697	311	5	3	0	0	20	189	stimuli\Videos_short_600ms_horvertflip\18.single_stroke_from_top_to_bottom_with_rolling_pin_short_horvertflip_short_600ms.mp4	18.single_stroke_from_top_to_bottom_with_rolling_pin_short_horvertflip_short_600ms.mp4	490.04115390457696	490.64946691119326	0.6083130066162994				
420.57421875	0.2	861336	312	5	3	0	0	21	252	stimuli\Videos_short_600ms_horvertflip\75.(long)stroke_with_fingers_all_over_the_hand_short_horvertflip_short_600ms.mp4	75.(long)stroke_with_fingers_all_over_the_hand_short_horvertflip_short_600ms.mp4	490.8411331428808	491.44942767510634	0.6082945322255				
421.3740234375	0.2	862974	313	5	3	0	0	22	309	stimuli\Videos_short_600ms_vertflip\45.scratching_with_finger_nails_short_vertflip_short_600ms.mp4	45.scratching_with_finger_nails_short_vertflip_short_600ms.mp4	491.64112762988793	492.2494121918073	0.6082845619193904				
422.173828125	0.2	864612	314	5	3	0	0	23	333	stimuli\Videos_short_600ms_vertflip\67.single_touch_with_sponge_short_vertflip_short_600ms.mp4	67.single_touch_with_sponge_short_vertflip_short_600ms.mp4	492.4410922059771	493.04939230984405	0.6083001038668954				
422.97412109375	0.2	866251	315	5	3	0	0	24	178	stimuli\Videos_short_600ms_horflip\9.single_touch_with_hammer_short_horflip_short_600ms.mp4	9.single_touch_with_hammer_short_horflip_short_600ms.mp4	493.2410723240139	493.8493821049426	0.608309780928721				
423.77392578125	0.2	867889	316	5	3	0	0	25	151	stimuli\Videos_short_600ms_horflip\65.stroke_top_to_bottom_with_stanley_knife_short_horflip_short_600ms.mp4	65.stroke_top_to_bottom_with_stanley_knife_short_horflip_short_600ms.mp4	494.0410544947606	494.64937365950686	0.6083191647462627				
424.57373046875	0.2	869527	317	5	3	0	0	26	284	stimuli\Videos_short_600ms_vertflip\22.single_touch_with_metal_chopstick_short_vertflip_short_600ms.mp4	22.single_touch_with_metal_chopstick_short_vertflip_short_600ms.mp4	494.8410360790187	495.4493652140711	0.6083291350523723				
425.3740234375	0.2	871166	318	5	3	0	0	27	217	stimuli\Videos_short_600ms_horvertflip\43.touch_top_to_bottom_with_sharp_wooden_stick_short_horvertflip_short_600ms.mp4	43.touch_top_to_bottom_with_sharp_wooden_stick_short_horvertflip_short_600ms.mp4	495.64101473083406	496.2493359482903	0.6083212174562505				
426.173828125	0.2	872804	319	5	3	0	0	28	316	stimuli\Videos_short_600ms_vertflip\51.repeated_touch_with_hammer_short_vertflip_short_600ms.mp4	51.repeated_touch_with_hammer_short_vertflip_short_600ms.mp4	496.4409966083365	497.0493169460599	0.6083203377233986				
426.9736328125	0.2	874442	320	5	3	0	0	29	272	stimuli\Videos_short_600ms_vertflip\11.single_touch_with_lighter_short_vertflip_short_600ms.mp4	11.single_touch_with_lighter_short_vertflip_short_600ms.mp4	497.2409770196175	497.8492988235623	0.6083218039448184				
427.77392578125	0.2	876081	321	5	3	0	0	30	141	stimuli\Videos_short_600ms_horflip\56.repeated_touch_with_nail_file_short_horflip_short_600ms.mp4	56.repeated_touch_with_nail_file_short_horflip_short_600ms.mp4	498.04095831063137	498.6492795280876	0.6083212174562505				
428.57373046875	0.2	877719	322	5	3	0	0	31	297	stimuli\Videos_short_600ms_vertflip\34.repeated_punch_with_hand_short_vertflip_short_600ms.mp4	34.repeated_punch_with_hand_short_vertflip_short_600ms.mp4	498.8409396016452	499.4492619920786	0.6083223904333863				
429.37353515625	0.2	879357	323	5	3	0	0	32	207	stimuli\Videos_short_600ms_horvertflip\34.repeated_punch_with_hand_short_horvertflip_short_600ms.mp4	34.repeated_punch_with_hand_short_horvertflip_short_600ms.mp4	499.6409226521248	500.2492412303825	0.6083185782576948				
430.173828125	0.2	880996	324	5	3	0	0	33	257	stimuli\Videos_short_600ms_horvertflip\8.single_touch_with_hairbrush_short_horvertflip_short_600ms.mp4	8.single_touch_with_hairbrush_short_horvertflip_short_600ms.mp4	500.44090071745154	501.0492192957093	0.6083185782576948				
430.9736328125	0.2	882634	325	5	3	0	0	34	233	stimuli\Videos_short_600ms_horvertflip\58.single_slap_with_pencil_short_horvertflip_short_600ms.mp4	58.single_slap_with_pencil_short_horvertflip_short_600ms.mp4	501.240882594954	501.8492020529445	0.6083194579905467				
431.7734375	0.2	884272	326	5	3	0	0	35	188	stimuli\Videos_short_600ms_horvertflip\17.repeated_touch_with_rolling_pin_short_horvertflip_short_600ms.mp4	17.repeated_touch_with_rolling_pin_short_horvertflip_short_600ms.mp4	502.0408565548603	502.6491660425452	0.6083094876848918				
432.57373046875	0.2	885911	327	5	3	0	0	36	242	stimuli\Videos_short_600ms_horvertflip\66.stroke_top_to_bottom_with_sponge_short_horvertflip_short_600ms.mp4	66.stroke_top_to_bottom_with_sponge_short_horvertflip_short_600ms.mp4	502.840838725607	503.4491631687508	0.6083244431438288				
433.37353515625	0.2	887549	328	5	3	0	0	37	261	stimuli\Videos_short_600ms_horvertflip\83.single_stroke_top_to_bottom_with_cotton_bud_short_horvertflip_short_600ms.mp4	83.single_stroke_top_to_bottom_with_cotton_bud_short_horvertflip_short_600ms.mp4	503.64080623413906	504.2491476854523	0.6083414513132084				
434.17333984375	0.2	889187	329	5	3	0	0	38	300	stimuli\Videos_short_600ms_vertflip\37.single_stab_with_nail_file_short_vertflip_short_600ms.mp4	37.single_stab_with_nail_file_short_vertflip_short_600ms.mp4	504.4408033603452	505.0491213521143	0.6083179917691268				
434.9736328125	0.2	890826	330	5	3	0	0	39	184	stimuli\Videos_short_600ms_horvertflip\13.single_touch_with_pen_short_horvertflip_short_600ms.mp4	13.single_touch_with_pen_short_horvertflip_short_600ms.mp4	505.24079315544327	505.84911144045714	0.6083182850138655				
435.7734375	0.2	892464	331	5	3	0	0	40	154	stimuli\Videos_short_600ms_horflip\68.stroke_top_to_bottom_with_shawl_short_horflip_short_600ms.mp4	68.stroke_top_to_bottom_with_shawl_short_horflip_short_600ms.mp4	506.04076388966246	506.649090678761	0.6083267890985553				
436.57373046875	0.2	894103	332	5	3	0	0	41	16	stimuli\Videos_short_600ms\24.single_stroke_top_to_bottom_with_a_spoon_short_short_600ms.mp4	24.single_stroke_top_to_bottom_with_a_spoon_short_short_600ms.mp4	506.84075632396	507.449043525078	0.6082872011179461				
437.37353515625	0.2	895741	333	5	3	0	0	42	248	stimuli\Videos_short_600ms_horvertflip\71.single_stroke_with_finger_top_to_bottom_short_horvertflip_short_600ms.mp4	71.single_stroke_with_finger_top_to_bottom_short_horvertflip_short_600ms.mp4	507.6407405474167	508.24902422960326	0.6082836821865385				
438.17333984375	0.2	897379	334	5	3	0	0	43	323	stimuli\Videos_short_600ms_vertflip\58.single_slap_with_pencil_short_vertflip_short_600ms.mp4	58.single_slap_with_pencil_short_vertflip_short_600ms.mp4	508.44067990449616	509.0490116787471	0.608331774250928				
438.9736328125	0.2	899018	335	5	3	0	0	44	199	stimuli\Videos_short_600ms_horvertflip\27.single_push_with_a_plastic_whisk_short_horvertflip_short_600ms.mp4	27.single_push_with_a_plastic_whisk_short_horvertflip_short_600ms.mp4	509.2406867077637	509.849006458999	0.6083197512352854				
439.7734375	0.2	900656	336	5	3	0	0	45	108	stimuli\Videos_short_600ms_horflip\26.single_touch_with_a_blunt_syringe_short_horflip_short_600ms.mp4	26.single_touch_with_a_blunt_syringe_short_horflip_short_600ms.mp4	510.04066741228894	510.6489974270746	0.6083300147856789				
440.5732421875	0.2	902294	337	5	3	0	0	46	138	stimuli\Videos_short_600ms_horflip\53.touch_top_to_bottom_with_knife_short_horflip_short_600ms.mp4	53.touch_top_to_bottom_with_knife_short_horflip_short_600ms.mp4	510.8406484100585	511.4489687477824	0.6083203377238533				
441.37353515625	0.2	903933	338	5	3	0	0	47	98	stimuli\Videos_short_600ms_horflip\17.repeated_touch_with_rolling_pin_short_horflip_short_600ms.mp4	17.repeated_touch_with_rolling_pin_short_horflip_short_600ms.mp4	511.64062823485096	512.2489485725748	0.6083203377238533				
442.17333984375	0.2	905571	339	5	3	0	0	48	308	stimuli\Videos_short_600ms_vertflip\44.pushing_top_to_bottom_with_finger_short_vertflip_short_600ms.mp4	44.pushing_top_to_bottom_with_finger_short_vertflip_short_600ms.mp4	512.4406071799106	513.048928104123	0.6083209242124212				
442.97314453125	0.2	907209	340	5	3	0	0	49	355	stimuli\Videos_short_600ms_vertflip\87.single_stroke_top_to_bottom_with_plastic_brush_short_vertflip_short_600ms.mp4	87.single_stroke_top_to_bottom_with_plastic_brush_short_vertflip_short_600ms.mp4	513.2405902303901	513.8489114478468	0.6083212174567052				
443.7734375	0.2	908848	341	5	3	0	0	50	155	stimuli\Videos_short_600ms_horflip\69.stroke_with_soft_sock_short_horflip_short_600ms.mp4	69.stroke_with_soft_sock_short_horflip_short_600ms.mp4	514.0405718146483	514.6488921523721	0.6083203377238533				
444.5732421875	0.2	910486	342	5	3	0	0	51	144	stimuli\Videos_short_600ms_horflip\59.single_push_with_long_side_pencil_short_horflip_short_600ms.mp4	59.single_push_with_long_side_pencil_short_horflip_short_600ms.mp4	514.840551932685	515.4488719771646	0.6083200444795693				
445.373046875	0.2	912124	343	5	3	0	0	52	260	stimuli\Videos_short_600ms_horvertflip\82.repeated_touch_with_cotton_bud_short_horvertflip_short_600ms.mp4	82.repeated_touch_with_cotton_bud_short_horvertflip_short_600ms.mp4	515.6405291182789	516.2488506289794	0.6083215107005344				
446.17333984375	0.2	913763	344	5	3	0	0	53	133	stimuli\Videos_short_600ms_horflip\49.repeated_slap_with_hand_short_horflip_short_600ms.mp4	49.repeated_slap_with_hand_short_horflip_short_600ms.mp4	516.4405092363156	517.0488333862152	0.6083241498995449				
446.97314453125	0.2	915401	345	5	3	0	0	54	128	stimuli\Videos_short_600ms_horflip\44.pushing_top_to_bottom_with_finger_short_horflip_short_600ms.mp4	44.pushing_top_to_bottom_with_finger_short_horflip_short_600ms.mp4	517.2404984449256	517.8488132110076	0.6083147660820032				
447.77294921875	0.2	917039	346	5	3	0	0	55	210	stimuli\Videos_short_600ms_horvertflip\37.single_stab_with_nail_file_short_horvertflip_short_600ms.mp4	37.single_stab_with_nail_file_short_horvertflip_short_600ms.mp4	518.0404691791448	518.6487921560667	0.6083229769219543				
448.5732421875	0.2	918678	347	5	3	0	0	56	314	stimuli\Videos_short_600ms_vertflip\5.repeated_tap_with_finger_moving_from_top_to_bottom_short_vertflip_short_600ms.mp4	5.repeated_tap_with_finger_moving_from_top_to_bottom_short_vertflip_short_600ms.mp4	518.8404583877543	519.4487804849439	0.6083220971895571				
449.373046875	0.2	920316	348	5	3	0	0	57	317	stimuli\Videos_short_600ms_vertflip\52.touch_top_to_bottom_with_hammer_short_vertflip_short_600ms.mp4	52.touch_top_to_bottom_with_hammer_short_vertflip_short_600ms.mp4	519.6404341071268	520.2487529786288	0.6083188715019787				
450.1728515625	0.2	921954	349	5	3	0	0	58	245	stimuli\Videos_short_600ms_horvertflip\69.stroke_with_soft_sock_short_horvertflip_short_600ms.mp4	69.stroke_with_soft_sock_short_horvertflip_short_600ms.mp4	520.4404247819582	521.0487140357861	0.6082892538279339				
450.97314453125	0.2	923593	350	5	3	0	0	59	231	stimuli\Videos_short_600ms_horvertflip\56.repeated_touch_with_nail_file_short_horvertflip_short_600ms.mp4	56.repeated_touch_with_nail_file_short_horvertflip_short_600ms.mp4	521.2403978621317	521.8486926876014	0.608294825469784				
451.77294921875	0.2	925231	351	5	3	0	0	60	166	stimuli\Videos_short_600ms_horflip\79.long_with_soft_brush_all_over_the_hand_short_horflip_short_600ms.mp4	79.long_with_soft_brush_all_over_the_hand_short_horflip_short_600ms.mp4	522.0403900031845	522.648673685371	0.6082836821865385				
452.57275390625	0.2	926869	352	5	3	0	0	61	131	stimuli\Videos_short_600ms_horflip\47.(long)scratching_with_finger_nails_short_horflip_short_600ms.mp4	47.(long)scratching_with_finger_nails_short_horflip_short_600ms.mp4	522.8403563387394	523.4486526304306	0.6082962916912038				
453.373046875	0.2	928508	353	5	3	0	0	62	246	stimuli\Videos_short_600ms_horvertflip\7.repeated_touch_with_hairbrush_short_horvertflip_short_600ms.mp4	7.repeated_touch_with_hairbrush_short_horvertflip_short_600ms.mp4	523.6403370432647	524.2486444782392	0.6083074349744493				
454.1728515625	0.2	930146	354	5	3	0	1	63	368	stimuli\Targets_short_600ms_horflip\chopstickwood-tap_short_horflip_short_600ms.mp4	chopstickwood-tap_short_horflip_short_600ms.mp4	524.4403171613014	525.0486339800934	0.608316818791991				
454.97314453125	0.2	931785	355	5	3	0	0	64	262	stimuli\Videos_short_600ms_horvertflip\84.single_touch_with_cotton_bud_short_horvertflip_short_600ms.mp4	84.single_touch_with_cotton_bud_short_horvertflip_short_600ms.mp4	525.2404403825547	525.8486264143905	0.6081860318358849				
455.77294921875	0.2	933423	356	5	3	0	0	65	101	stimuli\Videos_short_600ms_horflip\2.single_touch_with_finger_short_horflip_short_600ms.mp4	2.single_touch_with_finger_short_horflip_short_600ms.mp4	526.040280623062	526.6485997878083	0.6083191647462627				
456.57275390625	0.2	935061	357	5	3	0	0	66	352	stimuli\Videos_short_600ms_vertflip\84.single_touch_with_cotton_bud_short_vertflip_short_600ms.mp4	84.single_touch_with_cotton_bud_short_vertflip_short_600ms.mp4	526.840261034343	527.4486150951604	0.6083540608174189				
457.373046875	0.2	936700	358	5	3	0	0	67	100	stimuli\Videos_short_600ms_horflip\19.single_touch_with_rolling_pin_short_horflip_short_600ms.mp4	19.single_touch_with_rolling_pin_short_horflip_short_600ms.mp4	527.6402411523798	528.248575859074	0.6083347066942224				
458.1728515625	0.2	938338	359	5	3	0	0	68	357	stimuli\Videos_short_600ms_vertflip\89.single_touch_with_plastic_brush_short_vertflip_short_600ms.mp4	89.single_touch_with_plastic_brush_short_vertflip_short_600ms.mp4	528.4402215636608	529.0485489392474	0.6083273755866685				
458.97265625	0.2	939976	360	5	3	0	0	69	80	stimuli\Videos_short_600ms\82.repeated_touch_with_cotton_bud_short_short_600ms.mp4	82.repeated_touch_with_cotton_bud_short_short_600ms.mp4	529.240204320896	529.8485208464438	0.608316525547707				
459.77294921875	0.2	941615	361	5	3	0	0	70	176	stimuli\Videos_short_600ms_horflip\88.repeated_stroke_with_plastic_brush_short_horflip_short_600ms.mp4	88.repeated_stroke_with_plastic_brush_short_horflip_short_600ms.mp4	530.0402169890497	530.6485012577248	0.6082842686751064				
460.57275390625	0.2	943253	362	5	3	0	0	71	126	stimuli\Videos_short_600ms_horflip\42.single_slap_with_plastic_whisk_short_horflip_short_600ms.mp4	42.single_slap_with_plastic_whisk_short_horflip_short_600ms.mp4	530.8401598650605	531.4484960379762	0.6083361729156422				
461.37255859375	0.2	944891	363	5	3	0	0	72	280	stimuli\Videos_short_600ms_vertflip\19.single_touch_with_rolling_pin_short_vertflip_short_600ms.mp4	19.single_touch_with_rolling_pin_short_vertflip_short_600ms.mp4	531.640146434472	532.2484905249837	0.6083440905117641				
462.1728515625	0.2	946530	364	5	3	0	0	73	60	stimuli\Videos_short_600ms\64.repeated_touch_with_screwdriver_short_short_600ms.mp4	64.repeated_touch_with_screwdriver_short_short_600ms.mp4	532.4401007470103	533.04847064302	0.6083698960096626				
462.97265625	0.2	948168	365	5	3	0	0	74	182	stimuli\Videos_short_600ms_horvertflip\11.single_touch_with_lighter_short_horvertflip_short_600ms.mp4	11.single_touch_with_lighter_short_horvertflip_short_600ms.mp4	533.2401008056593	533.8484314069335	0.6083306012742469				
463.7724609375	0.2	949806	366	5	3	0	0	75	161	stimuli\Videos_short_600ms_horflip\74.fingers_walking_from_top_to_bottom_short_horflip_short_600ms.mp4	74.fingers_walking_from_top_to_bottom_short_horflip_short_600ms.mp4	534.0400903075135	534.648413284436	0.608322976922409				
464.57275390625	0.2	951445	367	5	3	0	0	76	312	stimuli\Videos_short_600ms_vertflip\48.single_slap_with_hand_short_vertflip_short_600ms.mp4	48.single_slap_with_hand_short_vertflip_short_600ms.mp4	534.840065440397	535.4483898835408	0.6083244431438288				
465.37255859375	0.2	953083	368	5	3	0	0	77	181	stimuli\Videos_short_600ms_horvertflip\10.single_touch_with_knife_short_horvertflip_short_600ms.mp4	10.single_touch_with_knife_short_horvertflip_short_600ms.mp4	535.6400499570984	536.2483720542875	0.6083220971891024				
466.17236328125	0.2	954721	369	5	3	0	0	78	208	stimuli\Videos_short_600ms_horvertflip\35.single_punch_with_hand_short_horvertflip_short_600ms.mp4	35.single_punch_with_hand_short_horvertflip_short_600ms.mp4	536.4400265562033	537.048330179002	0.6083036227987577				
466.97265625	0.2	956360	370	5	3	0	0	79	91	stimuli\Videos_short_600ms_horflip\10.single_touch_with_knife_short_horflip_short_600ms.mp4	10.single_touch_with_knife_short_horflip_short_600ms.mp4	537.2400166445461	537.8483319971167	0.6083153525705711				
467.7724609375	0.2	957998	371	5	3	0	0	80	190	stimuli\Videos_short_600ms_horvertflip\19.single_touch_with_rolling_pin_short_horvertflip_short_600ms.mp4	19.single_touch_with_rolling_pin_short_horvertflip_short_600ms.mp4	538.0399897247196	538.6482912948084	0.60830157008877				
468.572265625	0.2	959636	372	5	3	0	0	81	152	stimuli\Videos_short_600ms_horflip\66.stroke_top_to_bottom_with_sponge_short_horflip_short_600ms.mp4	66.stroke_top_to_bottom_with_sponge_short_horflip_short_600ms.mp4	538.8399689630235	539.4483027899848	0.6083338269613705				
469.37255859375	0.2	961275	373	5	3	0	0	82	14	stimuli\Videos_short_600ms\22.single_touch_with_metal_chopstick_short_short_600ms.mp4	22.single_touch_with_metal_chopstick_short_short_600ms.mp4	539.6399496675488	540.2482635538979	0.6083138863491513				
470.17236328125	0.2	962913	374	5	3	0	0	83	3	stimuli\Videos_short_600ms\12.repeated_touch_with_nail_file_short_short_600ms.mp4	12.repeated_touch_with_nail_file_short_short_600ms.mp4	540.4399303720741	541.0482468976218	0.608316525547707				
470.97216796875	0.2	964551	375	5	3	0	0	84	331	stimuli\Videos_short_600ms_vertflip\65.stroke_top_to_bottom_with_stanley_knife_short_vertflip_short_600ms.mp4	65.stroke_top_to_bottom_with_stanley_knife_short_vertflip_short_600ms.mp4	541.2399099036222	541.8482120601996	0.6083021565773379				
471.7724609375	0.2	966190	376	5	3	0	0	85	277	stimuli\Videos_short_600ms_vertflip\16.repeated_touch_with_plastic_brush_short_vertflip_short_600ms.mp4	16.repeated_touch_with_plastic_brush_short_vertflip_short_600ms.mp4	542.0398917811247	542.6481839673959	0.6082921862712283				
