onset	duration	onsetsample	eventnumber	subjectnr	sequencenumber	blocksequencenumber	istarget	presentationnumber	stimnumber	stim	stimname	time_stimon	time_stimoff	stimdur	cresp	resp	rt	correct
31.1103515625	0.2	63714	0	15	0	0	0	0	208	stimuli\Videos_short_600ms_horvertflip\35.single_punch_with_hand_short_horvertflip_short_600ms.mp4	35.single_punch_with_hand_short_horvertflip_short_600ms.mp4	103.96833277274165	104.57592929447242	0.6075965217307839	n/a	n/a	n/a	n/a
31.91015625	0.2	65352	1	15	0	0	0	1	126	stimuli\Videos_short_600ms_horflip\42.single_slap_with_plastic_whisk_short_horflip_short_600ms.mp4	42.single_slap_with_plastic_whisk_short_horflip_short_600ms.mp4	104.76808832150029	105.37593908894404	0.6078507674437788	n/a	n/a	n/a	n/a
32.71826171875	0.2	67007	2	15	0	0	0	2	291	stimuli\Videos_short_600ms_vertflip\29.single_pinch_with_tweezers_short_vertflip_short_600ms.mp4	29.single_pinch_with_tweezers_short_vertflip_short_600ms.mp4	105.5759328134443	106.18426333404386	0.6083305205995657	n/a	n/a	n/a	n/a
33.5185546875	0.2	68646	3	15	0	0	0	3	144	stimuli\Videos_short_600ms_horflip\59.single_push_with_long_side_pencil_short_horflip_short_600ms.mp4	59.single_push_with_long_side_pencil_short_horflip_short_600ms.mp4	106.37592501305676	106.98424966870334	0.6083246556465838	n/a	n/a	n/a	n/a
34.318359375	0.2	70284	4	15	0	0	0	4	116	stimuli\Videos_short_600ms_horflip\33.scratch_top_to_bottom_with_scissors_short_horflip_short_600ms.mp4	33.scratch_top_to_bottom_with_scissors_short_horflip_short_600ms.mp4	107.17591985189824	107.78424157506834	0.6083217231700928	n/a	n/a	n/a	n/a
35.1181640625	0.2	71922	5	15	0	0	0	5	124	stimuli\Videos_short_600ms_horflip\40.repeated_push_with_finger_short_horflip_short_600ms.mp4	40.repeated_push_with_finger_short_horflip_short_600ms.mp4	107.97590765279595	108.58422996246122	0.6083223096652546	n/a	n/a	n/a	n/a
35.91845703125	0.2	73561	6	15	0	0	0	6	44	stimuli\Videos_short_600ms\5.repeated_tap_with_finger_moving_from_top_to_bottom_short_short_600ms.mp4	5.repeated_tap_with_finger_moving_from_top_to_bottom_short_short_600ms.mp4	108.7759365083648	109.38422010934028	0.6082836009754828	n/a	n/a	n/a	n/a
36.71826171875	0.2	75199	7	15	0	0	0	7	259	stimuli\Videos_short_600ms_horvertflip\81.single_stroke_top_to_bottom_with_cotton_pad_short_horvertflip_short_600ms.mp4	81.single_stroke_top_to_bottom_with_cotton_pad_short_horvertflip_short_600ms.mp4	109.57586243400829	110.18421318869582	0.6083507546875353	n/a	n/a	n/a	n/a
37.5185546875	0.2	76838	8	15	0	0	0	8	140	stimuli\Videos_short_600ms_horflip\55.touch_top_to_bottom_with_nail_file_short_horflip_short_600ms.mp4	55.touch_top_to_bottom_with_nail_file_short_horflip_short_600ms.mp4	110.37585492686844	110.9842024558318	0.6083475289633498	n/a	n/a	n/a	n/a
38.318359375	0.2	78476	9	15	0	0	0	9	129	stimuli\Videos_short_600ms_horflip\45.scratching_with_finger_nails_short_horflip_short_600ms.mp4	45.scratching_with_finger_nails_short_horflip_short_600ms.mp4	111.17584536699496	111.78418732425304	0.6083419572580624	n/a	n/a	n/a	n/a
39.1181640625	0.2	80114	10	15	0	0	0	10	251	stimuli\Videos_short_600ms_horvertflip\74.fingers_walking_from_top_to_bottom_short_horvertflip_short_600ms.mp4	74.fingers_walking_from_top_to_bottom_short_horvertflip_short_600ms.mp4	111.9758434315604	112.58417864412264	0.6083352125622241	n/a	n/a	n/a	n/a
39.91845703125	0.2	81753	11	15	0	0	0	11	89	stimuli\Videos_short_600ms\90.repeated_touch_with_sponge_short_short_600ms.mp4	90.repeated_touch_with_sponge_short_short_600ms.mp4	112.7758379771542	113.38418257364106	0.6083445964868588	n/a	n/a	n/a	n/a
40.71826171875	0.2	83391	12	15	0	0	0	12	238	stimuli\Videos_short_600ms_horvertflip\62.touch_top_to_bottom_with_scissors_short_horvertflip_short_600ms.mp4	62.touch_top_to_bottom_with_scissors_short_horvertflip_short_600ms.mp4	113.57584102692977	114.18413870379254	0.6082976768627759	n/a	n/a	n/a	n/a
41.51806640625	0.2	85029	13	15	0	0	1	13	367	stimuli\Targets_short_600ms_horflip\chopstick-silver-tap_short_horflip_short_600ms.mp4	chopstick-silver-tap_short_horflip_short_600ms.mp4	114.37582912107518	114.98413002366216	0.6083009025869615	n/a	n/a	n/a	n/a
42.318359375	0.2	86668	14	15	0	0	0	14	297	stimuli\Videos_short_600ms_vertflip\34.repeated_punch_with_hand_short_vertflip_short_600ms.mp4	34.repeated_punch_with_hand_short_vertflip_short_600ms.mp4	115.17582747888832	115.78411929079812	0.608291811909794	n/a	n/a	n/a	n/a
43.1181640625	0.2	88306	15	15	0	0	0	15	357	stimuli\Videos_short_600ms_vertflip\89.single_touch_with_plastic_brush_short_vertflip_short_600ms.mp4	89.single_touch_with_plastic_brush_short_vertflip_short_600ms.mp4	115.97580677560428	116.5841188216018	0.6083120459975362	n/a	n/a	n/a	n/a
43.91796875	0.2	89944	16	15	0	0	0	16	88	stimuli\Videos_short_600ms\9.single_touch_with_hammer_short_short_600ms.mp4	9.single_touch_with_hammer_short_short_600ms.mp4	116.77579780222618	117.38410486301382	0.608307060787638	n/a	n/a	n/a	n/a
44.71826171875	0.2	91583	17	15	0	0	0	17	131	stimuli\Videos_short_600ms_horflip\47.(long)scratching_with_finger_nails_short_horflip_short_600ms.mp4	47.(long)scratching_with_finger_nails_short_horflip_short_600ms.mp4	117.57578882884808	118.18410380732212	0.6083149784740272	n/a	n/a	n/a	n/a
45.51806640625	0.2	93221	18	15	0	0	0	18	159	stimuli\Videos_short_600ms_horflip\72.(short)stroke_with_finger_all_over_the_hand_short_horflip_short_600ms.mp4	72.(short)stroke_with_finger_all_over_the_hand_short_horflip_short_600ms.mp4	118.3757795622223	118.98412210597552	0.6083425437532242	n/a	n/a	n/a	n/a
46.31787109375	0.2	94859	19	15	0	0	0	19	39	stimuli\Videos_short_600ms\45.scratching_with_finger_nails_short_short_600ms.mp4	45.scratching_with_finger_nails_short_short_600ms.mp4	119.17577528080665	119.78409612423366	0.6083208434270091	n/a	n/a	n/a	n/a
47.1181640625	0.2	96498	20	15	0	0	0	20	118	stimuli\Videos_short_600ms_horflip\35.single_punch_with_hand_short_horflip_short_600ms.mp4	35.single_punch_with_hand_short_horflip_short_600ms.mp4	119.9757592694848	120.58408451162676	0.6083252421419729	n/a	n/a	n/a	n/a
47.91796875	0.2	98136	21	15	0	0	0	21	322	stimuli\Videos_short_600ms_vertflip\57.single_touch_with_nail_file_short_vertflip_short_600ms.mp4	57.single_touch_with_nail_file_short_vertflip_short_600ms.mp4	120.77575146909749	121.38407817747748	0.608326708379991	n/a	n/a	n/a	n/a
48.7177734375	0.2	99774	22	15	0	0	0	22	207	stimuli\Videos_short_600ms_horvertflip\34.repeated_punch_with_hand_short_horvertflip_short_600ms.mp4	34.repeated_punch_with_hand_short_horvertflip_short_600ms.mp4	121.57574044298576	122.18406451213696	0.6083240691511946	n/a	n/a	n/a	n/a
49.51806640625	0.2	101413	23	15	0	0	0	23	65	stimuli\Videos_short_600ms\69.stroke_with_soft_sock_short_short_600ms.mp4	69.stroke_with_soft_sock_short_short_600ms.mp4	122.3757332290936	122.98405319277776	0.6083199636841528	n/a	n/a	n/a	n/a
50.31787109375	0.2	103051	24	15	0	0	0	24	121	stimuli\Videos_short_600ms_horflip\38.double_slap_with_pencil_short_horflip_short_600ms.mp4	38.double_slap_with_pencil_short_horflip_short_600ms.mp4	123.1756867200163	123.78404597888562	0.6083592588693136	n/a	n/a	n/a	n/a
51.11767578125	0.2	104689	25	15	0	0	0	25	33	stimuli\Videos_short_600ms\4.repeated_tap_with_finger_slow_short_short_600ms.mp4	4.repeated_tap_with_finger_slow_short_short_600ms.mp4	123.97569504824946	124.58403671225985	0.6083416640103678	n/a	n/a	n/a	n/a
51.91796875	0.2	106328	26	15	0	0	0	26	294	stimuli\Videos_short_600ms_vertflip\31.hand_grabbing_wrist_short_vertflip_short_600ms.mp4	31.hand_grabbing_wrist_short_vertflip_short_600ms.mp4	124.77565704335392	125.38402891187228	0.6083718685183612	n/a	n/a	n/a	n/a
52.7177734375	0.2	107966	27	15	0	0	1	27	371	stimuli\Targets_short_600ms_horflip\hand-stroke_short_horflip_short_600ms.mp4	hand-stroke_short_horflip_short_600ms.mp4	125.57564748348068	126.18401612627486	0.6083686427941757	n/a	n/a	n/a	n/a
53.517578125	0.2	109604	28	15	0	0	0	28	12	stimuli\Videos_short_600ms\20.single_touch_with_screwdriver_short_short_600ms.mp4	20.single_touch_with_screwdriver_short_short_600ms.mp4	126.37566109017166	126.98400422042003	0.6083431302483859	n/a	n/a	n/a	n/a
54.31787109375	0.2	111243	29	15	0	0	1	29	382	stimuli\Targets_short_600ms_vertflip\hand-pinch_short_horvertflip_short_600ms.mp4	hand-pinch_short_horvertflip_short_600ms.mp4	127.17565563576522	127.78399319430856	0.6083375585433259	n/a	n/a	n/a	n/a
55.11767578125	0.2	112881	30	15	0	0	0	30	69	stimuli\Videos_short_600ms\72.(short)stroke_with_finger_all_over_the_hand_short_short_600ms.mp4	72.(short)stroke_with_finger_all_over_the_hand_short_short_600ms.mp4	127.97564431640605	128.58398686015926	0.6083425437532242	n/a	n/a	n/a	n/a
55.91796875	0.2	114520	31	15	0	0	1	31	380	stimuli\Targets_short_600ms_vertflip\chopstickwood-tap_short_horvertflip_short_600ms.mp4	chopstickwood-tap_short_horvertflip_short_600ms.mp4	128.77565938933526	129.38395911893144	0.6082997295961832	n/a	n/a	n/a	n/a
56.7177734375	0.2	116158	32	15	0	0	0	32	221	stimuli\Videos_short_600ms_horvertflip\47.(long)scratching_with_finger_nails_short_horvertflip_short_600ms.mp4	47.(long)scratching_with_finger_nails_short_horvertflip_short_600ms.mp4	129.57562431691622	130.1839436941052	0.608319377188991	n/a	n/a	n/a	n/a
57.517578125	0.2	117796	33	15	0	0	0	33	227	stimuli\Videos_short_600ms_horvertflip\52.touch_top_to_bottom_with_hammer_short_horvertflip_short_600ms.mp4	52.touch_top_to_bottom_with_hammer_short_horvertflip_short_600ms.mp4	130.37563264514938	130.98393472072712	0.6083020755777397	n/a	n/a	n/a	n/a
58.31787109375	0.2	119435	34	15	0	0	0	34	290	stimuli\Videos_short_600ms_vertflip\28.single_injection_with_sharp_needle_short_vertflip_short_600ms.mp4	28.single_injection_with_sharp_needle_short_vertflip_short_600ms.mp4	131.17562484476207	131.78393366503542	0.6083088202733506	n/a	n/a	n/a	n/a
59.11767578125	0.2	121073	35	15	0	0	0	35	147	stimuli\Videos_short_600ms_horflip\61.single_hit_with_rolling_pin_short_horflip_short_600ms.mp4	61.single_hit_with_rolling_pin_short_horflip_short_600ms.mp4	131.97561323215496	132.58392938361976	0.6083161514648054	n/a	n/a	n/a	n/a
59.91748046875	0.2	122711	36	15	0	0	0	36	63	stimuli\Videos_short_600ms\67.single_touch_with_sponge_short_short_600ms.mp4	67.single_touch_with_sponge_short_short_600ms.mp4	132.77560396552917	133.3839333131384	0.6083293476092422	n/a	n/a	n/a	n/a
60.7177734375	0.2	124350	37	15	0	0	0	37	199	stimuli\Videos_short_600ms_horvertflip\27.single_push_with_a_plastic_whisk_short_horvertflip_short_600ms.mp4	27.single_push_with_a_plastic_whisk_short_horvertflip_short_600ms.mp4	133.57559352591284	134.18392815197967	0.608334626066835	n/a	n/a	n/a	n/a
61.517578125	0.2	125988	38	15	0	0	0	38	351	stimuli\Videos_short_600ms_vertflip\83.single_stroke_top_to_bottom_with_cotton_bud_short_vertflip_short_600ms.mp4	83.single_stroke_top_to_bottom_with_cotton_bud_short_vertflip_short_600ms.mp4	134.37558777825893	134.98391184741035	0.608324069151422	n/a	n/a	n/a	n/a
62.3173828125	0.2	127626	39	15	0	0	0	39	117	stimuli\Videos_short_600ms_horflip\34.repeated_punch_with_hand_short_horflip_short_600ms.mp4	34.repeated_punch_with_hand_short_horflip_short_600ms.mp4	135.1755770453949	135.78390258078457	0.6083255353896675	n/a	n/a	n/a	n/a
63.11767578125	0.2	129265	40	15	0	0	0	40	149	stimuli\Videos_short_600ms_horflip\63.stroke_top_to_bottom_with_screwdriver_short_horflip_short_600ms.mp4	63.stroke_top_to_bottom_with_screwdriver_short_horflip_short_600ms.mp4	135.9755660192834	136.58389184792054	0.6083258286371347	n/a	n/a	n/a	n/a
63.91748046875	0.2	130903	41	15	0	0	0	41	296	stimuli\Videos_short_600ms_vertflip\33.scratch_top_to_bottom_with_scissors_short_vertflip_short_600ms.mp4	33.scratch_top_to_bottom_with_scissors_short_vertflip_short_600ms.mp4	136.775563204106	137.3838814083042	0.6083182041982127	n/a	n/a	n/a	n/a
64.71728515625	0.2	132541	42	15	0	0	0	42	356	stimuli\Videos_short_600ms_vertflip\88.repeated_stroke_with_plastic_brush_short_vertflip_short_600ms.mp4	88.repeated_stroke_with_plastic_brush_short_vertflip_short_600ms.mp4	137.57554514005074	138.1838756606503	0.6083305205995657	n/a	n/a	n/a	n/a
65.517578125	0.2	134180	43	15	0	0	0	43	24	stimuli\Videos_short_600ms\31.hand_grabbing_wrist_short_short_600ms.mp4	31.hand_grabbing_wrist_short_short_600ms.mp4	138.37555522776984	138.9838617020621	0.6083064742922488	n/a	n/a	n/a	n/a
66.3173828125	0.2	135818	44	15	0	0	0	44	334	stimuli\Videos_short_600ms_vertflip\68.stroke_top_to_bottom_with_shawl_short_vertflip_short_600ms.mp4	68.stroke_top_to_bottom_with_shawl_short_vertflip_short_600ms.mp4	139.1755442016581	139.7838524354363	0.6083082337781889	n/a	n/a	n/a	n/a
67.1171875	0.2	137456	45	15	0	0	0	45	261	stimuli\Videos_short_600ms_horvertflip\83.single_stroke_top_to_bottom_with_cotton_bud_short_horvertflip_short_600ms.mp4	83.single_stroke_top_to_bottom_with_cotton_bud_short_horvertflip_short_600ms.mp4	139.97549651959025	140.5838434620582	0.6083469424679606	n/a	n/a	n/a	n/a
67.91748046875	0.2	139095	46	15	0	0	0	46	279	stimuli\Videos_short_600ms_vertflip\18.single_stroke_from_top_to_bottom_with_rolling_pin_short_vertflip_short_600ms.mp4	18.single_stroke_from_top_to_bottom_with_rolling_pin_short_vertflip_short_600ms.mp4	140.77548402724028	141.3838377144043	0.6083536871640263	n/a	n/a	n/a	n/a
68.71728515625	0.2	140733	47	15	0	0	0	47	34	stimuli\Videos_short_600ms\40.repeated_push_with_finger_short_short_600ms.mp4	40.repeated_push_with_finger_short_short_600ms.mp4	141.57545481977445	142.18382551530203	0.6083706955275829	n/a	n/a	n/a	n/a
69.51708984375	0.2	142371	48	15	0	0	0	48	254	stimuli\Videos_short_600ms_horvertflip\77.tapping_with_all_fingers_short_horvertflip_short_600ms.mp4	77.tapping_with_all_fingers_short_horvertflip_short_600ms.mp4	142.3754742914184	142.98376962229986	0.6082953308814467	n/a	n/a	n/a	n/a
70.3173828125	0.2	144010	49	15	0	0	0	49	188	stimuli\Videos_short_600ms_horvertflip\17.repeated_touch_with_rolling_pin_short_horvertflip_short_600ms.mp4	17.repeated_touch_with_rolling_pin_short_horvertflip_short_600ms.mp4	143.1754609193256	143.78378938719152	0.6083284678659311	n/a	n/a	n/a	n/a
71.1171875	0.2	145648	50	15	0	0	0	50	17	stimuli\Videos_short_600ms\25.single_touch_with_stanley_knife_short_short_600ms.mp4	25.single_touch_with_stanley_knife_short_short_600ms.mp4	143.97548596267484	144.58378188005167	0.6082959173768359	n/a	n/a	n/a	n/a
71.9169921875	0.2	147286	51	15	0	0	0	51	102	stimuli\Videos_short_600ms_horflip\20.single_touch_with_screwdriver_short_horflip_short_600ms.mp4	20.single_touch_with_screwdriver_short_horflip_short_600ms.mp4	144.77546907161013	145.38376176326278	0.6082926916526503	n/a	n/a	n/a	n/a
72.71728515625	0.2	148925	52	15	0	0	0	52	258	stimuli\Videos_short_600ms_horvertflip\80.stroke_with_sharp_stick_all_over_the_hand_short_horvertflip_short_600ms.mp4	80.stroke_with_sharp_stick_all_over_the_hand_short_horvertflip_short_600ms.mp4	145.57545276704082	146.1837718509821	0.6083190839412964	n/a	n/a	n/a	n/a
73.51708984375	0.2	150563	53	15	0	0	0	53	146	stimuli\Videos_short_600ms_horflip\60.single_push_with_tip_of_pencil_short_horflip_short_600ms.mp4	60.single_push_with_tip_of_pencil_short_horflip_short_600ms.mp4	146.37544115443393	146.9837446962497	0.6083035418157579	n/a	n/a	n/a	n/a
74.31689453125	0.2	152201	54	15	0	0	0	54	340	stimuli\Videos_short_600ms_vertflip\73.single_stroke_with_flat_hand_short_vertflip_short_600ms.mp4	73.single_stroke_with_flat_hand_short_vertflip_short_600ms.mp4	147.1754307148176	147.78373660261445	0.6083058877968597	n/a	n/a	n/a	n/a
75.1171875	0.2	153840	55	15	0	0	0	55	165	stimuli\Videos_short_600ms_horflip\78.single_stroke_top_to_bottom_with_soft_brush_short_horflip_short_600ms.mp4	78.single_stroke_top_to_bottom_with_soft_brush_short_horflip_short_600ms.mp4	147.9754214481918	148.58373085496055	0.6083094067687398	n/a	n/a	n/a	n/a
75.9169921875	0.2	155478	56	15	0	0	0	56	232	stimuli\Videos_short_600ms_horvertflip\57.single_touch_with_nail_file_short_horvertflip_short_600ms.mp4	57.single_touch_with_nail_file_short_horvertflip_short_600ms.mp4	148.77541306130888	149.38374416840384	0.6083311070949549	n/a	n/a	n/a	n/a
76.71728515625	0.2	157117	57	15	0	0	0	57	164	stimuli\Videos_short_600ms_horflip\77.tapping_with_all_fingers_short_horflip_short_600ms.mp4	77.tapping_with_all_fingers_short_horflip_short_600ms.mp4	149.57540262169255	150.18372874357738	0.6083261218848293	n/a	n/a	n/a	n/a
77.51708984375	0.2	158755	58	15	0	0	0	58	323	stimuli\Videos_short_600ms_vertflip\58.single_slap_with_pencil_short_vertflip_short_600ms.mp4	58.single_slap_with_pencil_short_vertflip_short_600ms.mp4	150.37538309139904	150.98372064994237	0.6083375585433259	n/a	n/a	n/a	n/a
78.31689453125	0.2	160393	59	15	0	0	0	59	171	stimuli\Videos_short_600ms_horflip\83.single_stroke_top_to_bottom_with_cotton_bud_short_horflip_short_600ms.mp4	83.single_stroke_top_to_bottom_with_cotton_bud_short_horflip_short_600ms.mp4	151.17540109680476	151.78368880324751	0.6082877064427521	n/a	n/a	n/a	n/a
79.1171875	0.2	162032	60	15	0	0	0	60	220	stimuli\Videos_short_600ms_horvertflip\46.scratching_top_to_bottom_with_finger_nails_short_horvertflip_short_600ms.mp4	46.scratching_top_to_bottom_with_finger_nails_short_horvertflip_short_600ms.mp4	151.97537335557718	152.58370006395717	0.608326708379991	n/a	n/a	n/a	n/a
79.9169921875	0.2	163670	61	15	0	0	0	61	274	stimuli\Videos_short_600ms_vertflip\13.single_touch_with_pen_short_vertflip_short_600ms.mp4	13.single_touch_with_pen_short_vertflip_short_600ms.mp4	152.77536496869425	153.38368903784567	0.608324069151422	n/a	n/a	n/a	n/a
80.716796875	0.2	165308	62	15	0	0	0	62	9	stimuli\Videos_short_600ms\18.single_stroke_from_top_to_bottom_with_rolling_pin_short_short_600ms.mp4	18.single_stroke_from_top_to_bottom_with_rolling_pin_short_short_600ms.mp4	153.57536244676453	154.18368035771528	0.6083179109507455	n/a	n/a	n/a	n/a
81.51708984375	0.2	166947	63	15	0	0	0	63	186	stimuli\Videos_short_600ms_horvertflip\15.single_stroke_top_to_bottom_with_a_plastic_whisk_short_horvertflip_short_600ms.mp4	15.single_stroke_top_to_bottom_with_a_plastic_whisk_short_horvertflip_short_600ms.mp4	154.37535757885348	154.9836713843372	0.6083138054837036	n/a	n/a	n/a	n/a
82.31689453125	0.2	168585	64	15	0	0	0	64	350	stimuli\Videos_short_600ms_vertflip\82.repeated_touch_with_cotton_bud_short_vertflip_short_600ms.mp4	82.repeated_touch_with_cotton_bud_short_vertflip_short_600ms.mp4	155.175332183607	155.78365947848238	0.6083272948753802	n/a	n/a	n/a	n/a
83.11669921875	0.2	170223	65	15	0	0	0	65	75	stimuli\Videos_short_600ms\78.single_stroke_top_to_bottom_with_soft_brush_short_short_600ms.mp4	78.single_stroke_top_to_bottom_with_soft_brush_short_short_600ms.mp4	155.97530356263633	156.58365226459023	0.6083487019539007	n/a	n/a	n/a	n/a
83.9169921875	0.2	171862	66	15	0	0	0	66	130	stimuli\Videos_short_600ms_horflip\46.scratching_top_to_bottom_with_finger_nails_short_horflip_short_600ms.mp4	46.scratching_top_to_bottom_with_finger_nails_short_horflip_short_600ms.mp4	156.77529312302	157.38364299796444	0.6083498749444516	n/a	n/a	n/a	n/a
84.716796875	0.2	173500	67	15	0	0	0	67	22	stimuli\Videos_short_600ms\3.single_push_with_finger_short_short_600ms.mp4	3.single_push_with_finger_short_short_600ms.mp4	157.57528796186125	158.1836299191193	0.6083419572580624	n/a	n/a	n/a	n/a
85.5166015625	0.2	175138	68	15	0	0	0	68	168	stimuli\Videos_short_600ms_horflip\80.stroke_with_sharp_stick_all_over_the_hand_short_horflip_short_600ms.mp4	80.stroke_with_sharp_stick_all_over_the_hand_short_horflip_short_600ms.mp4	158.37528543993153	158.9836080428447	0.6083226029131765	n/a	n/a	n/a	n/a
86.31689453125	0.2	176777	69	15	0	0	1	69	383	stimuli\Targets_short_600ms_vertflip\hand-stroke_short_horvertflip_short_600ms.mp4	hand-stroke_short_horvertflip_short_600ms.mp4	159.17529288842184	159.78357033119687	0.6082774427750337	n/a	n/a	n/a	n/a
87.11669921875	0.2	178415	70	15	0	0	0	70	310	stimuli\Videos_short_600ms_vertflip\46.scratching_top_to_bottom_with_finger_nails_short_vertflip_short_600ms.mp4	46.scratching_top_to_bottom_with_finger_nails_short_vertflip_short_600ms.mp4	159.97528714076793	160.58357953917312	0.6082923984051831	n/a	n/a	n/a	n/a
87.91650390625	0.2	180053	71	15	0	0	0	71	226	stimuli\Videos_short_600ms_horvertflip\51.repeated_touch_with_hammer_short_horvertflip_short_600ms.mp4	51.repeated_touch_with_hammer_short_horvertflip_short_600ms.mp4	160.77526936996037	161.38357173878558	0.6083023688252069	n/a	n/a	n/a	n/a
88.716796875	0.2	181692	72	15	0	0	0	72	205	stimuli\Videos_short_600ms_horvertflip\32.single_(long)pinch_with_fingers_short_horvertflip_short_600ms.mp4	32.single_(long)pinch_with_fingers_short_horvertflip_short_600ms.mp4	161.5752650885447	162.18356129916924	0.6082962106245304	n/a	n/a	n/a	n/a
89.5166015625	0.2	183330	73	15	0	0	0	73	139	stimuli\Videos_short_600ms_horflip\54.repeated_touch_with_knife_short_horflip_short_600ms.mp4	54.repeated_touch_with_knife_short_horflip_short_600ms.mp4	162.37525200969935	162.98356141646832	0.6083094067689672	n/a	n/a	n/a	n/a
90.31640625	0.2	184968	74	15	0	0	0	74	286	stimuli\Videos_short_600ms_vertflip\24.single_stroke_top_to_bottom_with_a_spoon_short_vertflip_short_600ms.mp4	24.single_stroke_top_to_bottom_with_a_spoon_short_vertflip_short_600ms.mp4	163.1752418633307	163.7835474578801	0.6083055945493925	n/a	n/a	n/a	n/a
91.11669921875	0.2	186607	75	15	0	0	0	75	329	stimuli\Videos_short_600ms_vertflip\63.stroke_top_to_bottom_with_screwdriver_short_vertflip_short_600ms.mp4	63.stroke_top_to_bottom_with_screwdriver_short_vertflip_short_600ms.mp4	163.97522966422844	164.58357074174342	0.6083410775149787	n/a	n/a	n/a	n/a
91.91650390625	0.2	188245	76	15	0	0	0	76	213	stimuli\Videos_short_600ms_horvertflip\4.repeated_tap_with_finger_slow_short_horvertflip_short_600ms.mp4	4.repeated_tap_with_finger_slow_short_horvertflip_short_600ms.mp4	164.7752001635149	165.38356411434663	0.6083639508317447	n/a	n/a	n/a	n/a
92.71630859375	0.2	189883	77	15	0	0	0	77	84	stimuli\Videos_short_600ms\86.touch_top_to_bottom_with_hair_brush_short_short_600ms.mp4	86.touch_top_to_bottom_with_hair_brush_short_short_600ms.mp4	165.5752108377294	166.18353871910017	0.6083278813707693	n/a	n/a	n/a	n/a
93.5166015625	0.2	191522	78	15	0	0	0	78	142	stimuli\Videos_short_600ms_horflip\57.single_touch_with_nail_file_short_horflip_short_600ms.mp4	57.single_touch_with_nail_file_short_horflip_short_600ms.mp4	166.3752018643513	166.98352739974075	0.6083255353894401	n/a	n/a	n/a	n/a
94.31640625	0.2	193160	79	15	0	0	0	79	202	stimuli\Videos_short_600ms_horvertflip\3.single_push_with_finger_short_horvertflip_short_600ms.mp4	3.single_push_with_finger_short_horvertflip_short_600ms.mp4	167.17519142473498	167.7835272237921	0.6083357990571585	n/a	n/a	n/a	n/a
95.11669921875	0.2	194799	80	15	0	0	0	80	239	stimuli\Videos_short_600ms_horvertflip\63.stroke_top_to_bottom_with_screwdriver_short_horvertflip_short_600ms.mp4	63.stroke_top_to_bottom_with_screwdriver_short_horvertflip_short_600ms.mp4	167.97518362434744	168.5835112124705	0.6083275881230747	n/a	n/a	n/a	n/a
95.91650390625	0.2	196437	81	15	0	0	0	81	31	stimuli\Videos_short_600ms\38.double_slap_with_pencil_short_short_600ms.mp4	38.double_slap_with_pencil_short_short_600ms.mp4	168.7751764104553	169.38349842687285	0.60832201641756	n/a	n/a	n/a	n/a
96.71630859375	0.2	198075	82	15	0	0	0	82	236	stimuli\Videos_short_600ms_horvertflip\60.single_push_with_tip_of_pencil_short_horvertflip_short_600ms.mp4	60.single_push_with_tip_of_pencil_short_horvertflip_short_600ms.mp4	169.5751565869141	170.18349003999015	0.6083334530760567	n/a	n/a	n/a	n/a
97.5166015625	0.2	199714	83	15	0	0	0	83	15	stimuli\Videos_short_600ms\23.single_push_with_a_spoon_short_short_600ms.mp4	23.single_push_with_a_spoon_short_short_600ms.mp4	170.3751388161063	170.98348399908855	0.6083451829822479	n/a	n/a	n/a	n/a
98.31640625	0.2	201352	84	15	0	0	1	84	379	stimuli\Targets_short_600ms_vertflip\chopstick-silver-tap_short_horvertflip_short_600ms.mp4	chopstick-silver-tap_short_horvertflip_short_600ms.mp4	171.175125150766	171.78347062699572	0.6083454762297151	n/a	n/a	n/a	n/a
99.1162109375	0.2	202990	85	15	0	0	0	85	313	stimuli\Videos_short_600ms_vertflip\49.repeated_slap_with_hand_short_vertflip_short_600ms.mp4	49.repeated_slap_with_hand_short_vertflip_short_600ms.mp4	171.97511412465428	172.58346194686533	0.6083478222110443	n/a	n/a	n/a	n/a
99.91650390625	0.2	204629	86	15	0	0	0	86	145	stimuli\Videos_short_600ms_horflip\6.single_touch_with_flat_hand_short_horflip_short_600ms.mp4	6.single_touch_with_flat_hand_short_horflip_short_600ms.mp4	172.77512626510702	173.38344916126766	0.6083228961606437	n/a	n/a	n/a	n/a
100.71630859375	0.2	206267	87	15	0	0	0	87	54	stimuli\Videos_short_600ms\59.single_push_with_long_side_pencil_short_short_600ms.mp4	59.single_push_with_long_side_pencil_short_short_600ms.mp4	173.57511875796718	174.18343637567023	0.6083176177030509	n/a	n/a	n/a	n/a
101.51611328125	0.2	207905	88	15	0	0	0	88	28	stimuli\Videos_short_600ms\35.single_punch_with_hand_short_short_600ms.mp4	35.single_punch_with_hand_short_short_600ms.mp4	174.37510978458909	174.98338898684983	0.6082792022607464	n/a	n/a	n/a	n/a
102.31640625	0.2	209544	89	15	0	0	0	89	169	stimuli\Videos_short_600ms_horflip\81.single_stroke_top_to_bottom_with_cotton_pad_short_horflip_short_600ms.mp4	81.single_stroke_top_to_bottom_with_cotton_pad_short_horflip_short_600ms.mp4	175.17510902214508	175.78338851765352	0.608279495508441	n/a	n/a	n/a	n/a
103.1162109375	0.2	211182	90	15	0	0	0	90	263	stimuli\Videos_short_600ms_horvertflip\85.touch_top_to_bottom_with_fabric_short_horvertflip_short_600ms.mp4	85.touch_top_to_bottom_with_fabric_short_horvertflip_short_600ms.mp4	175.97509066484213	176.58336810761716	0.6082774427750337	n/a	n/a	n/a	n/a
103.916015625	0.2	212820	91	15	0	0	0	91	180	stimuli\Videos_short_600ms_horvertflip\1.repeated_touch_with_finger_fast_short_horvertflip_short_600ms.mp4	1.repeated_touch_with_finger_fast_short_horvertflip_short_600ms.mp4	176.77508462394053	177.38335972073446	0.6082750967939319	n/a	n/a	n/a	n/a
104.71630859375	0.2	214459	92	15	0	0	0	92	359	stimuli\Videos_short_600ms_vertflip\90.repeated_touch_with_sponge_short_vertflip_short_600ms.mp4	90.repeated_touch_with_sponge_short_vertflip_short_600ms.mp4	177.57506773287605	178.1833876965602	0.6083199636841528	n/a	n/a	n/a	n/a
105.51611328125	0.2	216097	93	15	0	0	0	93	1	stimuli\Videos_short_600ms\10.single_touch_with_knife_short_short_600ms.mp4	10.single_touch_with_knife_short_short_600ms.mp4	178.37506169197445	178.98337021900034	0.6083085270258834	n/a	n/a	n/a	n/a
106.31591796875	0.2	217735	94	15	0	0	0	94	55	stimuli\Videos_short_600ms\6.single_touch_with_flat_hand_short_short_600ms.mp4	6.single_touch_with_flat_hand_short_short_600ms.mp4	179.17500755845822	179.78338734466297	0.6083797862047504	n/a	n/a	n/a	n/a
107.1162109375	0.2	219374	95	15	0	0	0	95	328	stimuli\Videos_short_600ms_vertflip\62.touch_top_to_bottom_with_scissors_short_vertflip_short_600ms.mp4	62.touch_top_to_bottom_with_scissors_short_vertflip_short_600ms.mp4	179.97504227898003	180.5833751455607	0.6083328665806675	6.0	6.0	2.440101674825428	1.0
152.5146484375	0.2	312350	96	15	1	0	0	0	123	stimuli\Videos_short_600ms_horflip\4.repeated_tap_with_finger_slow_short_horflip_short_600ms.mp4	4.repeated_tap_with_finger_slow_short_horflip_short_600ms.mp4	225.3745065741723	225.9828224323894	0.6083158582171109	n/a	n/a	n/a	n/a
153.314453125	0.2	313988	97	15	1	0	0	1	38	stimuli\Videos_short_600ms\44.pushing_top_to_bottom_with_finger_short_short_600ms.mp4	44.pushing_top_to_bottom_with_finger_short_short_600ms.mp4	226.17449466831772	226.78282606866037	0.6083314003426494	n/a	n/a	n/a	n/a
154.11474609375	0.2	315627	98	15	1	0	1	2	362	stimuli\Targets_short_600ms\chopstickwood-tap_short_short_600ms.mp4	chopstickwood-tap_short_short_600ms.mp4	226.97448657468271	227.58281005733875	0.6083234826560329	n/a	n/a	n/a	n/a
154.91455078125	0.2	317265	99	15	1	0	0	3	211	stimuli\Videos_short_600ms_horvertflip\38.double_slap_with_pencil_short_horvertflip_short_600ms.mp4	38.double_slap_with_pencil_short_horvertflip_short_600ms.mp4	227.774475548571	228.3828087083996	0.6083331598285895	n/a	n/a	n/a	n/a
155.71435546875	0.2	318903	100	15	1	0	0	4	318	stimuli\Videos_short_600ms_vertflip\53.touch_top_to_bottom_with_knife_short_vertflip_short_600ms.mp4	53.touch_top_to_bottom_with_knife_short_vertflip_short_600ms.mp4	228.57446452245927	229.18279064434432	0.6083261218850566	n/a	n/a	n/a	n/a
156.5146484375	0.2	320542	101	15	1	0	0	5	70	stimuli\Videos_short_600ms\73.single_stroke_with_flat_hand_short_short_600ms.mp4	73.single_stroke_with_flat_hand_short_short_600ms.mp4	229.37445672207195	229.9827796182326	0.6083228961606437	n/a	n/a	n/a	n/a
157.314453125	0.2	322180	102	15	1	0	0	6	265	stimuli\Videos_short_600ms_horvertflip\87.single_stroke_top_to_bottom_with_plastic_brush_short_horvertflip_short_600ms.mp4	87.single_stroke_top_to_bottom_with_plastic_brush_short_horvertflip_short_600ms.mp4	230.17440317505088	230.78277211109275	0.6083689360418703	n/a	n/a	n/a	n/a
158.1142578125	0.2	323818	103	15	1	0	1	7	360	stimuli\Targets_short_600ms\brush-stroke_short_short_600ms.mp4	brush-stroke_short_short_600ms.mp4	230.97437572707076	231.5827596187428	0.6083838916720197	n/a	n/a	n/a	n/a
158.91455078125	0.2	325457	104	15	1	0	0	8	35	stimuli\Videos_short_600ms\41.injection_with_blunt_syringe_short_short_600ms.mp4	41.injection_with_blunt_syringe_short_short_600ms.mp4	231.7743817093228	232.38275416433655	0.6083724550137504	n/a	n/a	n/a	n/a
159.71435546875	0.2	327095	105	15	1	0	1	9	378	stimuli\Targets_short_600ms_vertflip\brush-stroke_short_horvertflip_short_600ms.mp4	brush-stroke_short_horvertflip_short_600ms.mp4	232.57439443627095	233.1827446044631	0.6083501681921462	n/a	n/a	n/a	n/a
160.51416015625	0.2	328733	106	15	1	0	0	10	192	stimuli\Videos_short_600ms_horvertflip\20.single_touch_with_screwdriver_short_horvertflip_short_600ms.mp4	20.single_touch_with_screwdriver_short_horvertflip_short_600ms.mp4	233.3743875156265	233.982735631085	0.6083481154585115	n/a	n/a	n/a	n/a
161.314453125	0.2	330372	107	15	1	0	0	11	114	stimuli\Videos_short_600ms_horflip\31.hand_grabbing_wrist_short_horflip_short_600ms.mp4	31.hand_grabbing_wrist_short_horflip_short_600ms.mp4	234.17437619626708	234.78272284548757	0.6083466492204934	n/a	n/a	n/a	n/a
162.1142578125	0.2	332010	108	15	1	0	0	12	335	stimuli\Videos_short_600ms_vertflip\69.stroke_with_soft_sock_short_vertflip_short_600ms.mp4	69.stroke_with_soft_sock_short_vertflip_short_600ms.mp4	234.97439302868224	235.5827135788618	0.6083205501795419	n/a	n/a	n/a	n/a
162.9140625	0.2	333648	109	15	1	0	0	13	183	stimuli\Videos_short_600ms_horvertflip\12.repeated_touch_with_nail_file_short_horvertflip_short_600ms.mp4	12.repeated_touch_with_nail_file_short_horvertflip_short_600ms.mp4	235.77436792668345	236.38270519197889	0.608337265295404	n/a	n/a	n/a	n/a
163.71435546875	0.2	335287	110	15	1	0	0	14	214	stimuli\Videos_short_600ms_horvertflip\40.repeated_push_with_finger_short_horvertflip_short_600ms.mp4	40.repeated_push_with_finger_short_horvertflip_short_600ms.mp4	236.57437449543067	237.18270208355375	0.6083275881230747	n/a	n/a	n/a	n/a
164.51416015625	0.2	336925	111	15	1	0	0	15	332	stimuli\Videos_short_600ms_vertflip\66.stroke_top_to_bottom_with_sponge_short_vertflip_short_600ms.mp4	66.stroke_top_to_bottom_with_sponge_short_vertflip_short_600ms.mp4	237.37436845452908	237.98266701113496	0.6082985566058596	n/a	n/a	n/a	n/a
165.314453125	0.2	338564	112	15	1	0	0	16	282	stimuli\Videos_short_600ms_vertflip\20.single_touch_with_screwdriver_short_vertflip_short_600ms.mp4	20.single_touch_with_screwdriver_short_vertflip_short_600ms.mp4	238.1743506837215	238.7826536390421	0.6083029553205961	n/a	n/a	n/a	n/a
166.1142578125	0.2	340202	113	15	1	0	0	17	27	stimuli\Videos_short_600ms\34.repeated_punch_with_hand_short_short_600ms.mp4	34.repeated_punch_with_hand_short_short_600ms.mp4	238.97430006917716	239.5826288302908	0.6083287611136257	n/a	n/a	n/a	n/a
166.9140625	0.2	341840	114	15	1	0	0	18	252	stimuli\Videos_short_600ms_horvertflip\75.(long)stroke_with_fingers_all_over_the_hand_short_horvertflip_short_600ms.mp4	75.(long)stroke_with_fingers_all_over_the_hand_short_horvertflip_short_600ms.mp4	239.7743342032036	240.38266237782204	0.6083281746184639	n/a	n/a	n/a	n/a
167.71435546875	0.2	343479	115	15	1	0	0	19	201	stimuli\Videos_short_600ms_horvertflip\29.single_pinch_with_tweezers_short_horvertflip_short_600ms.mp4	29.single_pinch_with_tweezers_short_horvertflip_short_600ms.mp4	240.5743246433301	241.182651644958	0.608327001627913	n/a	n/a	n/a	n/a
168.51416015625	0.2	345117	116	15	1	0	0	20	156	stimuli\Videos_short_600ms_horflip\7.repeated_touch_with_hairbrush_short_horflip_short_600ms.mp4	7.repeated_touch_with_hairbrush_short_horflip_short_600ms.mp4	241.37429279663525	241.98264677704697	0.6083539804117208	n/a	n/a	n/a	n/a
169.31396484375	0.2	346755	117	15	1	0	0	21	167	stimuli\Videos_short_600ms_horflip\8.single_touch_with_hairbrush_short_horflip_short_600ms.mp4	8.single_touch_with_hairbrush_short_horflip_short_600ms.mp4	242.17430669657392	242.78263017922995	0.6083234826560329	n/a	n/a	n/a	n/a
170.1142578125	0.2	348394	118	15	1	0	0	22	206	stimuli\Videos_short_600ms_horvertflip\33.scratch_top_to_bottom_with_scissors_short_horvertflip_short_600ms.mp4	33.scratch_top_to_bottom_with_scissors_short_horvertflip_short_600ms.mp4	242.9743047611396	243.5826229653378	0.6083182041982127	n/a	n/a	n/a	n/a
170.9140625	0.2	350032	119	15	1	0	1	23	376	stimuli\Targets_short_600ms_horvertflip\hand-pinch_short_vertflip_short_600ms.mp4	hand-pinch_short_vertflip_short_600ms.mp4	243.77428611058895	244.3826110594832	0.6083249488942784	n/a	n/a	n/a	n/a
171.7138671875	0.2	351670	120	15	1	0	0	24	23	stimuli\Videos_short_600ms\30.finger_pulling_back_another_finger_short_short_600ms.mp4	30.finger_pulling_back_another_finger_short_short_600ms.mp4	244.57427625746777	245.18260091311456	0.6083246556468112	n/a	n/a	n/a	n/a
172.51416015625	0.2	353309	121	15	1	0	0	25	179	stimuli\Videos_short_600ms_horflip\90.repeated_touch_with_sponge_short_horflip_short_600ms.mp4	90.repeated_touch_with_sponge_short_horflip_short_600ms.mp4	245.37427725450993	245.9825910599934	0.6083138054834762	n/a	n/a	n/a	n/a
173.31396484375	0.2	354947	122	15	1	0	0	26	338	stimuli\Videos_short_600ms_vertflip\71.single_stroke_with_finger_top_to_bottom_short_vertflip_short_600ms.mp4	71.single_stroke_with_finger_top_to_bottom_short_vertflip_short_600ms.mp4	246.1742553782351	246.7825826731107	0.6083272948756075	n/a	n/a	n/a	n/a
174.11376953125	0.2	356585	123	15	1	0	0	27	277	stimuli\Videos_short_600ms_vertflip\16.repeated_touch_with_plastic_brush_short_vertflip_short_600ms.mp4	16.repeated_touch_with_plastic_brush_short_vertflip_short_600ms.mp4	246.97422499777872	247.58257076725613	0.6083457694774097	n/a	n/a	n/a	n/a
174.9140625	0.2	358224	124	15	1	0	1	28	377	stimuli\Targets_short_600ms_horvertflip\hand-stroke_short_vertflip_short_600ms.mp4	hand-stroke_short_vertflip_short_600ms.mp4	247.7742001890274	248.382543319276	0.6083431302486133	n/a	n/a	n/a	n/a
175.7138671875	0.2	359862	125	15	1	0	0	29	243	stimuli\Videos_short_600ms_horvertflip\67.single_touch_with_sponge_short_horvertflip_short_600ms.mp4	67.single_touch_with_sponge_short_horvertflip_short_600ms.mp4	248.57420059957417	249.18255985844348	0.6083592588693136	n/a	n/a	n/a	n/a
176.513671875	0.2	361500	126	15	1	0	0	30	247	stimuli\Videos_short_600ms_horvertflip\70.(long)stroke_with_finger_all_over_the_hand_short_horvertflip_short_600ms.mp4	70.(long)stroke_with_finger_all_over_the_hand_short_horvertflip_short_600ms.mp4	249.3744880995705	249.98254443361705	0.6080563340465233	n/a	n/a	n/a	n/a
177.31396484375	0.2	363139	127	15	1	0	0	31	321	stimuli\Videos_short_600ms_vertflip\56.repeated_touch_with_nail_file_short_vertflip_short_600ms.mp4	56.repeated_touch_with_nail_file_short_vertflip_short_600ms.mp4	250.1741905705044	250.78253311425783	0.6083425437534515	n/a	n/a	n/a	n/a
178.11376953125	0.2	364777	128	15	1	0	0	32	228	stimuli\Videos_short_600ms_horvertflip\53.touch_top_to_bottom_with_knife_short_horvertflip_short_600ms.mp4	53.touch_top_to_bottom_with_knife_short_horvertflip_short_600ms.mp4	250.97418277011707	251.5825273666037	0.6083445964866314	n/a	n/a	n/a	n/a
178.91357421875	0.2	366415	129	15	1	0	0	33	306	stimuli\Videos_short_600ms_vertflip\42.single_slap_with_plastic_whisk_short_vertflip_short_600ms.mp4	42.single_slap_with_plastic_whisk_short_vertflip_short_600ms.mp4	251.77419051185484	252.38247293984	0.6082824279851593	n/a	n/a	n/a	n/a
179.7138671875	0.2	368054	130	15	1	0	0	34	160	stimuli\Videos_short_600ms_horflip\73.single_stroke_with_flat_hand_short_horflip_short_600ms.mp4	73.single_stroke_with_flat_hand_short_horflip_short_600ms.mp4	252.57418769667743	253.18248126807316	0.608293571395734	n/a	n/a	n/a	n/a
180.513671875	0.2	369692	131	15	1	0	0	35	2	stimuli\Videos_short_600ms\11.single_touch_with_lighter_short_short_600ms.mp4	11.single_touch_with_lighter_short_short_600ms.mp4	253.37416787313623	253.98248138537224	0.608313512236009	n/a	n/a	n/a	n/a
181.3134765625	0.2	371330	132	15	1	0	0	36	19	stimuli\Videos_short_600ms\27.single_push_with_a_plastic_whisk_short_short_600ms.mp4	27.single_push_with_a_plastic_whisk_short_short_600ms.mp4	254.1741735621408	254.7824627348216	0.6082891726807702	n/a	n/a	n/a	n/a
182.11376953125	0.2	372969	133	15	1	0	0	37	115	stimuli\Videos_short_600ms_horflip\32.single_(long)pinch_with_fingers_short_horflip_short_600ms.mp4	32.single_(long)pinch_with_fingers_short_horflip_short_600ms.mp4	254.97415373859965	255.5824646116066	0.6083108730069853	n/a	n/a	n/a	n/a
182.91357421875	0.2	374607	134	15	1	0	0	38	287	stimuli\Videos_short_600ms_vertflip\25.single_touch_with_stanley_knife_short_vertflip_short_600ms.mp4	25.single_touch_with_stanley_knife_short_vertflip_short_600ms.mp4	255.7741403665068	256.38245710446677	0.6083167379599672	n/a	n/a	n/a	n/a
183.7138671875	0.2	376246	135	15	1	0	0	39	20	stimuli\Videos_short_600ms\28.single_injection_with_sharp_needle_short_short_600ms.mp4	28.single_injection_with_sharp_needle_short_short_600ms.mp4	256.57413227287157	257.18246543270016	0.6083331598285895	n/a	n/a	n/a	n/a
184.513671875	0.2	377884	136	15	1	0	0	40	150	stimuli\Videos_short_600ms_horflip\64.repeated_touch_with_screwdriver_short_horflip_short_600ms.mp4	64.repeated_touch_with_screwdriver_short_horflip_short_600ms.mp4	257.3741227129981	257.982455579579	0.6083328665808949	n/a	n/a	n/a	n/a
185.3134765625	0.2	379522	137	15	1	0	0	41	36	stimuli\Videos_short_600ms\42.single_slap_with_plastic_whisk_short_short_600ms.mp4	42.single_slap_with_plastic_whisk_short_short_600ms.mp4	258.17411520585824	258.7824410344956	0.6083258286373621	n/a	n/a	n/a	n/a
186.11376953125	0.2	381161	138	15	1	0	0	42	272	stimuli\Videos_short_600ms_vertflip\11.single_touch_with_lighter_short_vertflip_short_600ms.mp4	11.single_touch_with_lighter_short_vertflip_short_600ms.mp4	258.97410417974675	259.5824303016316	0.6083261218848293	n/a	n/a	n/a	n/a
186.91357421875	0.2	382799	139	15	1	0	0	43	32	stimuli\Videos_short_600ms\39.single_stab_with_scissors_short_short_600ms.mp4	39.single_stab_with_scissors_short_short_600ms.mp4	259.7740963793592	260.3824254337205	0.6083290543613202	n/a	n/a	n/a	n/a
187.71337890625	0.2	384437	140	15	1	0	0	44	56	stimuli\Videos_short_600ms\60.single_push_with_tip_of_pencil_short_short_600ms.mp4	60.single_push_with_tip_of_pencil_short_short_600ms.mp4	260.5740874059811	261.1824149941042	0.6083275881230747	n/a	n/a	n/a	n/a
188.513671875	0.2	386076	141	15	1	0	0	45	161	stimuli\Videos_short_600ms_horflip\74.fingers_walking_from_top_to_bottom_short_horflip_short_600ms.mp4	74.fingers_walking_from_top_to_bottom_short_horflip_short_600ms.mp4	261.374074327136	261.98240426124016	0.6083299341041766	n/a	n/a	n/a	n/a
189.3134765625	0.2	387714	142	15	1	0	0	46	285	stimuli\Videos_short_600ms_vertflip\23.single_push_with_a_spoon_short_vertflip_short_600ms.mp4	23.single_push_with_a_spoon_short_vertflip_short_600ms.mp4	262.17406887272955	262.78240173931044	0.6083328665808949	n/a	n/a	n/a	n/a
190.11328125	0.2	389352	143	15	1	0	0	47	99	stimuli\Videos_short_600ms_horflip\18.single_stroke_from_top_to_bottom_with_rolling_pin_short_horflip_short_600ms.mp4	18.single_stroke_from_top_to_bottom_with_rolling_pin_short_horflip_short_600ms.mp4	262.9740367327872	263.58238191576925	0.6083451829820206	n/a	n/a	n/a	n/a
190.91357421875	0.2	390991	144	15	1	0	0	48	331	stimuli\Videos_short_600ms_vertflip\65.stroke_top_to_bottom_with_stanley_knife_short_vertflip_short_600ms.mp4	65.stroke_top_to_bottom_with_stanley_knife_short_vertflip_short_600ms.mp4	263.7740057658352	264.38237352888655	0.6083677630513193	n/a	n/a	n/a	n/a
191.71337890625	0.2	392629	145	15	1	0	0	49	138	stimuli\Videos_short_600ms_horflip\53.touch_top_to_bottom_with_knife_short_horflip_short_600ms.mp4	53.touch_top_to_bottom_with_knife_short_horflip_short_600ms.mp4	264.5740143873161	265.1823276063044	0.6083132189883145	n/a	n/a	n/a	n/a
192.51318359375	0.2	394267	146	15	1	0	0	50	219	stimuli\Videos_short_600ms_horvertflip\45.scratching_with_finger_nails_short_horvertflip_short_600ms.mp4	45.scratching_with_finger_nails_short_horvertflip_short_600ms.mp4	265.3740077599193	265.9823567551209	0.6083489952015952	n/a	n/a	n/a	n/a
193.3134765625	0.2	395906	147	15	1	0	0	51	14	stimuli\Videos_short_600ms\22.single_touch_with_metal_chopstick_short_short_600ms.mp4	22.single_touch_with_metal_chopstick_short_short_600ms.mp4	266.1740081704661	266.78236361711583	0.608355446649739	n/a	n/a	n/a	n/a
194.11328125	0.2	397544	148	15	1	0	0	52	107	stimuli\Videos_short_600ms_horflip\25.single_touch_with_stanley_knife_short_horflip_short_600ms.mp4	25.single_touch_with_stanley_knife_short_horflip_short_600ms.mp4	266.97398424145763	267.58233265016406	0.6083484087064335	n/a	n/a	n/a	n/a
194.9130859375	0.2	399182	149	15	1	0	0	53	268	stimuli\Videos_short_600ms_horvertflip\9.single_touch_with_hammer_short_horvertflip_short_600ms.mp4	9.single_touch_with_hammer_short_horvertflip_short_600ms.mp4	267.77400811181656	268.3823069616699	0.6082988498533268	n/a	n/a	n/a	n/a
195.71337890625	0.2	400821	150	15	1	0	0	54	303	stimuli\Videos_short_600ms_vertflip\4.repeated_tap_with_finger_slow_short_vertflip_short_600ms.mp4	4.repeated_tap_with_finger_slow_short_vertflip_short_600ms.mp4	268.57399356673295	269.1823088384549	0.6083152717219491	n/a	n/a	n/a	n/a
196.51318359375	0.2	402459	151	15	1	0	0	55	7	stimuli\Videos_short_600ms\16.repeated_touch_with_plastic_brush_short_short_600ms.mp4	16.repeated_touch_with_plastic_brush_short_short_600ms.mp4	269.373983713612	269.9822854959418	0.6083017823298178	n/a	n/a	n/a	n/a
197.31298828125	0.2	404097	152	15	1	0	0	56	170	stimuli\Videos_short_600ms_horflip\82.repeated_touch_with_cotton_bud_short_horflip_short_600ms.mp4	82.repeated_touch_with_cotton_bud_short_horflip_short_600ms.mp4	270.1739726875003	270.78230379459524	0.6083311070949549	n/a	n/a	n/a	n/a
198.11328125	0.2	405736	153	15	1	0	1	57	373	stimuli\Targets_short_600ms_horvertflip\chopstick-silver-tap_short_vertflip_short_600ms.mp4	chopstick-silver-tap_short_vertflip_short_600ms.mp4	270.9747807020758	271.5822962874554	0.6075155853795877	n/a	n/a	n/a	n/a
198.9130859375	0.2	407374	154	15	1	0	0	58	177	stimuli\Videos_short_600ms_horflip\89.single_touch_with_plastic_brush_short_horflip_short_600ms.mp4	89.single_touch_with_plastic_brush_short_horflip_short_600ms.mp4	271.7739955021675	272.382279103143	0.6082836009754828	n/a	n/a	n/a	n/a
199.712890625	0.2	409012	155	15	1	0	0	59	256	stimuli\Videos_short_600ms_horvertflip\79.long_with_soft_brush_all_over_the_hand_short_horvertflip_short_600ms.mp4	79.long_with_soft_brush_all_over_the_hand_short_horvertflip_short_600ms.mp4	272.5739407821559	273.1822780474515	0.6083372652956314	n/a	n/a	n/a	n/a
200.51318359375	0.2	410651	156	15	1	0	0	60	315	stimuli\Videos_short_600ms_vertflip\50.single_(long)hard_push_with_thumb_short_vertflip_short_600ms.mp4	50.single_(long)hard_push_with_thumb_short_vertflip_short_600ms.mp4	273.37393327501604	273.9822588104057	0.6083255353896675	n/a	n/a	n/a	n/a
201.31298828125	0.2	412289	157	15	1	0	0	61	135	stimuli\Videos_short_600ms_horflip\50.single_(long)hard_push_with_thumb_short_horflip_short_600ms.mp4	50.single_(long)hard_push_with_thumb_short_horflip_short_600ms.mp4	274.1739263543716	274.7822618601813	0.6083355058096913	n/a	n/a	n/a	n/a
202.11328125	0.2	413928	158	15	1	0	0	62	74	stimuli\Videos_short_600ms\77.tapping_with_all_fingers_short_short_600ms.mp4	77.tapping_with_all_fingers_short_short_600ms.mp4	274.9739173809935	275.5822391041636	0.6083217231700928	n/a	n/a	n/a	n/a
202.9130859375	0.2	415566	159	15	1	0	0	63	10	stimuli\Videos_short_600ms\19.single_touch_with_rolling_pin_short_short_600ms.mp4	19.single_touch_with_rolling_pin_short_short_600ms.mp4	275.77390459539583	276.3822295442901	0.6083249488942784	n/a	n/a	n/a	n/a
203.712890625	0.2	417204	160	15	1	0	0	64	295	stimuli\Videos_short_600ms_vertflip\32.single_(long)pinch_with_fingers_short_vertflip_short_600ms.mp4	32.single_(long)pinch_with_fingers_short_vertflip_short_600ms.mp4	276.57390119372326	277.1822208641597	0.6083196704364582	n/a	n/a	n/a	n/a
204.51318359375	0.2	418843	161	15	1	0	0	65	42	stimuli\Videos_short_600ms\48.single_slap_with_hand_short_short_600ms.mp4	48.single_slap_with_hand_short_short_600ms.mp4	277.3738611360941	277.98220925155283	0.6083481154587389	n/a	n/a	n/a	n/a
205.31298828125	0.2	420481	162	15	1	0	0	66	18	stimuli\Videos_short_600ms\26.single_touch_with_a_blunt_syringe_short_short_600ms.mp4	26.single_touch_with_a_blunt_syringe_short_short_600ms.mp4	278.17386125339317	278.78220262415584	0.6083413707626733	n/a	n/a	n/a	n/a
206.11279296875	0.2	422119	163	15	1	0	0	67	301	stimuli\Videos_short_600ms_vertflip\38.double_slap_with_pencil_short_vertflip_short_600ms.mp4	38.double_slap_with_pencil_short_vertflip_short_600ms.mp4	278.9738543327487	279.5821921845395	0.6083378517907931	n/a	n/a	n/a	n/a
206.9130859375	0.2	423758	164	15	1	0	0	68	209	stimuli\Videos_short_600ms_horvertflip\36.single_slap_with_full_hand_short_horvertflip_short_600ms.mp4	36.single_slap_with_full_hand_short_horvertflip_short_600ms.mp4	279.77381192913845	280.38216649604533	0.6083545669068826	n/a	n/a	n/a	n/a
207.712890625	0.2	425396	165	15	1	0	1	69	374	stimuli\Targets_short_600ms_horvertflip\chopstickwood-tap_short_vertflip_short_600ms.mp4	chopstickwood-tap_short_vertflip_short_600ms.mp4	280.5739047126949	281.18217394453563	0.6082692318407226	n/a	n/a	n/a	n/a
208.5126953125	0.2	427034	166	15	1	0	0	70	280	stimuli\Videos_short_600ms_vertflip\19.single_touch_with_rolling_pin_short_vertflip_short_600ms.mp4	19.single_touch_with_rolling_pin_short_vertflip_short_600ms.mp4	281.37381861518475	281.9821599859474	0.6083413707626733	n/a	n/a	n/a	n/a
209.31298828125	0.2	428673	167	15	1	0	0	71	325	stimuli\Videos_short_600ms_vertflip\6.single_touch_with_flat_hand_short_vertflip_short_600ms.mp4	6.single_touch_with_flat_hand_short_vertflip_short_600ms.mp4	282.1738284096564	282.7821609829896	0.6083325733332003	n/a	n/a	n/a	n/a
210.11279296875	0.2	430311	168	15	1	0	0	72	101	stimuli\Videos_short_600ms_horflip\2.single_touch_with_finger_short_horflip_short_600ms.mp4	2.single_touch_with_finger_short_horflip_short_600ms.mp4	282.9738267674695	283.582100398025	0.608273630555459	n/a	n/a	n/a	n/a
210.91259765625	0.2	431949	169	15	1	0	0	73	355	stimuli\Videos_short_600ms_vertflip\87.single_stroke_top_to_bottom_with_plastic_brush_short_vertflip_short_600ms.mp4	87.single_stroke_top_to_bottom_with_plastic_brush_short_vertflip_short_600ms.mp4	283.77381163589075	284.38211341822057	0.6083017823298178	n/a	n/a	n/a	n/a
211.712890625	0.2	433588	170	15	1	0	0	74	155	stimuli\Videos_short_600ms_horflip\69.stroke_with_soft_sock_short_horflip_short_600ms.mp4	69.stroke_with_soft_sock_short_horflip_short_600ms.mp4	284.5737991435408	285.18210503133787	0.608305887797087	n/a	n/a	n/a	n/a
212.5126953125	0.2	435226	171	15	1	0	0	75	30	stimuli\Videos_short_600ms\37.single_stab_with_nail_file_short_short_600ms.mp4	37.single_stab_with_nail_file_short_short_600ms.mp4	285.3737910499058	285.9820852077967	0.6082941578908958	n/a	n/a	n/a	n/a
213.3125	0.2	436864	172	15	1	0	0	76	73	stimuli\Videos_short_600ms\76.tickle_with_fingers_from_top_to_bottom_short_short_600ms.mp4	76.tickle_with_fingers_from_top_to_bottom_short_short_600ms.mp4	286.17377973054636	286.7820870845817	0.6083073540353325	n/a	n/a	n/a	n/a
214.11279296875	0.2	438503	173	15	1	0	0	77	132	stimuli\Videos_short_600ms_horflip\48.single_slap_with_hand_short_horflip_short_600ms.mp4	48.single_slap_with_hand_short_horflip_short_600ms.mp4	286.97377105041596	287.58207693821305	0.608305887797087	n/a	n/a	n/a	n/a
214.91259765625	0.2	440141	174	15	1	0	1	78	365	stimuli\Targets_short_600ms\hand-stroke_short_short_600ms.mp4	hand-stroke_short_short_600ms.mp4	287.77376237028557	288.38209758284756	0.6083352125619967	n/a	n/a	n/a	n/a
215.71240234375	0.2	441779	175	15	1	0	0	79	270	stimuli\Videos_short_600ms_vertflip\1.repeated_touch_with_finger_fast_short_vertflip_short_600ms.mp4	1.repeated_touch_with_finger_fast_short_vertflip_short_600ms.mp4	288.573750464431	289.18207805255406	0.6083275881230747	n/a	n/a	n/a	n/a
216.5126953125	0.2	443418	176	15	1	0	0	80	217	stimuli\Videos_short_600ms_horvertflip\43.touch_top_to_bottom_with_sharp_wooden_stick_short_horvertflip_short_600ms.mp4	43.touch_top_to_bottom_with_sharp_wooden_stick_short_horvertflip_short_600ms.mp4	289.37374207754806	289.982073184643	0.6083311070949549	n/a	n/a	n/a	n/a
217.3125	0.2	445056	177	15	1	0	0	81	196	stimuli\Videos_short_600ms_horvertflip\24.single_stroke_top_to_bottom_with_a_spoon_short_horvertflip_short_600ms.mp4	24.single_stroke_top_to_bottom_with_a_spoon_short_horvertflip_short_600ms.mp4	290.1737328109223	290.78205805306425	0.6083252421419729	n/a	n/a	n/a	n/a
218.1123046875	0.2	446694	178	15	1	0	0	82	330	stimuli\Videos_short_600ms_vertflip\64.repeated_touch_with_screwdriver_short_vertflip_short_600ms.mp4	64.repeated_touch_with_screwdriver_short_vertflip_short_600ms.mp4	290.97372266455363	291.5820479066956	0.6083252421419729	n/a	n/a	n/a	n/a
218.91259765625	0.2	448333	179	15	1	0	0	83	110	stimuli\Videos_short_600ms_horflip\28.single_injection_with_sharp_needle_short_horflip_short_600ms.mp4	28.single_injection_with_sharp_needle_short_horflip_short_600ms.mp4	291.77369404358296	292.3820412792986	0.6083472357156552	n/a	n/a	n/a	n/a
219.71240234375	0.2	449971	180	15	1	0	0	84	113	stimuli\Videos_short_600ms_horflip\30.finger_pulling_back_another_finger_short_horflip_short_600ms.mp4	30.finger_pulling_back_another_finger_short_horflip_short_600ms.mp4	292.573705890788	293.1820284937012	0.6083226029131765	n/a	n/a	n/a	n/a
220.5126953125	0.2	451610	181	15	1	0	0	85	13	stimuli\Videos_short_600ms\21.repeated_touch_with_metal_chopstick_short_short_600ms.mp4	21.repeated_touch_with_metal_chopstick_short_short_600ms.mp4	293.37367756306503	293.98202069331364	0.6083431302486133	n/a	n/a	n/a	n/a
221.3125	0.2	453248	182	15	1	0	0	86	80	stimuli\Videos_short_600ms\82.repeated_touch_with_cotton_bud_short_short_600ms.mp4	82.repeated_touch_with_cotton_bud_short_short_600ms.mp4	294.17366507071506	294.7820131861738	0.6083481154587389	n/a	n/a	n/a	n/a
222.1123046875	0.2	454886	183	15	1	0	1	87	364	stimuli\Targets_short_600ms\hand-pinch_short_short_600ms.mp4	hand-pinch_short_short_600ms.mp4	294.9736525783653	295.58200040057636	0.6083478222110443	n/a	n/a	n/a	n/a
222.91259765625	0.2	456525	184	15	1	0	0	88	45	stimuli\Videos_short_600ms\50.single_(long)hard_push_with_thumb_short_short_600ms.mp4	50.single_(long)hard_push_with_thumb_short_short_600ms.mp4	295.77362131816585	296.38199172044574	0.6083704022798884	n/a	n/a	n/a	n/a
223.71240234375	0.2	458163	185	15	1	0	0	89	148	stimuli\Videos_short_600ms_horflip\62.touch_top_to_bottom_with_scissors_short_horflip_short_600ms.mp4	62.touch_top_to_bottom_with_scissors_short_horflip_short_600ms.mp4	296.57363404511375	297.1819821605725	0.6083481154587389	n/a	n/a	n/a	n/a
224.51220703125	0.2	459801	186	15	1	0	0	90	249	stimuli\Videos_short_600ms_horvertflip\72.(short)stroke_with_finger_all_over_the_hand_short_horvertflip_short_600ms.mp4	72.(short)stroke_with_finger_all_over_the_hand_short_horvertflip_short_600ms.mp4	297.3736294704504	297.9819397569622	0.6083102865118235	n/a	n/a	n/a	n/a
225.3125	0.2	461440	187	15	1	0	0	91	275	stimuli\Videos_short_600ms_vertflip\14.repeated_touch_with_pencil_short_vertflip_short_600ms.mp4	14.repeated_touch_with_pencil_short_vertflip_short_600ms.mp4	298.17364659611326	298.7819894331142	0.6083428370009187	n/a	n/a	n/a	n/a
226.1123046875	0.2	463078	188	15	1	0	0	92	264	stimuli\Videos_short_600ms_horvertflip\86.touch_top_to_bottom_with_hair_brush_short_horvertflip_short_600ms.mp4	86.touch_top_to_bottom_with_hair_brush_short_horvertflip_short_600ms.mp4	298.9736373294875	299.58195406744744	0.6083167379599672	n/a	n/a	n/a	n/a
226.912109375	0.2	464716	189	15	1	0	0	93	108	stimuli\Videos_short_600ms_horflip\26.single_touch_with_a_blunt_syringe_short_horflip_short_600ms.mp4	26.single_touch_with_a_blunt_syringe_short_horflip_short_600ms.mp4	299.77361809244167	300.38192368699083	0.6083055945491651	n/a	n/a	n/a	n/a
227.71240234375	0.2	466355	190	15	1	0	0	94	154	stimuli\Videos_short_600ms_horflip\68.stroke_top_to_bottom_with_shawl_short_horflip_short_600ms.mp4	68.stroke_top_to_bottom_with_shawl_short_horflip_short_600ms.mp4	300.5736102920541	301.18190884865976	0.6082985566056323	n/a	n/a	n/a	n/a
228.51220703125	0.2	467993	191	15	1	0	0	95	190	stimuli\Videos_short_600ms_horvertflip\19.single_touch_with_rolling_pin_short_horvertflip_short_600ms.mp4	19.single_touch_with_rolling_pin_short_horvertflip_short_600ms.mp4	301.37359779970416	301.98193271901846	0.6083349193143022	n/a	n/a	n/a	n/a
229.31201171875	0.2	469631	192	15	1	0	0	96	40	stimuli\Videos_short_600ms\46.scratching_top_to_bottom_with_finger_nails_short_short_600ms.mp4	46.scratching_top_to_bottom_with_finger_nails_short_short_600ms.mp4	302.1735985034986	302.7818958871137	0.6082973836150813	n/a	n/a	n/a	n/a
230.1123046875	0.2	471270	193	15	1	0	0	97	85	stimuli\Videos_short_600ms\87.single_stroke_top_to_bottom_with_plastic_brush_short_short_600ms.mp4	87.single_stroke_top_to_bottom_with_plastic_brush_short_short_600ms.mp4	302.9735792664526	303.581909200557	0.608329934104404	n/a	n/a	n/a	n/a
230.912109375	0.2	472908	194	15	1	0	0	98	187	stimuli\Videos_short_600ms_horvertflip\16.repeated_touch_with_plastic_brush_short_horvertflip_short_600ms.mp4	16.repeated_touch_with_plastic_brush_short_horvertflip_short_600ms.mp4	303.7735702930745	304.3819028664077	0.6083325733332003	9.0	9.0	2.737247759368074	1.0
266.39453125	0.2	545576	195	15	2	0	0	0	284	stimuli\Videos_short_600ms_vertflip\22.single_touch_with_metal_chopstick_short_vertflip_short_600ms.mp4	22.single_touch_with_metal_chopstick_short_vertflip_short_600ms.mp4	339.2564611987905	339.86481312646856	0.6083519276780862	n/a	n/a	n/a	n/a
267.1943359375	0.2	547214	196	15	2	0	0	1	182	stimuli\Videos_short_600ms_horvertflip\11.single_touch_with_lighter_short_horvertflip_short_600ms.mp4	11.single_touch_with_lighter_short_horvertflip_short_600ms.mp4	340.0564551578889	340.6647915434414	0.6083363855525477	n/a	n/a	n/a	n/a
267.994140625	0.2	548852	197	15	2	0	0	2	255	stimuli\Videos_short_600ms_horvertflip\78.single_stroke_top_to_bottom_with_soft_brush_short_horvertflip_short_600ms.mp4	78.single_stroke_top_to_bottom_with_soft_brush_short_horvertflip_short_600ms.mp4	340.85645556843565	341.4647951797124	0.6083396112767332	n/a	n/a	n/a	n/a
268.79443359375	0.2	550491	198	15	2	0	0	3	98	stimuli\Videos_short_600ms_horflip\17.repeated_touch_with_rolling_pin_short_horflip_short_600ms.mp4	17.repeated_touch_with_rolling_pin_short_horflip_short_600ms.mp4	341.65642987994147	342.26477388993294	0.6083440099914696	n/a	n/a	n/a	n/a
269.59423828125	0.2	552129	199	15	2	0	0	4	72	stimuli\Videos_short_600ms\75.(long)stroke_with_fingers_all_over_the_hand_short_short_600ms.mp4	75.(long)stroke_with_fingers_all_over_the_hand_short_short_600ms.mp4	342.4564420203942	343.064764036812	0.6083220164177874	n/a	n/a	n/a	n/a
270.39404296875	0.2	553767	200	15	2	0	0	5	103	stimuli\Videos_short_600ms_horflip\21.repeated_touch_with_metal_chopstick_short_horflip_short_600ms.mp4	21.repeated_touch_with_metal_chopstick_short_horflip_short_600ms.mp4	343.2564198508719	343.8647541836908	0.608334332818913	n/a	n/a	n/a	n/a
271.1943359375	0.2	555406	201	15	2	0	0	6	244	stimuli\Videos_short_600ms_horvertflip\68.stroke_top_to_bottom_with_shawl_short_horvertflip_short_600ms.mp4	68.stroke_top_to_bottom_with_shawl_short_horvertflip_short_600ms.mp4	344.05641468971316	344.66474521031273	0.6083305205995657	n/a	n/a	n/a	n/a
271.994140625	0.2	557044	202	15	2	0	1	7	366	stimuli\Targets_short_600ms_horflip\brush-stroke_short_horflip_short_600ms.mp4	brush-stroke_short_horflip_short_600ms.mp4	344.8563664211499	345.4646969417495	0.6083305205995657	n/a	n/a	n/a	n/a
272.7939453125	0.2	558682	203	15	2	0	0	8	333	stimuli\Videos_short_600ms_vertflip\67.single_touch_with_sponge_short_vertflip_short_600ms.mp4	67.single_touch_with_sponge_short_vertflip_short_600ms.mp4	345.6563773886121	346.2647266770614	0.6083492884492898	n/a	n/a	n/a	n/a
273.59423828125	0.2	560321	204	15	2	0	0	9	58	stimuli\Videos_short_600ms\62.touch_top_to_bottom_with_scissors_short_short_600ms.mp4	62.touch_top_to_bottom_with_scissors_short_short_600ms.mp4	346.4563678287386	347.0647162374448	0.6083484087062061	n/a	n/a	n/a	n/a
274.39404296875	0.2	561959	205	15	2	0	1	10	372	stimuli\Targets_short_600ms_horvertflip\brush-stroke_short_vertflip_short_600ms.mp4	brush-stroke_short_vertflip_short_600ms.mp4	347.2563647203135	347.8647031585997	0.6083384382861823	n/a	n/a	n/a	n/a
275.19384765625	0.2	563597	206	15	2	0	0	11	250	stimuli\Videos_short_600ms_horvertflip\73.single_stroke_with_flat_hand_short_horvertflip_short_600ms.mp4	73.single_stroke_with_flat_hand_short_horvertflip_short_600ms.mp4	348.05634753600134	348.66469829068865	0.6083507546873079	n/a	n/a	n/a	n/a
275.994140625	0.2	565236	207	15	2	0	0	12	106	stimuli\Videos_short_600ms_horflip\24.single_stroke_top_to_bottom_with_a_spoon_short_horflip_short_600ms.mp4	24.single_stroke_top_to_bottom_with_a_spoon_short_horflip_short_600ms.mp4	348.85635205201515	349.46464386392495	0.608291811909794	n/a	n/a	n/a	n/a
276.7939453125	0.2	566874	208	15	2	0	0	13	349	stimuli\Videos_short_600ms_vertflip\81.single_stroke_top_to_bottom_with_cotton_pad_short_vertflip_short_600ms.mp4	81.single_stroke_top_to_bottom_with_cotton_pad_short_vertflip_short_600ms.mp4	349.6563465976087	350.2646689072742	0.608322309665482	n/a	n/a	n/a	n/a
277.59375	0.2	568512	209	15	2	0	0	14	298	stimuli\Videos_short_600ms_vertflip\35.single_punch_with_hand_short_vertflip_short_600ms.mp4	35.single_punch_with_hand_short_vertflip_short_600ms.mp4	350.4563203226194	351.06467811525044	0.6083577926310682	n/a	n/a	n/a	n/a
278.39404296875	0.2	570151	210	15	2	0	0	15	225	stimuli\Videos_short_600ms_horvertflip\50.single_(long)hard_push_with_thumb_short_horvertflip_short_600ms.mp4	50.single_(long)hard_push_with_thumb_short_horvertflip_short_600ms.mp4	351.25633598204377	351.864632485916	0.608296503872225	n/a	n/a	n/a	n/a
279.19384765625	0.2	571789	211	15	2	0	0	16	253	stimuli\Videos_short_600ms_horvertflip\76.tickle_with_fingers_from_top_to_bottom_short_horvertflip_short_600ms.mp4	76.tickle_with_fingers_from_top_to_bottom_short_horvertflip_short_600ms.mp4	352.0563243694369	352.6646235125379	0.6082991431010214	n/a	n/a	n/a	n/a
279.99365234375	0.2	573427	212	15	2	0	0	17	5	stimuli\Videos_short_600ms\14.repeated_touch_with_pencil_short_short_600ms.mp4	14.repeated_touch_with_pencil_short_short_600ms.mp4	352.8563769780653	353.46461952436994	0.6082425463046093	n/a	n/a	n/a	n/a
280.7939453125	0.2	575066	213	15	2	0	0	18	125	stimuli\Videos_short_600ms_horflip\41.injection_with_blunt_syringe_short_horflip_short_600ms.mp4	41.injection_with_blunt_syringe_short_horflip_short_600ms.mp4	353.65630436994707	354.2646108442393	0.6083064742922488	n/a	n/a	n/a	n/a
281.59375	0.2	576704	214	15	2	0	0	19	341	stimuli\Videos_short_600ms_vertflip\74.fingers_walking_from_top_to_bottom_short_vertflip_short_600ms.mp4	74.fingers_walking_from_top_to_bottom_short_vertflip_short_600ms.mp4	354.45627223000474	355.06463178212175	0.6083595521170082	n/a	n/a	n/a	n/a
282.39404296875	0.2	578343	215	15	2	0	0	20	337	stimuli\Videos_short_600ms_vertflip\70.(long)stroke_with_finger_all_over_the_hand_short_vertflip_short_600ms.mp4	70.(long)stroke_with_finger_all_over_the_hand_short_vertflip_short_600ms.mp4	355.256261203893	355.8646099058469	0.6083487019539007	n/a	n/a	n/a	n/a
283.19384765625	0.2	579981	216	15	2	0	0	21	21	stimuli\Videos_short_600ms\29.single_pinch_with_tweezers_short_short_600ms.mp4	29.single_pinch_with_tweezers_short_short_600ms.mp4	356.0562525237626	356.6646015189642	0.6083489952015952	n/a	n/a	n/a	n/a
283.99365234375	0.2	581619	217	15	2	0	0	22	210	stimuli\Videos_short_600ms_horvertflip\37.single_stab_with_nail_file_short_horvertflip_short_600ms.mp4	37.single_stab_with_nail_file_short_horvertflip_short_600ms.mp4	356.8562631979771	357.46459137259535	0.6083281746182365	n/a	n/a	n/a	n/a
284.7939453125	0.2	583258	218	15	2	0	0	23	104	stimuli\Videos_short_600ms_horflip\22.single_touch_with_metal_chopstick_short_horflip_short_600ms.mp4	22.single_touch_with_metal_chopstick_short_horflip_short_600ms.mp4	357.656254224599	358.26458034648385	0.6083261218848293	n/a	n/a	n/a	n/a
285.59375	0.2	584896	219	15	2	0	0	24	46	stimuli\Videos_short_600ms\51.repeated_touch_with_hammer_short_short_600ms.mp4	51.repeated_touch_with_hammer_short_short_600ms.mp4	358.4562426119919	359.06457107985807	0.6083284678661585	n/a	n/a	n/a	n/a
286.3935546875	0.2	586534	220	15	2	0	0	25	304	stimuli\Videos_short_600ms_vertflip\40.repeated_push_with_finger_short_vertflip_short_600ms.mp4	40.repeated_push_with_finger_short_vertflip_short_600ms.mp4	359.2562178032408	359.86456034699404	0.6083425437532242	n/a	n/a	n/a	n/a
287.19384765625	0.2	588173	221	15	2	0	0	26	326	stimuli\Videos_short_600ms_vertflip\60.single_push_with_tip_of_pencil_short_vertflip_short_600ms.mp4	60.single_push_with_tip_of_pencil_short_vertflip_short_600ms.mp4	360.0562003256807	360.6645504938731	0.6083501681923735	n/a	n/a	n/a	n/a
287.99365234375	0.2	589811	222	15	2	0	0	27	83	stimuli\Videos_short_600ms\85.touch_top_to_bottom_with_fabric_short_short_600ms.mp4	85.touch_top_to_bottom_with_fabric_short_short_600ms.mp4	360.85621217288576	361.464538881266	0.6083267083802184	n/a	n/a	n/a	n/a
288.79345703125	0.2	591449	223	15	2	0	0	28	97	stimuli\Videos_short_600ms_horflip\16.repeated_touch_with_plastic_brush_short_horflip_short_600ms.mp4	16.repeated_touch_with_plastic_brush_short_horflip_short_600ms.mp4	361.6561600921032	362.2645310808784	0.6083709887752775	n/a	n/a	n/a	n/a
289.59375	0.2	593088	224	15	2	0	0	29	100	stimuli\Videos_short_600ms_horflip\19.single_touch_with_rolling_pin_short_horflip_short_600ms.mp4	19.single_touch_with_rolling_pin_short_horflip_short_600ms.mp4	362.4561534647062	363.0645267994628	0.6083733347566067	n/a	n/a	n/a	n/a
290.3935546875	0.2	594726	225	15	2	0	0	30	319	stimuli\Videos_short_600ms_vertflip\54.repeated_touch_with_knife_short_vertflip_short_600ms.mp4	54.repeated_touch_with_knife_short_vertflip_short_600ms.mp4	363.2561688308831	363.8645128408748	0.608344009991697	n/a	n/a	n/a	n/a
291.20166015625	0.2	596381	226	15	2	0	0	31	293	stimuli\Videos_short_600ms_vertflip\30.finger_pulling_back_another_finger_short_vertflip_short_600ms.mp4	30.finger_pulling_back_another_finger_short_vertflip_short_600ms.mp4	364.06453031843466	364.6728344467458	0.608304128311147	n/a	n/a	n/a	n/a
292.001953125	0.2	598020	227	15	2	0	0	32	216	stimuli\Videos_short_600ms_horvertflip\42.single_slap_with_plastic_whisk_short_horvertflip_short_600ms.mp4	42.single_slap_with_plastic_whisk_short_horvertflip_short_600ms.mp4	364.8645072691693	365.4728237138818	0.6083164447125	n/a	n/a	n/a	n/a
292.8017578125	0.2	599658	228	15	2	0	0	33	59	stimuli\Videos_short_600ms\63.stroke_top_to_bottom_with_screwdriver_short_short_600ms.mp4	63.stroke_top_to_bottom_with_screwdriver_short_short_600ms.mp4	365.66446691829265	366.2728176729802	0.6083507546875353	n/a	n/a	n/a	n/a
293.6015625	0.2	601296	229	15	2	0	0	34	47	stimuli\Videos_short_600ms\52.touch_top_to_bottom_with_hammer_short_short_600ms.mp4	52.touch_top_to_bottom_with_hammer_short_short_600ms.mp4	366.4644374175791	367.072803714392	0.6083662968128465	n/a	n/a	n/a	n/a
294.40185546875	0.2	602935	230	15	2	0	0	35	66	stimuli\Videos_short_600ms\7.repeated_touch_with_hairbrush_short_short_600ms.mp4	7.repeated_touch_with_hairbrush_short_short_600ms.mp4	367.2644480917936	367.8727947410139	0.608346649220266	n/a	n/a	n/a	n/a
295.20166015625	0.2	604573	231	15	2	0	0	36	257	stimuli\Videos_short_600ms_horvertflip\8.single_touch_with_hairbrush_short_horvertflip_short_600ms.mp4	8.single_touch_with_hairbrush_short_horvertflip_short_600ms.mp4	368.0644417576443	368.67278664737864	0.608344889734326	n/a	n/a	n/a	n/a
296.001953125	0.2	606212	232	15	2	0	0	37	152	stimuli\Videos_short_600ms_horflip\66.stroke_top_to_bottom_with_sponge_short_horflip_short_600ms.mp4	66.stroke_top_to_bottom_with_sponge_short_horflip_short_600ms.mp4	368.864431318028	369.4727718090476	0.6083404910195895	n/a	n/a	n/a	n/a
296.8017578125	0.2	607850	233	15	2	0	0	38	82	stimuli\Videos_short_600ms\84.single_touch_with_cotton_bud_short_short_600ms.mp4	84.single_touch_with_cotton_bud_short_short_600ms.mp4	369.66443378130816	370.27275227875407	0.6083184974459073	n/a	n/a	n/a	n/a
297.6015625	0.2	609488	234	15	2	0	0	39	86	stimuli\Videos_short_600ms\88.repeated_stroke_with_plastic_brush_short_short_600ms.mp4	88.repeated_stroke_with_plastic_brush_short_short_600ms.mp4	370.46443888381737	371.0727324552129	0.6082935713955067	n/a	n/a	n/a	n/a
298.40185546875	0.2	611127	235	15	2	0	0	40	215	stimuli\Videos_short_600ms_horvertflip\41.injection_with_blunt_syringe_short_horvertflip_short_600ms.mp4	41.injection_with_blunt_syringe_short_horvertflip_short_600ms.mp4	371.2644111425895	371.8727228953396	0.608311752750069	n/a	n/a	n/a	n/a
299.20166015625	0.2	612765	236	15	2	0	0	41	276	stimuli\Videos_short_600ms_vertflip\15.single_stroke_top_to_bottom_with_a_plastic_whisk_short_vertflip_short_600ms.mp4	15.single_stroke_top_to_bottom_with_a_plastic_whisk_short_vertflip_short_600ms.mp4	372.0644168315939	372.672712748971	0.6082959173770632	n/a	n/a	n/a	n/a
300.00146484375	0.2	614403	237	15	2	0	0	42	299	stimuli\Videos_short_600ms_vertflip\36.single_slap_with_full_hand_short_vertflip_short_600ms.mp4	36.single_slap_with_full_hand_short_vertflip_short_600ms.mp4	372.8644043392442	373.4727116932793	0.6083073540351052	n/a	n/a	n/a	n/a
300.81005859375	0.2	616059	238	15	2	0	0	43	90	stimuli\Videos_short_600ms_horflip\1.repeated_touch_with_finger_fast_short_horflip_short_600ms.mp4	1.repeated_touch_with_finger_fast_short_horflip_short_600ms.mp4	373.67268664993	374.2810500142664	0.6083633643363555	n/a	n/a	n/a	n/a
301.60986328125	0.2	617697	239	15	2	0	0	44	26	stimuli\Videos_short_600ms\33.scratch_top_to_bottom_with_scissors_short_short_600ms.mp4	33.scratch_top_to_bottom_with_scissors_short_short_600ms.mp4	374.4727005498687	375.0810448531078	0.6083443032391642	n/a	n/a	n/a	n/a
302.40966796875	0.2	619335	240	15	2	0	0	45	231	stimuli\Videos_short_600ms_horvertflip\56.repeated_touch_with_nail_file_short_horvertflip_short_600ms.mp4	56.repeated_touch_with_nail_file_short_horvertflip_short_600ms.mp4	375.27271210382605	375.8810162321372	0.608304128311147	n/a	n/a	n/a	n/a
303.2099609375	0.2	620974	241	15	2	0	0	46	343	stimuli\Videos_short_600ms_vertflip\76.tickle_with_fingers_from_top_to_bottom_short_vertflip_short_600ms.mp4	76.tickle_with_fingers_from_top_to_bottom_short_vertflip_short_600ms.mp4	376.0726975587427	376.681002273549	0.6083047148063088	n/a	n/a	n/a	n/a
304.009765625	0.2	622612	242	15	2	0	0	47	237	stimuli\Videos_short_600ms_horvertflip\61.single_hit_with_rolling_pin_short_horvertflip_short_600ms.mp4	61.single_hit_with_rolling_pin_short_horvertflip_short_600ms.mp4	376.8726853596404	377.480995646152	0.6083102865115961	n/a	n/a	n/a	n/a
304.8095703125	0.2	624250	243	15	2	0	0	48	111	stimuli\Videos_short_600ms_horflip\29.single_pinch_with_tweezers_short_horflip_short_600ms.mp4	29.single_pinch_with_tweezers_short_horflip_short_600ms.mp4	377.67265409944093	378.2809679049244	0.6083138054834762	n/a	n/a	n/a	n/a
305.60986328125	0.2	625889	244	15	2	0	0	49	269	stimuli\Videos_short_600ms_horvertflip\90.repeated_touch_with_sponge_short_horvertflip_short_600ms.mp4	90.repeated_touch_with_sponge_short_horvertflip_short_600ms.mp4	378.4726685858748	379.080992655026	0.6083240691511946	n/a	n/a	n/a	n/a
306.40966796875	0.2	627527	245	15	2	0	0	50	312	stimuli\Videos_short_600ms_vertflip\48.single_slap_with_hand_short_vertflip_short_600ms.mp4	48.single_slap_with_hand_short_vertflip_short_600ms.mp4	379.27265492053425	379.8809652070461	0.6083102865118235	n/a	n/a	n/a	n/a
307.20947265625	0.2	629165	246	15	2	0	1	51	370	stimuli\Targets_short_600ms_horflip\hand-pinch_short_horflip_short_600ms.mp4	hand-pinch_short_horflip_short_600ms.mp4	380.072649466128	380.6809799867276	0.6083305205995657	n/a	n/a	n/a	n/a
308.009765625	0.2	630804	247	15	2	0	0	52	158	stimuli\Videos_short_600ms_horflip\71.single_stroke_with_finger_top_to_bottom_short_horflip_short_600ms.mp4	71.single_stroke_with_finger_top_to_bottom_short_horflip_short_600ms.mp4	380.87263961300687	381.4809619226723	0.608322309665482	n/a	n/a	n/a	n/a
308.8095703125	0.2	632442	248	15	2	0	0	53	122	stimuli\Videos_short_600ms_horflip\39.single_stab_with_scissors_short_horflip_short_600ms.mp4	39.single_stab_with_scissors_short_horflip_short_600ms.mp4	381.6726294666382	382.2809570547613	0.6083275881230747	n/a	n/a	n/a	n/a
309.609375	0.2	634080	249	15	2	0	0	54	181	stimuli\Videos_short_600ms_horvertflip\10.single_touch_with_knife_short_horvertflip_short_600ms.mp4	10.single_touch_with_knife_short_horvertflip_short_600ms.mp4	382.47262254599354	383.08094426916387	0.6083217231703202	n/a	n/a	n/a	n/a
310.40966796875	0.2	635719	250	15	2	0	0	55	248	stimuli\Videos_short_600ms_horvertflip\71.single_stroke_with_finger_top_to_bottom_short_horvertflip_short_600ms.mp4	71.single_stroke_with_finger_top_to_bottom_short_horvertflip_short_600ms.mp4	383.27260888065325	383.88093382954753	0.6083249488942784	n/a	n/a	n/a	n/a
311.20947265625	0.2	637357	251	15	2	0	0	56	195	stimuli\Videos_short_600ms_horvertflip\23.single_push_with_a_spoon_short_horvertflip_short_600ms.mp4	23.single_push_with_a_spoon_short_horvertflip_short_600ms.mp4	384.072602546504	384.6809242696741	0.6083217231700928	n/a	n/a	n/a	n/a
312.009765625	0.2	638996	252	15	2	0	0	57	317	stimuli\Videos_short_600ms_vertflip\52.touch_top_to_bottom_with_hammer_short_vertflip_short_600ms.mp4	52.touch_top_to_bottom_with_hammer_short_vertflip_short_600ms.mp4	384.87259122714454	385.4809141233054	0.6083228961608711	n/a	n/a	n/a	n/a
312.8095703125	0.2	640634	253	15	2	0	0	58	204	stimuli\Videos_short_600ms_horvertflip\31.hand_grabbing_wrist_short_horvertflip_short_600ms.mp4	31.hand_grabbing_wrist_short_horvertflip_short_600ms.mp4	385.6725837200047	386.28091218787085	0.6083284678661585	n/a	n/a	n/a	n/a
313.609375	0.2	642272	254	15	2	0	0	59	8	stimuli\Videos_short_600ms\17.repeated_touch_with_rolling_pin_short_short_600ms.mp4	17.repeated_touch_with_rolling_pin_short_short_600ms.mp4	386.4725251877737	387.0808947103107	0.608369522537032	n/a	n/a	n/a	n/a
314.40966796875	0.2	643911	255	15	2	0	0	60	320	stimuli\Videos_short_600ms_vertflip\55.touch_top_to_bottom_with_nail_file_short_vertflip_short_600ms.mp4	55.touch_top_to_bottom_with_nail_file_short_vertflip_short_600ms.mp4	387.27256225427686	387.88084644174774	0.608284187470872	n/a	n/a	n/a	n/a
315.20947265625	0.2	645549	256	15	2	0	0	61	316	stimuli\Videos_short_600ms_vertflip\51.repeated_touch_with_hammer_short_vertflip_short_600ms.mp4	51.repeated_touch_with_hammer_short_vertflip_short_600ms.mp4	388.07252894134376	388.6808758838117	0.6083469424679606	n/a	n/a	n/a	n/a
316.00927734375	0.2	647187	257	15	2	0	0	62	246	stimuli\Videos_short_600ms_horvertflip\7.repeated_touch_with_hairbrush_short_horvertflip_short_600ms.mp4	7.repeated_touch_with_hairbrush_short_horvertflip_short_600ms.mp4	388.8724888837146	389.4808660306908	0.6083771469761814	n/a	n/a	n/a	n/a
316.8095703125	0.2	648826	258	15	2	0	0	63	353	stimuli\Videos_short_600ms_vertflip\85.touch_top_to_bottom_with_fabric_short_vertflip_short_600ms.mp4	85.touch_top_to_bottom_with_fabric_short_vertflip_short_600ms.mp4	389.6725139270641	390.28084239493	0.6083284678659311	n/a	n/a	n/a	n/a
317.609375	0.2	650464	259	15	2	0	0	64	342	stimuli\Videos_short_600ms_vertflip\75.(long)stroke_with_fingers_all_over_the_hand_short_vertflip_short_600ms.mp4	75.(long)stroke_with_fingers_all_over_the_hand_short_vertflip_short_600ms.mp4	390.4725263607643	391.0808038035393	0.6082774427750337	n/a	n/a	n/a	n/a
318.4091796875	0.2	652102	260	15	2	0	0	65	173	stimuli\Videos_short_600ms_horflip\85.touch_top_to_bottom_with_fabric_short_horflip_short_600ms.mp4	85.touch_top_to_bottom_with_fabric_short_horflip_short_600ms.mp4	391.2725109359381	391.8808135980107	0.6083026620726741	n/a	n/a	n/a	n/a
319.20947265625	0.2	653741	261	15	2	0	0	66	288	stimuli\Videos_short_600ms_vertflip\26.single_touch_with_a_blunt_syringe_short_vertflip_short_600ms.mp4	26.single_touch_with_a_blunt_syringe_short_vertflip_short_600ms.mp4	392.07250166931226	392.6808189937676	0.6083173244553564	n/a	n/a	n/a	n/a
320.00927734375	0.2	655379	262	15	2	0	1	67	381	stimuli\Targets_short_600ms_vertflip\finger-tap_short_horvertflip_short_600ms.mp4	finger-tap_short_horvertflip_short_600ms.mp4	392.8724918161911	393.48083054772496	0.6083387315338769	n/a	n/a	n/a	n/a
320.80908203125	0.2	657017	263	15	2	0	0	68	68	stimuli\Videos_short_600ms\71.single_stroke_with_finger_top_to_bottom_short_short_600ms.mp4	71.single_stroke_with_finger_top_to_bottom_short_short_600ms.mp4	393.67248225631783	394.28079459556307	0.6083123392452308	n/a	n/a	n/a	n/a
321.609375	0.2	658656	264	15	2	0	0	69	109	stimuli\Videos_short_600ms_horflip\27.single_push_with_a_plastic_whisk_short_horflip_short_600ms.mp4	27.single_push_with_a_plastic_whisk_short_horflip_short_600ms.mp4	394.4724729896921	395.0807791707366	0.6083061810445543	n/a	n/a	n/a	n/a
322.4091796875	0.2	660294	265	15	2	0	0	70	120	stimuli\Videos_short_600ms_horflip\37.single_stab_with_nail_file_short_horflip_short_600ms.mp4	37.single_stab_with_nail_file_short_horflip_short_600ms.mp4	395.2724613770851	395.8807951234089	0.6083337463237513	n/a	n/a	n/a	n/a
323.208984375	0.2	661932	266	15	2	0	0	71	92	stimuli\Videos_short_600ms_horflip\11.single_touch_with_lighter_short_horflip_short_600ms.mp4	11.single_touch_with_lighter_short_horflip_short_600ms.mp4	396.07245328344993	396.680786736526	0.6083334530760567	n/a	n/a	n/a	n/a
324.00927734375	0.2	663571	267	15	2	0	0	72	0	stimuli\Videos_short_600ms\1.repeated_touch_with_finger_fast_short_short_600ms.mp4	1.repeated_touch_with_finger_fast_short_short_600ms.mp4	396.87244108434766	397.4807707252044	0.6083296408567094	n/a	n/a	n/a	n/a
324.80908203125	0.2	665209	268	15	2	0	0	73	273	stimuli\Videos_short_600ms_vertflip\12.repeated_touch_with_nail_file_short_vertflip_short_600ms.mp4	12.repeated_touch_with_nail_file_short_vertflip_short_600ms.mp4	397.6724118768816	398.2807585261021	0.6083466492204934	n/a	n/a	n/a	n/a
325.60888671875	0.2	666847	269	15	2	0	0	74	307	stimuli\Videos_short_600ms_vertflip\43.touch_top_to_bottom_with_sharp_wooden_stick_short_vertflip_short_600ms.mp4	43.touch_top_to_bottom_with_sharp_wooden_stick_short_vertflip_short_600ms.mp4	398.47242137810554	399.0807501392194	0.608328761113853	n/a	n/a	n/a	n/a
326.4091796875	0.2	668486	270	15	2	0	0	75	71	stimuli\Videos_short_600ms\74.fingers_walking_from_top_to_bottom_short_short_600ms.mp4	74.fingers_walking_from_top_to_bottom_short_short_600ms.mp4	399.2723951031162	399.8807396996028	0.6083445964866314	n/a	n/a	n/a	n/a
327.208984375	0.2	670124	271	15	2	0	0	76	3	stimuli\Videos_short_600ms\12.repeated_touch_with_nail_file_short_short_600ms.mp4	12.repeated_touch_with_nail_file_short_short_600ms.mp4	400.0724002056252	400.6807301397296	0.608329934104404	n/a	n/a	n/a	n/a
328.0087890625	0.2	671762	272	15	2	0	0	77	143	stimuli\Videos_short_600ms_horflip\58.single_slap_with_pencil_short_horflip_short_600ms.mp4	58.single_slap_with_pencil_short_horflip_short_600ms.mp4	400.8723912322471	401.4807197001133	0.6083284678661585	n/a	n/a	n/a	n/a
328.80908203125	0.2	673401	273	15	2	0	0	78	354	stimuli\Videos_short_600ms_vertflip\86.touch_top_to_bottom_with_hair_brush_short_vertflip_short_600ms.mp4	86.touch_top_to_bottom_with_hair_brush_short_vertflip_short_600ms.mp4	401.6723626112764	402.2807089672492	0.6083463559727988	n/a	n/a	n/a	n/a
329.60888671875	0.2	675039	274	15	2	0	0	79	262	stimuli\Videos_short_600ms_horvertflip\84.single_touch_with_cotton_bud_short_horvertflip_short_600ms.mp4	84.single_touch_with_cotton_bud_short_horvertflip_short_600ms.mp4	402.4723509986695	403.0806979411375	0.6083469424679606	n/a	n/a	n/a	n/a
330.4091796875	0.2	676678	275	15	2	0	0	80	105	stimuli\Videos_short_600ms_horflip\23.single_push_with_a_spoon_short_horflip_short_600ms.mp4	23.single_push_with_a_spoon_short_horflip_short_600ms.mp4	403.2723458375108	403.8806913137407	0.6083454762299425	n/a	n/a	n/a	n/a
331.208984375	0.2	678316	276	15	2	0	0	81	136	stimuli\Videos_short_600ms_horflip\51.repeated_touch_with_hammer_short_horflip_short_600ms.mp4	51.repeated_touch_with_hammer_short_horflip_short_600ms.mp4	404.0723506467723	404.6806808741244	0.6083302273520985	n/a	n/a	n/a	n/a
332.0087890625	0.2	679954	277	15	2	0	0	82	64	stimuli\Videos_short_600ms\68.stroke_top_to_bottom_with_shawl_short_short_600ms.mp4	68.stroke_top_to_bottom_with_shawl_short_short_600ms.mp4	404.872334342203	405.48061852967385	0.608284187470872	n/a	n/a	n/a	n/a
332.80908203125	0.2	681593	278	15	2	0	0	83	25	stimuli\Videos_short_600ms\32.single_(long)pinch_with_fingers_short_short_600ms.mp4	32.single_(long)pinch_with_fingers_short_short_600ms.mp4	405.67234501641747	406.2806350688413	0.6082900524238539	n/a	n/a	n/a	n/a
333.60888671875	0.2	683231	279	15	2	0	0	84	29	stimuli\Videos_short_600ms\36.single_slap_with_full_hand_short_short_600ms.mp4	36.single_slap_with_full_hand_short_short_600ms.mp4	406.4723325240675	407.0806521945042	0.6083196704366856	n/a	n/a	n/a	n/a
334.40869140625	0.2	684869	280	15	2	0	0	85	51	stimuli\Videos_short_600ms\56.repeated_touch_with_nail_file_short_short_600ms.mp4	56.repeated_touch_with_nail_file_short_short_600ms.mp4	407.2723159262505	407.8805957150066	0.6082797887561355	n/a	n/a	n/a	n/a
335.208984375	0.2	686508	281	15	2	0	0	86	302	stimuli\Videos_short_600ms_vertflip\39.single_stab_with_scissors_short_vertflip_short_600ms.mp4	39.single_stab_with_scissors_short_vertflip_short_600ms.mp4	408.0723154570542	408.6805870348762	0.6082715778220518	n/a	n/a	n/a	n/a
336.0087890625	0.2	688146	282	15	2	0	0	87	229	stimuli\Videos_short_600ms_horvertflip\54.repeated_touch_with_knife_short_horvertflip_short_600ms.mp4	54.repeated_touch_with_knife_short_horvertflip_short_600ms.mp4	408.8722962200084	409.480603280796	0.608307060787638	n/a	n/a	n/a	n/a
336.80859375	0.2	689784	283	15	2	0	0	88	311	stimuli\Videos_short_600ms_vertflip\47.(long)scratching_with_finger_nails_short_vertflip_short_600ms.mp4	47.(long)scratching_with_finger_nails_short_vertflip_short_600ms.mp4	409.67228783312567	410.2805981196375	0.6083102865118235	n/a	n/a	n/a	n/a
337.60888671875	0.2	691423	284	15	2	0	0	89	223	stimuli\Videos_short_600ms_horvertflip\49.repeated_slap_with_hand_short_horvertflip_short_600ms.mp4	49.repeated_slap_with_hand_short_horvertflip_short_600ms.mp4	410.4722762205188	411.0806055681278	0.6083293476090148	n/a	n/a	n/a	n/a
338.40869140625	0.2	693061	285	15	2	0	0	90	62	stimuli\Videos_short_600ms\66.stroke_top_to_bottom_with_sponge_short_short_600ms.mp4	66.stroke_top_to_bottom_with_sponge_short_short_600ms.mp4	411.2722666606453	411.8805986474831	0.6083319868378112	n/a	n/a	n/a	n/a
339.20849609375	0.2	694699	286	15	2	0	0	91	278	stimuli\Videos_short_600ms_vertflip\17.repeated_touch_with_rolling_pin_short_vertflip_short_600ms.mp4	17.repeated_touch_with_rolling_pin_short_vertflip_short_600ms.mp4	412.07225622102897	412.6805858618857	0.6083296408567094	n/a	n/a	n/a	n/a
340.0087890625	0.2	696338	287	15	2	0	0	92	6	stimuli\Videos_short_600ms\15.single_stroke_top_to_bottom_with_a_plastic_whisk_short_short_600ms.mp4	15.single_stroke_top_to_bottom_with_a_plastic_whisk_short_short_600ms.mp4	412.8722472476509	413.4805768885076	0.6083296408567094	n/a	n/a	n/a	n/a
340.80859375	0.2	697976	288	15	2	0	0	93	347	stimuli\Videos_short_600ms_vertflip\8.single_touch_with_hairbrush_short_vertflip_short_600ms.mp4	8.single_touch_with_hairbrush_short_vertflip_short_600ms.mp4	413.6722373945297	414.2805620501763	0.6083246556465838	4.0	3.0	2.366130248289892	0.0
378.29052734375	0.2	774739	289	15	3	0	0	0	336	stimuli\Videos_short_600ms_vertflip\7.repeated_touch_with_hairbrush_short_vertflip_short_600ms.mp4	7.repeated_touch_with_hairbrush_short_vertflip_short_600ms.mp4	451.15511041213904	451.76343213530913	0.6083217231700928	n/a	n/a	n/a	n/a
379.0908203125	0.2	776378	290	15	3	0	0	1	212	stimuli\Videos_short_600ms_horvertflip\39.single_stab_with_scissors_short_horvertflip_short_600ms.mp4	39.single_stab_with_scissors_short_horvertflip_short_600ms.mp4	451.95507651271055	452.5634219889405	0.6083454762299425	n/a	n/a	n/a	n/a
379.890625	0.2	778016	291	15	3	0	0	2	57	stimuli\Videos_short_600ms\61.single_hit_with_rolling_pin_short_short_600ms.mp4	61.single_hit_with_rolling_pin_short_short_600ms.mp4	452.7550631406177	453.3634136020576	0.6083504614398407	n/a	n/a	n/a	n/a
380.6904296875	0.2	779654	292	15	3	0	0	3	60	stimuli\Videos_short_600ms\64.repeated_touch_with_screwdriver_short_short_600ms.mp4	64.repeated_touch_with_screwdriver_short_short_600ms.mp4	453.5550439035719	454.1634040421843	0.6083601386123973	n/a	n/a	n/a	n/a
381.49072265625	0.2	781293	293	15	3	0	0	4	61	stimuli\Videos_short_600ms\65.stroke_top_to_bottom_with_stanley_knife_short_short_600ms.mp4	65.stroke_top_to_bottom_with_stanley_knife_short_short_600ms.mp4	454.3550434343756	454.96339125658665	0.6083478222110443	n/a	n/a	n/a	n/a
382.29052734375	0.2	782931	294	15	3	0	0	5	267	stimuli\Videos_short_600ms_horvertflip\89.single_touch_with_plastic_brush_short_horvertflip_short_600ms.mp4	89.single_touch_with_plastic_brush_short_horvertflip_short_600ms.mp4	455.15503651373115	455.7633834561991	0.6083469424679606	n/a	n/a	n/a	n/a
383.09912109375	0.2	784587	295	15	3	0	0	6	218	stimuli\Videos_short_600ms_horvertflip\44.pushing_top_to_bottom_with_finger_short_horvertflip_short_600ms.mp4	44.pushing_top_to_bottom_with_finger_short_horvertflip_short_600ms.mp4	455.96340239999745	456.57170476882266	0.6083023688252069	n/a	n/a	n/a	n/a
383.89892578125	0.2	786225	296	15	3	0	0	7	77	stimuli\Videos_short_600ms\8.single_touch_with_hairbrush_short_short_600ms.mp4	8.single_touch_with_hairbrush_short_short_600ms.mp4	456.76337143304545	457.3716990211685	0.6083275881230747	n/a	n/a	n/a	n/a
384.69873046875	0.2	787863	297	15	3	0	0	8	175	stimuli\Videos_short_600ms_horflip\87.single_stroke_top_to_bottom_with_plastic_brush_short_horflip_short_600ms.mp4	87.single_stroke_top_to_bottom_with_plastic_brush_short_horflip_short_600ms.mp4	457.5633319619117	458.17165104585297	0.6083190839412964	n/a	n/a	n/a	n/a
385.4990234375	0.2	789502	298	15	3	0	0	9	283	stimuli\Videos_short_600ms_vertflip\21.repeated_touch_with_metal_chopstick_short_vertflip_short_600ms.mp4	21.repeated_touch_with_metal_chopstick_short_vertflip_short_600ms.mp4	458.3633294399819	458.9716769689453	0.6083475289633498	n/a	n/a	n/a	n/a
386.298828125	0.2	791140	299	15	3	0	0	10	314	stimuli\Videos_short_600ms_vertflip\5.repeated_tap_with_finger_moving_from_top_to_bottom_short_vertflip_short_600ms.mp4	5.repeated_tap_with_finger_moving_from_top_to_bottom_short_vertflip_short_600ms.mp4	459.1633219328421	459.7716656495861	0.6083437167440024	n/a	n/a	n/a	n/a
387.0986328125	0.2	792778	300	15	3	0	0	11	352	stimuli\Videos_short_600ms_vertflip\84.single_touch_with_cotton_bud_short_vertflip_short_600ms.mp4	84.single_touch_with_cotton_bud_short_vertflip_short_600ms.mp4	459.96330709451104	460.57166048842737	0.6083533939163317	n/a	n/a	n/a	n/a
387.89892578125	0.2	794417	301	15	3	0	0	12	96	stimuli\Videos_short_600ms_horflip\15.single_stroke_top_to_bottom_with_a_plastic_whisk_short_horflip_short_600ms.mp4	15.single_stroke_top_to_bottom_with_a_plastic_whisk_short_horflip_short_600ms.mp4	460.76330926454375	461.3716556205163	0.6083463559725715	n/a	n/a	n/a	n/a
388.69873046875	0.2	796055	302	15	3	0	0	13	197	stimuli\Videos_short_600ms_horvertflip\25.single_touch_with_stanley_knife_short_horvertflip_short_600ms.mp4	25.single_touch_with_stanley_knife_short_horvertflip_short_600ms.mp4	461.5632938397173	462.17163521048	0.6083413707626733	n/a	n/a	n/a	n/a
389.49853515625	0.2	797693	303	15	3	0	0	14	222	stimuli\Videos_short_600ms_horvertflip\48.single_slap_with_hand_short_horvertflip_short_600ms.mp4	48.single_slap_with_hand_short_horvertflip_short_600ms.mp4	462.3633174168283	462.9716095219858	0.6082921051574885	n/a	n/a	n/a	n/a
390.298828125	0.2	799332	304	15	3	0	0	15	300	stimuli\Videos_short_600ms_vertflip\37.single_stab_with_nail_file_short_vertflip_short_600ms.mp4	37.single_stab_with_nail_file_short_vertflip_short_600ms.mp4	463.1632923148295	463.7715785550338	0.6082862402042792	n/a	n/a	n/a	n/a
391.0986328125	0.2	800970	305	15	3	0	0	16	76	stimuli\Videos_short_600ms\79.long_with_soft_brush_all_over_the_hand_short_short_600ms.mp4	79.long_with_soft_brush_all_over_the_hand_short_short_600ms.mp4	463.963282754956	464.5715827778002	0.6083000228441051	n/a	n/a	n/a	n/a
391.8984375	0.2	802608	306	15	3	0	0	17	235	stimuli\Videos_short_600ms_horvertflip\6.single_touch_with_flat_hand_short_horvertflip_short_600ms.mp4	6.single_touch_with_flat_hand_short_horvertflip_short_600ms.mp4	464.76327642080673	465.3715834815944	0.608307060787638	n/a	n/a	n/a	n/a
392.69873046875	0.2	804247	307	15	3	0	0	18	224	stimuli\Videos_short_600ms_horvertflip\5.repeated_tap_with_finger_moving_from_top_to_bottom_short_horvertflip_short_600ms.mp4	5.repeated_tap_with_finger_moving_from_top_to_bottom_short_horvertflip_short_600ms.mp4	465.56326158247566	466.17159415580886	0.6083325733332003	n/a	n/a	n/a	n/a
393.49853515625	0.2	805885	308	15	3	0	0	19	95	stimuli\Videos_short_600ms_horflip\14.repeated_touch_with_pencil_short_horflip_short_600ms.mp4	14.repeated_touch_with_pencil_short_horflip_short_600ms.mp4	466.36325055636416	466.9715705200483	0.6083199636841528	n/a	n/a	n/a	n/a
394.29833984375	0.2	807523	309	15	3	0	0	20	176	stimuli\Videos_short_600ms_horflip\88.repeated_stroke_with_plastic_brush_short_horflip_short_600ms.mp4	88.repeated_stroke_with_plastic_brush_short_horflip_short_600ms.mp4	467.1632415829861	467.7715726900808	0.6083311070947275	n/a	n/a	n/a	n/a
395.0986328125	0.2	809162	310	15	3	0	0	21	43	stimuli\Videos_short_600ms\49.repeated_slap_with_hand_short_short_600ms.mp4	49.repeated_slap_with_hand_short_short_600ms.mp4	467.96323290285545	468.57152148904106	0.6082885861856084	n/a	n/a	n/a	n/a
395.8984375	0.2	810800	311	15	3	0	0	22	78	stimuli\Videos_short_600ms\80.stroke_with_sharp_stick_all_over_the_hand_short_short_600ms.mp4	80.stroke_with_sharp_stick_all_over_the_hand_short_short_600ms.mp4	468.7632039886371	469.3715626610112	0.6083586723741519	n/a	n/a	n/a	n/a
396.6982421875	0.2	812438	312	15	3	0	0	23	50	stimuli\Videos_short_600ms\55.touch_top_to_bottom_with_nail_file_short_short_600ms.mp4	55.touch_top_to_bottom_with_nail_file_short_short_600ms.mp4	469.5632445741121	470.1715393184984	0.608294744386285	n/a	n/a	n/a	n/a
397.49853515625	0.2	814077	313	15	3	0	0	24	128	stimuli\Videos_short_600ms_horflip\44.pushing_top_to_bottom_with_finger_short_horflip_short_600ms.mp4	44.pushing_top_to_bottom_with_finger_short_horflip_short_600ms.mp4	470.36320217050184	470.9715274126436	0.6083252421417455	n/a	n/a	n/a	n/a
398.29833984375	0.2	815715	314	15	3	0	0	25	49	stimuli\Videos_short_600ms\54.repeated_touch_with_knife_short_short_600ms.mp4	54.repeated_touch_with_knife_short_short_600ms.mp4	471.16319026464726	471.77151755952264	0.6083272948753802	n/a	n/a	n/a	n/a
399.0986328125	0.2	817354	315	15	3	0	0	26	134	stimuli\Videos_short_600ms_horflip\5.repeated_tap_with_finger_moving_from_top_to_bottom_short_horflip_short_600ms.mp4	5.repeated_tap_with_finger_moving_from_top_to_bottom_short_horflip_short_600ms.mp4	471.9631833440026	472.57150858614455	0.6083252421419729	n/a	n/a	n/a	n/a
399.8984375	0.2	818992	316	15	3	0	1	27	369	stimuli\Targets_short_600ms_horflip\finger-tap_short_horflip_short_600ms.mp4	finger-tap_short_horflip_short_600ms.mp4	472.76317026515744	473.3714981465282	0.6083278813707693	n/a	n/a	n/a	n/a
400.6982421875	0.2	820630	317	15	3	0	0	28	112	stimuli\Videos_short_600ms_horflip\3.single_push_with_finger_short_horflip_short_600ms.mp4	3.single_push_with_finger_short_horflip_short_600ms.mp4	473.563139004958	474.17148829340704	0.6083492884490624	n/a	n/a	n/a	n/a
401.49853515625	0.2	822269	318	15	3	0	0	29	94	stimuli\Videos_short_600ms_horflip\13.single_touch_with_pen_short_horflip_short_600ms.mp4	13.single_touch_with_pen_short_horflip_short_600ms.mp4	474.36314205473354	474.9714790267815	0.6083369720479368	n/a	n/a	n/a	n/a
402.29833984375	0.2	823907	319	15	3	0	0	30	163	stimuli\Videos_short_600ms_horflip\76.tickle_with_fingers_from_top_to_bottom_short_horflip_short_600ms.mp4	76.tickle_with_fingers_from_top_to_bottom_short_horflip_short_600ms.mp4	475.1631195919635	475.771469466908	0.6083498749444516	n/a	n/a	n/a	n/a
403.09814453125	0.2	825545	320	15	3	0	0	31	344	stimuli\Videos_short_600ms_vertflip\77.tapping_with_all_fingers_short_vertflip_short_600ms.mp4	77.tapping_with_all_fingers_short_vertflip_short_600ms.mp4	475.9631205890055	476.5714581475486	0.6083375585430986	n/a	n/a	n/a	n/a
403.8984375	0.2	827184	321	15	3	0	1	32	375	stimuli\Targets_short_600ms_horvertflip\finger-tap_short_vertflip_short_600ms.mp4	finger-tap_short_vertflip_short_600ms.mp4	476.7631119088751	477.3714474146848	0.6083355058096913	n/a	n/a	n/a	n/a
404.6982421875	0.2	828822	322	15	3	0	0	33	203	stimuli\Videos_short_600ms_horvertflip\30.finger_pulling_back_another_finger_short_horvertflip_short_600ms.mp4	30.finger_pulling_back_another_finger_short_horvertflip_short_600ms.mp4	477.56312023710825	478.1714460657454	0.6083258286371347	n/a	n/a	n/a	n/a
405.498046875	0.2	830460	323	15	3	0	0	34	271	stimuli\Videos_short_600ms_vertflip\10.single_touch_with_knife_short_vertflip_short_600ms.mp4	10.single_touch_with_knife_short_vertflip_short_600ms.mp4	478.36311155697786	478.971383721295	0.6082721643172135	n/a	n/a	n/a	n/a
406.29833984375	0.2	832099	324	15	3	0	1	35	368	stimuli\Targets_short_600ms_horflip\chopstickwood-tap_short_horflip_short_600ms.mp4	chopstickwood-tap_short_horflip_short_600ms.mp4	479.1630946659131	479.77139468875725	0.6083000228441051	n/a	n/a	n/a	n/a
407.09814453125	0.2	833737	325	15	3	0	0	36	245	stimuli\Videos_short_600ms_horvertflip\69.stroke_with_soft_sock_short_horvertflip_short_600ms.mp4	69.stroke_with_soft_sock_short_horvertflip_short_600ms.mp4	479.9630848127922	480.57137779769255	0.6082929849003449	n/a	n/a	n/a	n/a
407.89794921875	0.2	835375	326	15	3	0	0	37	81	stimuli\Videos_short_600ms\83.single_stroke_top_to_bottom_with_cotton_bud_short_short_600ms.mp4	83.single_stroke_top_to_bottom_with_cotton_bud_short_short_600ms.mp4	480.7630732001851	481.3713999085653	0.6083267083802184	n/a	n/a	n/a	n/a
408.6982421875	0.2	837014	327	15	3	0	0	38	127	stimuli\Videos_short_600ms_horflip\43.touch_top_to_bottom_with_sharp_wooden_stick_short_horflip_short_600ms.mp4	43.touch_top_to_bottom_with_sharp_wooden_stick_short_horflip_short_600ms.mp4	481.5630627605688	482.1713721673377	0.6083094067689672	n/a	n/a	n/a	n/a
409.498046875	0.2	838652	328	15	3	0	0	39	194	stimuli\Videos_short_600ms_horvertflip\22.single_touch_with_metal_chopstick_short_horvertflip_short_600ms.mp4	22.single_touch_with_metal_chopstick_short_horvertflip_short_600ms.mp4	482.3630532006955	482.9713881200098	0.6083349193143022	n/a	n/a	n/a	n/a
410.2978515625	0.2	840290	329	15	3	0	0	40	141	stimuli\Videos_short_600ms_horflip\56.repeated_touch_with_nail_file_short_horflip_short_600ms.mp4	56.repeated_touch_with_nail_file_short_horflip_short_600ms.mp4	483.1630448138126	483.7713691762117	0.6083243623991166	n/a	n/a	n/a	n/a
411.09814453125	0.2	841929	330	15	3	0	1	41	361	stimuli\Targets_short_600ms\chopstick-silver-tap_short_short_600ms.mp4	chopstick-silver-tap_short_short_600ms.mp4	483.96303437419624	484.57136724077714	0.6083328665808949	n/a	n/a	n/a	n/a
411.89794921875	0.2	843567	331	15	3	0	0	42	37	stimuli\Videos_short_600ms\43.touch_top_to_bottom_with_sharp_wooden_stick_short_short_600ms.mp4	43.touch_top_to_bottom_with_sharp_wooden_stick_short_short_600ms.mp4	484.7630236413322	485.37134976321704	0.6083261218848293	n/a	n/a	n/a	n/a
412.69775390625	0.2	845205	332	15	3	0	1	43	363	stimuli\Targets_short_600ms\finger-tap_short_short_600ms.mp4	finger-tap_short_short_600ms.mp4	485.56301114898247	486.1713422560772	0.6083311070947275	n/a	n/a	n/a	n/a
413.498046875	0.2	846844	333	15	3	0	0	44	52	stimuli\Videos_short_600ms\57.single_touch_with_nail_file_short_short_600ms.mp4	57.single_touch_with_nail_file_short_short_600ms.mp4	486.36300276209954	486.9713277109938	0.6083249488942784	n/a	n/a	n/a	n/a
414.2978515625	0.2	848482	334	15	3	0	0	45	162	stimuli\Videos_short_600ms_horflip\75.(long)stroke_with_fingers_all_over_the_hand_short_horflip_short_600ms.mp4	75.(long)stroke_with_fingers_all_over_the_hand_short_horflip_short_600ms.mp4	487.1629955482074	487.7713196173586	0.6083240691511946	n/a	n/a	n/a	n/a
415.09765625	0.2	850120	335	15	3	0	0	46	308	stimuli\Videos_short_600ms_vertflip\44.pushing_top_to_bottom_with_finger_short_vertflip_short_600ms.mp4	44.pushing_top_to_bottom_with_finger_short_vertflip_short_600ms.mp4	487.9630006507166	488.57131035073303	0.6083097000164344	n/a	n/a	n/a	n/a
415.89794921875	0.2	851759	336	15	3	0	0	47	48	stimuli\Videos_short_600ms\53.touch_top_to_bottom_with_knife_short_short_600ms.mp4	53.touch_top_to_bottom_with_knife_short_short_600ms.mp4	488.7630107384357	489.3712993246213	0.6082885861856084	n/a	n/a	n/a	n/a
416.69775390625	0.2	853397	337	15	3	0	0	48	200	stimuli\Videos_short_600ms_horvertflip\28.single_injection_with_sharp_needle_short_horvertflip_short_600ms.mp4	28.single_injection_with_sharp_needle_short_horvertflip_short_600ms.mp4	489.56294252903217	490.1712660116882	0.6083234826560329	n/a	n/a	n/a	n/a
417.498046875	0.2	855036	338	15	3	0	0	49	240	stimuli\Videos_short_600ms_horvertflip\64.repeated_touch_with_screwdriver_short_horvertflip_short_600ms.mp4	64.repeated_touch_with_screwdriver_short_horvertflip_short_600ms.mp4	490.36293208941584	490.9712790318838	0.6083469424679606	n/a	n/a	n/a	n/a
418.2978515625	0.2	856674	339	15	3	0	0	50	157	stimuli\Videos_short_600ms_horflip\70.(long)stroke_with_finger_all_over_the_hand_short_horflip_short_600ms.mp4	70.(long)stroke_with_finger_all_over_the_hand_short_horflip_short_600ms.mp4	491.16293132697206	491.77126947201054	0.6083381450384877	n/a	n/a	n/a	n/a
419.09765625	0.2	858312	340	15	3	0	0	51	241	stimuli\Videos_short_600ms_horvertflip\65.stroke_top_to_bottom_with_stanley_knife_short_horvertflip_short_600ms.mp4	65.stroke_top_to_bottom_with_stanley_knife_short_horvertflip_short_600ms.mp4	491.9629214738509	492.5712540471841	0.6083325733332003	n/a	n/a	n/a	n/a
419.89794921875	0.2	859951	341	15	3	0	0	52	198	stimuli\Videos_short_600ms_horvertflip\26.single_touch_with_a_blunt_syringe_short_horvertflip_short_600ms.mp4	26.single_touch_with_a_blunt_syringe_short_horvertflip_short_600ms.mp4	492.7630409429437	493.3712368628717	0.6081959199279936	n/a	n/a	n/a	n/a
420.69775390625	0.2	861589	342	15	3	0	0	53	242	stimuli\Videos_short_600ms_horvertflip\66.stroke_top_to_bottom_with_sponge_short_horvertflip_short_600ms.mp4	66.stroke_top_to_bottom_with_sponge_short_horvertflip_short_600ms.mp4	493.56292170844904	494.1712161595876	0.6082944511385904	n/a	n/a	n/a	n/a
421.49755859375	0.2	863227	343	15	3	0	0	54	348	stimuli\Videos_short_600ms_vertflip\80.stroke_with_sharp_stick_all_over_the_hand_short_vertflip_short_600ms.mp4	80.stroke_with_sharp_stick_all_over_the_hand_short_vertflip_short_600ms.mp4	494.36290452413664	494.9712036672379	0.6082991431012488	n/a	n/a	n/a	n/a
422.2978515625	0.2	864866	344	15	3	0	0	55	178	stimuli\Videos_short_600ms_horflip\9.single_touch_with_hammer_short_horflip_short_600ms.mp4	9.single_touch_with_hammer_short_horflip_short_600ms.mp4	495.1628952575111	495.77118443019185	0.6082891726807702	n/a	n/a	n/a	n/a
423.09765625	0.2	866504	345	15	3	0	0	56	153	stimuli\Videos_short_600ms_horflip\67.single_touch_with_sponge_short_horflip_short_600ms.mp4	67.single_touch_with_sponge_short_horflip_short_600ms.mp4	495.9628854043899	496.57119187868216	0.6083064742922488	n/a	n/a	n/a	n/a
423.8974609375	0.2	868142	346	15	3	0	0	57	189	stimuli\Videos_short_600ms_horvertflip\18.single_stroke_from_top_to_bottom_with_rolling_pin_short_horvertflip_short_600ms.mp4	18.single_stroke_from_top_to_bottom_with_rolling_pin_short_horvertflip_short_600ms.mp4	496.7628720322971	497.37120225964895	0.6083302273518711	n/a	n/a	n/a	n/a
424.69775390625	0.2	869781	347	15	3	0	0	58	11	stimuli\Videos_short_600ms\2.single_touch_with_finger_short_short_600ms.mp4	2.single_touch_with_finger_short_short_600ms.mp4	497.56286393866185	498.17120179045287	0.6083378517910205	n/a	n/a	n/a	n/a
425.49755859375	0.2	871419	348	15	3	0	0	59	87	stimuli\Videos_short_600ms\89.single_touch_with_plastic_brush_short_short_600ms.mp4	89.single_touch_with_plastic_brush_short_short_600ms.mp4	498.3628534990455	498.9711781546921	0.6083246556465838	n/a	n/a	n/a	n/a
426.29736328125	0.2	873057	349	15	3	0	0	60	166	stimuli\Videos_short_600ms_horflip\79.long_with_soft_brush_all_over_the_hand_short_horflip_short_600ms.mp4	79.long_with_soft_brush_all_over_the_hand_short_horflip_short_600ms.mp4	499.1628442324198	499.7711721137905	0.6083278813707693	n/a	n/a	n/a	n/a
427.09765625	0.2	874696	350	15	3	0	0	61	233	stimuli\Videos_short_600ms_horvertflip\58.single_slap_with_pencil_short_horvertflip_short_600ms.mp4	58.single_slap_with_pencil_short_horvertflip_short_600ms.mp4	499.96283291306054	500.57115903494537	0.6083261218848293	n/a	n/a	n/a	n/a
427.8974609375	0.2	876334	351	15	3	0	0	62	93	stimuli\Videos_short_600ms_horflip\12.repeated_touch_with_nail_file_short_horflip_short_600ms.mp4	12.repeated_touch_with_nail_file_short_horflip_short_600ms.mp4	500.7628339101025	501.3711480088336	0.6083140987311708	n/a	n/a	n/a	n/a
428.697265625	0.2	877972	352	15	3	0	0	63	324	stimuli\Videos_short_600ms_vertflip\59.single_push_with_long_side_pencil_short_vertflip_short_600ms.mp4	59.single_push_with_long_side_pencil_short_vertflip_short_600ms.mp4	501.56279619845463	502.17114020844633	0.608344009991697	n/a	n/a	n/a	n/a
429.49755859375	0.2	879611	353	15	3	0	0	64	358	stimuli\Videos_short_600ms_vertflip\9.single_touch_with_hammer_short_vertflip_short_600ms.mp4	9.single_touch_with_hammer_short_vertflip_short_600ms.mp4	502.3628030604498	502.9711294755823	0.6083264151325238	n/a	n/a	n/a	n/a
430.29736328125	0.2	881249	354	15	3	0	0	65	151	stimuli\Videos_short_600ms_horflip\65.stroke_top_to_bottom_with_stanley_knife_short_horflip_short_600ms.mp4	65.stroke_top_to_bottom_with_stanley_knife_short_horflip_short_600ms.mp4	503.1627559648771	503.7711187427183	0.6083627778411937	n/a	n/a	n/a	n/a
431.09716796875	0.2	882887	355	15	3	0	0	66	185	stimuli\Videos_short_600ms_horvertflip\14.repeated_touch_with_pencil_short_horvertflip_short_600ms.mp4	14.repeated_touch_with_pencil_short_horvertflip_short_600ms.mp4	503.962741126546	504.57111064908304	0.608369522537032	n/a	n/a	n/a	n/a
431.8974609375	0.2	884526	356	15	3	0	0	67	79	stimuli\Videos_short_600ms\81.single_stroke_top_to_bottom_with_cotton_pad_short_short_600ms.mp4	81.single_stroke_top_to_bottom_with_cotton_pad_short_short_600ms.mp4	504.7627327396633	505.37109932972385	0.6083665900605411	n/a	n/a	n/a	n/a
432.697265625	0.2	886164	357	15	3	0	0	68	4	stimuli\Videos_short_600ms\13.single_touch_with_pen_short_short_600ms.mp4	13.single_touch_with_pen_short_short_600ms.mp4	505.562817019038	506.17108771711696	0.608270698078968	n/a	n/a	n/a	n/a
433.4970703125	0.2	887802	358	15	3	0	0	69	16	stimuli\Videos_short_600ms\24.single_stroke_top_to_bottom_with_a_spoon_short_short_600ms.mp4	24.single_stroke_top_to_bottom_with_a_spoon_short_short_600ms.mp4	506.3627555543303	506.9710825559582	0.608327001627913	n/a	n/a	n/a	n/a
434.29736328125	0.2	889441	359	15	3	0	1	70	383	stimuli\Targets_short_600ms_vertflip\hand-stroke_short_horvertflip_short_600ms.mp4	hand-stroke_short_horvertflip_short_600ms.mp4	507.1627301590838	507.7710422050816	0.6083120459977636	n/a	n/a	n/a	n/a
