onset	duration	onsetsample	eventnumber	subjectnr	sequencenumber	blocksequencenumber	istarget	presentationnumber	stimnumber	stim	stimname	time_stimon	time_stimoff	stimdur	cresp	resp	rt	correct
63.689453125	0.2	130436	0	74	0	0	0	0	27	stimuli\Videos_short_600ms\34.repeated_punch_with_hand_short_short_600ms.mp4	34.repeated_punch_with_hand_short_short_600ms.mp4	45.15109041713367	45.75866311918435	0.6075727020506747	n/a	n/a	n/a	n/a
64.4892578125	0.2	132074	1	74	0	0	0	1	88	stimuli\Videos_short_600ms\9.single_touch_with_hammer_short_short_600ms.mp4	9.single_touch_with_hammer_short_short_600ms.mp4	45.95035214334348	46.558660597274866	0.6083084539313859	n/a	n/a	n/a	n/a
65.2890625	0.2	133712	2	74	0	0	0	2	230	stimuli\Videos_short_600ms_horvertflip\55.touch_top_to_bottom_with_nail_file_short_horvertflip_short_600ms.mp4	55.touch_top_to_bottom_with_nail_file_short_horvertflip_short_600ms.mp4	46.75033319971044	47.35866247404556	0.6083292743351194	n/a	n/a	n/a	n/a
66.08935546875	0.2	135351	3	74	0	0	0	3	146	stimuli\Videos_short_600ms_horflip\60.single_push_with_tip_of_pencil_short_horflip_short_600ms.mp4	60.single_push_with_tip_of_pencil_short_horflip_short_600ms.mp4	47.55028757077889	48.15863180060842	0.6083442298295267	n/a	n/a	n/a	n/a
66.88916015625	0.2	136989	4	74	0	0	0	4	261	stimuli\Videos_short_600ms_horvertflip\83.single_stroke_top_to_bottom_with_cotton_bud_short_horvertflip_short_600ms.mp4	83.single_stroke_top_to_bottom_with_cotton_bud_short_horvertflip_short_600ms.mp4	48.35030616251606	48.95862018810658	0.6083140255905164	n/a	n/a	n/a	n/a
67.68896484375	0.2	138627	5	74	0	0	0	5	309	stimuli\Videos_short_600ms_vertflip\45.scratching_with_finger_nails_short_vertflip_short_600ms.mp4	45.scratching_with_finger_nails_short_vertflip_short_600ms.mp4	49.150286632393545	49.75859801877595	0.608311386382411	n/a	n/a	n/a	n/a
68.4892578125	0.2	140266	6	74	0	0	1	6	376	stimuli\Targets_short_600ms_horvertflip\hand-pinch_short_vertflip_short_600ms.mp4	hand-pinch_short_vertflip_short_600ms.mp4	49.95026475631312	50.5585814211081	0.6083166647949838	n/a	n/a	n/a	n/a
69.2890625	0.2	141904	7	74	0	0	0	7	54	stimuli\Videos_short_600ms\59.single_push_with_long_side_pencil_short_short_600ms.mp4	59.single_push_with_long_side_pencil_short_short_600ms.mp4	50.75024141400354	51.358563943700574	0.608322529697034	n/a	n/a	n/a	n/a
70.0888671875	0.2	143542	8	74	0	0	0	8	193	stimuli\Videos_short_600ms_horvertflip\21.repeated_touch_with_metal_chopstick_short_horvertflip_short_600ms.mp4	21.repeated_touch_with_metal_chopstick_short_horvertflip_short_600ms.mp4	51.550270562565856	52.15854851900803	0.6082779564421799	n/a	n/a	n/a	n/a
70.88916015625	0.2	145181	9	74	0	0	0	9	149	stimuli\Videos_short_600ms_horflip\63.stroke_top_to_bottom_with_screwdriver_short_horflip_short_600ms.mp4	63.stroke_top_to_bottom_with_screwdriver_short_horflip_short_600ms.mp4	52.35021496329864	52.958529868621554	0.6083149053229135	n/a	n/a	n/a	n/a
71.68896484375	0.2	146819	10	74	0	0	0	10	358	stimuli\Videos_short_600ms_vertflip\9.single_touch_with_hammer_short_vertflip_short_600ms.mp4	9.single_touch_with_hammer_short_vertflip_short_600ms.mp4	53.15018018443516	53.75851356419662	0.6083333797614614	n/a	n/a	n/a	n/a
72.48876953125	0.2	148457	11	74	0	0	0	11	98	stimuli\Videos_short_600ms_horflip\17.repeated_touch_with_rolling_pin_short_horflip_short_600ms.mp4	17.repeated_touch_with_rolling_pin_short_horflip_short_600ms.mp4	53.95013162304895	54.5584987259972	0.6083671029482502	n/a	n/a	n/a	n/a
73.2890625	0.2	150096	12	74	0	0	0	12	253	stimuli\Videos_short_600ms_horvertflip\76.tickle_with_fingers_from_top_to_bottom_short_horvertflip_short_600ms.mp4	76.tickle_with_fingers_from_top_to_bottom_short_horvertflip_short_600ms.mp4	54.750252264071605	55.35848740673828	0.6082351426666719	n/a	n/a	n/a	n/a
74.0888671875	0.2	151734	13	74	0	0	1	13	372	stimuli\Targets_short_600ms_horvertflip\brush-stroke_short_vertflip_short_600ms.mp4	brush-stroke_short_vertflip_short_600ms.mp4	55.55018698771892	56.15846523741129	0.6082782496923755	n/a	n/a	n/a	n/a
74.88916015625	0.2	153373	14	74	0	0	0	14	278	stimuli\Videos_short_600ms_vertflip\17.repeated_touch_with_rolling_pin_short_vertflip_short_600ms.mp4	17.repeated_touch_with_rolling_pin_short_vertflip_short_600ms.mp4	56.35016540488141	56.958431631523126	0.6082662266417174	n/a	n/a	n/a	n/a
75.68896484375	0.2	155011	15	74	0	0	0	15	334	stimuli\Videos_short_600ms_vertflip\68.stroke_top_to_bottom_with_shawl_short_vertflip_short_600ms.mp4	68.stroke_top_to_bottom_with_shawl_short_vertflip_short_600ms.mp4	57.15011537727332	57.758412394647166	0.6082970173738431	n/a	n/a	n/a	n/a
76.48876953125	0.2	156649	16	74	0	0	0	16	14	stimuli\Videos_short_600ms\22.single_touch_with_metal_chopstick_short_short_600ms.mp4	22.single_touch_with_metal_chopstick_short_short_600ms.mp4	57.95009643364028	58.55836705895854	0.608270625318255	n/a	n/a	n/a	n/a
77.2890625	0.2	158288	17	74	0	0	0	17	111	stimuli\Videos_short_600ms_horflip\29.single_pinch_with_tweezers_short_horflip_short_600ms.mp4	29.single_pinch_with_tweezers_short_horflip_short_600ms.mp4	58.75012763491759	59.3583507545336	0.6082231196160137	n/a	n/a	n/a	n/a
78.0888671875	0.2	159926	18	74	0	0	0	18	130	stimuli\Videos_short_600ms_horflip\46.scratching_top_to_bottom_with_finger_nails_short_horflip_short_600ms.mp4	46.scratching_top_to_bottom_with_finger_nails_short_horflip_short_600ms.mp4	59.5500597193568	60.15834031501072	0.6082805956539232	n/a	n/a	n/a	n/a
78.888671875	0.2	161564	19	74	0	0	0	19	68	stimuli\Videos_short_600ms\71.single_stroke_with_finger_top_to_bottom_short_short_600ms.mp4	71.single_stroke_with_finger_top_to_bottom_short_short_600ms.mp4	60.350044294667896	60.9583533350924	0.6083090404245013	n/a	n/a	n/a	n/a
79.68896484375	0.2	163203	20	74	0	0	0	20	17	stimuli\Videos_short_600ms\25.single_touch_with_stanley_knife_short_short_600ms.mp4	25.single_touch_with_stanley_knife_short_short_600ms.mp4	61.15003209567294	61.75831562377425	0.6082835281013104	n/a	n/a	n/a	n/a
80.48876953125	0.2	164841	21	74	0	0	0	21	189	stimuli\Videos_short_600ms_horvertflip\18.single_stroke_from_top_to_bottom_with_rolling_pin_short_horvertflip_short_600ms.mp4	18.single_stroke_from_top_to_bottom_with_rolling_pin_short_horvertflip_short_600ms.mp4	61.950006114158896	62.55833890743452	0.608332793275622	n/a	n/a	n/a	n/a
81.28857421875	0.2	166479	22	74	0	0	0	22	37	stimuli\Videos_short_600ms\43.touch_top_to_bottom_with_sharp_wooden_stick_short_short_600ms.mp4	43.touch_top_to_bottom_with_sharp_wooden_stick_short_short_600ms.mp4	62.7499895164874	63.35832494896749	0.6083354324800894	n/a	n/a	n/a	n/a
82.0888671875	0.2	168118	23	74	0	0	0	23	305	stimuli\Videos_short_600ms_vertflip\41.injection_with_blunt_syringe_short_vertflip_short_600ms.mp4	41.injection_with_blunt_syringe_short_vertflip_short_600ms.mp4	63.549973798551946	64.15829603500242	0.6083222364504763	n/a	n/a	n/a	n/a
82.888671875	0.2	169756	24	74	0	0	0	24	257	stimuli\Videos_short_600ms_horvertflip\8.single_touch_with_hairbrush_short_horvertflip_short_600ms.mp4	8.single_touch_with_hairbrush_short_horvertflip_short_600ms.mp4	64.34993550074796	64.95827914408801	0.6083436433400493	n/a	n/a	n/a	n/a
83.6884765625	0.2	171394	25	74	0	0	0	25	219	stimuli\Videos_short_600ms_horvertflip\45.scratching_with_finger_nails_short_horvertflip_short_600ms.mp4	45.scratching_with_finger_nails_short_horvertflip_short_600ms.mp4	65.15001186176232	65.75826342615255	0.6082515643902298	n/a	n/a	n/a	n/a
84.48876953125	0.2	173033	26	74	0	0	0	26	256	stimuli\Videos_short_600ms_horvertflip\79.long_with_soft_brush_all_over_the_hand_short_horvertflip_short_600ms.mp4	79.long_with_soft_brush_all_over_the_hand_short_horvertflip_short_600ms.mp4	65.9506430424517	66.55824858795313	0.6076055455014284	n/a	n/a	n/a	n/a
85.28857421875	0.2	174671	27	74	0	0	0	27	92	stimuli\Videos_short_600ms_horflip\11.single_touch_with_lighter_short_horflip_short_600ms.mp4	11.single_touch_with_lighter_short_horflip_short_600ms.mp4	66.75013232683705	67.35823169703508	0.6080993701980333	n/a	n/a	n/a	n/a
86.08837890625	0.2	176309	28	74	0	0	0	28	129	stimuli\Videos_short_600ms_horflip\45.scratching_with_finger_nails_short_horflip_short_600ms.mp4	45.scratching_with_finger_nails_short_horflip_short_600ms.mp4	67.54992365364524	68.15821216691256	0.6082885132673255	n/a	n/a	n/a	n/a
86.888671875	0.2	177948	29	74	0	0	0	29	162	stimuli\Videos_short_600ms_horflip\75.(long)stroke_with_fingers_all_over_the_hand_short_horflip_short_600ms.mp4	75.(long)stroke_with_fingers_all_over_the_hand_short_horflip_short_600ms.mp4	68.34988535584125	68.95819791520262	0.6083125593613659	n/a	n/a	n/a	n/a
87.6884765625	0.2	179586	30	74	0	0	0	30	143	stimuli\Videos_short_600ms_horflip\58.single_slap_with_pencil_short_horflip_short_600ms.mp4	58.single_slap_with_pencil_short_horflip_short_600ms.mp4	69.14981450782943	69.7581783850801	0.6083638772506674	n/a	n/a	n/a	n/a
88.48828125	0.2	181224	31	74	0	0	0	31	72	stimuli\Videos_short_600ms\75.(long)stroke_with_fingers_all_over_the_hand_short_short_600ms.mp4	75.(long)stroke_with_fingers_all_over_the_hand_short_short_600ms.mp4	69.94979585744295	70.55816061442965	0.6083647569867026	n/a	n/a	n/a	n/a
89.28857421875	0.2	182863	32	74	0	0	0	32	265	stimuli\Videos_short_600ms_horvertflip\87.single_stroke_top_to_bottom_with_plastic_brush_short_horvertflip_short_600ms.mp4	87.single_stroke_top_to_bottom_with_plastic_brush_short_horvertflip_short_600ms.mp4	70.74980154639707	71.3581448964942	0.6083433500971296	n/a	n/a	n/a	n/a
90.08837890625	0.2	184501	33	74	0	0	0	33	291	stimuli\Videos_short_600ms_vertflip\29.single_pinch_with_tweezers_short_vertflip_short_600ms.mp4	29.single_pinch_with_tweezers_short_vertflip_short_600ms.mp4	71.54982453681077	72.15811656902224	0.608292032211466	n/a	n/a	n/a	n/a
90.88818359375	0.2	186139	34	74	0	0	0	34	306	stimuli\Videos_short_600ms_vertflip\42.single_slap_with_plastic_whisk_short_vertflip_short_600ms.mp4	42.single_slap_with_plastic_whisk_short_vertflip_short_600ms.mp4	72.34979914178984	72.95809791863576	0.6082987768459134	n/a	n/a	n/a	n/a
91.6884765625	0.2	187778	35	74	0	0	0	35	57	stimuli\Videos_short_600ms\61.single_hit_with_rolling_pin_short_short_600ms.mp4	61.single_hit_with_rolling_pin_short_short_600ms.mp4	73.15026024033796	73.75807574930877	0.6078155089708162	n/a	n/a	n/a	n/a
92.48828125	0.2	189416	36	74	0	0	0	36	255	stimuli\Videos_short_600ms_horvertflip\78.single_stroke_top_to_bottom_with_soft_brush_short_horvertflip_short_600ms.mp4	78.single_stroke_top_to_bottom_with_soft_brush_short_horvertflip_short_600ms.mp4	73.94978735333643	74.55803246633513	0.6082451129987021	n/a	n/a	n/a	n/a
93.2880859375	0.2	191054	37	74	0	0	0	37	344	stimuli\Videos_short_600ms_vertflip\77.tapping_with_all_fingers_short_vertflip_short_600ms.mp4	77.tapping_with_all_fingers_short_vertflip_short_600ms.mp4	74.74980066666467	75.35801586866364	0.6082152019989735	n/a	n/a	n/a	n/a
94.08837890625	0.2	192693	38	74	0	0	0	38	0	stimuli\Videos_short_600ms\1.repeated_touch_with_finger_fast_short_short_600ms.mp4	1.repeated_touch_with_finger_fast_short_short_600ms.mp4	75.54972336726132	76.1580294752348	0.6083061079734762	n/a	n/a	n/a	n/a
94.88818359375	0.2	194331	39	74	0	0	0	39	333	stimuli\Videos_short_600ms_vertflip\67.single_touch_with_sponge_short_vertflip_short_600ms.mp4	67.single_touch_with_sponge_short_vertflip_short_600ms.mp4	76.3497211385984	76.95800847888677	0.6082873402883706	n/a	n/a	n/a	n/a
95.6884765625	0.2	195970	40	74	0	0	0	40	247	stimuli\Videos_short_600ms_horvertflip\70.(long)stroke_with_finger_all_over_the_hand_short_horvertflip_short_600ms.mp4	70.(long)stroke_with_finger_all_over_the_hand_short_horvertflip_short_600ms.mp4	77.1496884124499	77.75801622055587	0.6083278081059689	n/a	n/a	n/a	n/a
96.48828125	0.2	197608	41	74	0	0	0	41	285	stimuli\Videos_short_600ms_vertflip\23.single_push_with_a_spoon_short_vertflip_short_600ms.mp4	23.single_push_with_a_spoon_short_vertflip_short_600ms.mp4	77.94967210802497	78.55800783374798	0.6083357257230091	n/a	n/a	n/a	n/a
97.2880859375	0.2	199246	42	74	0	0	0	42	23	stimuli\Videos_short_600ms\30.finger_pulling_back_another_finger_short_short_600ms.mp4	30.finger_pulling_back_another_finger_short_short_600ms.mp4	78.74964231432386	79.35795340746336	0.6083110931394913	n/a	n/a	n/a	n/a
98.08837890625	0.2	200885	43	74	0	0	0	43	118	stimuli\Videos_short_600ms_horflip\35.single_punch_with_hand_short_horflip_short_600ms.mp4	35.single_punch_with_hand_short_horflip_short_600ms.mp4	79.54963832619251	80.15796144237902	0.6083231161865115	n/a	n/a	n/a	n/a
98.88818359375	0.2	202523	44	74	0	0	0	44	33	stimuli\Videos_short_600ms\4.repeated_tap_with_finger_slow_short_short_600ms.mp4	4.repeated_tap_with_finger_slow_short_short_600ms.mp4	80.3496249542186	80.95794367172857	0.6083187175099738	n/a	n/a	n/a	n/a
99.68798828125	0.2	204161	45	74	0	0	0	45	254	stimuli\Videos_short_600ms_horvertflip\77.tapping_with_all_fingers_short_horvertflip_short_600ms.mp4	77.tapping_with_all_fingers_short_horvertflip_short_600ms.mp4	81.1496300566796	81.7579264875676	0.6082964308880037	n/a	n/a	n/a	n/a
100.48828125	0.2	205800	46	74	0	0	0	46	352	stimuli\Videos_short_600ms_vertflip\84.single_touch_with_cotton_bud_short_vertflip_short_600ms.mp4	84.single_touch_with_cotton_bud_short_vertflip_short_600ms.mp4	81.94990113242602	82.55791282234713	0.6080116899211134	n/a	n/a	n/a	n/a
101.2880859375	0.2	207438	47	74	0	0	0	47	345	stimuli\Videos_short_600ms_vertflip\78.single_stroke_top_to_bottom_with_soft_brush_short_vertflip_short_600ms.mp4	78.single_stroke_top_to_bottom_with_soft_brush_short_vertflip_short_600ms.mp4	82.74960301948522	83.35789475845013	0.6082917389649083	n/a	n/a	n/a	n/a
102.087890625	0.2	209076	48	74	0	0	0	48	30	stimuli\Videos_short_600ms\37.single_stab_with_nail_file_short_short_600ms.mp4	37.single_stab_with_nail_file_short_short_600ms.mp4	83.55024886242973	84.15788109322966	0.6076322307999362	n/a	n/a	n/a	n/a
102.88818359375	0.2	210715	49	74	0	0	0	49	104	stimuli\Videos_short_600ms_horflip\22.single_touch_with_metal_chopstick_short_horflip_short_600ms.mp4	22.single_touch_with_metal_chopstick_short_horflip_short_600ms.mp4	84.3495214387076	84.95786214959662	0.6083407108890242	n/a	n/a	n/a	n/a
103.68798828125	0.2	212353	50	74	0	0	0	50	109	stimuli\Videos_short_600ms_horflip\27.single_push_with_a_plastic_whisk_short_horflip_short_600ms.mp4	27.single_push_with_a_plastic_whisk_short_horflip_short_600ms.mp4	85.14947844898052	85.75784437894617	0.6083659299656574	n/a	n/a	n/a	n/a
104.48779296875	0.2	213991	51	74	0	0	0	51	221	stimuli\Videos_short_600ms_horvertflip\47.(long)scratching_with_finger_nails_short_horvertflip_short_600ms.mp4	47.(long)scratching_with_finger_nails_short_horvertflip_short_600ms.mp4	85.9495334031053	86.55782866101072	0.6082952579054108	n/a	n/a	n/a	n/a
105.2880859375	0.2	215630	52	74	0	0	0	52	225	stimuli\Videos_short_600ms_horvertflip\50.single_(long)hard_push_with_thumb_short_horvertflip_short_600ms.mp4	50.single_(long)hard_push_with_thumb_short_horvertflip_short_600ms.mp4	86.74946284834368	87.35780825115216	0.6083454028084816	n/a	n/a	n/a	n/a
106.087890625	0.2	217268	53	74	0	0	0	53	339	stimuli\Videos_short_600ms_vertflip\72.(short)stroke_with_finger_all_over_the_hand_short_vertflip_short_600ms.mp4	72.(short)stroke_with_finger_all_over_the_hand_short_vertflip_short_600ms.mp4	87.54947792114035	88.15779429268878	0.6083163715484261	n/a	n/a	n/a	n/a
106.8876953125	0.2	218906	54	74	0	0	0	54	66	stimuli\Videos_short_600ms\7.repeated_touch_with_hairbrush_short_short_600ms.mp4	7.repeated_touch_with_hairbrush_short_short_600ms.mp4	88.34973433462801	88.95773282852315	0.6079984938951384	n/a	n/a	n/a	n/a
107.68798828125	0.2	220545	55	74	0	0	1	55	383	stimuli\Targets_short_600ms_vertflip\hand-stroke_short_horvertflip_short_600ms.mp4	hand-stroke_short_horvertflip_short_600ms.mp4	89.14950396130007	89.75772590793713	0.6082219466370589	n/a	n/a	n/a	n/a
108.48779296875	0.2	222183	56	74	0	0	0	56	79	stimuli\Videos_short_600ms\81.single_stroke_top_to_bottom_with_cotton_pad_short_short_600ms.mp4	81.single_stroke_top_to_bottom_with_cotton_pad_short_short_600ms.mp4	89.9494310605769	90.5577216265592	0.6082905659823155	n/a	n/a	n/a	n/a
109.28759765625	0.2	223821	57	74	0	0	0	57	237	stimuli\Videos_short_600ms_horvertflip\61.single_hit_with_rolling_pin_short_horvertflip_short_600ms.mp4	61.single_hit_with_rolling_pin_short_horvertflip_short_600ms.mp4	90.74962208041688	91.35771617220234	0.6080940917854605	n/a	n/a	n/a	n/a
110.087890625	0.2	225460	58	74	0	0	0	58	69	stimuli\Videos_short_600ms\72.(short)stroke_with_finger_all_over_the_hand_short_short_600ms.mp4	72.(short)stroke_with_finger_all_over_the_hand_short_short_600ms.mp4	91.54938965437395	92.15769400287536	0.6083043485014059	n/a	n/a	n/a	n/a
110.8876953125	0.2	227098	59	74	0	0	0	59	89	stimuli\Videos_short_600ms\90.repeated_touch_with_sponge_short_short_600ms.mp4	90.repeated_touch_with_sponge_short_short_600ms.mp4	92.34937393643486	92.95768561606384	0.6083116796289687	n/a	n/a	n/a	n/a
111.6875	0.2	228736	60	74	0	0	0	60	15	stimuli\Videos_short_600ms\23.single_push_with_a_spoon_short_short_600ms.mp4	23.single_push_with_a_spoon_short_short_600ms.mp4	93.14935704552045	93.75769042528556	0.6083333797650994	n/a	n/a	n/a	n/a
112.48779296875	0.2	230375	61	74	0	0	0	61	159	stimuli\Videos_short_600ms_horflip\72.(short)stroke_with_finger_all_over_the_hand_short_horflip_short_600ms.mp4	72.(short)stroke_with_finger_all_over_the_hand_short_horflip_short_600ms.mp4	93.9494762203176	94.55765945860549	0.6081832382878929	n/a	n/a	n/a	n/a
113.28759765625	0.2	232013	62	74	0	0	0	62	174	stimuli\Videos_short_600ms_horflip\86.touch_top_to_bottom_with_hair_brush_short_horflip_short_600ms.mp4	86.touch_top_to_bottom_with_hair_brush_short_horflip_short_600ms.mp4	94.74935112196908	95.35764403391296	0.6082929119438631	n/a	n/a	n/a	n/a
114.08740234375	0.2	233651	63	74	0	0	0	63	107	stimuli\Videos_short_600ms_horflip\25.single_touch_with_stanley_knife_short_horflip_short_600ms.mp4	25.single_touch_with_stanley_knife_short_horflip_short_600ms.mp4	95.54928819157794	96.15762860922403	0.6083404176461045	n/a	n/a	n/a	n/a
114.8876953125	0.2	235290	64	74	0	0	0	64	32	stimuli\Videos_short_600ms\39.single_stab_with_scissors_short_short_600ms.mp4	39.single_stab_with_scissors_short_short_600ms.mp4	96.34928977510208	96.95761259804203	0.6083228229399538	n/a	n/a	n/a	n/a
115.6875	0.2	236928	65	74	0	0	0	65	332	stimuli\Videos_short_600ms_vertflip\66.stroke_top_to_bottom_with_sponge_short_vertflip_short_600ms.mp4	66.stroke_top_to_bottom_with_sponge_short_vertflip_short_600ms.mp4	97.14927288418404	97.75759834633207	0.6083254621480592	n/a	n/a	n/a	n/a
116.48779296875	0.2	238567	66	74	0	0	0	66	343	stimuli\Videos_short_600ms_vertflip\76.tickle_with_fingers_from_top_to_bottom_short_vertflip_short_600ms.mp4	76.tickle_with_fingers_from_top_to_bottom_short_vertflip_short_600ms.mp4	97.94923663909503	98.55758057568164	0.608343936586607	n/a	n/a	n/a	n/a
117.28759765625	0.2	240205	67	74	0	0	0	67	63	stimuli\Videos_short_600ms\67.single_touch_with_sponge_short_short_600ms.mp4	67.single_touch_with_sponge_short_short_600ms.mp4	98.74925669705772	99.35756104555912	0.6083043485014059	n/a	n/a	n/a	n/a
118.08740234375	0.2	241843	68	74	0	0	0	68	282	stimuli\Videos_short_600ms_vertflip\20.single_touch_with_screwdriver_short_vertflip_short_600ms.mp4	20.single_touch_with_screwdriver_short_vertflip_short_600ms.mp4	99.54919464639896	100.1575435681516	0.6083489217526221	n/a	n/a	n/a	n/a
118.8876953125	0.2	243482	69	74	0	0	0	69	207	stimuli\Videos_short_600ms_horvertflip\34.repeated_punch_with_hand_short_horvertflip_short_600ms.mp4	34.repeated_punch_with_hand_short_horvertflip_short_600ms.mp4	100.34922086251026	100.95752843670562	0.6083075741953508	n/a	n/a	n/a	n/a
119.6875	0.2	245120	70	74	0	0	0	70	353	stimuli\Videos_short_600ms_vertflip\85.touch_top_to_bottom_with_fabric_short_vertflip_short_600ms.mp4	85.touch_top_to_bottom_with_fabric_short_vertflip_short_600ms.mp4	101.14918696337918	101.75751213228068	0.6083251689015015	n/a	n/a	n/a	n/a
120.4873046875	0.2	246758	71	74	0	0	0	71	222	stimuli\Videos_short_600ms_horvertflip\48.single_slap_with_hand_short_horvertflip_short_600ms.mp4	48.single_slap_with_hand_short_horvertflip_short_600ms.mp4	101.94917241842268	102.55749670759178	0.6083242891691043	n/a	n/a	n/a	n/a
121.28759765625	0.2	248397	72	74	0	0	0	72	50	stimuli\Videos_short_600ms\55.touch_top_to_bottom_with_nail_file_short_short_600ms.mp4	55.touch_top_to_bottom_with_nail_file_short_short_600ms.mp4	102.74913881253816	103.3574642746862	0.6083254621480592	n/a	n/a	n/a	n/a
122.08740234375	0.2	250035	73	74	0	0	0	73	77	stimuli\Videos_short_600ms\8.single_touch_with_hairbrush_short_short_600ms.mp4	8.single_touch_with_hairbrush_short_short_600ms.mp4	103.5491524191093	104.1574344809851	0.6082820618757978	n/a	n/a	n/a	n/a
122.88720703125	0.2	251673	74	74	0	0	0	74	294	stimuli\Videos_short_600ms_vertflip\31.hand_grabbing_wrist_short_vertflip_short_600ms.mp4	31.hand_grabbing_wrist_short_vertflip_short_600ms.mp4	104.34953140903964	104.95741964278568	0.6078882337460527	n/a	n/a	n/a	n/a
123.6875	0.2	253312	75	74	0	0	0	75	326	stimuli\Videos_short_600ms_vertflip\60.single_push_with_tip_of_pencil_short_vertflip_short_600ms.mp4	60.single_push_with_tip_of_pencil_short_vertflip_short_600ms.mp4	105.14910309528932	105.7573857436546	0.6082826483652752	n/a	n/a	n/a	n/a
124.4873046875	0.2	254950	76	74	0	0	0	76	96	stimuli\Videos_short_600ms_horflip\15.single_stroke_top_to_bottom_with_a_plastic_whisk_short_horflip_short_600ms.mp4	15.single_stroke_top_to_bottom_with_a_plastic_whisk_short_horflip_short_600ms.mp4	105.94916156835824	106.5573843947277	0.608222826369456	n/a	n/a	n/a	n/a
125.287109375	0.2	256588	77	74	0	0	0	77	264	stimuli\Videos_short_600ms_horvertflip\86.touch_top_to_bottom_with_hair_brush_short_horvertflip_short_600ms.mp4	86.touch_top_to_bottom_with_hair_brush_short_horvertflip_short_600ms.mp4	106.74907429862289	107.35737776739188	0.6083034687690088	n/a	n/a	n/a	n/a
126.08740234375	0.2	258227	78	74	0	0	0	78	178	stimuli\Videos_short_600ms_horflip\9.single_touch_with_hammer_short_horflip_short_600ms.mp4	9.single_touch_with_hammer_short_horflip_short_600ms.mp4	107.54905623472588	108.15736586163985	0.6083096269139787	n/a	n/a	n/a	n/a
126.88720703125	0.2	259865	79	74	0	0	0	79	227	stimuli\Videos_short_600ms_horvertflip\52.touch_top_to_bottom_with_hammer_short_horvertflip_short_600ms.mp4	52.touch_top_to_bottom_with_hammer_short_horvertflip_short_600ms.mp4	108.34929974543412	108.95737360330897	0.6080738578748424	n/a	n/a	n/a	n/a
127.68701171875	0.2	261503	80	74	0	0	0	80	18	stimuli\Videos_short_600ms\26.single_touch_with_a_blunt_syringe_short_short_600ms.mp4	26.single_touch_with_a_blunt_syringe_short_short_600ms.mp4	109.1490723045572	109.75734468934752	0.6082723847903253	n/a	n/a	n/a	n/a
128.4873046875	0.2	263142	81	74	0	0	0	81	310	stimuli\Videos_short_600ms_vertflip\46.scratching_top_to_bottom_with_finger_nails_short_vertflip_short_600ms.mp4	46.scratching_top_to_bottom_with_finger_nails_short_vertflip_short_600ms.mp4	109.94900644171504	110.55733894174408	0.6083325000290642	n/a	n/a	n/a	n/a
129.287109375	0.2	264780	82	74	0	0	0	82	3	stimuli\Videos_short_600ms\12.repeated_touch_with_nail_file_short_short_600ms.mp4	12.repeated_touch_with_nail_file_short_short_600ms.mp4	110.74899306973748	111.3572745451238	0.6082814753863204	n/a	n/a	n/a	n/a
130.0869140625	0.2	266418	83	74	0	0	0	83	199	stimuli\Videos_short_600ms_horvertflip\27.single_push_with_a_plastic_whisk_short_horvertflip_short_600ms.mp4	27.single_push_with_a_plastic_whisk_short_horvertflip_short_600ms.mp4	111.5489709004105	112.15729988149906	0.6083289810885617	n/a	n/a	n/a	n/a
130.88720703125	0.2	268057	84	74	0	0	0	84	286	stimuli\Videos_short_600ms_vertflip\24.single_stroke_top_to_bottom_with_a_spoon_short_vertflip_short_600ms.mp4	24.single_stroke_top_to_bottom_with_a_spoon_short_vertflip_short_600ms.mp4	112.3489575284366	112.95727829866156	0.6083207702249638	n/a	n/a	n/a	n/a
131.68701171875	0.2	269695	85	74	0	0	0	85	327	stimuli\Videos_short_600ms_vertflip\61.single_hit_with_rolling_pin_short_vertflip_short_600ms.mp4	61.single_hit_with_rolling_pin_short_vertflip_short_600ms.mp4	113.14893975778614	113.75726228748316	0.608322529697034	n/a	n/a	n/a	n/a
132.48681640625	0.2	271333	86	74	0	0	0	86	246	stimuli\Videos_short_600ms_horvertflip\7.repeated_touch_with_hairbrush_short_horvertflip_short_600ms.mp4	7.repeated_touch_with_hairbrush_short_horvertflip_short_600ms.mp4	113.9489102573316	114.55724744928013	0.6083371919485216	n/a	n/a	n/a	n/a
133.287109375	0.2	272972	87	74	0	0	0	87	152	stimuli\Videos_short_600ms_horflip\66.stroke_top_to_bottom_with_sponge_short_horflip_short_600ms.mp4	66.stroke_top_to_bottom_with_sponge_short_horflip_short_600ms.mp4	114.7488901407196	115.35722762591467	0.6083374851950794	n/a	n/a	n/a	n/a
134.0869140625	0.2	274610	88	74	0	0	0	88	176	stimuli\Videos_short_600ms_horflip\88.repeated_stroke_with_plastic_brush_short_horflip_short_600ms.mp4	88.repeated_stroke_with_plastic_brush_short_horflip_short_600ms.mp4	115.5488700241076	116.15721366744764	0.6083436433400493	n/a	n/a	n/a	n/a
134.88671875	0.2	276248	89	74	0	0	0	89	322	stimuli\Videos_short_600ms_vertflip\57.single_touch_with_nail_file_short_vertflip_short_600ms.mp4	57.single_touch_with_nail_file_short_vertflip_short_600ms.mp4	116.34883231279308	116.95721789017624	0.6083855773831601	n/a	n/a	n/a	n/a
135.68701171875	0.2	277887	90	74	0	0	0	90	202	stimuli\Videos_short_600ms_horvertflip\3.single_push_with_finger_short_horvertflip_short_600ms.mp4	3.single_push_with_finger_short_horvertflip_short_600ms.mp4	117.14884533287112	117.75719190866585	0.6083465757947124	n/a	n/a	n/a	n/a
136.48681640625	0.2	279525	91	74	0	0	0	91	76	stimuli\Videos_short_600ms\79.long_with_soft_brush_all_over_the_hand_short_short_600ms.mp4	79.long_with_soft_brush_all_over_the_hand_short_short_600ms.mp4	117.94884457043372	118.55716622039472	0.6083216499609989	n/a	n/a	n/a	n/a
137.287109375	0.2	281164	92	74	0	0	0	92	127	stimuli\Videos_short_600ms_horflip\43.touch_top_to_bottom_with_sharp_wooden_stick_short_horflip_short_600ms.mp4	43.touch_top_to_bottom_with_sharp_wooden_stick_short_horflip_short_600ms.mp4	118.74884732694044	119.35716135252731	0.6083140255868784	3.0	3.0	3.3969687843527936	1.0
173.39404296875	0.2	355111	93	74	1	0	0	0	236	stimuli\Videos_short_600ms_horvertflip\60.single_push_with_tip_of_pencil_short_horvertflip_short_600ms.mp4	60.single_push_with_tip_of_pencil_short_horvertflip_short_600ms.mp4	154.85637413613586	155.4646884549693	0.6083143188334361	n/a	n/a	n/a	n/a
174.19384765625	0.2	356749	94	74	1	0	0	1	169	stimuli\Videos_short_600ms_horflip\81.single_stroke_top_to_bottom_with_cotton_pad_short_horflip_short_600ms.mp4	81.single_stroke_top_to_bottom_with_cotton_pad_short_horflip_short_600ms.mp4	155.65670356764895	156.26467420325935	0.6079706356103998	n/a	n/a	n/a	n/a
174.994140625	0.2	358388	95	74	1	0	0	2	110	stimuli\Videos_short_600ms_horflip\28.single_injection_with_sharp_needle_short_horflip_short_600ms.mp4	28.single_injection_with_sharp_needle_short_horflip_short_600ms.mp4	156.45636029496745	157.06466024479596	0.6082999498285062	n/a	n/a	n/a	n/a
175.7939453125	0.2	360026	96	74	1	0	0	3	19	stimuli\Videos_short_600ms\27.single_push_with_a_plastic_whisk_short_short_600ms.mp4	27.single_push_with_a_plastic_whisk_short_short_600ms.mp4	157.25631349305695	157.8646468728184	0.6083333797614614	n/a	n/a	n/a	n/a
176.59375	0.2	361664	97	74	1	0	0	4	25	stimuli\Videos_short_600ms\32.single_(long)pinch_with_fingers_short_short_600ms.mp4	32.single_(long)pinch_with_fingers_short_short_600ms.mp4	158.05634234836907	158.66465050905754	0.6083081606884662	n/a	n/a	n/a	n/a
177.39404296875	0.2	363303	98	74	1	0	0	5	61	stimuli\Videos_short_600ms\65.stroke_top_to_bottom_with_stanley_knife_short_short_600ms.mp4	65.stroke_top_to_bottom_with_stanley_knife_short_short_600ms.mp4	158.85632926964172	159.46465619801165	0.6083269283699337	n/a	n/a	n/a	n/a
178.19384765625	0.2	364941	99	74	1	0	0	6	132	stimuli\Videos_short_600ms_horflip\48.single_slap_with_hand_short_horflip_short_600ms.mp4	48.single_slap_with_hand_short_horflip_short_600ms.mp4	159.65626839196557	160.2646486909398	0.6083802989742253	n/a	n/a	n/a	n/a
178.99365234375	0.2	366579	100	74	1	0	0	7	316	stimuli\Videos_short_600ms_vertflip\51.repeated_touch_with_hammer_short_vertflip_short_600ms.mp4	51.repeated_touch_with_hammer_short_vertflip_short_600ms.mp4	160.45629460807322	161.06462124320024	0.608326635127014	n/a	n/a	n/a	n/a
179.7939453125	0.2	368218	101	74	1	0	0	8	142	stimuli\Videos_short_600ms_horflip\57.single_touch_with_nail_file_short_horflip_short_600ms.mp4	57.single_touch_with_nail_file_short_horflip_short_600ms.mp4	161.25627889013776	161.8645638844646	0.6082849943268229	n/a	n/a	n/a	n/a
180.59375	0.2	369856	102	74	1	0	0	9	134	stimuli\Videos_short_600ms_horflip\5.repeated_tap_with_finger_moving_from_top_to_bottom_short_horflip_short_600ms.mp4	5.repeated_tap_with_finger_moving_from_top_to_bottom_short_horflip_short_600ms.mp4	162.05629630889598	162.66458540865278	0.6082890997568029	n/a	n/a	n/a	n/a
181.3935546875	0.2	371494	103	74	1	0	0	10	271	stimuli\Videos_short_600ms_vertflip\10.single_touch_with_knife_short_vertflip_short_600ms.mp4	10.single_touch_with_knife_short_vertflip_short_600ms.mp4	162.85624892049236	163.46457203667887	0.6083231161865115	n/a	n/a	n/a	n/a
182.19384765625	0.2	373133	104	74	1	0	0	11	215	stimuli\Videos_short_600ms_horvertflip\41.injection_with_blunt_syringe_short_horvertflip_short_600ms.mp4	41.injection_with_blunt_syringe_short_horvertflip_short_600ms.mp4	163.65622880388037	164.26455455927135	0.6083257553909789	n/a	n/a	n/a	n/a
182.99365234375	0.2	374771	105	74	1	0	0	12	172	stimuli\Videos_short_600ms_horflip\84.single_touch_with_cotton_bud_short_horflip_short_600ms.mp4	84.single_touch_with_cotton_bud_short_horflip_short_600ms.mp4	164.45621191296232	165.06453590888486	0.6083239959225466	n/a	n/a	n/a	n/a
183.79345703125	0.2	376409	106	74	1	0	0	13	323	stimuli\Videos_short_600ms_vertflip\58.single_slap_with_pencil_short_vertflip_short_600ms.mp4	58.single_slap_with_pencil_short_vertflip_short_600ms.mp4	165.25613080137555	165.86452195042148	0.6083911490459286	n/a	n/a	n/a	n/a
184.59375	0.2	378048	107	74	1	0	0	14	341	stimuli\Videos_short_600ms_vertflip\74.fingers_walking_from_top_to_bottom_short_vertflip_short_600ms.mp4	74.fingers_walking_from_top_to_bottom_short_vertflip_short_600ms.mp4	166.0561142037077	166.66450740546497	0.6083932017572806	n/a	n/a	n/a	n/a
185.3935546875	0.2	379686	108	74	1	0	0	15	280	stimuli\Videos_short_600ms_vertflip\19.single_touch_with_rolling_pin_short_vertflip_short_600ms.mp4	19.single_touch_with_rolling_pin_short_vertflip_short_600ms.mp4	166.8561415927943	167.4644890483214	0.6083474555271096	n/a	n/a	n/a	n/a
186.19384765625	0.2	381325	109	74	1	0	0	16	168	stimuli\Videos_short_600ms_horflip\80.stroke_with_sharp_stick_all_over_the_hand_short_horflip_short_600ms.mp4	80.stroke_with_sharp_stick_all_over_the_hand_short_horflip_short_600ms.mp4	167.65615578585857	168.26446951820253	0.6083137323439587	n/a	n/a	n/a	n/a
186.99365234375	0.2	382963	110	74	1	0	0	17	34	stimuli\Videos_short_600ms\40.repeated_push_with_finger_short_short_600ms.mp4	40.repeated_push_with_finger_short_short_600ms.mp4	168.45613215030608	169.06445702596102	0.6083248756549438	n/a	n/a	n/a	n/a
187.79345703125	0.2	384601	111	74	1	0	0	18	100	stimuli\Videos_short_600ms_horflip\19.single_touch_with_rolling_pin_short_horflip_short_600ms.mp4	19.single_touch_with_rolling_pin_short_horflip_short_600ms.mp4	169.25611320667304	169.86442195385098	0.6083087471779436	n/a	n/a	n/a	n/a
188.59375	0.2	386240	112	74	1	0	0	19	289	stimuli\Videos_short_600ms_vertflip\27.single_push_with_a_plastic_whisk_short_vertflip_short_600ms.mp4	27.single_push_with_a_plastic_whisk_short_vertflip_short_600ms.mp4	170.0560969022481	170.66441415353256	0.6083172512844612	n/a	n/a	n/a	n/a
189.3935546875	0.2	387878	113	74	1	0	0	20	64	stimuli\Videos_short_600ms\68.stroke_top_to_bottom_with_shawl_short_short_600ms.mp4	68.stroke_top_to_bottom_with_shawl_short_short_600ms.mp4	170.85608851543657	171.46436119347345	0.608272678036883	n/a	n/a	n/a	n/a
190.193359375	0.2	389516	114	74	1	0	1	21	369	stimuli\Targets_short_600ms_horflip\finger-tap_short_horflip_short_600ms.mp4	finger-tap_short_horflip_short_600ms.mp4	171.65606517313063	172.264345475538	0.6082803024073655	n/a	n/a	n/a	n/a
190.99365234375	0.2	391155	115	74	1	0	0	22	208	stimuli\Videos_short_600ms_horvertflip\35.single_punch_with_hand_short_horvertflip_short_600ms.mp4	35.single_punch_with_hand_short_horvertflip_short_600ms.mp4	172.45605913228064	173.06432799813047	0.6082688658498228	n/a	n/a	n/a	n/a
191.79345703125	0.2	392793	116	74	1	0	0	23	49	stimuli\Videos_short_600ms\54.repeated_touch_with_knife_short_short_600ms.mp4	54.repeated_touch_with_knife_short_short_600ms.mp4	173.25603256427712	173.86436183861224	0.6083292743351194	n/a	n/a	n/a	n/a
192.59326171875	0.2	394431	117	74	1	0	0	24	328	stimuli\Videos_short_600ms_vertflip\62.touch_top_to_bottom_with_scissors_short_vertflip_short_600ms.mp4	62.touch_top_to_bottom_with_scissors_short_vertflip_short_600ms.mp4	174.05601743283114	174.6643276462346	0.6083102134034561	n/a	n/a	n/a	n/a
193.3935546875	0.2	396070	118	74	1	0	0	25	87	stimuli\Videos_short_600ms\89.single_touch_with_plastic_brush_short_short_600ms.mp4	89.single_touch_with_plastic_brush_short_short_600ms.mp4	174.85599819595518	175.4643177932012	0.6083195972460089	n/a	n/a	n/a	n/a
194.193359375	0.2	397708	119	74	1	0	0	26	312	stimuli\Videos_short_600ms_vertflip\48.single_slap_with_hand_short_vertflip_short_600ms.mp4	48.single_slap_with_hand_short_vertflip_short_600ms.mp4	175.6559830645092	176.26431204559776	0.6083289810885617	n/a	n/a	n/a	n/a
194.9931640625	0.2	399346	120	74	1	0	0	27	206	stimuli\Videos_short_600ms_horvertflip\33.scratch_top_to_bottom_with_scissors_short_horvertflip_short_600ms.mp4	33.scratch_top_to_bottom_with_scissors_short_horvertflip_short_600ms.mp4	176.45598963319935	177.06429192898577	0.6083022957864159	n/a	n/a	n/a	n/a
195.79345703125	0.2	400985	121	74	1	0	0	28	185	stimuli\Videos_short_600ms_horvertflip\14.repeated_touch_with_pencil_short_horvertflip_short_600ms.mp4	14.repeated_touch_with_pencil_short_horvertflip_short_600ms.mp4	177.25594840294434	177.86427533131427	0.6083269283699337	n/a	n/a	n/a	n/a
196.59326171875	0.2	402623	122	74	1	0	0	29	122	stimuli\Videos_short_600ms_horflip\39.single_stab_with_scissors_short_horflip_short_600ms.mp4	39.single_stab_with_scissors_short_horflip_short_600ms.mp4	178.05593356474128	178.66425697417435	0.6083234094330692	n/a	n/a	n/a	n/a
197.39306640625	0.2	404261	123	74	1	0	0	30	321	stimuli\Videos_short_600ms_vertflip\56.repeated_touch_with_nail_file_short_vertflip_short_600ms.mp4	56.repeated_touch_with_nail_file_short_vertflip_short_600ms.mp4	178.85591696707343	179.46424184272837	0.6083248756549438	n/a	n/a	n/a	n/a
198.193359375	0.2	405900	124	74	1	0	0	31	284	stimuli\Videos_short_600ms_vertflip\22.single_touch_with_metal_chopstick_short_vertflip_short_600ms.mp4	22.single_touch_with_metal_chopstick_short_vertflip_short_600ms.mp4	179.65589978290882	180.26422495181396	0.6083251689051394	n/a	n/a	n/a	n/a
198.9931640625	0.2	407538	125	74	1	0	1	32	360	stimuli\Targets_short_600ms\brush-stroke_short_short_600ms.mp4	brush-stroke_short_short_600ms.mp4	180.45585122152625	181.06420747440643	0.6083562528801849	n/a	n/a	n/a	n/a
199.79296875	0.2	409176	126	74	1	0	0	33	277	stimuli\Videos_short_600ms_vertflip\16.repeated_touch_with_plastic_brush_short_vertflip_short_600ms.mp4	16.repeated_touch_with_plastic_brush_short_vertflip_short_600ms.mp4	181.25582582650532	181.86418823753047	0.6083624110251549	n/a	n/a	n/a	n/a
200.59326171875	0.2	410815	127	74	1	0	0	34	281	stimuli\Videos_short_600ms_vertflip\2.single_touch_with_finger_short_vertflip_short_600ms.mp4	2.single_touch_with_finger_short_vertflip_short_600ms.mp4	182.05581157479173	182.66417603853552	0.6083644637437828	n/a	n/a	n/a	n/a
201.39306640625	0.2	412453	128	74	1	0	0	35	85	stimuli\Videos_short_600ms\87.single_stroke_top_to_bottom_with_plastic_brush_short_short_600ms.mp4	87.single_stroke_top_to_bottom_with_plastic_brush_short_short_600ms.mp4	182.855850986929	183.4641620800685	0.6083110931394913	n/a	n/a	n/a	n/a
202.19287109375	0.2	414091	129	74	1	0	0	36	249	stimuli\Videos_short_600ms_horvertflip\72.(short)stroke_with_finger_all_over_the_hand_short_horvertflip_short_600ms.mp4	72.(short)stroke_with_finger_all_over_the_hand_short_horvertflip_short_600ms.mp4	183.65577808620583	184.26414254994597	0.6083644637401449	n/a	n/a	n/a	n/a
202.9931640625	0.2	415730	130	74	1	0	0	37	300	stimuli\Videos_short_600ms_vertflip\37.single_stab_with_nail_file_short_vertflip_short_600ms.mp4	37.single_stab_with_nail_file_short_vertflip_short_600ms.mp4	184.4558028360916	185.0641218468445	0.6083190107528935	n/a	n/a	n/a	n/a
203.79296875	0.2	417368	131	74	1	0	0	38	28	stimuli\Videos_short_600ms\35.single_punch_with_hand_short_short_600ms.mp4	35.single_punch_with_hand_short_short_600ms.mp4	185.25577832080307	185.8640946923515	0.6083163715484261	n/a	n/a	n/a	n/a
204.5927734375	0.2	419006	132	74	1	0	0	39	26	stimuli\Videos_short_600ms\33.scratch_top_to_bottom_with_scissors_short_short_600ms.mp4	33.scratch_top_to_bottom_with_scissors_short_short_600ms.mp4	186.05577609214015	186.66402970924537	0.6082536171052197	n/a	n/a	n/a	n/a
205.39306640625	0.2	420645	133	74	1	0	0	40	181	stimuli\Videos_short_600ms_horvertflip\10.single_touch_with_knife_short_horvertflip_short_600ms.mp4	10.single_touch_with_knife_short_horvertflip_short_600ms.mp4	186.85575597552815	187.46402894680796	0.6082729712798027	n/a	n/a	n/a	n/a
206.19287109375	0.2	422283	134	74	1	0	0	41	182	stimuli\Videos_short_600ms_horvertflip\11.single_touch_with_lighter_short_horvertflip_short_600ms.mp4	11.single_touch_with_lighter_short_horvertflip_short_600ms.mp4	187.65635783171092	188.26399416794084	0.6076363362299162	n/a	n/a	n/a	n/a
206.9931640625	0.2	423922	135	74	1	0	1	42	361	stimuli\Targets_short_600ms\chopstick-silver-tap_short_short_600ms.mp4	chopstick-silver-tap_short_short_600ms.mp4	188.4557119301171	189.06398959332	0.6082776632028981	n/a	n/a	n/a	n/a
207.79296875	0.2	425560	136	74	1	0	0	43	164	stimuli\Videos_short_600ms_horflip\77.tapping_with_all_fingers_short_horflip_short_600ms.mp4	77.tapping_with_all_fingers_short_horflip_short_600ms.mp4	189.2557011973477	189.86401580942768	0.6083146120799938	n/a	n/a	n/a	n/a
208.5927734375	0.2	427198	137	74	1	0	0	44	214	stimuli\Videos_short_600ms_horvertflip\40.repeated_push_with_finger_short_horvertflip_short_600ms.mp4	40.repeated_push_with_finger_short_horvertflip_short_600ms.mp4	190.05570160789284	190.66402267136436	0.6083210634715215	n/a	n/a	n/a	n/a
209.39306640625	0.2	428837	138	74	1	0	0	45	60	stimuli\Videos_short_600ms\64.repeated_touch_with_screwdriver_short_short_600ms.mp4	64.repeated_touch_with_screwdriver_short_short_600ms.mp4	190.8556709344557	191.46400460746736	0.6083336730116571	n/a	n/a	n/a	n/a
210.19287109375	0.2	430475	139	74	1	0	0	46	75	stimuli\Videos_short_600ms\78.single_stroke_top_to_bottom_with_soft_brush_short_short_600ms.mp4	78.single_stroke_top_to_bottom_with_soft_brush_short_short_600ms.mp4	191.65565785572835	192.26397891919987	0.6083210634715215	n/a	n/a	n/a	n/a
210.99267578125	0.2	432113	140	74	1	0	1	47	378	stimuli\Targets_short_600ms_vertflip\brush-stroke_short_horvertflip_short_600ms.mp4	brush-stroke_short_horvertflip_short_600ms.mp4	192.45563509990825	193.06397023914545	0.6083351392371696	n/a	n/a	n/a	n/a
211.79296875	0.2	433752	141	74	1	0	0	48	243	stimuli\Videos_short_600ms_horvertflip\67.single_touch_with_sponge_short_horvertflip_short_600ms.mp4	67.single_touch_with_sponge_short_horvertflip_short_600ms.mp4	193.25561762250436	193.8639457238569	0.6083281013525266	n/a	n/a	n/a	n/a
212.5927734375	0.2	435390	142	74	1	0	0	49	12	stimuli\Videos_short_600ms\20.single_touch_with_screwdriver_short_short_600ms.mp4	20.single_touch_with_screwdriver_short_short_600ms.mp4	194.0556250709269	194.66392736671332	0.6083022957864159	n/a	n/a	n/a	n/a
213.392578125	0.2	437028	143	74	1	0	0	50	113	stimuli\Videos_short_600ms_horflip\30.finger_pulling_back_another_finger_short_horflip_short_600ms.mp4	30.finger_pulling_back_another_finger_short_horflip_short_600ms.mp4	194.85558501365085	195.46390842308392	0.6083234094330692	n/a	n/a	n/a	n/a
214.19287109375	0.2	438667	144	74	1	0	0	51	101	stimuli\Videos_short_600ms_horflip\2.single_touch_with_finger_short_horflip_short_600ms.mp4	2.single_touch_with_finger_short_horflip_short_600ms.mp4	195.65555932538336	196.2638959308424	0.6083366054590442	n/a	n/a	n/a	n/a
214.99267578125	0.2	440305	145	74	1	0	0	52	125	stimuli\Videos_short_600ms_horflip\41.injection_with_blunt_syringe_short_horflip_short_600ms.mp4	41.injection_with_blunt_syringe_short_horflip_short_600ms.mp4	196.45551897486075	197.06387874668144	0.6083597718206875	n/a	n/a	n/a	n/a
215.79248046875	0.2	441943	146	74	1	0	1	53	364	stimuli\Targets_short_600ms\hand-pinch_short_short_600ms.mp4	hand-pinch_short_short_600ms.mp4	197.25549592579773	197.863863908482	0.6083679826842854	n/a	n/a	n/a	n/a
216.5927734375	0.2	443582	147	74	1	0	0	54	223	stimuli\Videos_short_600ms_horvertflip\49.repeated_slap_with_hand_short_horvertflip_short_600ms.mp4	49.repeated_slap_with_hand_short_horvertflip_short_600ms.mp4	198.0556271236455	198.66384408511655	0.6082169614710438	n/a	n/a	n/a	n/a
217.392578125	0.2	445220	148	74	1	0	0	55	201	stimuli\Videos_short_600ms_horvertflip\29.single_pinch_with_tweezers_short_horvertflip_short_600ms.mp4	29.single_pinch_with_tweezers_short_horvertflip_short_600ms.mp4	198.85551756728455	199.46382719419853	0.6083096269139787	n/a	n/a	n/a	n/a
218.1923828125	0.2	446858	149	74	1	0	0	56	133	stimuli\Videos_short_600ms_horflip\49.repeated_slap_with_hand_short_horflip_short_600ms.mp4	49.repeated_slap_with_hand_short_horflip_short_600ms.mp4	199.6556590287073	200.26381147626307	0.6081524475557671	n/a	n/a	n/a	n/a
218.99267578125	0.2	448497	150	74	1	0	0	57	226	stimuli\Videos_short_600ms_horvertflip\51.repeated_touch_with_hammer_short_horvertflip_short_600ms.mp4	51.repeated_touch_with_hammer_short_horvertflip_short_600ms.mp4	200.4554914098262	201.063768486536	0.6082770767097827	n/a	n/a	n/a	n/a
219.79248046875	0.2	450135	151	74	1	0	0	58	161	stimuli\Videos_short_600ms_horflip\74.fingers_walking_from_top_to_bottom_short_horflip_short_600ms.mp4	74.fingers_walking_from_top_to_bottom_short_horflip_short_600ms.mp4	201.2557017838371	201.863739279328	0.6080374954908621	n/a	n/a	n/a	n/a
220.59228515625	0.2	451773	152	74	1	0	0	59	102	stimuli\Videos_short_600ms_horflip\20.single_touch_with_screwdriver_short_horflip_short_600ms.mp4	20.single_touch_with_screwdriver_short_horflip_short_600ms.mp4	202.05544912388723	202.663737343908	0.6082882200207678	n/a	n/a	n/a	n/a
221.392578125	0.2	453412	153	74	1	0	0	60	240	stimuli\Videos_short_600ms_horvertflip\64.repeated_touch_with_screwdriver_short_horvertflip_short_600ms.mp4	64.repeated_touch_with_screwdriver_short_horvertflip_short_600ms.mp4	202.85542284912663	203.4637204529936	0.6082976038669585	n/a	n/a	n/a	n/a
222.1923828125	0.2	455050	154	74	1	0	0	61	153	stimuli\Videos_short_600ms_horflip\67.single_touch_with_sponge_short_horflip_short_600ms.mp4	67.single_touch_with_sponge_short_horflip_short_600ms.mp4	203.65540742443773	204.26370473505813	0.6082973106204008	n/a	n/a	n/a	n/a
222.9921875	0.2	456688	155	74	1	0	1	62	379	stimuli\Targets_short_600ms_vertflip\chopstick-silver-tap_short_horvertflip_short_600ms.mp4	chopstick-silver-tap_short_horvertflip_short_600ms.mp4	204.4553864280897	205.06369458877816	0.6083081606884662	n/a	n/a	n/a	n/a
223.79248046875	0.2	458327	156	74	1	0	0	63	211	stimuli\Videos_short_600ms_horvertflip\38.double_slap_with_pencil_short_horvertflip_short_600ms.mp4	38.double_slap_with_pencil_short_horvertflip_short_600ms.mp4	205.25533815995004	205.8636774046172	0.6083392446671496	n/a	n/a	n/a	n/a
224.59228515625	0.2	459965	157	74	1	0	0	64	251	stimuli\Videos_short_600ms_horvertflip\74.fingers_walking_from_top_to_bottom_short_horvertflip_short_600ms.mp4	74.fingers_walking_from_top_to_bottom_short_horvertflip_short_600ms.mp4	206.05535616519776	206.66368895847336	0.608332793275622	n/a	n/a	n/a	n/a
225.392578125	0.2	461604	158	74	1	0	0	65	7	stimuli\Videos_short_600ms\16.repeated_touch_with_plastic_brush_short_short_600ms.mp4	16.repeated_touch_with_plastic_brush_short_short_600ms.mp4	206.85533751481125	207.46365975126173	0.6083222364504763	n/a	n/a	n/a	n/a
226.1923828125	0.2	463242	159	74	1	0	0	66	131	stimuli\Videos_short_600ms_horflip\47.(long)scratching_with_finger_nails_short_horflip_short_600ms.mp4	47.(long)scratching_with_finger_nails_short_horflip_short_600ms.mp4	207.65537722019508	208.2636460860449	0.6082688658498228	n/a	n/a	n/a	n/a
226.9921875	0.2	464880	160	74	1	0	0	67	8	stimuli\Videos_short_600ms\17.repeated_touch_with_rolling_pin_short_short_600ms.mp4	17.repeated_touch_with_rolling_pin_short_short_600ms.mp4	208.45530461271483	209.0636303681058	0.6083257553909789	n/a	n/a	n/a	n/a
227.79248046875	0.2	466519	161	74	1	0	0	68	6	stimuli\Videos_short_600ms\15.single_stroke_top_to_bottom_with_a_plastic_whisk_short_short_600ms.mp4	15.single_stroke_top_to_bottom_with_a_plastic_whisk_short_short_600ms.mp4	209.25526132974483	209.86361230421244	0.6083509744676121	n/a	n/a	n/a	n/a
228.59228515625	0.2	468157	162	74	1	0	0	69	196	stimuli\Videos_short_600ms_horvertflip\24.single_stroke_top_to_bottom_with_a_spoon_short_horvertflip_short_600ms.mp4	24.single_stroke_top_to_bottom_with_a_spoon_short_horvertflip_short_600ms.mp4	210.05531452439757	210.66359981197093	0.6082852875733806	n/a	n/a	n/a	n/a
229.39208984375	0.2	469795	163	74	1	0	0	70	108	stimuli\Videos_short_600ms_horflip\26.single_touch_with_a_blunt_syringe_short_horflip_short_600ms.mp4	26.single_touch_with_a_blunt_syringe_short_horflip_short_600ms.mp4	210.855254819704	211.4635861467505	0.6083313270464714	n/a	n/a	n/a	n/a
230.1923828125	0.2	471434	164	74	1	0	0	71	51	stimuli\Videos_short_600ms\56.repeated_touch_with_nail_file_short_short_600ms.mp4	56.repeated_touch_with_nail_file_short_short_600ms.mp4	211.6552153489174	212.2635622179514	0.6083468690339942	n/a	n/a	n/a	n/a
230.9921875	0.2	473072	165	74	1	0	0	72	293	stimuli\Videos_short_600ms_vertflip\30.finger_pulling_back_another_finger_short_vertflip_short_600ms.mp4	30.finger_pulling_back_another_finger_short_vertflip_short_600ms.mp4	212.45526267867172	213.0635447405475	0.6082820618757978	n/a	n/a	n/a	n/a
231.7919921875	0.2	474710	166	74	1	0	0	73	86	stimuli\Videos_short_600ms\88.repeated_stroke_with_plastic_brush_short_short_600ms.mp4	88.repeated_stroke_with_plastic_brush_short_short_600ms.mp4	213.25521206457051	213.86352960910153	0.6083175445310189	n/a	n/a	n/a	n/a
232.59228515625	0.2	476349	167	74	1	0	0	74	203	stimuli\Videos_short_600ms_horvertflip\30.finger_pulling_back_another_finger_short_horvertflip_short_600ms.mp4	30.finger_pulling_back_another_finger_short_horvertflip_short_600ms.mp4	214.05516907484343	214.66351389116608	0.6083448163226421	n/a	n/a	n/a	n/a
233.39208984375	0.2	477987	168	74	1	0	0	75	20	stimuli\Videos_short_600ms\28.single_injection_with_sharp_needle_short_short_600ms.mp4	28.single_injection_with_sharp_needle_short_short_600ms.mp4	214.85515394339745	215.4634975867411	0.6083436433436873	n/a	n/a	n/a	n/a
234.19189453125	0.2	479625	169	74	1	0	0	76	304	stimuli\Videos_short_600ms_vertflip\40.repeated_push_with_finger_short_vertflip_short_600ms.mp4	40.repeated_push_with_finger_short_vertflip_short_600ms.mp4	215.65553527928932	216.2634889066867	0.6079536273973645	n/a	n/a	n/a	n/a
234.9921875	0.2	481264	170	74	1	0	0	77	311	stimuli\Videos_short_600ms_vertflip\47.(long)scratching_with_finger_nails_short_vertflip_short_600ms.mp4	47.(long)scratching_with_finger_nails_short_vertflip_short_600ms.mp4	216.4551911268718	217.06345647378112	0.6082653469093202	n/a	n/a	n/a	n/a
235.7919921875	0.2	482902	171	74	1	0	0	78	140	stimuli\Videos_short_600ms_horflip\55.touch_top_to_bottom_with_nail_file_short_horflip_short_600ms.mp4	55.touch_top_to_bottom_with_nail_file_short_horflip_short_600ms.mp4	217.25508626243752	217.8634011677605	0.6083149053229135	n/a	n/a	n/a	n/a
236.591796875	0.2	484540	172	74	1	0	0	79	270	stimuli\Videos_short_600ms_vertflip\1.repeated_touch_with_finger_fast_short_vertflip_short_600ms.mp4	1.repeated_touch_with_finger_fast_short_vertflip_short_600ms.mp4	218.05510720013265	218.66341448108503	0.608307280952431	n/a	n/a	n/a	n/a
237.39208984375	0.2	486179	173	74	1	0	0	80	238	stimuli\Videos_short_600ms_horvertflip\62.touch_top_to_bottom_with_scissors_short_horvertflip_short_600ms.mp4	62.touch_top_to_bottom_with_scissors_short_horvertflip_short_600ms.mp4	218.85515687584848	219.46339143202567	0.6082345561771945	n/a	n/a	n/a	n/a
238.19189453125	0.2	487817	174	74	1	0	0	81	137	stimuli\Videos_short_600ms_horflip\52.touch_top_to_bottom_with_hammer_short_horflip_short_600ms.mp4	52.touch_top_to_bottom_with_hammer_short_horflip_short_600ms.mp4	219.65507664399777	220.26337483435415	0.608298190356436	n/a	n/a	n/a	n/a
238.99169921875	0.2	489455	175	74	1	0	0	82	235	stimuli\Videos_short_600ms_horvertflip\6.single_touch_with_flat_hand_short_horvertflip_short_600ms.mp4	6.single_touch_with_flat_hand_short_horvertflip_short_600ms.mp4	220.45506855043277	221.06336087588716	0.6082923254543857	n/a	n/a	n/a	n/a
239.7919921875	0.2	491094	176	74	1	0	0	83	165	stimuli\Videos_short_600ms_horflip\78.single_stroke_top_to_bottom_with_soft_brush_short_horflip_short_600ms.mp4	78.single_stroke_top_to_bottom_with_soft_brush_short_horflip_short_600ms.mp4	221.2550630960759	221.86336832431337	0.608305228237441	n/a	n/a	n/a	n/a
240.591796875	0.2	492732	177	74	1	0	0	84	175	stimuli\Videos_short_600ms_horflip\87.single_stroke_top_to_bottom_with_plastic_brush_short_horflip_short_600ms.mp4	87.single_stroke_top_to_bottom_with_plastic_brush_short_horflip_short_600ms.mp4	222.05502362528932	222.66335377935684	0.6083301540675166	n/a	n/a	n/a	n/a
241.3916015625	0.2	494370	178	74	1	0	0	85	239	stimuli\Videos_short_600ms_horvertflip\63.stroke_top_to_bottom_with_screwdriver_short_horvertflip_short_600ms.mp4	63.stroke_top_to_bottom_with_screwdriver_short_horvertflip_short_600ms.mp4	222.8549862072177	223.4633301438043	0.608343936586607	n/a	n/a	n/a	n/a
242.19189453125	0.2	496009	179	74	1	0	0	86	158	stimuli\Videos_short_600ms_horflip\71.single_stroke_with_finger_top_to_bottom_short_horflip_short_600ms.mp4	71.single_stroke_with_finger_top_to_bottom_short_horflip_short_600ms.mp4	223.65498925696735	224.2633138393794	0.608324582412024	n/a	n/a	n/a	n/a
242.99169921875	0.2	497647	180	74	1	0	0	87	95	stimuli\Videos_short_600ms_horflip\14.repeated_touch_with_pencil_short_horflip_short_600ms.mp4	14.repeated_touch_with_pencil_short_horflip_short_600ms.mp4	224.45497647148295	225.06329812144395	0.6083216499609989	n/a	n/a	n/a	n/a
243.79150390625	0.2	499285	181	74	1	0	0	88	48	stimuli\Videos_short_600ms\53.touch_top_to_bottom_with_knife_short_short_600ms.mp4	53.touch_top_to_bottom_with_knife_short_short_600ms.mp4	225.25498773209256	225.86328035078984	0.6082926186973054	n/a	n/a	n/a	n/a
244.591796875	0.2	500924	182	74	1	0	0	89	138	stimuli\Videos_short_600ms_horflip\53.touch_top_to_bottom_with_knife_short_horflip_short_600ms.mp4	53.touch_top_to_bottom_with_knife_short_horflip_short_600ms.mp4	226.0550984027832	226.66326082067096	0.6081624178877973	n/a	n/a	n/a	n/a
245.3916015625	0.2	502562	183	74	1	0	0	90	173	stimuli\Videos_short_600ms_horflip\85.touch_top_to_bottom_with_fabric_short_horflip_short_600ms.mp4	85.touch_top_to_bottom_with_fabric_short_horflip_short_600ms.mp4	226.85495776244716	227.46324715545052	0.6082893930033606	n/a	n/a	n/a	n/a
246.19189453125	0.2	504201	184	74	1	0	0	91	217	stimuli\Videos_short_600ms_horvertflip\43.touch_top_to_bottom_with_sharp_wooden_stick_short_horvertflip_short_600ms.mp4	43.touch_top_to_bottom_with_sharp_wooden_stick_short_horvertflip_short_600ms.mp4	227.6548649210563	228.26323085102192	0.6083659299656574	n/a	n/a	n/a	n/a
246.99169921875	0.2	505839	185	74	1	0	0	92	335	stimuli\Videos_short_600ms_vertflip\69.stroke_with_soft_sock_short_vertflip_short_600ms.mp4	69.stroke_with_soft_sock_short_vertflip_short_600ms.mp4	228.45487090325696	229.06321483984357	0.608343936586607	n/a	n/a	n/a	n/a
247.79150390625	0.2	507477	186	74	1	0	0	93	120	stimuli\Videos_short_600ms_horflip\37.single_stab_with_nail_file_short_horflip_short_600ms.mp4	37.single_stab_with_nail_file_short_horflip_short_600ms.mp4	229.25483495141088	229.86319882866155	0.6083638772506674	n/a	n/a	n/a	n/a
248.591796875	0.2	509116	187	74	1	0	0	94	248	stimuli\Videos_short_600ms_horvertflip\71.single_stroke_with_finger_top_to_bottom_short_horvertflip_short_600ms.mp4	71.single_stroke_with_finger_top_to_bottom_short_horvertflip_short_600ms.mp4	230.05484797149256	230.6631819377471	0.6083339662545768	n/a	n/a	n/a	n/a
249.3916015625	0.2	510754	188	74	1	0	0	95	269	stimuli\Videos_short_600ms_horvertflip\90.repeated_touch_with_sponge_short_horvertflip_short_600ms.mp4	90.repeated_touch_with_sponge_short_horvertflip_short_600ms.mp4	230.85482228322508	231.46316885901615	0.6083465757910744	6.0	6.0	2.4736072105442872	1.0
283.33203125	0.2	580264	189	74	2	0	0	0	1	stimuli\Videos_short_600ms\10.single_touch_with_knife_short_short_600ms.mp4	10.single_touch_with_knife_short_short_600ms.mp4	264.79580729928057	265.4041333479181	0.6083260486375366	n/a	n/a	n/a	n/a
284.13232421875	0.2	581903	190	74	2	0	0	1	41	stimuli\Videos_short_600ms\47.(long)scratching_with_finger_nails_short_short_600ms.mp4	47.(long)scratching_with_finger_nails_short_short_600ms.mp4	265.59578776915805	266.2041111785911	0.6083234094330692	n/a	n/a	n/a	n/a
284.93212890625	0.2	583541	191	74	2	0	0	2	119	stimuli\Videos_short_600ms_horflip\36.single_slap_with_full_hand_short_horflip_short_600ms.mp4	36.single_slap_with_full_hand_short_horflip_short_600ms.mp4	266.3957887661927	267.0040931146941	0.6083043485014059	n/a	n/a	n/a	n/a
285.73193359375	0.2	585179	192	74	2	0	0	3	74	stimuli\Videos_short_600ms\77.tapping_with_all_fingers_short_short_600ms.mp4	77.tapping_with_all_fingers_short_short_600ms.mp4	267.1957660103726	267.80407475755055	0.6083087471779436	n/a	n/a	n/a	n/a
286.5322265625	0.2	586818	193	74	2	0	0	4	274	stimuli\Videos_short_600ms_vertflip\13.single_touch_with_pen_short_vertflip_short_600ms.mp4	13.single_touch_with_pen_short_vertflip_short_600ms.mp4	267.99578078992636	268.6040596261082	0.608278836181853	n/a	n/a	n/a	n/a
287.33203125	0.2	588456	194	74	2	0	0	5	160	stimuli\Videos_short_600ms_horflip\73.single_stroke_with_flat_hand_short_horflip_short_600ms.mp4	73.single_stroke_with_flat_hand_short_horflip_short_600ms.mp4	268.7957011445651	269.4040415622112	0.6083404176461045	n/a	n/a	n/a	n/a
288.1318359375	0.2	590094	195	74	2	0	0	6	91	stimuli\Videos_short_600ms_horflip\10.single_touch_with_knife_short_horflip_short_600ms.mp4	10.single_touch_with_knife_short_horflip_short_600ms.mp4	269.59570360782163	270.2040249645397	0.6083213567180792	n/a	n/a	n/a	n/a
288.93212890625	0.2	591733	196	74	2	0	0	7	80	stimuli\Videos_short_600ms\82.repeated_touch_with_cotton_bud_short_short_600ms.mp4	82.repeated_touch_with_cotton_bud_short_short_600ms.mp4	270.39564448961755	271.0040101263403	0.6083656367227377	n/a	n/a	n/a	n/a
289.73193359375	0.2	593371	197	74	2	0	0	8	188	stimuli\Videos_short_600ms_horvertflip\17.repeated_touch_with_rolling_pin_short_horvertflip_short_600ms.mp4	17.repeated_touch_with_rolling_pin_short_horvertflip_short_600ms.mp4	271.19564577989513	271.8039923556862	0.6083465757910744	n/a	n/a	n/a	n/a
290.53173828125	0.2	595009	198	74	2	0	0	9	171	stimuli\Videos_short_600ms_horflip\83.single_stroke_top_to_bottom_with_cotton_bud_short_horflip_short_600ms.mp4	83.single_stroke_top_to_bottom_with_cotton_bud_short_horflip_short_600ms.mp4	271.9956417917638	272.6039566970867	0.6083149053229135	n/a	n/a	n/a	n/a
291.33203125	0.2	596648	199	74	2	0	0	10	301	stimuli\Videos_short_600ms_vertflip\38.double_slap_with_pencil_short_vertflip_short_600ms.mp4	38.double_slap_with_pencil_short_vertflip_short_600ms.mp4	272.79577856126343	273.4039398061723	0.6081612449088425	n/a	n/a	n/a	n/a
292.1318359375	0.2	598286	200	74	2	0	0	11	283	stimuli\Videos_short_600ms_vertflip\21.repeated_touch_with_metal_chopstick_short_vertflip_short_600ms.mp4	21.repeated_touch_with_metal_chopstick_short_vertflip_short_600ms.mp4	273.59568689285516	274.2038962299521	0.6082093370969233	n/a	n/a	n/a	n/a
292.931640625	0.2	599924	201	74	2	0	0	12	210	stimuli\Videos_short_600ms_horvertflip\37.single_stab_with_nail_file_short_horvertflip_short_600ms.mp4	37.single_stab_with_nail_file_short_horvertflip_short_600ms.mp4	274.3956629640561	275.0039115959953	0.6082486319392046	n/a	n/a	n/a	n/a
293.73193359375	0.2	601563	202	74	2	0	0	13	59	stimuli\Videos_short_600ms\63.stroke_top_to_bottom_with_screwdriver_short_short_600ms.mp4	63.stroke_top_to_bottom_with_screwdriver_short_short_600ms.mp4	275.1955991539289	275.8038864942173	0.6082873402883706	n/a	n/a	n/a	n/a
294.53173828125	0.2	603201	203	74	2	0	0	14	73	stimuli\Videos_short_600ms\76.tickle_with_fingers_from_top_to_bottom_short_short_600ms.mp4	76.tickle_with_fingers_from_top_to_bottom_short_short_600ms.mp4	275.99556994672093	276.6038740019758	0.6083040552548482	n/a	n/a	n/a	n/a
295.33154296875	0.2	604839	204	74	2	0	0	15	29	stimuli\Videos_short_600ms\36.single_slap_with_full_hand_short_short_600ms.mp4	36.single_slap_with_full_hand_short_short_600ms.mp4	276.79583896974873	277.4038588705298	0.6080199007810734	n/a	n/a	n/a	n/a
296.1318359375	0.2	606478	205	74	2	0	0	16	53	stimuli\Videos_short_600ms\58.single_slap_with_pencil_short_short_600ms.mp4	58.single_slap_with_pencil_short_short_600ms.mp4	277.5956261911233	278.2038589878284	0.6082327967051242	n/a	n/a	n/a	n/a
296.931640625	0.2	608116	206	74	2	0	0	17	258	stimuli\Videos_short_600ms_horvertflip\80.stroke_with_sharp_stick_all_over_the_hand_short_horvertflip_short_600ms.mp4	80.stroke_with_sharp_stick_all_over_the_hand_short_horvertflip_short_600ms.mp4	278.39552015370646	279.00385411996103	0.6083339662545768	n/a	n/a	n/a	n/a
297.7314453125	0.2	609754	207	74	2	0	0	18	346	stimuli\Videos_short_600ms_vertflip\79.long_with_soft_brush_all_over_the_hand_short_vertflip_short_600ms.mp4	79.long_with_soft_brush_all_over_the_hand_short_vertflip_short_600ms.mp4	279.19567363817623	279.80382637897856	0.6081527408023248	n/a	n/a	n/a	n/a
298.53173828125	0.2	611393	208	74	2	0	0	19	330	stimuli\Videos_short_600ms_vertflip\64.repeated_touch_with_screwdriver_short_vertflip_short_600ms.mp4	64.repeated_touch_with_screwdriver_short_vertflip_short_600ms.mp4	279.9955391559888	280.6038106610431	0.6082715050542902	n/a	n/a	n/a	n/a
299.33154296875	0.2	613031	209	74	2	0	0	20	212	stimuli\Videos_short_600ms_horvertflip\39.single_stab_with_scissors_short_horvertflip_short_600ms.mp4	39.single_stab_with_scissors_short_horvertflip_short_600ms.mp4	280.7955316489133	281.403789957938	0.6082583090246771	n/a	n/a	n/a	n/a
300.13134765625	0.2	614669	210	74	2	0	0	21	192	stimuli\Videos_short_600ms_horvertflip\20.single_touch_with_screwdriver_short_horvertflip_short_600ms.mp4	20.single_touch_with_screwdriver_short_horvertflip_short_600ms.mp4	281.5954593346796	282.20377834543615	0.6083190107565315	n/a	n/a	n/a	n/a
300.931640625	0.2	616308	211	74	2	0	0	22	359	stimuli\Videos_short_600ms_vertflip\90.repeated_touch_with_sponge_short_vertflip_short_600ms.mp4	90.repeated_touch_with_sponge_short_vertflip_short_600ms.mp4	282.39544009780366	283.00375969504967	0.6083195972460089	n/a	n/a	n/a	n/a
301.7314453125	0.2	617946	212	74	2	0	1	23	380	stimuli\Targets_short_600ms_vertflip\chopstickwood-tap_short_horvertflip_short_600ms.mp4	chopstickwood-tap_short_horvertflip_short_600ms.mp4	283.1953994540345	283.8037433906211	0.608343936586607	n/a	n/a	n/a	n/a
302.53125	0.2	619584	213	74	2	0	0	24	252	stimuli\Videos_short_600ms_horvertflip\75.(long)stroke_with_fingers_all_over_the_hand_short_horvertflip_short_600ms.mp4	75.(long)stroke_with_fingers_all_over_the_hand_short_horvertflip_short_600ms.mp4	283.9953714198091	284.6037259132172	0.6083544934081146	n/a	n/a	n/a	n/a
303.33154296875	0.2	621223	214	74	2	0	0	25	70	stimuli\Videos_short_600ms\73.single_stroke_with_flat_hand_short_short_600ms.mp4	73.single_stroke_with_flat_hand_short_short_600ms.mp4	284.7954489538024	285.40371019528175	0.6082612414793402	n/a	n/a	n/a	n/a
304.13134765625	0.2	622861	215	74	2	0	0	26	167	stimuli\Videos_short_600ms_horflip\8.single_touch_with_hairbrush_short_horflip_short_600ms.mp4	8.single_touch_with_hairbrush_short_horflip_short_600ms.mp4	285.5953772260582	286.2036918381382	0.6083146120799938	n/a	n/a	n/a	n/a
304.931640625	0.2	624500	216	74	2	0	0	27	5	stimuli\Videos_short_600ms\14.repeated_touch_with_pencil_short_short_600ms.mp4	14.repeated_touch_with_pencil_short_short_600ms.mp4	286.39538379474834	287.00367201477275	0.6082882200244057	n/a	n/a	n/a	n/a
305.7314453125	0.2	626138	217	74	2	0	0	28	16	stimuli\Videos_short_600ms\24.single_stroke_top_to_bottom_with_a_spoon_short_short_600ms.mp4	24.single_stroke_top_to_bottom_with_a_spoon_short_short_600ms.mp4	287.19540092026	287.80364691299474	0.6082459927347372	n/a	n/a	n/a	n/a
306.53125	0.2	627776	218	74	2	0	0	29	135	stimuli\Videos_short_600ms_horflip\50.single_(long)hard_push_with_thumb_short_horflip_short_600ms.mp4	50.single_(long)hard_push_with_thumb_short_horflip_short_600ms.mp4	287.99539487941365	288.6036071489616	0.6082122695479484	n/a	n/a	n/a	n/a
307.33154296875	0.2	629415	219	74	2	0	0	30	78	stimuli\Videos_short_600ms\80.stroke_with_sharp_stick_all_over_the_hand_short_short_600ms.mp4	80.stroke_with_sharp_stick_all_over_the_hand_short_short_600ms.mp4	288.7953463180311	289.4035814606941	0.6082351426630339	n/a	n/a	n/a	n/a
308.13134765625	0.2	631053	220	74	2	0	0	31	342	stimuli\Videos_short_600ms_vertflip\75.(long)stroke_with_fingers_all_over_the_hand_short_vertflip_short_600ms.mp4	75.(long)stroke_with_fingers_all_over_the_hand_short_vertflip_short_600ms.mp4	289.5952848538618	290.2035631035542	0.6082782496923755	n/a	n/a	n/a	n/a
308.93115234375	0.2	632691	221	74	2	0	0	32	187	stimuli\Videos_short_600ms_horvertflip\16.repeated_touch_with_plastic_brush_short_horvertflip_short_600ms.mp4	16.repeated_touch_with_plastic_brush_short_horvertflip_short_600ms.mp4	290.3952618047988	291.0035529572742	0.6082911524754309	n/a	n/a	n/a	n/a
309.7314453125	0.2	634330	222	74	2	0	0	33	13	stimuli\Videos_short_600ms\21.repeated_touch_with_metal_chopstick_short_short_600ms.mp4	21.repeated_touch_with_metal_chopstick_short_short_600ms.mp4	291.19525077878643	291.8035560070239	0.608305228237441	n/a	n/a	n/a	n/a
310.53125	0.2	635968	223	74	2	0	0	34	354	stimuli\Videos_short_600ms_vertflip\86.touch_top_to_bottom_with_hair_brush_short_vertflip_short_600ms.mp4	86.touch_top_to_bottom_with_hair_brush_short_vertflip_short_600ms.mp4	291.9952124809788	292.6035493796844	0.6083368987056019	n/a	n/a	n/a	n/a
311.3310546875	0.2	637606	224	74	2	0	0	35	296	stimuli\Videos_short_600ms_vertflip\33.scratch_top_to_bottom_with_scissors_short_vertflip_short_600ms.mp4	33.scratch_top_to_bottom_with_scissors_short_vertflip_short_600ms.mp4	292.7952193429155	293.40353366174895	0.6083143188334361	n/a	n/a	n/a	n/a
312.13134765625	0.2	639245	225	74	2	0	1	36	370	stimuli\Targets_short_600ms_horflip\hand-pinch_short_horflip_short_600ms.mp4	hand-pinch_short_horflip_short_600ms.mp4	293.5952033317335	294.20353993719255	0.6083366054590442	n/a	n/a	n/a	n/a
312.93115234375	0.2	640883	226	74	2	0	0	37	250	stimuli\Videos_short_600ms_horvertflip\73.single_stroke_with_flat_hand_short_horvertflip_short_600ms.mp4	73.single_stroke_with_flat_hand_short_horvertflip_short_600ms.mp4	294.3952213369812	295.00350809077645	0.6082867537952552	n/a	n/a	n/a	n/a
313.73095703125	0.2	642521	227	74	2	0	0	38	99	stimuli\Videos_short_600ms_horflip\18.single_stroke_from_top_to_bottom_with_rolling_pin_short_horflip_short_600ms.mp4	18.single_stroke_from_top_to_bottom_with_rolling_pin_short_horflip_short_600ms.mp4	295.19544080159176	295.8035026364196	0.6080618348278222	n/a	n/a	n/a	n/a
314.53125	0.2	644160	228	74	2	0	0	39	179	stimuli\Videos_short_600ms_horflip\90.repeated_touch_with_sponge_short_horflip_short_600ms.mp4	90.repeated_touch_with_sponge_short_horflip_short_600ms.mp4	295.9951582306421	296.6034754819266	0.6083172512844612	n/a	n/a	n/a	n/a
315.3310546875	0.2	645798	229	74	2	0	0	40	81	stimuli\Videos_short_600ms\83.single_stroke_top_to_bottom_with_cotton_bud_short_short_600ms.mp4	83.single_stroke_top_to_bottom_with_cotton_bud_short_short_600ms.mp4	296.79513430184306	297.40345859100853	0.6083242891654663	n/a	n/a	n/a	n/a
316.130859375	0.2	647436	230	74	2	0	0	41	148	stimuli\Videos_short_600ms_horflip\62.touch_top_to_bottom_with_scissors_short_horflip_short_600ms.mp4	62.touch_top_to_bottom_with_scissors_short_horflip_short_600ms.mp4	297.59511829066105	298.20344756499617	0.6083292743351194	n/a	n/a	n/a	n/a
316.93115234375	0.2	649075	231	74	2	0	0	42	320	stimuli\Videos_short_600ms_vertflip\55.touch_top_to_bottom_with_nail_file_short_vertflip_short_600ms.mp4	55.touch_top_to_bottom_with_nail_file_short_vertflip_short_600ms.mp4	298.39509729431666	299.0034218767287	0.608324582412024	n/a	n/a	n/a	n/a
317.73095703125	0.2	650713	232	74	2	0	0	43	244	stimuli\Videos_short_600ms_horvertflip\68.stroke_top_to_bottom_with_shawl_short_horvertflip_short_600ms.mp4	68.stroke_top_to_bottom_with_shawl_short_horvertflip_short_600ms.mp4	299.19506046273455	299.80340586554667	0.6083454028121196	n/a	n/a	n/a	n/a
318.53076171875	0.2	652351	233	74	2	0	0	44	259	stimuli\Videos_short_600ms_horvertflip\81.single_stroke_top_to_bottom_with_cotton_pad_short_horvertflip_short_600ms.mp4	81.single_stroke_top_to_bottom_with_cotton_pad_short_horvertflip_short_600ms.mp4	299.99502451088847	300.6033889746286	0.6083644637401449	n/a	n/a	n/a	n/a
319.3310546875	0.2	653990	234	74	2	0	0	45	194	stimuli\Videos_short_600ms_horvertflip\22.single_touch_with_metal_chopstick_short_horvertflip_short_600ms.mp4	22.single_touch_with_metal_chopstick_short_horvertflip_short_600ms.mp4	300.7950143646085	301.4033753094118	0.6083609448032803	n/a	n/a	n/a	n/a
320.130859375	0.2	655628	235	74	2	0	0	46	260	stimuli\Videos_short_600ms_horvertflip\82.repeated_touch_with_cotton_bud_short_horvertflip_short_600ms.mp4	82.repeated_touch_with_cotton_bud_short_horvertflip_short_600ms.mp4	301.5950355955538	302.2033595914727	0.6083239959189086	n/a	n/a	n/a	n/a
320.9306640625	0.2	657266	236	74	2	0	0	47	116	stimuli\Videos_short_600ms_horflip\33.scratch_top_to_bottom_with_scissors_short_horflip_short_600ms.mp4	33.scratch_top_to_bottom_with_scissors_short_horflip_short_600ms.mp4	302.395057119742	303.00334182082224	0.6082847010802652	n/a	n/a	n/a	n/a
321.73095703125	0.2	658905	237	74	2	0	0	48	2	stimuli\Videos_short_600ms\11.single_touch_with_lighter_short_short_600ms.mp4	11.single_touch_with_lighter_short_short_600ms.mp4	303.1954598625198	303.80330059056723	0.6078407280474494	n/a	n/a	n/a	n/a
322.53076171875	0.2	660543	238	74	2	0	0	49	275	stimuli\Videos_short_600ms_vertflip\14.repeated_touch_with_pencil_short_vertflip_short_600ms.mp4	14.repeated_touch_with_pencil_short_vertflip_short_600ms.mp4	303.9949705537947	304.60326199951305	0.6082914457183506	n/a	n/a	n/a	n/a
323.33056640625	0.2	662181	239	74	2	0	0	50	324	stimuli\Videos_short_600ms_vertflip\59.single_push_with_long_side_pencil_short_vertflip_short_600ms.mp4	59.single_push_with_long_side_pencil_short_vertflip_short_600ms.mp4	304.79495073042926	305.4032908548288	0.6083401243995468	n/a	n/a	n/a	n/a
324.130859375	0.2	663820	240	74	2	0	0	51	216	stimuli\Videos_short_600ms_horvertflip\42.single_slap_with_plastic_whisk_short_horvertflip_short_600ms.mp4	42.single_slap_with_plastic_whisk_short_horvertflip_short_600ms.mp4	305.5949517274639	306.2032490380843	0.6082973106204008	n/a	n/a	n/a	n/a
324.9306640625	0.2	665458	241	74	2	0	0	52	241	stimuli\Videos_short_600ms_horvertflip\65.stroke_top_to_bottom_with_stanley_knife_short_horvertflip_short_600ms.mp4	65.stroke_top_to_bottom_with_stanley_knife_short_horvertflip_short_600ms.mp4	306.394944513635	307.00323273365575	0.6082882200207678	n/a	n/a	n/a	n/a
325.73095703125	0.2	667097	242	74	2	0	0	53	349	stimuli\Videos_short_600ms_vertflip\81.single_stroke_top_to_bottom_with_cotton_pad_short_vertflip_short_600ms.mp4	81.single_stroke_top_to_bottom_with_cotton_pad_short_vertflip_short_600ms.mp4	307.1949446309336	307.80322229413287	0.6082776631992601	n/a	n/a	n/a	n/a
326.53076171875	0.2	668735	243	74	2	0	0	54	232	stimuli\Videos_short_600ms_horvertflip\57.single_touch_with_nail_file_short_horvertflip_short_600ms.mp4	57.single_touch_with_nail_file_short_horvertflip_short_600ms.mp4	307.99489841550894	308.6032054032148	0.6083069877058733	n/a	n/a	n/a	n/a
327.33056640625	0.2	670373	244	74	2	0	0	55	141	stimuli\Videos_short_600ms_horflip\56.repeated_touch_with_nail_file_short_horflip_short_600ms.mp4	56.repeated_touch_with_nail_file_short_horflip_short_600ms.mp4	308.79488387055244	309.40322927336456	0.6083454028121196	n/a	n/a	n/a	n/a
328.130859375	0.2	672012	245	74	2	0	0	56	308	stimuli\Videos_short_600ms_vertflip\44.pushing_top_to_bottom_with_finger_short_vertflip_short_600ms.mp4	44.pushing_top_to_bottom_with_finger_short_vertflip_short_600ms.mp4	309.5954605076586	310.20319244178245	0.6077319341238763	n/a	n/a	n/a	n/a
328.9306640625	0.2	673650	246	74	2	0	0	57	10	stimuli\Videos_short_600ms\19.single_touch_with_rolling_pin_short_short_600ms.mp4	19.single_touch_with_rolling_pin_short_short_600ms.mp4	310.3956919953198	311.003178776562	0.6074867812421871	n/a	n/a	n/a	n/a
329.73046875	0.2	675288	247	74	2	0	0	58	136	stimuli\Videos_short_600ms_horflip\51.repeated_touch_with_hammer_short_horflip_short_600ms.mp4	51.repeated_touch_with_hammer_short_horflip_short_600ms.mp4	311.195387724234	311.80315543425604	0.6077677100220171	n/a	n/a	n/a	n/a
330.53076171875	0.2	676927	248	74	2	0	0	59	9	stimuli\Videos_short_600ms\18.single_stroke_from_top_to_bottom_with_rolling_pin_short_short_600ms.mp4	18.single_stroke_from_top_to_bottom_with_rolling_pin_short_short_600ms.mp4	311.99484651113016	312.6031426487716	0.608296137641446	n/a	n/a	n/a	n/a
331.33056640625	0.2	678565	249	74	2	0	0	60	350	stimuli\Videos_short_600ms_vertflip\82.repeated_touch_with_cotton_bud_short_vertflip_short_600ms.mp4	82.repeated_touch_with_cotton_bud_short_vertflip_short_600ms.mp4	312.7948598244584	313.40312077268754	0.6082609482291446	n/a	n/a	n/a	n/a
332.13037109375	0.2	680203	250	74	2	0	0	61	228	stimuli\Videos_short_600ms_horvertflip\53.touch_top_to_bottom_with_knife_short_horvertflip_short_600ms.mp4	53.touch_top_to_bottom_with_knife_short_horvertflip_short_600ms.mp4	313.5947763669101	314.2031097466752	0.6083333797650994	n/a	n/a	n/a	n/a
332.9306640625	0.2	681842	251	74	2	0	0	62	299	stimuli\Videos_short_600ms_vertflip\36.single_slap_with_full_hand_short_vertflip_short_600ms.mp4	36.single_slap_with_full_hand_short_vertflip_short_600ms.mp4	314.3947327906935	315.0030910962887	0.6083583055951749	n/a	n/a	n/a	n/a
333.73046875	0.2	683480	252	74	2	0	0	63	191	stimuli\Videos_short_600ms_horvertflip\2.single_touch_with_finger_short_horvertflip_short_600ms.mp4	2.single_touch_with_finger_short_horvertflip_short_600ms.mp4	315.19470798215843	315.8030724459022	0.6083644637437828	n/a	n/a	n/a	n/a
334.5302734375	0.2	685118	253	74	2	0	0	64	11	stimuli\Videos_short_600ms\2.single_touch_with_finger_short_short_600ms.mp4	2.single_touch_with_finger_short_short_600ms.mp4	315.9946916777335	316.6030584874352	0.6083668097016925	n/a	n/a	n/a	n/a
335.33056640625	0.2	686757	254	74	2	0	0	65	209	stimuli\Videos_short_600ms_horvertflip\36.single_slap_with_full_hand_short_horvertflip_short_600ms.mp4	36.single_slap_with_full_hand_short_horvertflip_short_600ms.mp4	316.7947029383431	317.4030404235382	0.6083374851950794	n/a	n/a	n/a	n/a
336.13037109375	0.2	688395	255	74	2	0	0	66	263	stimuli\Videos_short_600ms_horvertflip\85.touch_top_to_bottom_with_fabric_short_horvertflip_short_600ms.mp4	85.touch_top_to_bottom_with_fabric_short_horvertflip_short_600ms.mp4	317.59474616266743	318.20302265288774	0.6082764902203053	n/a	n/a	n/a	n/a
336.93017578125	0.2	690033	256	74	2	0	0	67	156	stimuli\Videos_short_600ms_horflip\7.repeated_touch_with_hairbrush_short_horflip_short_600ms.mp4	7.repeated_touch_with_hairbrush_short_horflip_short_600ms.mp4	318.394738362349	319.00300048356075	0.6082621212117374	n/a	n/a	n/a	n/a
337.73046875	0.2	691672	257	74	2	0	0	68	177	stimuli\Videos_short_600ms_horflip\89.single_touch_with_plastic_brush_short_horflip_short_600ms.mp4	89.single_touch_with_plastic_brush_short_horflip_short_600ms.mp4	319.1947097416305	319.80297332906775	0.60826358743725	n/a	n/a	n/a	n/a
338.5302734375	0.2	693310	258	74	2	0	0	69	319	stimuli\Videos_short_600ms_vertflip\54.repeated_touch_with_knife_short_vertflip_short_600ms.mp4	54.repeated_touch_with_knife_short_vertflip_short_600ms.mp4	319.9948605868958	320.6029279933791	0.6080674064833147	n/a	n/a	n/a	n/a
339.330078125	0.2	694948	259	74	2	0	0	70	31	stimuli\Videos_short_600ms\38.double_slap_with_pencil_short_short_600ms.mp4	38.double_slap_with_pencil_short_short_600ms.mp4	320.79470938973463	321.40294189319684	0.6082325034622045	n/a	n/a	n/a	n/a
340.13037109375	0.2	696587	260	74	2	0	0	71	218	stimuli\Videos_short_600ms_horvertflip\44.pushing_top_to_bottom_with_finger_short_horvertflip_short_600ms.mp4	44.pushing_top_to_bottom_with_finger_short_horvertflip_short_600ms.mp4	321.59461537536845	322.2029141522107	0.6082987768422754	n/a	n/a	n/a	n/a
340.93017578125	0.2	698225	261	74	2	0	0	72	347	stimuli\Videos_short_600ms_vertflip\8.single_touch_with_hairbrush_short_vertflip_short_600ms.mp4	8.single_touch_with_hairbrush_short_vertflip_short_600ms.mp4	322.39459936418643	323.0029098708328	0.6083105066463759	n/a	n/a	n/a	n/a
341.72998046875	0.2	699863	262	74	2	0	0	73	307	stimuli\Videos_short_600ms_vertflip\43.touch_top_to_bottom_with_sharp_wooden_stick_short_vertflip_short_600ms.mp4	43.touch_top_to_bottom_with_sharp_wooden_stick_short_vertflip_short_600ms.mp4	323.19458569896597	323.8028844758119	0.6082987768459134	n/a	n/a	n/a	n/a
342.5302734375	0.2	701502	263	74	2	0	0	74	290	stimuli\Videos_short_600ms_vertflip\28.single_injection_with_sharp_needle_short_vertflip_short_600ms.mp4	28.single_injection_with_sharp_needle_short_vertflip_short_600ms.mp4	323.99457232699206	324.60289280397046	0.6083204769784061	n/a	n/a	n/a	n/a
343.330078125	0.2	703140	264	74	2	0	0	75	325	stimuli\Videos_short_600ms_vertflip\6.single_touch_with_flat_hand_short_vertflip_short_600ms.mp4	6.single_touch_with_flat_hand_short_vertflip_short_600ms.mp4	324.79454957117196	325.4028776725245	0.6083281013525266	n/a	n/a	n/a	n/a
344.13037109375	0.2	704779	265	74	2	0	0	76	67	stimuli\Videos_short_600ms\70.(long)stroke_with_finger_all_over_the_hand_short_short_600ms.mp4	70.(long)stroke_with_finger_all_over_the_hand_short_short_600ms.mp4	325.59453209376807	326.2028601951206	0.6083281013525266	n/a	n/a	n/a	n/a
344.93017578125	0.2	706417	266	74	2	0	0	77	128	stimuli\Videos_short_600ms_horflip\44.pushing_top_to_bottom_with_finger_short_horflip_short_600ms.mp4	44.pushing_top_to_bottom_with_finger_short_horflip_short_600ms.mp4	326.3945295718586	327.0028394920155	0.6083099201568984	n/a	n/a	n/a	n/a
345.72998046875	0.2	708055	267	74	2	0	0	78	145	stimuli\Videos_short_600ms_horflip\6.single_touch_with_flat_hand_short_horflip_short_600ms.mp4	6.single_touch_with_flat_hand_short_horflip_short_600ms.mp4	327.19450505657005	327.8028199618966	0.6083149053265515	n/a	n/a	n/a	n/a
346.5302734375	0.2	709694	268	74	2	0	0	79	115	stimuli\Videos_short_600ms_horflip\32.single_(long)pinch_with_fingers_short_horflip_short_600ms.mp4	32.single_(long)pinch_with_fingers_short_horflip_short_600ms.mp4	327.99448142101755	328.60280776290165	0.6083263418840943	n/a	n/a	n/a	n/a
347.330078125	0.2	711332	269	74	2	0	0	80	44	stimuli\Videos_short_600ms\5.repeated_tap_with_finger_moving_from_top_to_bottom_short_short_600ms.mp4	5.repeated_tap_with_finger_moving_from_top_to_bottom_short_short_600ms.mp4	328.7944621841416	329.4027908719836	0.608328687842004	n/a	n/a	n/a	n/a
348.1298828125	0.2	712970	270	74	2	0	0	81	52	stimuli\Videos_short_600ms\57.single_touch_with_nail_file_short_short_600ms.mp4	57.single_touch_with_nail_file_short_short_600ms.mp4	329.59441948766107	330.20277720676313	0.6083577191020595	n/a	n/a	n/a	n/a
348.93017578125	0.2	714609	271	74	2	0	0	82	356	stimuli\Videos_short_600ms_vertflip\88.repeated_stroke_with_plastic_brush_short_vertflip_short_600ms.mp4	88.repeated_stroke_with_plastic_brush_short_vertflip_short_600ms.mp4	330.3944289887986	331.00275796988717	0.6083289810885617	n/a	n/a	n/a	n/a
349.72998046875	0.2	716247	272	74	2	0	0	83	297	stimuli\Videos_short_600ms_vertflip\34.repeated_punch_with_hand_short_vertflip_short_600ms.mp4	34.repeated_punch_with_hand_short_vertflip_short_600ms.mp4	331.19455285551885	331.8027393195007	0.6081864639818377	n/a	n/a	n/a	n/a
350.52978515625	0.2	717885	273	74	2	0	0	84	166	stimuli\Videos_short_600ms_horflip\79.long_with_soft_brush_all_over_the_hand_short_horflip_short_600ms.mp4	79.long_with_soft_brush_all_over_the_hand_short_horflip_short_600ms.mp4	331.9943817176936	332.6027206691142	0.6083389514205919	n/a	n/a	n/a	n/a
351.330078125	0.2	719524	274	74	2	0	0	85	288	stimuli\Videos_short_600ms_vertflip\26.single_touch_with_a_blunt_syringe_short_vertflip_short_600ms.mp4	26.single_touch_with_a_blunt_syringe_short_vertflip_short_600ms.mp4	332.794423769039	333.4027078836298	0.6082841145907878	n/a	n/a	n/a	n/a
352.1298828125	0.2	721162	275	74	2	0	0	86	124	stimuli\Videos_short_600ms_horflip\40.repeated_push_with_finger_short_horflip_short_600ms.mp4	40.repeated_push_with_finger_short_horflip_short_600ms.mp4	333.5943535075203	334.20267984940074	0.6083263418804563	n/a	n/a	n/a	n/a
352.9296875	0.2	722800	276	74	2	0	0	87	314	stimuli\Videos_short_600ms_vertflip\5.repeated_tap_with_finger_moving_from_top_to_bottom_short_vertflip_short_600ms.mp4	5.repeated_tap_with_finger_moving_from_top_to_bottom_short_vertflip_short_600ms.mp4	334.3943460004448	335.0026477097417	0.6083017092969385	n/a	n/a	n/a	n/a
353.72998046875	0.2	724439	277	74	2	0	0	88	276	stimuli\Videos_short_600ms_vertflip\15.single_stroke_top_to_bottom_with_a_plastic_whisk_short_vertflip_short_600ms.mp4	15.single_stroke_top_to_bottom_with_a_plastic_whisk_short_vertflip_short_600ms.mp4	335.1943188459518	335.8026337512747	0.6083149053229135	n/a	n/a	n/a	n/a
354.52978515625	0.2	726077	278	74	2	0	0	89	46	stimuli\Videos_short_600ms\51.repeated_touch_with_hammer_short_short_600ms.mp4	51.repeated_touch_with_hammer_short_short_600ms.mp4	335.9943128051018	336.6026177400963	0.6083049349945213	n/a	n/a	n/a	n/a
355.32958984375	0.2	727715	279	74	2	0	0	90	97	stimuli\Videos_short_600ms_horflip\16.repeated_touch_with_plastic_brush_short_horflip_short_600ms.mp4	16.repeated_touch_with_plastic_brush_short_horflip_short_600ms.mp4	336.7943079372344	337.40257475036924	0.6082668131348328	n/a	n/a	n/a	n/a
356.1298828125	0.2	729354	280	74	2	0	0	91	197	stimuli\Videos_short_600ms_horvertflip\25.single_touch_with_stanley_knife_short_horvertflip_short_600ms.mp4	25.single_touch_with_stanley_knife_short_horvertflip_short_600ms.mp4	337.5944171416995	338.2025904096554	0.6081732679558627	2.0	2.0	2.1487462160403084	1.0
389.9453125	0.2	798608	281	74	3	0	0	0	351	stimuli\Videos_short_600ms_vertflip\83.single_stroke_top_to_bottom_with_cotton_bud_short_vertflip_short_600ms.mp4	83.single_stroke_top_to_bottom_with_cotton_bud_short_vertflip_short_600ms.mp4	371.4101944302783	372.0185580142861	0.6083635840077477	n/a	n/a	n/a	n/a
390.7451171875	0.2	800246	282	74	3	0	0	1	183	stimuli\Videos_short_600ms_horvertflip\12.repeated_touch_with_nail_file_short_horvertflip_short_600ms.mp4	12.repeated_touch_with_nail_file_short_horvertflip_short_600ms.mp4	372.21017490015583	372.81854376257616	0.6083688624203205	n/a	n/a	n/a	n/a
391.54541015625	0.2	801885	283	74	3	0	0	2	357	stimuli\Videos_short_600ms_vertflip\89.single_touch_with_plastic_brush_short_vertflip_short_600ms.mp4	89.single_touch_with_plastic_brush_short_vertflip_short_600ms.mp4	373.0102201771951	373.6185256986791	0.6083055214839987	n/a	n/a	n/a	n/a
392.34521484375	0.2	803523	284	74	3	0	0	3	266	stimuli\Videos_short_600ms_horvertflip\88.repeated_stroke_with_plastic_brush_short_horvertflip_short_600ms.mp4	88.repeated_stroke_with_plastic_brush_short_horvertflip_short_600ms.mp4	373.8101983011147	374.4185073415356	0.6083090404208633	n/a	n/a	n/a	n/a
393.14501953125	0.2	805161	285	74	3	0	0	4	170	stimuli\Videos_short_600ms_horflip\82.repeated_touch_with_cotton_bud_short_horflip_short_600ms.mp4	82.repeated_touch_with_cotton_bud_short_horflip_short_600ms.mp4	374.6101975386773	375.21848751817015	0.608289979492838	n/a	n/a	n/a	n/a
393.9453125	0.2	806800	286	74	3	0	0	5	298	stimuli\Videos_short_600ms_vertflip\35.single_punch_with_hand_short_vertflip_short_600ms.mp4	35.single_punch_with_hand_short_vertflip_short_600ms.mp4	375.4102102655124	376.0184474608941	0.6082371953816619	n/a	n/a	n/a	n/a
394.7451171875	0.2	808438	287	74	3	0	0	6	302	stimuli\Videos_short_600ms_vertflip\39.single_stab_with_scissors_short_vertflip_short_600ms.mp4	39.single_stab_with_scissors_short_vertflip_short_600ms.mp4	376.2101411769727	376.8184361416352	0.6082949646624911	n/a	n/a	n/a	n/a
395.544921875	0.2	810076	288	74	3	0	0	7	195	stimuli\Videos_short_600ms_horvertflip\23.single_push_with_a_spoon_short_horvertflip_short_600ms.mp4	23.single_push_with_a_spoon_short_horvertflip_short_600ms.mp4	377.01011578195175	377.61839285866154	0.6082770767097827	n/a	n/a	n/a	n/a
396.34521484375	0.2	811715	289	74	3	0	0	8	229	stimuli\Videos_short_600ms_horvertflip\54.repeated_touch_with_knife_short_horvertflip_short_600ms.mp4	54.repeated_touch_with_knife_short_horvertflip_short_600ms.mp4	377.8100988910337	378.4183786069516	0.6082797159178881	n/a	n/a	n/a	n/a
397.14501953125	0.2	813353	290	74	3	0	0	9	180	stimuli\Videos_short_600ms_horvertflip\1.repeated_touch_with_finger_fast_short_horvertflip_short_600ms.mp4	1.repeated_touch_with_finger_fast_short_horvertflip_short_600ms.mp4	378.6100825866088	379.2183857621312	0.6083031755224511	n/a	n/a	n/a	n/a
397.94482421875	0.2	814991	291	74	3	0	0	10	234	stimuli\Videos_short_600ms_horvertflip\59.single_push_with_long_side_pencil_short_horvertflip_short_600ms.mp4	59.single_push_with_long_side_pencil_short_horvertflip_short_600ms.mp4	379.4100639362223	380.0183703374387	0.6083064012163959	n/a	n/a	n/a	n/a
398.7451171875	0.2	816630	292	74	3	0	0	11	43	stimuli\Videos_short_600ms\49.repeated_slap_with_hand_short_short_600ms.mp4	49.repeated_slap_with_hand_short_short_600ms.mp4	380.2100537899423	380.8183801318264	0.6083263418840943	n/a	n/a	n/a	n/a
399.544921875	0.2	818268	293	74	3	0	0	12	313	stimuli\Videos_short_600ms_vertflip\49.repeated_slap_with_hand_short_vertflip_short_600ms.mp4	49.repeated_slap_with_hand_short_vertflip_short_600ms.mp4	381.01005595995593	381.6183608949468	0.6083049349908833	n/a	n/a	n/a	n/a
400.3447265625	0.2	819906	294	74	3	0	0	13	157	stimuli\Videos_short_600ms_horflip\70.(long)stroke_with_finger_all_over_the_hand_short_horflip_short_600ms.mp4	70.(long)stroke_with_finger_all_over_the_hand_short_horflip_short_600ms.mp4	381.810045813676	382.4183375526409	0.6082917389649083	n/a	n/a	n/a	n/a
401.14501953125	0.2	821545	295	74	3	0	0	14	55	stimuli\Videos_short_600ms\6.single_touch_with_flat_hand_short_short_600ms.mp4	6.single_touch_with_flat_hand_short_short_600ms.mp4	382.6099957860679	383.21832066172647	0.6083248756585817	n/a	n/a	n/a	n/a
401.94482421875	0.2	823183	296	74	3	0	1	15	368	stimuli\Targets_short_600ms_horflip\chopstickwood-tap_short_horflip_short_600ms.mp4	chopstickwood-tap_short_horflip_short_600ms.mp4	383.4099929709155	384.0183037708084	0.6083107998929336	n/a	n/a	n/a	n/a
402.74462890625	0.2	824821	297	74	3	0	0	16	331	stimuli\Videos_short_600ms_vertflip\65.stroke_top_to_bottom_with_stanley_knife_short_vertflip_short_600ms.mp4	65.stroke_top_to_bottom_with_stanley_knife_short_vertflip_short_600ms.mp4	384.20996435019697	384.8182877596264	0.6083234094294312	n/a	n/a	n/a	n/a
403.544921875	0.2	826460	298	74	3	0	0	17	106	stimuli\Videos_short_600ms_horflip\24.single_stroke_top_to_bottom_with_a_spoon_short_horflip_short_600ms.mp4	24.single_stroke_top_to_bottom_with_a_spoon_short_horflip_short_600ms.mp4	385.0101890932201	385.6182702822225	0.6080811890024052	n/a	n/a	n/a	n/a
404.3447265625	0.2	828098	299	74	3	0	0	18	126	stimuli\Videos_short_600ms_horflip\42.single_slap_with_plastic_whisk_short_horflip_short_600ms.mp4	42.single_slap_with_plastic_whisk_short_horflip_short_600ms.mp4	385.8099654645266	386.4182551507766	0.6082896862499183	n/a	n/a	n/a	n/a
405.14501953125	0.2	829737	300	74	3	0	0	19	45	stimuli\Videos_short_600ms\50.single_(long)hard_push_with_thumb_short_short_600ms.mp4	50.single_(long)hard_push_with_thumb_short_short_600ms.mp4	386.6098720366499	387.21823679363297	0.6083647569830646	n/a	n/a	n/a	n/a
405.94482421875	0.2	831375	301	74	3	0	0	20	114	stimuli\Videos_short_600ms_horflip\31.hand_grabbing_wrist_short_horflip_short_600ms.mp4	31.hand_grabbing_wrist_short_horflip_short_600ms.mp4	387.4098935608381	388.0182201959651	0.608326635127014	n/a	n/a	n/a	n/a
406.74462890625	0.2	833013	302	74	3	0	0	21	355	stimuli\Videos_short_600ms_vertflip\87.single_stroke_top_to_bottom_with_plastic_brush_short_vertflip_short_600ms.mp4	87.single_stroke_top_to_bottom_with_plastic_brush_short_vertflip_short_600ms.mp4	388.20983678859193	388.81820389153654	0.6083671029446123	n/a	n/a	n/a	n/a
407.544921875	0.2	834652	303	74	3	0	0	22	318	stimuli\Videos_short_600ms_vertflip\53.touch_top_to_bottom_with_knife_short_vertflip_short_600ms.mp4	53.touch_top_to_bottom_with_knife_short_vertflip_short_600ms.mp4	389.0098067016479	389.61819139929867	0.608384697650763	n/a	n/a	n/a	n/a
408.3447265625	0.2	836290	304	74	3	0	0	23	186	stimuli\Videos_short_600ms_horvertflip\15.single_stroke_top_to_bottom_with_a_plastic_whisk_short_horvertflip_short_600ms.mp4	15.single_stroke_top_to_bottom_with_a_plastic_whisk_short_horvertflip_short_600ms.mp4	389.8098332110021	390.4181683502357	0.6083351392335317	n/a	n/a	n/a	n/a
409.14453125	0.2	837928	305	74	3	0	0	24	94	stimuli\Videos_short_600ms_horflip\13.single_touch_with_pen_short_horflip_short_600ms.mp4	13.single_touch_with_pen_short_horflip_short_600ms.mp4	390.6098286363776	391.2181268267341	0.608298190356436	n/a	n/a	n/a	n/a
409.94482421875	0.2	839567	306	74	3	0	0	25	220	stimuli\Videos_short_600ms_horvertflip\46.scratching_top_to_bottom_with_finger_nails_short_horvertflip_short_600ms.mp4	46.scratching_top_to_bottom_with_finger_nails_short_horvertflip_short_600ms.mp4	391.4098179036082	392.0180876491904	0.6082697455822199	n/a	n/a	n/a	n/a
410.74462890625	0.2	841205	307	74	3	0	0	26	35	stimuli\Videos_short_600ms\41.injection_with_blunt_syringe_short_short_600ms.mp4	41.injection_with_blunt_syringe_short_short_600ms.mp4	392.2097972005067	392.818071638012	0.6082744375053153	n/a	n/a	n/a	n/a
411.54443359375	0.2	842843	308	74	3	0	0	27	273	stimuli\Videos_short_600ms_vertflip\12.repeated_touch_with_nail_file_short_vertflip_short_600ms.mp4	12.repeated_touch_with_nail_file_short_vertflip_short_600ms.mp4	393.0097896934312	393.6180541606045	0.6082644671732851	n/a	n/a	n/a	n/a
412.3447265625	0.2	844482	309	74	3	0	0	28	262	stimuli\Videos_short_600ms_horvertflip\84.single_touch_with_cotton_bud_short_horvertflip_short_600ms.mp4	84.single_touch_with_cotton_bud_short_horvertflip_short_600ms.mp4	393.8097593132443	394.41807040638014	0.6083110931358533	n/a	n/a	n/a	n/a
413.14453125	0.2	846120	310	74	3	0	1	29	365	stimuli\Targets_short_600ms\hand-stroke_short_short_600ms.mp4	hand-stroke_short_short_600ms.mp4	394.6097427155728	395.21804970327867	0.6083069877058733	n/a	n/a	n/a	n/a
413.9443359375	0.2	847758	311	74	3	0	0	30	90	stimuli\Videos_short_600ms_horflip\1.repeated_touch_with_finger_fast_short_horflip_short_600ms.mp4	1.repeated_touch_with_finger_fast_short_horflip_short_600ms.mp4	395.40981526440373	396.0180630166069	0.6082477522031695	n/a	n/a	n/a	n/a
414.74462890625	0.2	849397	312	74	3	0	0	31	338	stimuli\Videos_short_600ms_vertflip\71.single_stroke_with_finger_top_to_bottom_short_vertflip_short_600ms.mp4	71.single_stroke_with_finger_top_to_bottom_short_vertflip_short_600ms.mp4	396.209965229933	396.81803703509286	0.6080718051598524	n/a	n/a	n/a	n/a
415.54443359375	0.2	851035	313	74	3	0	1	32	371	stimuli\Targets_short_600ms_horflip\hand-stroke_short_horflip_short_600ms.mp4	hand-stroke_short_horflip_short_600ms.mp4	397.009721953822	397.6180160387448	0.608294084922818	n/a	n/a	n/a	n/a
416.34423828125	0.2	852673	314	74	3	0	0	33	56	stimuli\Videos_short_600ms\60.single_push_with_tip_of_pencil_short_short_600ms.mp4	60.single_push_with_tip_of_pencil_short_short_600ms.mp4	397.8096730991929	398.4179997343199	0.608326635127014	n/a	n/a	n/a	n/a
417.14453125	0.2	854312	315	74	3	0	0	34	292	stimuli\Videos_short_600ms_vertflip\3.single_push_with_finger_short_vertflip_short_600ms.mp4	3.single_push_with_finger_short_vertflip_short_600ms.mp4	398.6096573812574	399.2179828434055	0.6083254621480592	n/a	n/a	n/a	n/a
417.9443359375	0.2	855950	316	74	3	0	0	35	287	stimuli\Videos_short_600ms_vertflip\25.single_touch_with_stanley_knife_short_vertflip_short_600ms.mp4	25.single_touch_with_stanley_knife_short_vertflip_short_600ms.mp4	399.4096894622671	400.01796595248743	0.6082764902203053	n/a	n/a	n/a	n/a
418.744140625	0.2	857588	317	74	3	0	0	36	84	stimuli\Videos_short_600ms\86.touch_top_to_bottom_with_hair_brush_short_short_600ms.mp4	86.touch_top_to_bottom_with_hair_brush_short_short_600ms.mp4	400.2096684659191	400.817950234552	0.6082817686328781	n/a	n/a	n/a	n/a
419.54443359375	0.2	859227	318	74	3	0	0	37	58	stimuli\Videos_short_600ms\62.touch_top_to_bottom_with_scissors_short_short_600ms.mp4	62.touch_top_to_bottom_with_scissors_short_short_600ms.mp4	401.00959527194937	401.6179333436376	0.6083380716881948	n/a	n/a	n/a	n/a
420.34423828125	0.2	860865	319	74	3	0	0	38	242	stimuli\Videos_short_600ms_horvertflip\66.stroke_top_to_bottom_with_sponge_short_horvertflip_short_600ms.mp4	66.stroke_top_to_bottom_with_sponge_short_horvertflip_short_600ms.mp4	401.8095725161329	402.4179135202685	0.6083410041355819	n/a	n/a	n/a	n/a
421.14404296875	0.2	862503	320	74	3	0	0	39	155	stimuli\Videos_short_600ms_horflip\69.stroke_with_soft_sock_short_horflip_short_600ms.mp4	69.stroke_with_soft_sock_short_horflip_short_600ms.mp4	402.6095576779335	403.2178980955796	0.6083404176461045	n/a	n/a	n/a	n/a
421.9443359375	0.2	864142	321	74	3	0	0	40	329	stimuli\Videos_short_600ms_vertflip\63.stroke_top_to_bottom_with_screwdriver_short_vertflip_short_600ms.mp4	63.stroke_top_to_bottom_with_screwdriver_short_vertflip_short_600ms.mp4	403.4095246585384	404.01788120466153	0.6083565461231046	n/a	n/a	n/a	n/a
422.744140625	0.2	865780	322	74	3	0	0	41	147	stimuli\Videos_short_600ms_horflip\61.single_hit_with_rolling_pin_short_horflip_short_600ms.mp4	61.single_hit_with_rolling_pin_short_horflip_short_600ms.mp4	404.209506887888	404.81786255427505	0.6083556663870695	n/a	n/a	n/a	n/a
423.5439453125	0.2	867418	323	74	3	0	0	42	47	stimuli\Videos_short_600ms\52.touch_top_to_bottom_with_hammer_short_short_600ms.mp4	52.touch_top_to_bottom_with_hammer_short_short_600ms.mp4	405.00950348624247	405.6178292416371	0.6083257553946169	n/a	n/a	n/a	n/a
424.34423828125	0.2	869057	324	74	3	0	0	43	24	stimuli\Videos_short_600ms\31.hand_grabbing_wrist_short_short_600ms.mp4	31.hand_grabbing_wrist_short_short_600ms.mp4	405.80949539268113	406.41782701297416	0.6083316202930291	n/a	n/a	n/a	n/a
425.14404296875	0.2	870695	325	74	3	0	0	44	315	stimuli\Videos_short_600ms_vertflip\50.single_(long)hard_push_with_thumb_short_vertflip_short_600ms.mp4	50.single_(long)hard_push_with_thumb_short_vertflip_short_600ms.mp4	406.6097274668282	407.2177655488049	0.6080380819767015	n/a	n/a	n/a	n/a
425.9443359375	0.2	872334	326	74	3	0	0	45	4	stimuli\Videos_short_600ms\13.single_touch_with_pen_short_short_600ms.mp4	13.single_touch_with_pen_short_short_600ms.mp4	407.4095220193339	408.0177729972311	0.6082509778971144	n/a	n/a	n/a	n/a
426.744140625	0.2	873972	327	74	3	0	0	46	151	stimuli\Videos_short_600ms_horflip\65.stroke_top_to_bottom_with_stanley_knife_short_horflip_short_600ms.mp4	65.stroke_top_to_bottom_with_stanley_knife_short_horflip_short_600ms.mp4	408.20950483516935	408.81773176697607	0.608226931806712	n/a	n/a	n/a	n/a
427.5439453125	0.2	875610	328	74	3	0	0	47	200	stimuli\Videos_short_600ms_horvertflip\28.single_injection_with_sharp_needle_short_horvertflip_short_600ms.mp4	28.single_injection_with_sharp_needle_short_horvertflip_short_600ms.mp4	409.0094389723272	409.6177439073217	0.6083049349945213	n/a	n/a	n/a	n/a
428.34423828125	0.2	877249	329	74	3	0	0	48	40	stimuli\Videos_short_600ms\46.scratching_top_to_bottom_with_finger_nails_short_short_600ms.mp4	46.scratching_top_to_bottom_with_finger_nails_short_short_600ms.mp4	409.80942120167674	410.4177237907097	0.6083025890329736	n/a	n/a	n/a	n/a
429.14404296875	0.2	878887	330	74	3	0	1	49	374	stimuli\Targets_short_600ms_horvertflip\chopstickwood-tap_short_vertflip_short_600ms.mp4	chopstickwood-tap_short_vertflip_short_600ms.mp4	410.60940401751577	411.2177107119787	0.6083066944629536	n/a	n/a	n/a	n/a
429.94384765625	0.2	880525	331	74	3	0	0	50	36	stimuli\Videos_short_600ms\42.single_slap_with_plastic_whisk_short_short_600ms.mp4	42.single_slap_with_plastic_whisk_short_short_600ms.mp4	411.40938800633376	412.01771112252027	0.6083231161865115	n/a	n/a	n/a	n/a
430.744140625	0.2	882164	332	74	3	0	0	51	21	stimuli\Videos_short_600ms\29.single_pinch_with_tweezers_short_short_600ms.mp4	29.single_pinch_with_tweezers_short_short_600ms.mp4	412.2093684762149	412.8176924721338	0.6083239959189086	n/a	n/a	n/a	n/a
431.5439453125	0.2	883802	333	74	3	0	0	52	184	stimuli\Videos_short_600ms_horvertflip\13.single_touch_with_pen_short_horvertflip_short_600ms.mp4	13.single_touch_with_pen_short_horvertflip_short_600ms.mp4	413.00938090980344	413.6176770474449	0.608296137641446	n/a	n/a	n/a	n/a
432.34375	0.2	885440	334	74	3	0	0	53	71	stimuli\Videos_short_600ms\74.fingers_walking_from_top_to_bottom_short_short_600ms.mp4	74.fingers_walking_from_top_to_bottom_short_short_600ms.mp4	413.8093370403403	414.4176604497734	0.6083234094330692	n/a	n/a	n/a	n/a
433.14404296875	0.2	887079	335	74	3	0	0	54	340	stimuli\Videos_short_600ms_vertflip\73.single_stroke_with_flat_hand_short_vertflip_short_600ms.mp4	73.single_stroke_with_flat_hand_short_vertflip_short_600ms.mp4	414.6093591510216	415.2176423858764	0.6082832348547527	n/a	n/a	n/a	n/a
433.94384765625	0.2	888717	336	74	3	0	1	55	377	stimuli\Targets_short_600ms_horvertflip\hand-stroke_short_vertflip_short_600ms.mp4	hand-stroke_short_vertflip_short_600ms.mp4	415.40930237877546	416.017626667941	0.6083242891654663	n/a	n/a	n/a	n/a
434.74365234375	0.2	890355	337	74	3	0	0	56	279	stimuli\Videos_short_600ms_vertflip\18.single_stroke_from_top_to_bottom_with_rolling_pin_short_vertflip_short_600ms.mp4	18.single_stroke_from_top_to_bottom_with_rolling_pin_short_vertflip_short_600ms.mp4	416.2092840216319	416.81760596483946	0.6083219432075566	n/a	n/a	n/a	n/a
435.5439453125	0.2	891994	338	74	3	0	0	57	231	stimuli\Videos_short_600ms_horvertflip\56.repeated_touch_with_nail_file_short_horvertflip_short_600ms.mp4	56.repeated_touch_with_nail_file_short_horvertflip_short_600ms.mp4	417.0092275426323	417.6175937658445	0.6083662232122151	n/a	n/a	n/a	n/a
436.34375	0.2	893632	339	74	3	0	0	58	103	stimuli\Videos_short_600ms_horflip\21.repeated_touch_with_metal_chopstick_short_horflip_short_600ms.mp4	21.repeated_touch_with_metal_chopstick_short_horflip_short_600ms.mp4	417.8092669547696	418.4175777546625	0.6083107998929336	n/a	n/a	n/a	n/a
437.1435546875	0.2	895270	340	74	3	0	0	59	144	stimuli\Videos_short_600ms_horflip\59.single_push_with_long_side_pencil_short_horflip_short_600ms.mp4	59.single_push_with_long_side_pencil_short_horflip_short_600ms.mp4	418.6091978662298	419.21755822454	0.6083603583101649	n/a	n/a	n/a	n/a
437.94384765625	0.2	896909	341	74	3	0	0	60	245	stimuli\Videos_short_600ms_horvertflip\69.stroke_with_soft_sock_short_horvertflip_short_600ms.mp4	69.stroke_with_soft_sock_short_horvertflip_short_600ms.mp4	419.40918185505143	420.0175413336256	0.6083594785741298	n/a	n/a	n/a	n/a
438.74365234375	0.2	898547	342	74	3	0	0	61	65	stimuli\Videos_short_600ms\69.stroke_with_soft_sock_short_short_600ms.mp4	69.stroke_with_soft_sock_short_short_600ms.mp4	420.209188130495	420.8175279616517	0.608339831156627	n/a	n/a	n/a	n/a
439.54345703125	0.2	900185	343	74	3	0	0	62	233	stimuli\Videos_short_600ms_horvertflip\58.single_slap_with_pencil_short_horvertflip_short_600ms.mp4	58.single_slap_with_pencil_short_horvertflip_short_600ms.mp4	421.0091683071296	421.61748497192457	0.6083166647949838	n/a	n/a	n/a	n/a
440.34375	0.2	901824	344	74	3	0	0	63	295	stimuli\Videos_short_600ms_vertflip\32.single_(long)pinch_with_fingers_short_vertflip_short_600ms.mp4	32.single_(long)pinch_with_fingers_short_vertflip_short_600ms.mp4	421.8091745825732	422.4174478470959	0.6082732645227225	n/a	n/a	n/a	n/a
441.1435546875	0.2	903462	345	74	3	0	0	64	205	stimuli\Videos_short_600ms_horvertflip\32.single_(long)pinch_with_fingers_short_horvertflip_short_600ms.mp4	32.single_(long)pinch_with_fingers_short_horvertflip_short_600ms.mp4	422.6091503605312	423.2174262642584	0.6082759037271899	n/a	n/a	n/a	n/a
441.943359375	0.2	905100	346	74	3	0	0	65	62	stimuli\Videos_short_600ms\66.stroke_top_to_bottom_with_sponge_short_short_600ms.mp4	66.stroke_top_to_bottom_with_sponge_short_short_600ms.mp4	423.40913610882126	424.01740966659054	0.6082735577692802	n/a	n/a	n/a	n/a
442.74365234375	0.2	906739	347	74	3	0	0	66	267	stimuli\Videos_short_600ms_horvertflip\89.single_touch_with_plastic_brush_short_horvertflip_short_600ms.mp4	89.single_touch_with_plastic_brush_short_horvertflip_short_600ms.mp4	424.2091148192266	424.8174185812386	0.6083037620119285	n/a	n/a	n/a	n/a
443.54345703125	0.2	908377	348	74	3	0	0	67	39	stimuli\Videos_short_600ms\45.scratching_with_finger_nails_short_short_600ms.mp4	45.scratching_with_finger_nails_short_short_600ms.mp4	425.0091260798399	425.61740227681366	0.6082761969737476	n/a	n/a	n/a	n/a
444.34326171875	0.2	910015	349	74	3	0	0	68	112	stimuli\Videos_short_600ms_horflip\3.single_push_with_finger_short_horflip_short_600ms.mp4	3.single_push_with_finger_short_horflip_short_600ms.mp4	425.80911622680287	426.4174006346402	0.6082844078373455	n/a	n/a	n/a	n/a
445.1435546875	0.2	911654	350	74	3	0	0	69	198	stimuli\Videos_short_600ms_horvertflip\26.single_touch_with_a_blunt_syringe_short_horvertflip_short_600ms.mp4	26.single_touch_with_a_blunt_syringe_short_horvertflip_short_600ms.mp4	426.60909640343743	427.2173910748498	0.6082946714122954	n/a	n/a	n/a	n/a
445.943359375	0.2	913292	351	74	3	0	0	70	121	stimuli\Videos_short_600ms_horflip\38.double_slap_with_pencil_short_horflip_short_600ms.mp4	38.double_slap_with_pencil_short_horflip_short_600ms.mp4	427.40931968023506	428.0173709582414	0.6080512780063145	n/a	n/a	n/a	n/a
446.74365234375	0.2	914931	352	74	3	0	0	71	139	stimuli\Videos_short_600ms_horflip\54.repeated_touch_with_knife_short_horflip_short_600ms.mp4	54.repeated_touch_with_knife_short_horflip_short_600ms.mp4	428.20905089180087	428.81735201460833	0.6083011228074611	n/a	n/a	n/a	n/a
447.54345703125	0.2	916569	353	74	3	0	0	72	224	stimuli\Videos_short_600ms_horvertflip\5.repeated_tap_with_finger_moving_from_top_to_bottom_short_horvertflip_short_600ms.mp4	5.repeated_tap_with_finger_moving_from_top_to_bottom_short_horvertflip_short_600ms.mp4	429.0090125939969	429.61733746965183	0.6083248756549438	n/a	n/a	n/a	n/a
448.34326171875	0.2	918207	354	74	3	0	0	73	268	stimuli\Videos_short_600ms_horvertflip\9.single_touch_with_hammer_short_horvertflip_short_600ms.mp4	9.single_touch_with_hammer_short_horvertflip_short_600ms.mp4	429.8089877854618	430.4173194057548	0.6083316202930291	n/a	n/a	n/a	n/a
449.1435546875	0.2	919846	355	74	3	0	0	74	204	stimuli\Videos_short_600ms_horvertflip\31.hand_grabbing_wrist_short_horvertflip_short_600ms.mp4	31.hand_grabbing_wrist_short_horvertflip_short_600ms.mp4	430.6090280773351	431.2173033945765	0.6082753172413504	n/a	n/a	n/a	n/a
449.943359375	0.2	921484	356	74	3	0	0	75	42	stimuli\Videos_short_600ms\48.single_slap_with_hand_short_short_600ms.mp4	48.single_slap_with_hand_short_short_600ms.mp4	431.408975117276	432.0172856239224	0.6083105066463759	n/a	n/a	n/a	n/a
450.7431640625	0.2	923122	357	74	3	0	0	76	317	stimuli\Videos_short_600ms_vertflip\52.touch_top_to_bottom_with_hammer_short_vertflip_short_600ms.mp4	52.touch_top_to_bottom_with_hammer_short_vertflip_short_600ms.mp4	432.20895060198745	432.8172476193613	0.6082970173738431	n/a	n/a	n/a	n/a
