onset	duration	onsetsample	eventnumber	subjectnr	sequencenumber	blocksequencenumber	istarget	presentationnumber	stimnumber	stim	stimname	time_stimon	time_stimoff	stimdur	cresp	resp	rt	correct
68.58056640625	0.2	140453	0	25	0	0	0	0	277	stimuli\Videos_short_600ms_vertflip\16.repeated_touch_with_plastic_brush_short_vertflip_short_600ms.mp4	16.repeated_touch_with_plastic_brush_short_vertflip_short_600ms.mp4	93.92848896386931	94.53617280580148	0.6076838419321575	n/a	n/a	n/a	n/a
69.3720703125	0.2	142074	1	25	0	0	0	1	248	stimuli\Videos_short_600ms_horvertflip\71.single_stroke_with_finger_top_to_bottom_short_horvertflip_short_600ms.mp4	71.single_stroke_with_finger_top_to_bottom_short_horvertflip_short_600ms.mp4	94.7282685608734	95.33614418508296	0.6078756242095551	n/a	n/a	n/a	n/a
70.171875	0.2	143712	2	25	0	0	0	2	309	stimuli\Videos_short_600ms_vertflip\45.scratching_with_finger_nails_short_vertflip_short_600ms.mp4	45.scratching_with_finger_nails_short_vertflip_short_600ms.mp4	95.52788863256136	96.13614049019452	0.6082518576331495	n/a	n/a	n/a	n/a
70.97216796875	0.2	145351	3	25	0	0	0	3	313	stimuli\Videos_short_600ms_vertflip\49.repeated_slap_with_hand_short_vertflip_short_600ms.mp4	49.repeated_slap_with_hand_short_vertflip_short_600ms.mp4	96.32781485210216	96.93613151689716	0.6083166647949838	n/a	n/a	n/a	n/a
71.77197265625	0.2	146989	4	25	0	0	1	4	367	stimuli\Targets_short_600ms_horflip\chopstick-silver-tap_short_horflip_short_600ms.mp4	chopstick-silver-tap_short_horflip_short_600ms.mp4	97.12778535164762	97.73608266226802	0.6082973106204008	n/a	n/a	n/a	n/a
72.57177734375	0.2	148627	5	25	0	0	0	5	259	stimuli\Videos_short_600ms_horvertflip\81.single_stroke_top_to_bottom_with_cotton_pad_short_horvertflip_short_600ms.mp4	81.single_stroke_top_to_bottom_with_cotton_pad_short_horvertflip_short_600ms.mp4	97.9277728594061	98.53610037426915	0.6083275148630491	n/a	n/a	n/a	n/a
73.3720703125	0.2	150266	6	25	0	0	0	6	194	stimuli\Videos_short_600ms_horvertflip\22.single_touch_with_metal_chopstick_short_horvertflip_short_600ms.mp4	22.single_touch_with_metal_chopstick_short_horvertflip_short_600ms.mp4	98.72775362253014	99.3361034240188	0.6083498014886572	n/a	n/a	n/a	n/a
74.171875	0.2	151904	7	25	0	0	0	7	35	stimuli\Videos_short_600ms\41.injection_with_blunt_syringe_short_short_600ms.mp4	41.injection_with_blunt_syringe_short_short_600ms.mp4	99.52773379916472	100.1360660059472	0.6083322067825065	n/a	n/a	n/a	n/a
74.9716796875	0.2	153542	8	25	0	0	0	8	273	stimuli\Videos_short_600ms_vertflip\12.repeated_touch_with_nail_file_short_vertflip_short_600ms.mp4	12.repeated_touch_with_nail_file_short_vertflip_short_600ms.mp4	100.32771690824666	100.93603855820766	0.6083216499609989	n/a	n/a	n/a	n/a
75.77197265625	0.2	155181	9	25	0	0	0	9	76	stimuli\Videos_short_600ms\79.long_with_soft_brush_all_over_the_hand_short_short_600ms.mp4	79.long_with_soft_brush_all_over_the_hand_short_short_600ms.mp4	101.12770060382172	101.7360207875572	0.6083201837354864	n/a	n/a	n/a	n/a
76.57177734375	0.2	156819	10	25	0	0	0	10	79	stimuli\Videos_short_600ms\81.single_stroke_top_to_bottom_with_cotton_pad_short_short_600ms.mp4	81.single_stroke_top_to_bottom_with_cotton_pad_short_short_600ms.mp4	101.9276872318478	102.53600360339624	0.6083163715484261	n/a	n/a	n/a	n/a
77.37158203125	0.2	158457	11	25	0	0	0	11	238	stimuli\Videos_short_600ms_horvertflip\62.touch_top_to_bottom_with_scissors_short_horvertflip_short_600ms.mp4	62.touch_top_to_bottom_with_scissors_short_horvertflip_short_600ms.mp4	102.72766682198926	103.3359867124782	0.6083198904889286	n/a	n/a	n/a	n/a
78.171875	0.2	160096	12	25	0	0	0	12	205	stimuli\Videos_short_600ms_horvertflip\32.single_(long)pinch_with_fingers_short_horvertflip_short_600ms.mp4	32.single_(long)pinch_with_fingers_short_horvertflip_short_600ms.mp4	103.52765345001536	104.13596982156378	0.6083163715484261	n/a	n/a	n/a	n/a
78.9716796875	0.2	161734	13	25	0	0	0	13	317	stimuli\Videos_short_600ms_vertflip\52.touch_top_to_bottom_with_hammer_short_vertflip_short_600ms.mp4	52.touch_top_to_bottom_with_hammer_short_vertflip_short_600ms.mp4	104.32763773207988	104.93595381038176	0.6083160783018684	n/a	n/a	n/a	n/a
79.77197265625	0.2	163373	14	25	0	0	0	14	327	stimuli\Videos_short_600ms_vertflip\61.single_hit_with_rolling_pin_short_vertflip_short_600ms.mp4	61.single_hit_with_rolling_pin_short_vertflip_short_600ms.mp4	105.1276199614258	105.7359380924463	0.6083181310204964	n/a	n/a	n/a	n/a
80.57177734375	0.2	165011	15	25	0	0	0	15	15	stimuli\Videos_short_600ms\23.single_push_with_a_spoon_short_short_600ms.mp4	23.single_push_with_a_spoon_short_short_600ms.mp4	105.92762770309491	106.53592178802135	0.608294084926456	n/a	n/a	n/a	n/a
81.37158203125	0.2	166649	16	25	0	0	0	16	12	stimuli\Videos_short_600ms\20.single_touch_with_screwdriver_short_short_600ms.mp4	20.single_touch_with_screwdriver_short_short_600ms.mp4	106.72758148767387	107.33590519034988	0.6083237026759889	n/a	n/a	n/a	n/a
82.171875	0.2	168288	17	25	0	0	1	17	362	stimuli\Targets_short_600ms\chopstickwood-tap_short_short_600ms.mp4	chopstickwood-tap_short_short_600ms.mp4	107.52756195755136	108.13588566022736	0.6083237026759889	n/a	n/a	n/a	n/a
82.9716796875	0.2	169926	18	25	0	0	0	18	124	stimuli\Videos_short_600ms_horflip\40.repeated_push_with_finger_short_horflip_short_600ms.mp4	40.repeated_push_with_finger_short_horflip_short_600ms.mp4	108.32754594636936	108.93586935580242	0.6083234094330692	n/a	n/a	n/a	n/a
83.771484375	0.2	171564	19	25	0	0	0	19	200	stimuli\Videos_short_600ms_horvertflip\28.single_injection_with_sharp_needle_short_horvertflip_short_600ms.mp4	28.single_injection_with_sharp_needle_short_horvertflip_short_600ms.mp4	109.1275572069826	109.73583604316082	0.608278836178215	n/a	n/a	n/a	n/a
84.57177734375	0.2	173203	20	25	0	0	0	20	32	stimuli\Videos_short_600ms\39.single_stab_with_scissors_short_short_600ms.mp4	39.single_stab_with_scissors_short_short_600ms.mp4	109.92752594705598	110.5358100616504	0.6082841145944258	n/a	n/a	n/a	n/a
85.37158203125	0.2	174841	21	25	0	0	0	21	219	stimuli\Videos_short_600ms_horvertflip\45.scratching_with_finger_nails_short_horvertflip_short_600ms.mp4	45.scratching_with_finger_nails_short_horvertflip_short_600ms.mp4	110.72749908580954	111.33581780331951	0.6083187175099738	n/a	n/a	n/a	n/a
86.17138671875	0.2	176479	22	25	0	0	0	22	343	stimuli\Videos_short_600ms_vertflip\76.tickle_with_fingers_from_top_to_bottom_short_vertflip_short_600ms.mp4	76.tickle_with_fingers_from_top_to_bottom_short_vertflip_short_600ms.mp4	111.52749099224457	112.13577715955398	0.6082861673094158	n/a	n/a	n/a	n/a
86.9716796875	0.2	178118	23	25	0	0	0	23	196	stimuli\Videos_short_600ms_horvertflip\24.single_stroke_top_to_bottom_with_a_spoon_short_horvertflip_short_600ms.mp4	24.single_stroke_top_to_bottom_with_a_spoon_short_horvertflip_short_600ms.mp4	112.32745269443694	112.93577991605709	0.6083272216201294	n/a	n/a	n/a	n/a
87.771484375	0.2	179756	24	25	0	0	0	24	274	stimuli\Videos_short_600ms_vertflip\13.single_touch_with_pen_short_vertflip_short_600ms.mp4	13.single_touch_with_pen_short_vertflip_short_600ms.mp4	113.12744724008007	113.73576947653056	0.6083222364504763	n/a	n/a	n/a	n/a
88.5712890625	0.2	181394	25	25	0	0	0	25	244	stimuli\Videos_short_600ms_horvertflip\68.stroke_top_to_bottom_with_shawl_short_horvertflip_short_600ms.mp4	68.stroke_top_to_bottom_with_shawl_short_horvertflip_short_600ms.mp4	113.9274285896936	114.53575933025058	0.608330740556994	n/a	n/a	n/a	n/a
89.37158203125	0.2	183033	26	25	0	0	0	26	342	stimuli\Videos_short_600ms_vertflip\75.(long)stroke_with_fingers_all_over_the_hand_short_vertflip_short_600ms.mp4	75.(long)stroke_with_fingers_all_over_the_hand_short_vertflip_short_600ms.mp4	114.72743515838374	115.33574273258272	0.6083075741989887	n/a	n/a	n/a	n/a
90.17138671875	0.2	184671	27	25	0	0	1	27	379	stimuli\Targets_short_600ms_vertflip\chopstick-silver-tap_short_horvertflip_short_600ms.mp4	chopstick-silver-tap_short_horvertflip_short_600ms.mp4	115.5273965673332	116.13571792404764	0.6083213567144412	n/a	n/a	n/a	n/a
90.97119140625	0.2	186309	28	25	0	0	0	28	23	stimuli\Videos_short_600ms\30.finger_pulling_back_another_finger_short_short_600ms.mp4	30.finger_pulling_back_another_finger_short_short_600ms.mp4	116.32738114264066	116.9357001533972	0.6083190107565315	n/a	n/a	n/a	n/a
91.771484375	0.2	187948	29	25	0	0	0	29	93	stimuli\Videos_short_600ms_horflip\12.repeated_touch_with_nail_file_short_horflip_short_600ms.mp4	12.repeated_touch_with_nail_file_short_horflip_short_600ms.mp4	117.12736161251814	117.73568238274676	0.6083207702286018	n/a	n/a	n/a	n/a
92.5712890625	0.2	189586	30	25	0	0	0	30	306	stimuli\Videos_short_600ms_vertflip\42.single_slap_with_plastic_whisk_short_vertflip_short_600ms.mp4	42.single_slap_with_plastic_whisk_short_vertflip_short_600ms.mp4	117.92734501485027	118.53566871752628	0.6083237026759889	n/a	n/a	n/a	n/a
93.37109375	0.2	191224	31	25	0	0	0	31	138	stimuli\Videos_short_600ms_horflip\53.touch_top_to_bottom_with_knife_short_horflip_short_600ms.mp4	53.touch_top_to_bottom_with_knife_short_horflip_short_600ms.mp4	118.7273272441962	119.3356500671398	0.6083228229435917	n/a	n/a	n/a	n/a
94.17138671875	0.2	192863	32	25	0	0	0	32	146	stimuli\Videos_short_600ms_horflip\60.single_push_with_tip_of_pencil_short_horflip_short_600ms.mp4	60.single_push_with_tip_of_pencil_short_horflip_short_600ms.mp4	119.5273153384478	120.13563229648572	0.6083169580379035	n/a	n/a	n/a	n/a
94.97119140625	0.2	194501	33	25	0	0	0	33	260	stimuli\Videos_short_600ms_horvertflip\82.repeated_touch_with_cotton_bud_short_horvertflip_short_600ms.mp4	82.repeated_touch_with_cotton_bud_short_horvertflip_short_600ms.mp4	120.32726912302314	120.93561569881786	0.6083465757947124	n/a	n/a	n/a	n/a
95.77099609375	0.2	196139	34	25	0	0	0	34	312	stimuli\Videos_short_600ms_vertflip\48.single_slap_with_hand_short_vertflip_short_600ms.mp4	48.single_slap_with_hand_short_vertflip_short_600ms.mp4	121.12728243635138	121.73559851465689	0.6083160783055064	n/a	n/a	n/a	n/a
96.5712890625	0.2	197778	35	25	0	0	0	35	271	stimuli\Videos_short_600ms_vertflip\10.single_touch_with_knife_short_vertflip_short_600ms.mp4	10.single_touch_with_knife_short_vertflip_short_600ms.mp4	121.92726290622886	122.5355807440028	0.6083178377739387	n/a	n/a	n/a	n/a
97.37109375	0.2	199416	36	25	0	0	0	36	237	stimuli\Videos_short_600ms_horvertflip\61.single_hit_with_rolling_pin_short_horvertflip_short_600ms.mp4	61.single_hit_with_rolling_pin_short_horvertflip_short_600ms.mp4	122.72721874352284	123.33556326659892	0.6083445230760844	n/a	n/a	n/a	n/a
98.17138671875	0.2	201055	37	25	0	0	0	37	351	stimuli\Videos_short_600ms_vertflip\83.single_stroke_top_to_bottom_with_cotton_bud_short_vertflip_short_600ms.mp4	83.single_stroke_top_to_bottom_with_cotton_bud_short_vertflip_short_600ms.mp4	123.52722589870244	124.13554813515292	0.6083222364504763	n/a	n/a	n/a	n/a
98.97119140625	0.2	202693	38	25	0	0	0	38	107	stimuli\Videos_short_600ms_horflip\25.single_touch_with_stanley_knife_short_horflip_short_600ms.mp4	25.single_touch_with_stanley_knife_short_horflip_short_600ms.mp4	124.32722015109904	124.93550895760929	0.6082888065102452	n/a	n/a	n/a	n/a
99.77099609375	0.2	204331	39	25	0	0	0	39	292	stimuli\Videos_short_600ms_vertflip\3.single_push_with_finger_short_vertflip_short_600ms.mp4	3.single_push_with_finger_short_vertflip_short_600ms.mp4	125.12732407715156	125.73549587888192	0.6081718017303501	n/a	n/a	n/a	n/a
100.5712890625	0.2	205970	40	25	0	0	0	40	18	stimuli\Videos_short_600ms\26.single_touch_with_a_blunt_syringe_short_short_600ms.mp4	26.single_touch_with_a_blunt_syringe_short_short_600ms.mp4	125.92718197059004	126.5354728298189	0.6082908592288732	n/a	n/a	n/a	n/a
101.37109375	0.2	207608	41	25	0	0	0	41	63	stimuli\Videos_short_600ms\67.single_touch_with_sponge_short_short_600ms.mp4	67.single_touch_with_sponge_short_short_600ms.mp4	126.72715921477356	127.33547499983251	0.6083157850589487	n/a	n/a	n/a	n/a
102.1708984375	0.2	209246	42	25	0	0	0	42	36	stimuli\Videos_short_600ms\42.single_slap_with_plastic_whisk_short_short_600ms.mp4	42.single_slap_with_plastic_whisk_short_short_600ms.mp4	127.52714115087656	128.135460454876	0.6083193039994512	n/a	n/a	n/a	n/a
102.97119140625	0.2	210885	43	25	0	0	0	43	282	stimuli\Videos_short_600ms_vertflip\20.single_touch_with_screwdriver_short_vertflip_short_600ms.mp4	20.single_touch_with_screwdriver_short_vertflip_short_600ms.mp4	128.32712484645162	128.93545089508552	0.6083260486338986	n/a	n/a	n/a	n/a
103.77099609375	0.2	212523	44	25	0	0	0	44	332	stimuli\Videos_short_600ms_vertflip\66.stroke_top_to_bottom_with_sponge_short_vertflip_short_600ms.mp4	66.stroke_top_to_bottom_with_sponge_short_vertflip_short_600ms.mp4	129.12710824878013	129.73542931224802	0.6083210634678835	n/a	n/a	n/a	n/a
104.57080078125	0.2	214161	45	25	0	0	0	45	139	stimuli\Videos_short_600ms_horflip\54.repeated_touch_with_knife_short_horflip_short_600ms.mp4	54.repeated_touch_with_knife_short_horflip_short_600ms.mp4	129.92706261984495	130.5354194592146	0.6083568393696623	n/a	n/a	n/a	n/a
105.37109375	0.2	215800	46	25	0	0	0	46	27	stimuli\Videos_short_600ms\34.repeated_punch_with_hand_short_short_600ms.mp4	34.repeated_punch_with_hand_short_short_600ms.mp4	130.72707358721163	131.3353955304192	0.6083219432075566	n/a	n/a	n/a	n/a
106.1708984375	0.2	217438	47	25	0	0	0	47	201	stimuli\Videos_short_600ms_horvertflip\29.single_pinch_with_tweezers_short_horvertflip_short_600ms.mp4	29.single_pinch_with_tweezers_short_horvertflip_short_600ms.mp4	131.5270587490122	132.13538010572665	0.6083213567144412	n/a	n/a	n/a	n/a
106.970703125	0.2	219076	48	25	0	0	0	48	208	stimuli\Videos_short_600ms_horvertflip\35.single_punch_with_hand_short_horvertflip_short_600ms.mp4	35.single_punch_with_hand_short_horvertflip_short_600ms.mp4	132.3270406851152	132.93535852288915	0.6083178377739387	n/a	n/a	n/a	n/a
107.77099609375	0.2	220715	49	25	0	0	0	49	159	stimuli\Videos_short_600ms_horflip\72.(short)stroke_with_finger_all_over_the_hand_short_horflip_short_600ms.mp4	72.(short)stroke_with_finger_all_over_the_hand_short_horflip_short_600ms.mp4	133.12702203472872	133.73534339144317	0.6083213567144412	n/a	n/a	n/a	n/a
108.57080078125	0.2	222353	50	25	0	0	0	50	278	stimuli\Videos_short_600ms_vertflip\17.repeated_touch_with_rolling_pin_short_vertflip_short_600ms.mp4	17.repeated_touch_with_rolling_pin_short_vertflip_short_600ms.mp4	133.9270071965293	134.53532532754616	0.6083181310168584	n/a	n/a	n/a	n/a
109.37060546875	0.2	223991	51	25	0	0	0	51	40	stimuli\Videos_short_600ms\46.scratching_top_to_bottom_with_finger_nails_short_short_600ms.mp4	46.scratching_top_to_bottom_with_finger_nails_short_short_600ms.mp4	134.72698854614282	135.33531195557225	0.6083234094294312	n/a	n/a	n/a	n/a
110.1708984375	0.2	225630	52	25	0	0	0	52	289	stimuli\Videos_short_600ms_vertflip\27.single_push_with_a_plastic_whisk_short_vertflip_short_600ms.mp4	27.single_push_with_a_plastic_whisk_short_vertflip_short_600ms.mp4	135.52697194847133	136.13529242544973	0.6083204769784061	n/a	n/a	n/a	n/a
110.970703125	0.2	227268	53	25	0	0	0	53	241	stimuli\Videos_short_600ms_horvertflip\65.stroke_top_to_bottom_with_stanley_knife_short_horvertflip_short_600ms.mp4	65.stroke_top_to_bottom_with_stanley_knife_short_horvertflip_short_600ms.mp4	136.32696092245533	136.93527436155273	0.608313439097401	n/a	n/a	n/a	n/a
111.7705078125	0.2	228906	54	25	0	0	0	54	169	stimuli\Videos_short_600ms_horflip\81.single_stroke_top_to_bottom_with_cotton_pad_short_horflip_short_600ms.mp4	81.single_stroke_top_to_bottom_with_cotton_pad_short_horflip_short_600ms.mp4	137.1269135340517	137.73525893686383	0.6083454028121196	n/a	n/a	n/a	n/a
112.57080078125	0.2	230545	55	25	0	0	1	55	370	stimuli\Targets_short_600ms_horflip\hand-pinch_short_horflip_short_600ms.mp4	hand-pinch_short_horflip_short_600ms.mp4	137.92693300552492	138.53524116621338	0.6083081606884662	n/a	n/a	n/a	n/a
113.37060546875	0.2	232183	56	25	0	0	0	56	333	stimuli\Videos_short_600ms_vertflip\67.single_touch_with_sponge_short_vertflip_short_600ms.mp4	67.single_touch_with_sponge_short_vertflip_short_600ms.mp4	138.72688942930836	139.33522779423583	0.6083383649274765	n/a	n/a	n/a	n/a
114.17041015625	0.2	233821	57	25	0	0	0	57	245	stimuli\Videos_short_600ms_horvertflip\69.stroke_with_soft_sock_short_horvertflip_short_600ms.mp4	69.stroke_with_soft_sock_short_horvertflip_short_600ms.mp4	139.52689042633938	140.13520650464488	0.6083160783055064	n/a	n/a	n/a	n/a
114.970703125	0.2	235460	58	25	0	0	0	58	60	stimuli\Videos_short_600ms\64.repeated_touch_with_screwdriver_short_short_600ms.mp4	64.repeated_touch_with_screwdriver_short_short_600ms.mp4	140.32687470840392	140.9351711392883	0.6082964308843657	n/a	n/a	n/a	n/a
115.7705078125	0.2	237098	59	25	0	0	1	59	375	stimuli\Targets_short_600ms_horvertflip\finger-tap_short_vertflip_short_600ms.mp4	finger-tap_short_vertflip_short_600ms.mp4	141.126863389145	141.7351741890379	0.6083107998929336	n/a	n/a	n/a	n/a
116.5703125	0.2	238736	60	25	0	0	0	60	24	stimuli\Videos_short_600ms\31.hand_grabbing_wrist_short_short_600ms.mp4	31.hand_grabbing_wrist_short_short_600ms.mp4	141.92683652789492	142.53514146288944	0.6083049349945213	n/a	n/a	n/a	n/a
117.37060546875	0.2	240375	61	25	0	0	0	61	150	stimuli\Videos_short_600ms_horflip\64.repeated_touch_with_screwdriver_short_horflip_short_600ms.mp4	64.repeated_touch_with_screwdriver_short_horflip_short_600ms.mp4	142.72682080995946	143.33511665435435	0.6082958443948883	n/a	n/a	n/a	n/a
118.17041015625	0.2	242013	62	25	0	0	0	62	198	stimuli\Videos_short_600ms_horvertflip\26.single_touch_with_a_blunt_syringe_short_horvertflip_short_600ms.mp4	26.single_touch_with_a_blunt_syringe_short_horvertflip_short_600ms.mp4	143.52680333255557	144.13512351629106	0.6083201837354864	n/a	n/a	n/a	n/a
118.970703125	0.2	243652	63	25	0	0	0	63	294	stimuli\Videos_short_600ms_vertflip\31.hand_grabbing_wrist_short_vertflip_short_600ms.mp4	31.hand_grabbing_wrist_short_vertflip_short_600ms.mp4	144.3267582901135	144.9351077983556	0.6083495082420995	n/a	n/a	n/a	n/a
119.7705078125	0.2	245290	64	25	0	0	0	64	268	stimuli\Videos_short_600ms_horvertflip\9.single_touch_with_hammer_short_horvertflip_short_600ms.mp4	9.single_touch_with_hammer_short_horvertflip_short_600ms.mp4	145.12676837774052	145.73509647909304	0.6083281013525266	n/a	n/a	n/a	n/a
120.5703125	0.2	246928	65	25	0	0	0	65	207	stimuli\Videos_short_600ms_horvertflip\34.repeated_punch_with_hand_short_horvertflip_short_600ms.mp4	34.repeated_punch_with_hand_short_horvertflip_short_600ms.mp4	145.92675383278765	146.53507108407211	0.6083172512844612	n/a	n/a	n/a	n/a
121.37060546875	0.2	248567	66	25	0	0	0	66	67	stimuli\Videos_short_600ms\70.(long)stroke_with_finger_all_over_the_hand_short_short_600ms.mp4	70.(long)stroke_with_finger_all_over_the_hand_short_short_600ms.mp4	146.72673400941858	147.33505683236217	0.6083228229435917	n/a	n/a	n/a	n/a
122.17041015625	0.2	250205	67	25	0	0	0	67	183	stimuli\Videos_short_600ms_horvertflip\12.repeated_touch_with_nail_file_short_horvertflip_short_600ms.mp4	12.repeated_touch_with_nail_file_short_horvertflip_short_600ms.mp4	147.5267200509552	148.13503876846517	0.6083187175099738	n/a	n/a	n/a	n/a
122.97021484375	0.2	251843	68	25	0	0	0	68	37	stimuli\Videos_short_600ms\43.touch_top_to_bottom_with_sharp_wooden_stick_short_short_600ms.mp4	43.touch_top_to_bottom_with_sharp_wooden_stick_short_short_600ms.mp4	148.3267014005687	148.9350236370192	0.6083222364504763	n/a	n/a	n/a	n/a
123.7705078125	0.2	253482	69	25	0	0	0	69	154	stimuli\Videos_short_600ms_horflip\68.stroke_top_to_bottom_with_shawl_short_horflip_short_600ms.mp4	68.stroke_top_to_bottom_with_shawl_short_horflip_short_600ms.mp4	149.12668626912273	149.73500469338614	0.6083184242634161	n/a	n/a	n/a	n/a
124.5703125	0.2	255120	70	25	0	0	0	70	120	stimuli\Videos_short_600ms_horflip\37.single_stab_with_nail_file_short_horflip_short_600ms.mp4	37.single_stab_with_nail_file_short_horflip_short_600ms.mp4	149.92667260390226	150.53498780247173	0.6083151985694712	n/a	n/a	n/a	n/a
125.3701171875	0.2	256758	71	25	0	0	0	71	130	stimuli\Videos_short_600ms_horflip\46.scratching_top_to_bottom_with_finger_nails_short_horflip_short_600ms.mp4	46.scratching_top_to_bottom_with_finger_nails_short_horflip_short_600ms.mp4	150.72663049391122	151.3349714980468	0.6083410041355819	n/a	n/a	n/a	n/a
126.17041015625	0.2	258397	72	25	0	0	0	72	11	stimuli\Videos_short_600ms\2.single_touch_with_finger_short_short_600ms.mp4	2.single_touch_with_finger_short_short_600ms.mp4	151.5266159489547	152.13495519361825	0.6083392446635116	n/a	n/a	n/a	n/a
126.97021484375	0.2	260035	73	25	0	0	0	73	269	stimuli\Videos_short_600ms_horvertflip\90.repeated_touch_with_sponge_short_horvertflip_short_600ms.mp4	90.repeated_touch_with_sponge_short_horvertflip_short_600ms.mp4	152.32661841221488	152.93491865528267	0.608300243067788	n/a	n/a	n/a	n/a
127.77001953125	0.2	261673	74	25	0	0	0	74	43	stimuli\Videos_short_600ms\49.repeated_slap_with_hand_short_short_600ms.mp4	49.repeated_slap_with_hand_short_short_600ms.mp4	153.12657688870968	153.7349214117894	0.6083445230797224	n/a	n/a	n/a	n/a
128.5703125	0.2	263312	75	25	0	0	0	75	345	stimuli\Videos_short_600ms_vertflip\78.single_stroke_top_to_bottom_with_soft_brush_short_vertflip_short_600ms.mp4	78.single_stroke_top_to_bottom_with_soft_brush_short_vertflip_short_600ms.mp4	153.92655999779527	154.53490305464584	0.6083430568505719	n/a	n/a	n/a	n/a
129.3701171875	0.2	264950	76	25	0	0	0	76	347	stimuli\Videos_short_600ms_vertflip\8.single_touch_with_hairbrush_short_vertflip_short_600ms.mp4	8.single_touch_with_hairbrush_short_vertflip_short_600ms.mp4	154.72657477734538	155.33488352452332	0.6083087471779436	n/a	n/a	n/a	n/a
130.169921875	0.2	266588	77	25	0	0	1	77	368	stimuli\Targets_short_600ms_horflip\chopstickwood-tap_short_horflip_short_600ms.mp4	chopstickwood-tap_short_horflip_short_600ms.mp4	155.52655231477547	156.1348525578469	0.6083002430714259	n/a	n/a	n/a	n/a
130.97021484375	0.2	268227	78	25	0	0	0	78	143	stimuli\Videos_short_600ms_horflip\58.single_slap_with_pencil_short_horflip_short_600ms.mp4	58.single_slap_with_pencil_short_horflip_short_600ms.mp4	156.32654128875947	156.93482862904784	0.6082873402883706	n/a	n/a	n/a	n/a
131.77001953125	0.2	269865	79	25	0	0	0	79	101	stimuli\Videos_short_600ms_horflip\2.single_touch_with_finger_short_horflip_short_600ms.mp4	2.single_touch_with_finger_short_horflip_short_600ms.mp4	157.1265170667175	157.7348123246229	0.6082952579054108	n/a	n/a	n/a	n/a
132.56982421875	0.2	271503	80	25	0	0	0	80	66	stimuli\Videos_short_600ms\7.repeated_touch_with_hairbrush_short_short_600ms.mp4	7.repeated_touch_with_hairbrush_short_short_600ms.mp4	157.92649929606705	158.53479484721538	0.6082955511483306	n/a	n/a	n/a	n/a
133.3701171875	0.2	273142	81	25	0	0	0	81	123	stimuli\Videos_short_600ms_horflip\4.repeated_tap_with_finger_slow_short_horflip_short_600ms.mp4	4.repeated_tap_with_finger_slow_short_horflip_short_600ms.mp4	158.72648416462107	159.33480581458207	0.6083216499609989	n/a	n/a	n/a	n/a
134.169921875	0.2	274780	82	25	0	0	0	82	52	stimuli\Videos_short_600ms\57.single_touch_with_nail_file_short_short_600ms.mp4	57.single_touch_with_nail_file_short_short_600ms.mp4	159.52652387000126	160.1347900966466	0.6082662266453553	n/a	n/a	n/a	n/a
134.9697265625	0.2	276418	83	25	0	0	0	83	305	stimuli\Videos_short_600ms_vertflip\41.injection_with_blunt_syringe_short_vertflip_short_600ms.mp4	41.injection_with_blunt_syringe_short_vertflip_short_600ms.mp4	160.3264489165631	160.93477995036665	0.6083310338035517	n/a	n/a	n/a	n/a
135.77001953125	0.2	278057	84	25	0	0	0	84	96	stimuli\Videos_short_600ms_horflip\15.single_stroke_top_to_bottom_with_a_plastic_whisk_short_horflip_short_600ms.mp4	15.single_stroke_top_to_bottom_with_a_plastic_whisk_short_horflip_short_600ms.mp4	161.12643143915557	161.73475220938053	0.6083207702249638	n/a	n/a	n/a	n/a
136.56982421875	0.2	279695	85	25	0	0	0	85	350	stimuli\Videos_short_600ms_vertflip\82.repeated_touch_with_cotton_bud_short_vertflip_short_600ms.mp4	82.repeated_touch_with_cotton_bud_short_vertflip_short_600ms.mp4	161.92641454824115	162.53473561171268	0.6083210634715215	n/a	n/a	n/a	n/a
137.3701171875	0.2	281334	86	25	0	0	0	86	129	stimuli\Videos_short_600ms_horflip\45.scratching_with_finger_nails_short_horflip_short_600ms.mp4	45.scratching_with_finger_nails_short_horflip_short_600ms.mp4	162.72639853705914	163.33471637483308	0.6083178377739387	n/a	n/a	n/a	n/a
138.169921875	0.2	282972	87	25	0	0	1	87	382	stimuli\Targets_short_600ms_vertflip\hand-pinch_short_horvertflip_short_600ms.mp4	hand-pinch_short_horvertflip_short_600ms.mp4	163.5263822326342	164.13470212312313	0.6083198904889286	n/a	n/a	n/a	n/a
138.9697265625	0.2	284610	88	25	0	0	0	88	156	stimuli\Videos_short_600ms_horflip\7.repeated_touch_with_hairbrush_short_horflip_short_600ms.mp4	7.repeated_touch_with_hairbrush_short_horflip_short_600ms.mp4	164.32636504847324	164.9346837659832	0.6083187175099738	n/a	n/a	n/a	n/a
139.77001953125	0.2	286249	89	25	0	0	0	89	359	stimuli\Videos_short_600ms_vertflip\90.repeated_touch_with_sponge_short_vertflip_short_600ms.mp4	90.repeated_touch_with_sponge_short_vertflip_short_600ms.mp4	165.12634903729122	165.73466804804775	0.6083190107565315	n/a	n/a	n/a	n/a
140.56982421875	0.2	287887	90	25	0	0	0	90	256	stimuli\Videos_short_600ms_horvertflip\79.long_with_soft_brush_all_over_the_hand_short_horvertflip_short_600ms.mp4	79.long_with_soft_brush_all_over_the_hand_short_horvertflip_short_600ms.mp4	165.9263168976322	166.5346496909042	0.608332793271984	n/a	n/a	n/a	n/a
141.36962890625	0.2	289525	91	25	0	0	0	91	275	stimuli\Videos_short_600ms_vertflip\14.repeated_touch_with_pencil_short_vertflip_short_600ms.mp4	14.repeated_touch_with_pencil_short_vertflip_short_600ms.mp4	166.72631554870532	167.33463250674322	0.6083169580379035	n/a	n/a	n/a	n/a
142.169921875	0.2	291164	92	25	0	0	0	92	346	stimuli\Videos_short_600ms_vertflip\79.long_with_soft_brush_all_over_the_hand_short_vertflip_short_600ms.mp4	79.long_with_soft_brush_all_over_the_hand_short_vertflip_short_600ms.mp4	167.52629279288522	168.13461796179035	0.6083251689051394	n/a	n/a	n/a	n/a
142.9697265625	0.2	292802	93	25	0	0	0	93	354	stimuli\Videos_short_600ms_vertflip\86.touch_top_to_bottom_with_hair_brush_short_vertflip_short_600ms.mp4	86.touch_top_to_bottom_with_hair_brush_short_vertflip_short_600ms.mp4	168.32625478832415	168.93459989789335	0.6083451095691998	n/a	n/a	n/a	n/a
143.76953125	0.2	294440	94	25	0	0	0	94	276	stimuli\Videos_short_600ms_vertflip\15.single_stroke_top_to_bottom_with_a_plastic_whisk_short_vertflip_short_600ms.mp4	15.single_stroke_top_to_bottom_with_a_plastic_whisk_short_vertflip_short_600ms.mp4	169.12623789740974	169.7345821272429	0.6083442298331647	n/a	n/a	n/a	n/a
144.56982421875	0.2	296079	95	25	0	0	0	95	225	stimuli\Videos_short_600ms_horvertflip\50.single_(long)hard_push_with_thumb_short_horvertflip_short_600ms.mp4	50.single_(long)hard_push_with_thumb_short_horvertflip_short_600ms.mp4	169.92625560941087	170.5345649430783	0.608309333667421	n/a	n/a	n/a	n/a
145.36962890625	0.2	297717	96	25	0	0	0	96	49	stimuli\Videos_short_600ms\54.repeated_touch_with_knife_short_short_600ms.mp4	54.repeated_touch_with_knife_short_short_600ms.mp4	170.72632962446733	171.3345495183894	0.6082198939220689	7.0	6.0	2.678763807809446	0.0
180.818359375	0.2	370316	97	25	1	0	0	0	110	stimuli\Videos_short_600ms_horflip\28.single_injection_with_sharp_needle_short_horflip_short_600ms.mp4	28.single_injection_with_sharp_needle_short_horflip_short_600ms.mp4	206.1754552703023	206.7838003798715	0.6083451095691998	n/a	n/a	n/a	n/a
181.61865234375	0.2	371955	98	25	1	0	0	1	262	stimuli\Videos_short_600ms_horvertflip\84.single_touch_with_cotton_bud_short_horvertflip_short_600ms.mp4	84.single_touch_with_cotton_bud_short_horvertflip_short_600ms.mp4	206.97546623766905	207.58378730114055	0.6083210634715215	n/a	n/a	n/a	n/a
182.41845703125	0.2	373593	99	25	1	0	0	2	195	stimuli\Videos_short_600ms_horvertflip\23.single_push_with_a_spoon_short_horvertflip_short_600ms.mp4	23.single_push_with_a_spoon_short_horvertflip_short_600ms.mp4	207.77544553456755	208.38376601154596	0.6083204769784061	n/a	n/a	n/a	n/a
183.21826171875	0.2	375231	100	25	1	0	0	3	210	stimuli\Videos_short_600ms_horvertflip\37.single_stab_with_nail_file_short_horvertflip_short_600ms.mp4	37.single_stab_with_nail_file_short_horvertflip_short_600ms.mp4	208.5754298166321	209.18374853414207	0.6083187175099738	n/a	n/a	n/a	n/a
184.0185546875	0.2	376870	101	25	1	0	0	4	175	stimuli\Videos_short_600ms_horflip\87.single_stroke_top_to_bottom_with_plastic_brush_short_horflip_short_600ms.mp4	87.single_stroke_top_to_bottom_with_plastic_brush_short_horflip_short_600ms.mp4	209.3754170311477	209.9837334026961	0.6083163715484261	n/a	n/a	n/a	n/a
184.818359375	0.2	378508	102	25	1	0	0	5	239	stimuli\Videos_short_600ms_horvertflip\63.stroke_top_to_bottom_with_screwdriver_short_horvertflip_short_600ms.mp4	63.stroke_top_to_bottom_with_screwdriver_short_horvertflip_short_600ms.mp4	210.1753977942681	210.78371856449667	0.6083207702286018	n/a	n/a	n/a	n/a
185.62646484375	0.2	380163	103	25	1	0	0	6	190	stimuli\Videos_short_600ms_horvertflip\19.single_touch_with_rolling_pin_short_horvertflip_short_600ms.mp4	19.single_touch_with_rolling_pin_short_horvertflip_short_600ms.mp4	210.98372753779404	211.59203892417645	0.608311386382411	n/a	n/a	n/a	n/a
186.4267578125	0.2	381802	104	25	1	0	0	7	255	stimuli\Videos_short_600ms_horvertflip\78.single_stroke_top_to_bottom_with_soft_brush_short_horvertflip_short_600ms.mp4	78.single_stroke_top_to_bottom_with_soft_brush_short_horvertflip_short_600ms.mp4	211.78369481164555	212.3920237927341	0.6083289810885617	n/a	n/a	n/a	n/a
187.2265625	0.2	383440	105	25	1	0	0	8	151	stimuli\Videos_short_600ms_horflip\65.stroke_top_to_bottom_with_stanley_knife_short_horflip_short_600ms.mp4	65.stroke_top_to_bottom_with_stanley_knife_short_horflip_short_600ms.mp4	212.5837515252424	213.19199898419905	0.6082474589566118	n/a	n/a	n/a	n/a
188.0263671875	0.2	385078	106	25	1	0	0	9	84	stimuli\Videos_short_600ms\86.touch_top_to_bottom_with_hair_brush_short_short_600ms.mp4	86.touch_top_to_bottom_with_hair_brush_short_short_600ms.mp4	213.38366161630256	213.9919820932846	0.6083204769820441	n/a	n/a	n/a	n/a
188.82666015625	0.2	386717	107	25	1	0	0	10	8	stimuli\Videos_short_600ms\17.repeated_touch_with_rolling_pin_short_short_600ms.mp4	17.repeated_touch_with_rolling_pin_short_short_600ms.mp4	214.1836438456521	214.79196314965156	0.6083193039994512	n/a	n/a	n/a	n/a
189.62646484375	0.2	388355	108	25	1	0	0	11	20	stimuli\Videos_short_600ms\28.single_injection_with_sharp_needle_short_short_600ms.mp4	28.single_injection_with_sharp_needle_short_short_600ms.mp4	214.9836257817551	215.5919459654906	0.6083201837354864	n/a	n/a	n/a	n/a
190.42626953125	0.2	389993	109	25	1	0	0	12	344	stimuli\Videos_short_600ms_vertflip\77.tapping_with_all_fingers_short_vertflip_short_600ms.mp4	77.tapping_with_all_fingers_short_vertflip_short_600ms.mp4	215.7836091840836	216.3919314205341	0.6083222364504763	n/a	n/a	n/a	n/a
191.2265625	0.2	391632	110	25	1	0	0	13	132	stimuli\Videos_short_600ms_horflip\48.single_slap_with_hand_short_horflip_short_600ms.mp4	48.single_slap_with_hand_short_horflip_short_600ms.mp4	216.5835741119736	217.19191423637312	0.6083401243995468	n/a	n/a	n/a	n/a
192.0263671875	0.2	393270	111	25	1	0	0	14	185	stimuli\Videos_short_600ms_horvertflip\14.repeated_touch_with_pencil_short_horvertflip_short_600ms.mp4	14.repeated_touch_with_pencil_short_horvertflip_short_600ms.mp4	217.38356015350655	217.99189499949716	0.6083348459906119	n/a	n/a	n/a	n/a
192.82666015625	0.2	394909	112	25	1	0	0	15	221	stimuli\Videos_short_600ms_horvertflip\47.(long)scratching_with_finger_nails_short_horvertflip_short_600ms.mp4	47.(long)scratching_with_finger_nails_short_horvertflip_short_600ms.mp4	218.1835643762388	218.79189365057027	0.6083292743314814	n/a	n/a	n/a	n/a
193.62646484375	0.2	396547	113	25	1	0	1	16	363	stimuli\Targets_short_600ms\finger-tap_short_short_600ms.mp4	finger-tap_short_short_600ms.mp4	218.98353839472475	219.5918626838902	0.6083242891654663	n/a	n/a	n/a	n/a
194.42626953125	0.2	398185	114	25	1	0	0	17	253	stimuli\Videos_short_600ms_horvertflip\76.tickle_with_fingers_from_top_to_bottom_short_horvertflip_short_600ms.mp4	76.tickle_with_fingers_from_top_to_bottom_short_horvertflip_short_600ms.mp4	219.7834998036742	220.39184520648269	0.6083454028084816	n/a	n/a	n/a	n/a
195.2265625	0.2	399824	115	25	1	0	0	18	322	stimuli\Videos_short_600ms_vertflip\57.single_touch_with_nail_file_short_vertflip_short_600ms.mp4	57.single_touch_with_nail_file_short_vertflip_short_600ms.mp4	220.58350725209675	221.19182890205775	0.6083216499609989	n/a	n/a	n/a	n/a
196.0263671875	0.2	401462	116	25	1	0	1	19	361	stimuli\Targets_short_600ms\chopstick-silver-tap_short_short_600ms.mp4	chopstick-silver-tap_short_short_600ms.mp4	221.3835680711236	221.99180028133924	0.6082322102156468	n/a	n/a	n/a	n/a
196.826171875	0.2	403100	117	25	1	0	0	20	214	stimuli\Videos_short_600ms_horvertflip\40.repeated_push_with_finger_short_horvertflip_short_600ms.mp4	40.repeated_push_with_finger_short_horvertflip_short_600ms.mp4	222.1834805081453	222.7917804579738	0.6082999498285062	n/a	n/a	n/a	n/a
197.62646484375	0.2	404739	118	25	1	0	0	21	119	stimuli\Videos_short_600ms_horflip\36.single_slap_with_full_hand_short_horflip_short_600ms.mp4	36.single_slap_with_full_hand_short_horflip_short_600ms.mp4	222.983482384916	223.59175506294923	0.608272678033245	n/a	n/a	n/a	n/a
198.42626953125	0.2	406377	119	25	1	0	0	22	104	stimuli\Videos_short_600ms_horflip\22.single_touch_with_metal_chopstick_short_horflip_short_600ms.mp4	22.single_touch_with_metal_chopstick_short_horflip_short_600ms.mp4	223.78344056816783	224.3917622181289	0.6083216499609989	n/a	n/a	n/a	n/a
199.22607421875	0.2	408015	120	25	1	0	0	23	10	stimuli\Videos_short_600ms\19.single_touch_with_rolling_pin_short_short_600ms.mp4	19.single_touch_with_rolling_pin_short_short_600ms.mp4	224.58342455698585	225.19172010813784	0.6082955511519685	n/a	n/a	n/a	n/a
200.0263671875	0.2	409654	121	25	1	0	0	24	296	stimuli\Videos_short_600ms_vertflip\33.scratch_top_to_bottom_with_scissors_short_vertflip_short_600ms.mp4	33.scratch_top_to_bottom_with_scissors_short_vertflip_short_600ms.mp4	225.383407959318	225.99174397828756	0.6083360189695668	n/a	n/a	n/a	n/a
200.826171875	0.2	411292	122	25	1	0	1	25	381	stimuli\Targets_short_600ms_vertflip\finger-tap_short_horvertflip_short_600ms.mp4	finger-tap_short_horvertflip_short_600ms.mp4	226.1833893089315	226.79171066564595	0.6083213567144412	n/a	n/a	n/a	n/a
201.6259765625	0.2	412930	123	25	1	0	0	26	358	stimuli\Videos_short_600ms_vertflip\9.single_touch_with_hammer_short_vertflip_short_600ms.mp4	9.single_touch_with_hammer_short_vertflip_short_600ms.mp4	226.98337271126	227.591703451817	0.608330740556994	n/a	n/a	n/a	n/a
202.42626953125	0.2	414569	124	25	1	0	0	27	223	stimuli\Videos_short_600ms_horvertflip\49.repeated_slap_with_hand_short_horvertflip_short_600ms.mp4	49.repeated_slap_with_hand_short_horvertflip_short_600ms.mp4	227.78335552709905	228.39167571083453	0.6083201837354864	n/a	n/a	n/a	n/a
203.22607421875	0.2	416207	125	25	1	0	0	28	105	stimuli\Videos_short_600ms_horflip\23.single_push_with_a_spoon_short_horflip_short_600ms.mp4	23.single_push_with_a_spoon_short_horflip_short_600ms.mp4	228.5833401024065	229.19167230919263	0.6083322067861445	n/a	n/a	n/a	n/a
204.02587890625	0.2	417845	126	25	1	0	0	29	328	stimuli\Videos_short_600ms_vertflip\62.touch_top_to_bottom_with_scissors_short_vertflip_short_600ms.mp4	62.touch_top_to_bottom_with_scissors_short_vertflip_short_600ms.mp4	229.3833232114921	229.99164398171703	0.6083207702249638	n/a	n/a	n/a	n/a
204.826171875	0.2	419484	127	25	1	0	0	30	285	stimuli\Videos_short_600ms_vertflip\23.single_push_with_a_spoon_short_vertflip_short_600ms.mp4	23.single_push_with_a_spoon_short_vertflip_short_600ms.mp4	230.1833051475951	230.79162591782008	0.6083207702249638	n/a	n/a	n/a	n/a
205.6259765625	0.2	421122	128	25	1	0	0	31	348	stimuli\Videos_short_600ms_vertflip\80.stroke_with_sharp_stick_all_over_the_hand_short_vertflip_short_600ms.mp4	80.stroke_with_sharp_stick_all_over_the_hand_short_vertflip_short_600ms.mp4	230.9832627443575	231.59160932014856	0.6083465757910744	n/a	n/a	n/a	n/a
206.42578125	0.2	422760	129	25	1	0	0	32	133	stimuli\Videos_short_600ms_horflip\49.repeated_slap_with_hand_short_horflip_short_600ms.mp4	49.repeated_slap_with_hand_short_horflip_short_600ms.mp4	231.78327136576263	232.3915933089702	0.6083219432075566	n/a	n/a	n/a	n/a
207.22607421875	0.2	424399	130	25	1	0	0	33	80	stimuli\Videos_short_600ms\82.repeated_touch_with_cotton_bud_short_short_600ms.mp4	82.repeated_touch_with_cotton_bud_short_short_600ms.mp4	232.58323805312105	233.1915755383161	0.6083374851950794	n/a	n/a	n/a	n/a
208.02587890625	0.2	426037	131	25	1	0	0	34	54	stimuli\Videos_short_600ms\59.single_push_with_long_side_pencil_short_short_600ms.mp4	59.single_push_with_long_side_pencil_short_short_600ms.mp4	233.38324638128324	233.99155776766565	0.608311386382411	n/a	n/a	n/a	n/a
208.82568359375	0.2	427675	132	25	1	0	0	35	14	stimuli\Videos_short_600ms\22.single_touch_with_metal_chopstick_short_short_600ms.mp4	22.single_touch_with_metal_chopstick_short_short_600ms.mp4	234.18323682149276	234.79153911727917	0.6083022957864159	n/a	n/a	n/a	n/a
209.6259765625	0.2	429314	133	25	1	0	0	36	19	stimuli\Videos_short_600ms\27.single_push_with_a_plastic_whisk_short_short_600ms.mp4	27.single_push_with_a_plastic_whisk_short_short_600ms.mp4	234.98320790753132	235.59152603854815	0.6083181310168584	n/a	n/a	n/a	n/a
210.42578125	0.2	430952	134	25	1	0	1	37	371	stimuli\Targets_short_600ms_horflip\hand-stroke_short_horflip_short_600ms.mp4	hand-stroke_short_horflip_short_600ms.mp4	235.7831687299877	236.39150768140823	0.6083389514205919	n/a	n/a	n/a	n/a
211.2255859375	0.2	432590	135	25	1	0	0	38	0	stimuli\Videos_short_600ms\1.repeated_touch_with_finger_fast_short_short_600ms.mp4	1.repeated_touch_with_finger_fast_short_short_600ms.mp4	236.5831961190779	237.19149137698332	0.6082952579054108	n/a	n/a	n/a	n/a
212.02587890625	0.2	434229	136	25	1	0	0	39	181	stimuli\Videos_short_600ms_horvertflip\10.single_touch_with_knife_short_horvertflip_short_600ms.mp4	10.single_touch_with_knife_short_horvertflip_short_600ms.mp4	237.38315811451685	237.99145571838017	0.6082976038633205	n/a	n/a	n/a	n/a
212.82568359375	0.2	435867	137	25	1	0	0	40	9	stimuli\Videos_short_600ms\18.single_stroke_from_top_to_bottom_with_rolling_pin_short_short_600ms.mp4	18.single_stroke_from_top_to_bottom_with_rolling_pin_short_short_600ms.mp4	238.1831453290324	238.79145554243587	0.6083102134034561	n/a	n/a	n/a	n/a
213.6259765625	0.2	437506	138	25	1	0	0	41	179	stimuli\Videos_short_600ms_horflip\90.repeated_touch_with_sponge_short_horflip_short_600ms.mp4	90.repeated_touch_with_sponge_short_horflip_short_600ms.mp4	238.9831202272544	239.5914474488709	0.6083272216164914	n/a	n/a	n/a	n/a
214.42578125	0.2	439144	139	25	1	0	0	42	174	stimuli\Videos_short_600ms_horflip\86.touch_top_to_bottom_with_hair_brush_short_horflip_short_600ms.mp4	86.touch_top_to_bottom_with_hair_brush_short_horflip_short_600ms.mp4	239.78310187011084	240.39139771450573	0.6082958443948883	n/a	n/a	n/a	n/a
215.2255859375	0.2	440782	140	25	1	0	0	43	87	stimuli\Videos_short_600ms\89.single_touch_with_plastic_brush_short_short_600ms.mp4	89.single_touch_with_plastic_brush_short_short_600ms.mp4	240.58308468594987	241.19140545617847	0.6083207702286018	n/a	n/a	n/a	n/a
216.02587890625	0.2	442421	141	25	1	0	0	44	38	stimuli\Videos_short_600ms\44.pushing_top_to_bottom_with_finger_short_short_600ms.mp4	44.pushing_top_to_bottom_with_finger_short_short_600ms.mp4	241.3830686747715	241.99139794910295	0.6083292743314814	n/a	n/a	n/a	n/a
216.82568359375	0.2	444059	142	25	1	0	0	45	339	stimuli\Videos_short_600ms_vertflip\72.(short)stroke_with_finger_all_over_the_hand_short_vertflip_short_600ms.mp4	72.(short)stroke_with_finger_all_over_the_hand_short_vertflip_short_600ms.mp4	242.18303594861936	242.7913722608355	0.6083363122161245	n/a	n/a	n/a	n/a
217.62548828125	0.2	445697	143	25	1	0	0	46	335	stimuli\Videos_short_600ms_vertflip\69.stroke_with_soft_sock_short_vertflip_short_600ms.mp4	69.stroke_with_soft_sock_short_vertflip_short_600ms.mp4	242.9830354794285	243.59135536991744	0.6083198904889286	n/a	n/a	n/a	n/a
218.42578125	0.2	447336	144	25	1	0	0	47	336	stimuli\Videos_short_600ms_vertflip\7.repeated_touch_with_hairbrush_short_vertflip_short_600ms.mp4	7.repeated_touch_with_hairbrush_short_vertflip_short_600ms.mp4	243.78301653579547	244.39134199794353	0.6083254621480592	n/a	n/a	n/a	n/a
219.2255859375	0.2	448974	145	25	1	0	0	48	62	stimuli\Videos_short_600ms\66.stroke_top_to_bottom_with_sponge_short_short_600ms.mp4	66.stroke_top_to_bottom_with_sponge_short_short_600ms.mp4	244.58299964488103	245.19132129484208	0.6083216499609989	n/a	n/a	n/a	n/a
220.025390625	0.2	450612	146	25	1	0	0	49	302	stimuli\Videos_short_600ms_vertflip\39.single_stab_with_scissors_short_vertflip_short_600ms.mp4	39.single_stab_with_scissors_short_vertflip_short_600ms.mp4	245.38298509992455	245.9913029376985	0.6083178377739387	n/a	n/a	n/a	n/a
220.82568359375	0.2	452251	147	25	1	0	0	50	7	stimuli\Videos_short_600ms\16.repeated_touch_with_plastic_brush_short_short_600ms.mp4	16.repeated_touch_with_plastic_brush_short_short_600ms.mp4	246.18296674278463	246.79128692652012	0.6083201837354864	n/a	n/a	n/a	n/a
221.62548828125	0.2	453889	148	25	1	0	0	51	21	stimuli\Videos_short_600ms\29.single_pinch_with_tweezers_short_short_600ms.mp4	29.single_pinch_with_tweezers_short_short_600ms.mp4	246.98299178591333	247.5912706220915	0.608278836178215	n/a	n/a	n/a	n/a
222.42529296875	0.2	455527	149	25	1	0	0	52	128	stimuli\Videos_short_600ms_horflip\44.pushing_top_to_bottom_with_finger_short_horflip_short_600ms.mp4	44.pushing_top_to_bottom_with_finger_short_horflip_short_600ms.mp4	247.78292299062016	248.39125490415609	0.6083319135359488	n/a	n/a	n/a	n/a
223.2255859375	0.2	457166	150	25	1	0	0	53	39	stimuli\Videos_short_600ms\45.scratching_with_finger_nails_short_short_600ms.mp4	45.scratching_with_finger_nails_short_short_600ms.mp4	248.58289935506764	249.19123654701616	0.6083371919485216	n/a	n/a	n/a	n/a
224.03369140625	0.2	458821	151	25	1	0	0	54	284	stimuli\Videos_short_600ms_vertflip\22.single_touch_with_metal_chopstick_short_vertflip_short_600ms.mp4	22.single_touch_with_metal_chopstick_short_vertflip_short_600ms.mp4	249.39124698653904	249.999553681002	0.6083066944629536	n/a	n/a	n/a	n/a
224.83349609375	0.2	460459	152	25	1	0	0	55	281	stimuli\Videos_short_600ms_vertflip\2.single_touch_with_finger_short_vertflip_short_600ms.mp4	2.single_touch_with_finger_short_vertflip_short_600ms.mp4	250.19121689959505	250.79953385763656	0.6083169580415415	n/a	n/a	n/a	n/a
225.6337890625	0.2	462098	153	25	1	0	0	56	81	stimuli\Videos_short_600ms\83.single_stroke_top_to_bottom_with_cotton_bud_short_short_600ms.mp4	83.single_stroke_top_to_bottom_with_cotton_bud_short_short_600ms.mp4	250.99119766271903	251.59952312486712	0.6083254621480592	n/a	n/a	n/a	n/a
226.43359375	0.2	463736	154	25	1	0	0	57	44	stimuli\Videos_short_600ms\5.repeated_tap_with_finger_moving_from_top_to_bottom_short_short_600ms.mp4	5.repeated_tap_with_finger_moving_from_top_to_bottom_short_short_600ms.mp4	251.79118106504757	252.39950388799116	0.6083228229435917	n/a	n/a	n/a	n/a
227.2333984375	0.2	465374	155	25	1	0	0	58	73	stimuli\Videos_short_600ms\76.tickle_with_fingers_from_top_to_bottom_short_short_600ms.mp4	76.tickle_with_fingers_from_top_to_bottom_short_short_600ms.mp4	252.59116622684817	253.1994867038302	0.6083204769820441	n/a	n/a	n/a	n/a
228.03369140625	0.2	467013	156	25	1	0	1	59	372	stimuli\Targets_short_600ms_horvertflip\brush-stroke_short_vertflip_short_600ms.mp4	brush-stroke_short_vertflip_short_600ms.mp4	253.39112382361057	253.99947245212024	0.6083486285097024	n/a	n/a	n/a	n/a
228.83349609375	0.2	468651	157	25	1	0	0	60	157	stimuli\Videos_short_600ms_horflip\70.(long)stroke_with_finger_all_over_the_hand_short_horflip_short_600ms.mp4	70.(long)stroke_with_finger_all_over_the_hand_short_horflip_short_600ms.mp4	254.1911060529601	254.79945380173376	0.6083477487736673	n/a	n/a	n/a	n/a
229.6337890625	0.2	470290	158	25	1	0	0	61	257	stimuli\Videos_short_600ms_horvertflip\8.single_touch_with_hairbrush_short_horvertflip_short_600ms.mp4	8.single_touch_with_hairbrush_short_horvertflip_short_600ms.mp4	254.99111438111868	255.5994389635307	0.608324582412024	n/a	n/a	n/a	n/a
230.43359375	0.2	471928	159	25	1	0	0	62	191	stimuli\Videos_short_600ms_horvertflip\2.single_touch_with_finger_short_horvertflip_short_600ms.mp4	2.single_touch_with_finger_short_horvertflip_short_600ms.mp4	255.79107168463815	256.3994208996337	0.6083492149955418	n/a	n/a	n/a	n/a
231.24169921875	0.2	473583	160	25	1	0	0	63	222	stimuli\Videos_short_600ms_horvertflip\48.single_slap_with_hand_short_horvertflip_short_600ms.mp4	48.single_slap_with_hand_short_horvertflip_short_600ms.mp4	256.5994339783647	257.2077362741511	0.6083022957864159	n/a	n/a	n/a	n/a
232.0419921875	0.2	475222	161	25	1	0	1	64	377	stimuli\Targets_short_600ms_horvertflip\hand-stroke_short_vertflip_short_600ms.mp4	hand-stroke_short_vertflip_short_600ms.mp4	257.39940037248016	258.0077146913136	0.6083143188334361	n/a	n/a	n/a	n/a
232.841796875	0.2	476860	162	25	1	0	0	65	28	stimuli\Videos_short_600ms\35.single_punch_with_hand_short_short_600ms.mp4	35.single_punch_with_hand_short_short_600ms.mp4	258.19936266116565	258.80769838688866	0.6083357257230091	n/a	n/a	n/a	n/a
233.6416015625	0.2	478498	163	25	1	0	0	66	31	stimuli\Videos_short_600ms\38.double_slap_with_pencil_short_short_600ms.mp4	38.double_slap_with_pencil_short_short_600ms.mp4	258.99934137157106	259.6076806162382	0.6083392446671496	n/a	n/a	n/a	n/a
234.44189453125	0.2	480137	164	25	1	0	0	67	78	stimuli\Videos_short_600ms\80.stroke_with_sharp_stick_all_over_the_hand_short_short_600ms.mp4	80.stroke_with_sharp_stick_all_over_the_hand_short_short_600ms.mp4	259.7993323982737	260.40766431180964	0.6083319135359488	n/a	n/a	n/a	n/a
235.24169921875	0.2	481775	165	25	1	0	1	68	378	stimuli\Targets_short_600ms_vertflip\brush-stroke_short_horvertflip_short_600ms.mp4	brush-stroke_short_horvertflip_short_600ms.mp4	260.5993067100062	261.2076465411592	0.6083398311529891	n/a	n/a	n/a	n/a
236.04150390625	0.2	483413	166	25	1	0	0	69	247	stimuli\Videos_short_600ms_horvertflip\70.(long)stroke_with_finger_all_over_the_hand_short_horvertflip_short_600ms.mp4	70.(long)stroke_with_finger_all_over_the_hand_short_horvertflip_short_600ms.mp4	261.3993317531349	262.0076296502448	0.6082978971098782	n/a	n/a	n/a	n/a
236.841796875	0.2	485052	167	25	1	0	0	70	61	stimuli\Videos_short_600ms\65.stroke_top_to_bottom_with_stanley_knife_short_short_600ms.mp4	65.stroke_top_to_bottom_with_stanley_knife_short_short_600ms.mp4	262.1993051851314	262.8076268350924	0.6083216499609989	n/a	n/a	n/a	n/a
237.6416015625	0.2	486690	168	25	1	0	0	71	315	stimuli\Videos_short_600ms_vertflip\50.single_(long)hard_push_with_thumb_short_vertflip_short_600ms.mp4	50.single_(long)hard_push_with_thumb_short_vertflip_short_600ms.mp4	262.9992847752728	263.6075771007272	0.6082923254543857	n/a	n/a	n/a	n/a
238.44140625	0.2	488328	169	25	1	0	0	72	149	stimuli\Videos_short_600ms_horflip\63.stroke_top_to_bottom_with_screwdriver_short_horflip_short_600ms.mp4	63.stroke_top_to_bottom_with_screwdriver_short_horflip_short_600ms.mp4	263.79926553839687	264.40758073696634	0.6083151985694712	n/a	n/a	n/a	n/a
239.24169921875	0.2	489967	170	25	1	0	0	73	325	stimuli\Videos_short_600ms_vertflip\6.single_touch_with_flat_hand_short_vertflip_short_600ms.mp4	6.single_touch_with_flat_hand_short_vertflip_short_600ms.mp4	264.59924806098934	265.2075623798264	0.6083143188370741	n/a	n/a	n/a	n/a
240.04150390625	0.2	491605	171	25	1	0	0	74	261	stimuli\Videos_short_600ms_horvertflip\83.single_stroke_top_to_bottom_with_cotton_bud_short_horvertflip_short_600ms.mp4	83.single_stroke_top_to_bottom_with_cotton_bud_short_horvertflip_short_600ms.mp4	265.3992261849089	266.0075208563212	0.6082946714122954	n/a	n/a	n/a	n/a
240.84130859375	0.2	493243	172	25	1	0	1	75	373	stimuli\Targets_short_600ms_horvertflip\chopstick-silver-tap_short_vertflip_short_600ms.mp4	chopstick-silver-tap_short_vertflip_short_600ms.mp4	266.19921046697345	266.80753622236443	0.6083257553909789	n/a	n/a	n/a	n/a
241.6416015625	0.2	494882	173	25	1	0	0	76	88	stimuli\Videos_short_600ms\9.single_touch_with_hammer_short_short_600ms.mp4	9.single_touch_with_hammer_short_short_600ms.mp4	266.99919240307645	267.6075122935654	0.6083198904889286	n/a	n/a	n/a	n/a
242.44140625	0.2	496520	174	25	1	0	0	77	114	stimuli\Videos_short_600ms_horflip\31.hand_grabbing_wrist_short_horflip_short_600ms.mp4	31.hand_grabbing_wrist_short_horflip_short_600ms.mp4	267.7991740459365	268.40750566622955	0.6083316202930291	n/a	n/a	n/a	n/a
243.2412109375	0.2	498158	175	25	1	0	0	78	197	stimuli\Videos_short_600ms_horvertflip\25.single_touch_with_stanley_knife_short_horvertflip_short_600ms.mp4	25.single_touch_with_stanley_knife_short_horvertflip_short_600ms.mp4	268.59915744826503	269.2074776320005	0.6083201837354864	n/a	n/a	n/a	n/a
244.04150390625	0.2	499797	176	25	1	0	1	79	360	stimuli\Targets_short_600ms\brush-stroke_short_short_600ms.mp4	brush-stroke_short_short_600ms.mp4	269.399142610062	270.00746191406506	0.6083193040030892	n/a	n/a	n/a	n/a
244.84130859375	0.2	501435	177	25	1	0	0	80	298	stimuli\Videos_short_600ms_vertflip\35.single_punch_with_hand_short_vertflip_short_600ms.mp4	35.single_punch_with_hand_short_vertflip_short_600ms.mp4	270.1991219069605	270.807442970432	0.6083210634715215	n/a	n/a	n/a	n/a
245.6416015625	0.2	503074	178	25	1	0	0	81	74	stimuli\Videos_short_600ms\77.tapping_with_all_fingers_short_short_600ms.mp4	77.tapping_with_all_fingers_short_short_600ms.mp4	270.9991058957821	271.6074284254755	0.6083225296933961	n/a	n/a	n/a	n/a
246.44140625	0.2	504712	179	25	1	0	0	82	94	stimuli\Videos_short_600ms_horflip\13.single_touch_with_pen_short_horflip_short_600ms.mp4	13.single_touch_with_pen_short_horflip_short_600ms.mp4	271.79909076433614	272.4074094818461	0.6083187175099738	n/a	n/a	n/a	n/a
247.2412109375	0.2	506350	180	25	1	0	0	83	170	stimuli\Videos_short_600ms_horflip\82.repeated_touch_with_cotton_bud_short_horflip_short_600ms.mp4	82.repeated_touch_with_cotton_bud_short_horflip_short_600ms.mp4	272.59907416666465	273.2073934706641	0.6083193039994512	n/a	n/a	n/a	n/a
248.04150390625	0.2	507989	181	25	1	0	0	84	211	stimuli\Videos_short_600ms_horvertflip\38.double_slap_with_pencil_short_horvertflip_short_600ms.mp4	38.double_slap_with_pencil_short_horvertflip_short_600ms.mp4	273.39905756899316	274.0073748202776	0.6083172512844612	n/a	n/a	n/a	n/a
248.84130859375	0.2	509627	182	25	1	0	0	85	353	stimuli\Videos_short_600ms_vertflip\85.touch_top_to_bottom_with_fabric_short_vertflip_short_600ms.mp4	85.touch_top_to_bottom_with_fabric_short_vertflip_short_600ms.mp4	274.19901516575555	274.80736320777214	0.608348042016587	n/a	n/a	n/a	n/a
249.64111328125	0.2	511265	183	25	1	0	0	86	280	stimuli\Videos_short_600ms_vertflip\19.single_touch_with_rolling_pin_short_vertflip_short_600ms.mp4	19.single_touch_with_rolling_pin_short_vertflip_short_600ms.mp4	274.99901733576917	275.6073404519557	0.6083231161865115	n/a	n/a	n/a	n/a
250.44140625	0.2	512904	184	25	1	0	0	87	290	stimuli\Videos_short_600ms_vertflip\28.single_injection_with_sharp_needle_short_vertflip_short_600ms.mp4	28.single_injection_with_sharp_needle_short_vertflip_short_600ms.mp4	275.7989807974336	276.4073253205097	0.6083445230760844	n/a	n/a	n/a	n/a
251.2412109375	0.2	514542	185	25	1	0	0	88	91	stimuli\Videos_short_600ms_horflip\10.single_touch_with_knife_short_horflip_short_600ms.mp4	10.single_touch_with_knife_short_horflip_short_600ms.mp4	276.5989990959242	277.2073066701232	0.6083075741989887	n/a	n/a	n/a	n/a
252.041015625	0.2	516180	186	25	1	0	0	89	217	stimuli\Videos_short_600ms_horvertflip\43.touch_top_to_bottom_with_sharp_wooden_stick_short_horvertflip_short_600ms.mp4	43.touch_top_to_bottom_with_sharp_wooden_stick_short_horvertflip_short_600ms.mp4	277.39897340765674	278.0072877264902	0.6083143188334361	n/a	n/a	n/a	n/a
252.84130859375	0.2	517819	187	25	1	0	0	90	243	stimuli\Videos_short_600ms_horvertflip\67.single_touch_with_sponge_short_horvertflip_short_600ms.mp4	67.single_touch_with_sponge_short_horvertflip_short_600ms.mp4	278.1989556370063	278.8072558800777	0.6083002430714259	n/a	n/a	n/a	n/a
253.64111328125	0.2	519457	188	25	1	0	0	91	283	stimuli\Videos_short_600ms_vertflip\21.repeated_touch_with_metal_chopstick_short_vertflip_short_600ms.mp4	21.repeated_touch_with_metal_chopstick_short_vertflip_short_600ms.mp4	278.9989451974834	279.6072571703553	0.6083119728718884	n/a	n/a	n/a	n/a
254.44091796875	0.2	521095	189	25	1	0	0	92	240	stimuli\Videos_short_600ms_horvertflip\64.repeated_touch_with_screwdriver_short_horvertflip_short_600ms.mp4	64.repeated_touch_with_screwdriver_short_horvertflip_short_600ms.mp4	279.79891804298677	280.40721506036425	0.6082970173774811	n/a	n/a	n/a	n/a
255.2412109375	0.2	522734	190	25	1	0	0	93	166	stimuli\Videos_short_600ms_horflip\79.long_with_soft_brush_all_over_the_hand_short_horflip_short_600ms.mp4	79.long_with_soft_brush_all_over_the_hand_short_horflip_short_600ms.mp4	280.59888443710224	281.20719640997777	0.6083119728755264	n/a	n/a	n/a	n/a
256.041015625	0.2	524372	191	25	1	0	0	94	171	stimuli\Videos_short_600ms_horflip\83.single_stroke_top_to_bottom_with_cotton_bud_short_horflip_short_600ms.mp4	83.single_stroke_top_to_bottom_with_cotton_bud_short_horflip_short_600ms.mp4	281.39889628420497	282.00720473813635	0.6083084539313859	n/a	n/a	n/a	n/a
256.8408203125	0.2	526010	192	25	1	0	0	95	33	stimuli\Videos_short_600ms\4.repeated_tap_with_finger_slow_short_short_600ms.mp4	4.repeated_tap_with_finger_slow_short_short_600ms.mp4	282.1988688364654	282.8071995770224	0.608330740556994	n/a	n/a	n/a	n/a
257.64111328125	0.2	527649	193	25	1	0	0	96	30	stimuli\Videos_short_600ms\37.single_stab_with_nail_file_short_short_600ms.mp4	37.single_stab_with_nail_file_short_short_600ms.mp4	282.99885106581496	283.6071750617375	0.6083239959225466	n/a	n/a	n/a	n/a
258.44091796875	0.2	529287	194	25	1	0	0	97	46	stimuli\Videos_short_600ms\51.repeated_touch_with_hammer_short_short_600ms.mp4	51.repeated_touch_with_hammer_short_short_600ms.mp4	283.7988341748969	284.4071543586324	0.6083201837354864	n/a	n/a	n/a	n/a
259.24072265625	0.2	530925	195	25	1	0	0	98	16	stimuli\Videos_short_600ms\24.single_stroke_top_to_bottom_with_a_spoon_short_short_600ms.mp4	24.single_stroke_top_to_bottom_with_a_spoon_short_short_600ms.mp4	284.59881640424646	285.20713658798195	0.6083201837354864	9.0	9.0	3.804742183332564	1.0
293.95654296875	0.2	602023	196	25	2	0	0	0	167	stimuli\Videos_short_600ms_horflip\8.single_touch_with_hairbrush_short_horflip_short_600ms.mp4	8.single_touch_with_hairbrush_short_horflip_short_600ms.mp4	319.31485723216974	319.9230472150957	0.6081899829259783	n/a	n/a	n/a	n/a
294.75634765625	0.2	603661	197	25	2	0	0	1	13	stimuli\Videos_short_600ms\21.repeated_touch_with_metal_chopstick_short_short_600ms.mp4	21.repeated_touch_with_metal_chopstick_short_short_600ms.mp4	320.11469929037776	320.72304527967935	0.608345989301597	n/a	n/a	n/a	n/a
295.556640625	0.2	605300	198	25	2	0	0	2	152	stimuli\Videos_short_600ms_horflip\66.stroke_top_to_bottom_with_sponge_short_horflip_short_600ms.mp4	66.stroke_top_to_bottom_with_sponge_short_horflip_short_600ms.mp4	320.91471934834044	321.5230289752508	0.6083096269103407	n/a	n/a	n/a	n/a
296.3564453125	0.2	606938	199	25	2	0	0	3	137	stimuli\Videos_short_600ms_horflip\52.touch_top_to_bottom_with_hammer_short_horflip_short_600ms.mp4	52.touch_top_to_bottom_with_hammer_short_horflip_short_600ms.mp4	321.7146880884138	322.3229895044642	0.6083014160503808	n/a	n/a	n/a	n/a
297.15625	0.2	608576	200	25	2	0	0	4	125	stimuli\Videos_short_600ms_horflip\41.injection_with_blunt_syringe_short_horflip_short_600ms.mp4	41.injection_with_blunt_syringe_short_horflip_short_600ms.mp4	322.51467442319336	323.1229998853414	0.6083254621480592	n/a	n/a	n/a	n/a
297.95654296875	0.2	610215	201	25	2	0	0	5	118	stimuli\Videos_short_600ms_horflip\35.single_punch_with_hand_short_horflip_short_600ms.mp4	35.single_punch_with_hand_short_horflip_short_600ms.mp4	323.314658412015	323.92298123495493	0.6083228229399538	n/a	n/a	n/a	n/a
298.75634765625	0.2	611853	202	25	2	0	0	6	352	stimuli\Videos_short_600ms_vertflip\84.single_touch_with_cotton_bud_short_vertflip_short_600ms.mp4	84.single_touch_with_cotton_bud_short_vertflip_short_600ms.mp4	324.114640348118	324.722974900862	0.6083345527440542	n/a	n/a	n/a	n/a
299.55615234375	0.2	613491	203	25	2	0	0	7	90	stimuli\Videos_short_600ms_horflip\1.repeated_touch_with_finger_fast_short_horflip_short_600ms.mp4	1.repeated_touch_with_finger_fast_short_horflip_short_600ms.mp4	324.91462287071045	325.52294305444593	0.6083201837354864	n/a	n/a	n/a	n/a
300.3564453125	0.2	615130	204	25	2	0	0	8	300	stimuli\Videos_short_600ms_vertflip\37.single_stab_with_nail_file_short_vertflip_short_600ms.mp4	37.single_stab_with_nail_file_short_vertflip_short_600ms.mp4	325.7146065662855	326.32292440405945	0.6083178377739387	n/a	n/a	n/a	n/a
301.15625	0.2	616768	205	25	2	0	0	9	144	stimuli\Videos_short_600ms_horflip\59.single_push_with_long_side_pencil_short_horflip_short_600ms.mp4	59.single_push_with_long_side_pencil_short_horflip_short_600ms.mp4	326.514587915899	327.12286733857036	0.6082794226713304	n/a	n/a	n/a	n/a
301.9560546875	0.2	618406	206	25	2	0	0	10	136	stimuli\Videos_short_600ms_horflip\51.repeated_touch_with_hammer_short_horflip_short_600ms.mp4	51.repeated_touch_with_hammer_short_horflip_short_600ms.mp4	327.3145912588916	327.922895607393	0.6083043485014059	n/a	n/a	n/a	n/a
302.75634765625	0.2	620045	207	25	2	0	0	11	121	stimuli\Videos_short_600ms_horflip\38.double_slap_with_pencil_short_horflip_short_600ms.mp4	38.double_slap_with_pencil_short_horflip_short_600ms.mp4	328.11480163290616	328.7229156653557	0.6081140324495209	n/a	n/a	n/a	n/a
303.55615234375	0.2	621683	208	25	2	0	0	12	323	stimuli\Videos_short_600ms_vertflip\58.single_slap_with_pencil_short_vertflip_short_600ms.mp4	58.single_slap_with_pencil_short_vertflip_short_600ms.mp4	328.91451349030103	329.5228580133771	0.6083445230760844	n/a	n/a	n/a	n/a
304.35595703125	0.2	623321	209	25	2	0	0	13	188	stimuli\Videos_short_600ms_horvertflip\17.repeated_touch_with_rolling_pin_short_horvertflip_short_600ms.mp4	17.repeated_touch_with_rolling_pin_short_horvertflip_short_600ms.mp4	329.7145188860086	330.32284112245907	0.6083222364504763	n/a	n/a	n/a	n/a
305.15625	0.2	624960	210	25	2	0	0	14	106	stimuli\Videos_short_600ms_horflip\24.single_stroke_top_to_bottom_with_a_spoon_short_horflip_short_600ms.mp4	24.single_stroke_top_to_bottom_with_a_spoon_short_horflip_short_600ms.mp4	330.5144791219791	331.1228224720726	0.6083433500934916	n/a	n/a	n/a	n/a
305.9560546875	0.2	626598	211	25	2	0	0	15	318	stimuli\Videos_short_600ms_vertflip\53.touch_top_to_bottom_with_knife_short_vertflip_short_600ms.mp4	53.touch_top_to_bottom_with_knife_short_vertflip_short_600ms.mp4	331.3144666297376	331.9228067541371	0.6083401243995468	n/a	n/a	n/a	n/a
306.755859375	0.2	628236	212	25	2	0	0	16	250	stimuli\Videos_short_600ms_horvertflip\73.single_stroke_with_flat_hand_short_horvertflip_short_600ms.mp4	73.single_stroke_with_flat_hand_short_horvertflip_short_600ms.mp4	332.1144661605467	332.7227904497122	0.6083242891654663	n/a	n/a	n/a	n/a
307.55615234375	0.2	629875	213	25	2	0	0	17	145	stimuli\Videos_short_600ms_horflip\6.single_touch_with_flat_hand_short_horflip_short_600ms.mp4	6.single_touch_with_flat_hand_short_horflip_short_600ms.mp4	332.91445132234367	333.52277267906175	0.6083213567180792	n/a	n/a	n/a	n/a
308.35595703125	0.2	631513	214	25	2	0	0	18	65	stimuli\Videos_short_600ms\69.stroke_with_soft_sock_short_short_600ms.mp4	69.stroke_with_soft_sock_short_short_600ms.mp4	333.71444352202525	334.32274640430114	0.6083028822758934	n/a	n/a	n/a	n/a
309.15576171875	0.2	633151	215	25	2	0	0	19	293	stimuli\Videos_short_600ms_vertflip\30.finger_pulling_back_another_finger_short_vertflip_short_600ms.mp4	30.finger_pulling_back_another_finger_short_vertflip_short_600ms.mp4	334.51443044329426	335.1227133849061	0.6082829416118329	n/a	n/a	n/a	n/a
309.9560546875	0.2	634790	216	25	2	0	0	20	72	stimuli\Videos_short_600ms\75.(long)stroke_with_fingers_all_over_the_hand_short_short_600ms.mp4	75.(long)stroke_with_fingers_all_over_the_hand_short_short_600ms.mp4	335.31440094284335	335.92270177240425	0.6083008295609034	n/a	n/a	n/a	n/a
310.755859375	0.2	636428	217	25	2	0	0	21	331	stimuli\Videos_short_600ms_vertflip\65.stroke_top_to_bottom_with_stanley_knife_short_vertflip_short_600ms.mp4	65.stroke_top_to_bottom_with_stanley_knife_short_vertflip_short_600ms.mp4	336.11439138305286	336.72268165579226	0.6082902727393957	n/a	n/a	n/a	n/a
311.5556640625	0.2	638066	218	25	2	0	0	22	337	stimuli\Videos_short_600ms_vertflip\70.(long)stroke_with_finger_all_over_the_hand_short_vertflip_short_600ms.mp4	70.(long)stroke_with_finger_all_over_the_hand_short_vertflip_short_600ms.mp4	336.91436686776433	337.52268323931276	0.6083163715484261	n/a	n/a	n/a	n/a
312.35595703125	0.2	639705	219	25	2	0	0	23	227	stimuli\Videos_short_600ms_horvertflip\52.touch_top_to_bottom_with_hammer_short_horvertflip_short_600ms.mp4	52.touch_top_to_bottom_with_hammer_short_horvertflip_short_600ms.mp4	337.7143485106244	338.3226774917093	0.6083289810849237	n/a	n/a	n/a	n/a
313.15576171875	0.2	641343	220	25	2	0	0	24	176	stimuli\Videos_short_600ms_horflip\88.repeated_stroke_with_plastic_brush_short_horflip_short_600ms.mp4	88.repeated_stroke_with_plastic_brush_short_horflip_short_600ms.mp4	338.51433279268895	339.12265649536494	0.6083237026759889	n/a	n/a	n/a	n/a
313.9560546875	0.2	642982	221	25	2	0	0	25	326	stimuli\Videos_short_600ms_vertflip\60.single_push_with_tip_of_pencil_short_vertflip_short_600ms.mp4	60.single_push_with_tip_of_pencil_short_vertflip_short_600ms.mp4	339.3142880434898	339.922645176106	0.60835713261622	n/a	n/a	n/a	n/a
314.755859375	0.2	644620	222	25	2	0	0	26	341	stimuli\Videos_short_600ms_vertflip\74.fingers_walking_from_top_to_bottom_short_vertflip_short_600ms.mp4	74.fingers_walking_from_top_to_bottom_short_vertflip_short_600ms.mp4	340.1142969581415	340.72261831485594	0.6083213567144412	n/a	n/a	n/a	n/a
315.5556640625	0.2	646258	223	25	2	0	0	27	249	stimuli\Videos_short_600ms_horvertflip\72.(short)stroke_with_finger_all_over_the_hand_short_horvertflip_short_600ms.mp4	72.(short)stroke_with_finger_all_over_the_hand_short_horvertflip_short_600ms.mp4	340.914278307755	341.52260025095893	0.6083219432039186	n/a	n/a	n/a	n/a
316.35595703125	0.2	647897	224	25	2	0	0	28	153	stimuli\Videos_short_600ms_horflip\67.single_touch_with_sponge_short_horflip_short_600ms.mp4	67.single_touch_with_sponge_short_horflip_short_600ms.mp4	341.71426405604143	342.32258306679796	0.6083190107565315	n/a	n/a	n/a	n/a
317.15576171875	0.2	649535	225	25	2	0	0	29	99	stimuli\Videos_short_600ms_horflip\18.single_stroke_from_top_to_bottom_with_rolling_pin_short_horflip_short_600ms.mp4	18.single_stroke_from_top_to_bottom_with_rolling_pin_short_horflip_short_600ms.mp4	342.5142474583736	343.12256705561595	0.608319597242371	n/a	n/a	n/a	n/a
317.95556640625	0.2	651173	226	25	2	0	0	30	192	stimuli\Videos_short_600ms_horvertflip\20.single_touch_with_screwdriver_short_horvertflip_short_600ms.mp4	20.single_touch_with_screwdriver_short_horvertflip_short_600ms.mp4	343.31423496613206	343.92254811198654	0.6083131458544813	n/a	n/a	n/a	n/a
318.755859375	0.2	652812	227	25	2	0	0	31	140	stimuli\Videos_short_600ms_horflip\55.touch_top_to_bottom_with_nail_file_short_horflip_short_600ms.mp4	55.touch_top_to_bottom_with_nail_file_short_horflip_short_600ms.mp4	344.1142125035585	344.7225312210685	0.6083187175099738	n/a	n/a	n/a	n/a
319.5556640625	0.2	654450	228	25	2	0	0	32	319	stimuli\Videos_short_600ms_vertflip\54.repeated_touch_with_knife_short_vertflip_short_600ms.mp4	54.repeated_touch_with_knife_short_vertflip_short_600ms.mp4	344.914178897674	345.52251462340064	0.6083357257266471	n/a	n/a	n/a	n/a
320.35546875	0.2	656088	229	25	2	0	0	33	279	stimuli\Videos_short_600ms_vertflip\18.single_stroke_from_top_to_bottom_with_rolling_pin_short_vertflip_short_600ms.mp4	18.single_stroke_from_top_to_bottom_with_rolling_pin_short_vertflip_short_600ms.mp4	345.71415291615995	346.3224991987081	0.6083462825481547	n/a	n/a	n/a	n/a
321.15576171875	0.2	657727	230	25	2	0	0	34	41	stimuli\Videos_short_600ms\47.(long)scratching_with_finger_nails_short_short_600ms.mp4	47.(long)scratching_with_finger_nails_short_short_600ms.mp4	346.5141624173011	347.12248201454713	0.6083195972460089	n/a	n/a	n/a	n/a
321.95556640625	0.2	659365	231	25	2	0	0	35	111	stimuli\Videos_short_600ms_horflip\29.single_pinch_with_tweezers_short_horflip_short_600ms.mp4	29.single_pinch_with_tweezers_short_horflip_short_600ms.mp4	347.3141191343275	347.9224639506501	0.6083448163226421	n/a	n/a	n/a	n/a
322.75537109375	0.2	661003	232	25	2	0	0	36	103	stimuli\Videos_short_600ms_horflip\21.repeated_touch_with_metal_chopstick_short_horflip_short_600ms.mp4	21.repeated_touch_with_metal_chopstick_short_horflip_short_600ms.mp4	348.11412980845125	348.72244383403813	0.6083140255868784	n/a	n/a	n/a	n/a
323.5556640625	0.2	662642	233	25	2	0	0	37	232	stimuli\Videos_short_600ms_horvertflip\57.single_touch_with_nail_file_short_horvertflip_short_600ms.mp4	57.single_touch_with_nail_file_short_horvertflip_short_600ms.mp4	348.91411174455425	349.52241404034066	0.6083022957864159	n/a	n/a	n/a	n/a
324.35546875	0.2	664280	234	25	2	0	0	38	218	stimuli\Videos_short_600ms_horvertflip\44.pushing_top_to_bottom_with_finger_short_horvertflip_short_600ms.mp4	44.pushing_top_to_bottom_with_finger_short_horvertflip_short_600ms.mp4	349.7141010117848	350.32239392372867	0.6082929119438631	n/a	n/a	n/a	n/a
325.1552734375	0.2	665918	235	25	2	0	0	39	126	stimuli\Videos_short_600ms_horflip\42.single_slap_with_plastic_whisk_short_horflip_short_600ms.mp4	42.single_slap_with_plastic_whisk_short_horflip_short_600ms.mp4	350.5140741505347	351.12237028817617	0.608296137641446	n/a	n/a	n/a	n/a
325.95556640625	0.2	667557	236	25	2	0	0	40	22	stimuli\Videos_short_600ms\3.single_push_with_finger_short_short_600ms.mp4	3.single_push_with_finger_short_short_600ms.mp4	351.31406107180374	351.9223794960708	0.6083184242670541	n/a	n/a	n/a	n/a
326.75537109375	0.2	669195	237	25	2	0	0	41	102	stimuli\Videos_short_600ms_horflip\20.single_touch_with_screwdriver_short_horflip_short_600ms.mp4	20.single_touch_with_screwdriver_short_horflip_short_600ms.mp4	352.11403890247675	352.72233621309715	0.6082973106204008	n/a	n/a	n/a	n/a
327.55517578125	0.2	670833	238	25	2	0	0	42	324	stimuli\Videos_short_600ms_vertflip\59.single_push_with_long_side_pencil_short_vertflip_short_600ms.mp4	59.single_push_with_long_side_pencil_short_vertflip_short_600ms.mp4	352.9140246507668	353.52234659397436	0.6083219432075566	n/a	n/a	n/a	n/a
328.35546875	0.2	672472	239	25	2	0	0	43	349	stimuli\Videos_short_600ms_vertflip\81.single_stroke_top_to_bottom_with_cotton_pad_short_vertflip_short_600ms.mp4	81.single_stroke_top_to_bottom_with_cotton_pad_short_vertflip_short_600ms.mp4	353.71400834634187	354.3223332219968	0.6083248756549438	n/a	n/a	n/a	n/a
329.1552734375	0.2	674110	240	25	2	0	0	44	147	stimuli\Videos_short_600ms_horflip\61.single_hit_with_rolling_pin_short_horflip_short_600ms.mp4	61.single_hit_with_rolling_pin_short_horflip_short_600ms.mp4	354.5139899891983	355.1223177973079	0.6083278081096068	n/a	n/a	n/a	n/a
329.955078125	0.2	675748	241	25	2	0	0	45	236	stimuli\Videos_short_600ms_horvertflip\60.single_push_with_tip_of_pencil_short_horvertflip_short_600ms.mp4	60.single_push_with_tip_of_pencil_short_horvertflip_short_600ms.mp4	355.31397075232235	355.9222941617554	0.6083234094330692	n/a	n/a	n/a	n/a
330.75537109375	0.2	677387	242	25	2	0	0	46	59	stimuli\Videos_short_600ms\63.stroke_top_to_bottom_with_screwdriver_short_short_600ms.mp4	63.stroke_top_to_bottom_with_screwdriver_short_short_600ms.mp4	356.1139570871019	356.7222335773222	0.6082764902203053	n/a	n/a	n/a	n/a
331.55517578125	0.2	679025	243	25	2	0	0	47	270	stimuli\Videos_short_600ms_vertflip\1.repeated_touch_with_finger_fast_short_vertflip_short_600ms.mp4	1.repeated_touch_with_finger_fast_short_vertflip_short_600ms.mp4	356.9139381434725	357.5222577407185	0.6083195972460089	n/a	n/a	n/a	n/a
332.35498046875	0.2	680663	244	25	2	0	0	48	34	stimuli\Videos_short_600ms\40.repeated_push_with_finger_short_short_600ms.mp4	40.repeated_push_with_finger_short_short_600ms.mp4	357.7139200795755	358.322239090332	0.6083190107565315	n/a	n/a	n/a	n/a
333.1552734375	0.2	682302	245	25	2	0	0	49	246	stimuli\Videos_short_600ms_horvertflip\7.repeated_touch_with_hairbrush_short_horvertflip_short_600ms.mp4	7.repeated_touch_with_hairbrush_short_horvertflip_short_600ms.mp4	358.513902308925	359.12222307915	0.6083207702249638	n/a	n/a	n/a	n/a
333.955078125	0.2	683940	246	25	2	0	0	50	235	stimuli\Videos_short_600ms_horvertflip\6.single_touch_with_flat_hand_short_horvertflip_short_600ms.mp4	6.single_touch_with_flat_hand_short_horvertflip_short_600ms.mp4	359.31389626807504	359.922205894989	0.6083096269139787	n/a	n/a	n/a	n/a
334.75537109375	0.2	685579	247	25	2	0	0	51	50	stimuli\Videos_short_600ms\55.touch_top_to_bottom_with_nail_file_short_short_600ms.mp4	55.touch_top_to_bottom_with_nail_file_short_short_600ms.mp4	360.11385122563297	360.7221887108281	0.6083374851950794	n/a	n/a	n/a	n/a
335.55517578125	0.2	687217	248	25	2	0	0	52	233	stimuli\Videos_short_600ms_horvertflip\58.single_slap_with_pencil_short_horvertflip_short_600ms.mp4	58.single_slap_with_pencil_short_horvertflip_short_600ms.mp4	360.9138275900805	361.5221738726286	0.6083462825481547	n/a	n/a	n/a	n/a
336.35498046875	0.2	688855	249	25	2	0	0	53	304	stimuli\Videos_short_600ms_vertflip\40.repeated_push_with_finger_short_vertflip_short_600ms.mp4	40.repeated_push_with_finger_short_vertflip_short_600ms.mp4	361.71381128565554	362.32215522224215	0.608343936586607	n/a	n/a	n/a	n/a
337.1552734375	0.2	690494	250	25	2	0	0	54	69	stimuli\Videos_short_600ms\72.(short)stroke_with_finger_all_over_the_hand_short_short_600ms.mp4	72.(short)stroke_with_finger_all_over_the_hand_short_short_600ms.mp4	362.5137943947375	363.1221392110602	0.6083448163226421	n/a	n/a	n/a	n/a
337.955078125	0.2	692132	251	25	2	0	0	55	47	stimuli\Videos_short_600ms\52.touch_top_to_bottom_with_hammer_short_short_600ms.mp4	52.touch_top_to_bottom_with_hammer_short_short_600ms.mp4	363.3137945120361	363.9221196809376	0.6083251689015015	n/a	n/a	n/a	n/a
338.7548828125	0.2	693770	252	25	2	0	0	56	116	stimuli\Videos_short_600ms_horflip\33.scratch_top_to_bottom_with_scissors_short_horflip_short_600ms.mp4	33.scratch_top_to_bottom_with_scissors_short_horflip_short_600ms.mp4	364.11379345635214	364.7220875412786	0.608294084926456	n/a	n/a	n/a	n/a
339.55517578125	0.2	695409	253	25	2	0	0	57	266	stimuli\Videos_short_600ms_horvertflip\88.repeated_stroke_with_plastic_brush_short_horvertflip_short_600ms.mp4	88.repeated_stroke_with_plastic_brush_short_horvertflip_short_600ms.mp4	364.9137792046422	365.52206977062815	0.6082905659859534	n/a	n/a	n/a	n/a
340.35498046875	0.2	697047	254	25	2	0	0	58	272	stimuli\Videos_short_600ms_vertflip\11.single_touch_with_lighter_short_vertflip_short_600ms.mp4	11.single_touch_with_lighter_short_vertflip_short_600ms.mp4	365.7137497041877	366.3220701811697	0.6083204769820441	n/a	n/a	n/a	n/a
341.15478515625	0.2	698685	255	25	2	0	0	59	173	stimuli\Videos_short_600ms_horflip\85.touch_top_to_bottom_with_fabric_short_horflip_short_600ms.mp4	85.touch_top_to_bottom_with_fabric_short_horflip_short_600ms.mp4	366.5137407308903	367.1220521172727	0.608311386382411	n/a	n/a	n/a	n/a
341.955078125	0.2	700324	256	25	2	0	0	60	2	stimuli\Videos_short_600ms\11.single_touch_with_lighter_short_short_600ms.mp4	11.single_touch_with_lighter_short_short_600ms.mp4	367.31371474937623	367.9220111802606	0.6082964308843657	n/a	n/a	n/a	n/a
342.7548828125	0.2	701962	257	25	2	0	1	61	364	stimuli\Targets_short_600ms\hand-pinch_short_short_600ms.mp4	hand-pinch_short_short_600ms.mp4	368.11412922195814	368.7220485396829	0.6079193177247362	n/a	n/a	n/a	n/a
343.5546875	0.2	703600	258	25	2	0	0	62	77	stimuli\Videos_short_600ms\8.single_touch_with_hairbrush_short_short_600ms.mp4	8.single_touch_with_hairbrush_short_short_600ms.mp4	368.9136803810543	369.5220334082369	0.6083530271826021	n/a	n/a	n/a	n/a
344.35498046875	0.2	705239	259	25	2	0	0	63	234	stimuli\Videos_short_600ms_horvertflip\59.single_push_with_long_side_pencil_short_horvertflip_short_600ms.mp4	59.single_push_with_long_side_pencil_short_horvertflip_short_600ms.mp4	369.7136678888164	370.32199276447136	0.6083248756549438	n/a	n/a	n/a	n/a
345.15478515625	0.2	706877	260	25	2	0	0	64	57	stimuli\Videos_short_600ms\61.single_hit_with_rolling_pin_short_short_600ms.mp4	61.single_hit_with_rolling_pin_short_short_600ms.mp4	370.51364396001736	371.12196619646784	0.6083222364504763	n/a	n/a	n/a	n/a
345.95458984375	0.2	708515	261	25	2	0	0	65	45	stimuli\Videos_short_600ms\50.single_(long)hard_push_with_thumb_short_short_600ms.mp4	50.single_(long)hard_push_with_thumb_short_short_600ms.mp4	371.31363000155034	371.9219610353539	0.6083310338035517	n/a	n/a	n/a	n/a
346.7548828125	0.2	710154	262	25	2	0	0	66	1	stimuli\Videos_short_600ms\10.single_touch_with_knife_short_short_600ms.mp4	10.single_touch_with_knife_short_short_600ms.mp4	372.1136107646744	372.7219332943714	0.608322529697034	n/a	n/a	n/a	n/a
347.5546875	0.2	711792	263	25	2	0	0	67	204	stimuli\Videos_short_600ms_horvertflip\31.hand_grabbing_wrist_short_horvertflip_short_600ms.mp4	31.hand_grabbing_wrist_short_horvertflip_short_600ms.mp4	372.9135953399855	373.5219149372315	0.6083195972460089	n/a	n/a	n/a	n/a
348.3544921875	0.2	713430	264	25	2	0	0	68	264	stimuli\Videos_short_600ms_horvertflip\86.touch_top_to_bottom_with_hair_brush_short_horvertflip_short_600ms.mp4	86.touch_top_to_bottom_with_hair_brush_short_horvertflip_short_600ms.mp4	373.7135769828419	374.3218977530669	0.6083207702249638	n/a	n/a	n/a	n/a
349.15478515625	0.2	715069	265	25	2	0	0	69	97	stimuli\Videos_short_600ms_horflip\16.repeated_touch_with_plastic_brush_short_horflip_short_600ms.mp4	16.repeated_touch_with_plastic_brush_short_horflip_short_600ms.mp4	374.5135603851704	375.1218805689059	0.6083201837354864	n/a	n/a	n/a	n/a
349.95458984375	0.2	716707	266	25	2	0	0	70	180	stimuli\Videos_short_600ms_horvertflip\1.repeated_touch_with_finger_fast_short_horvertflip_short_600ms.mp4	1.repeated_touch_with_finger_fast_short_horvertflip_short_600ms.mp4	375.3135241400814	375.92186250501254	0.6083383649311145	n/a	n/a	n/a	n/a
350.75439453125	0.2	718345	267	25	2	0	0	71	29	stimuli\Videos_short_600ms\36.single_slap_with_full_hand_short_short_600ms.mp4	36.single_slap_with_full_hand_short_short_600ms.mp4	376.11355622109113	376.7218453208516	0.6082890997604409	n/a	n/a	n/a	n/a
351.5546875	0.2	719984	268	25	2	0	0	72	224	stimuli\Videos_short_600ms_horvertflip\5.repeated_tap_with_finger_moving_from_top_to_bottom_short_horvertflip_short_600ms.mp4	5.repeated_tap_with_finger_moving_from_top_to_bottom_short_horvertflip_short_600ms.mp4	376.91350619348304	377.5218304826485	0.6083242891654663	n/a	n/a	n/a	n/a
352.3544921875	0.2	721622	269	25	2	0	0	73	287	stimuli\Videos_short_600ms_vertflip\25.single_touch_with_stanley_knife_short_vertflip_short_600ms.mp4	25.single_touch_with_stanley_knife_short_vertflip_short_600ms.mp4	377.71348754309656	378.3218121255086	0.608324582412024	n/a	n/a	n/a	n/a
353.15478515625	0.2	723261	270	25	2	0	0	74	178	stimuli\Videos_short_600ms_horflip\9.single_touch_with_hammer_short_horflip_short_600ms.mp4	9.single_touch_with_hammer_short_horflip_short_600ms.mp4	378.51346244131855	379.12179523459054	0.608332793271984	n/a	n/a	n/a	n/a
353.95458984375	0.2	724899	271	25	2	0	0	75	330	stimuli\Videos_short_600ms_vertflip\64.repeated_touch_with_screwdriver_short_vertflip_short_600ms.mp4	64.repeated_touch_with_screwdriver_short_vertflip_short_600ms.mp4	379.31345815994064	379.9217798099016	0.6083216499609989	n/a	n/a	n/a	n/a
354.75439453125	0.2	726537	272	25	2	0	0	76	212	stimuli\Videos_short_600ms_horvertflip\39.single_stab_with_scissors_short_horvertflip_short_600ms.mp4	39.single_stab_with_scissors_short_horvertflip_short_600ms.mp4	380.11344156226914	380.7217420985835	0.6083005363143457	n/a	n/a	n/a	n/a
355.5546875	0.2	728176	273	25	2	0	0	77	75	stimuli\Videos_short_600ms\78.single_stroke_top_to_bottom_with_soft_brush_short_short_600ms.mp4	78.single_stroke_top_to_bottom_with_soft_brush_short_short_600ms.mp4	380.91342291188266	381.5217422158821	0.6083193039994512	n/a	n/a	n/a	n/a
356.3544921875	0.2	729814	274	25	2	0	0	78	95	stimuli\Videos_short_600ms_horflip\14.repeated_touch_with_pencil_short_horflip_short_600ms.mp4	14.repeated_touch_with_pencil_short_horflip_short_600ms.mp4	381.7134107128877	382.32170186536314	0.6082911524754309	n/a	n/a	n/a	n/a
357.154296875	0.2	731452	275	25	2	0	0	79	100	stimuli\Videos_short_600ms_horflip\19.single_touch_with_rolling_pin_short_horflip_short_600ms.mp4	19.single_touch_with_rolling_pin_short_horflip_short_600ms.mp4	382.51338825031416	383.1217040353767	0.6083157850625867	n/a	n/a	n/a	n/a
357.95458984375	0.2	733091	276	25	2	0	0	80	265	stimuli\Videos_short_600ms_horvertflip\87.single_stroke_top_to_bottom_with_plastic_brush_short_horvertflip_short_600ms.mp4	87.single_stroke_top_to_bottom_with_plastic_brush_short_horvertflip_short_600ms.mp4	383.3133739986042	383.9216918363818	0.6083178377775766	n/a	n/a	n/a	n/a
358.75439453125	0.2	734729	277	25	2	0	0	81	56	stimuli\Videos_short_600ms\60.single_push_with_tip_of_pencil_short_short_600ms.mp4	60.single_push_with_tip_of_pencil_short_short_600ms.mp4	384.1133518292773	384.7216805171192	0.608328687842004	n/a	n/a	n/a	n/a
359.55419921875	0.2	736367	278	25	2	0	0	82	117	stimuli\Videos_short_600ms_horflip\34.repeated_punch_with_hand_short_horflip_short_600ms.mp4	34.repeated_punch_with_hand_short_horflip_short_600ms.mp4	384.91333669783126	385.5216677316348	0.6083310338035517	n/a	n/a	n/a	n/a
360.3544921875	0.2	738006	279	25	2	0	0	83	17	stimuli\Videos_short_600ms\25.single_touch_with_stanley_knife_short_short_600ms.mp4	25.single_touch_with_stanley_knife_short_short_600ms.mp4	385.7133183406914	386.3216391109163	0.6083207702249638	n/a	n/a	n/a	n/a
361.154296875	0.2	739644	280	25	2	0	0	84	231	stimuli\Videos_short_600ms_horvertflip\56.repeated_touch_with_nail_file_short_horvertflip_short_600ms.mp4	56.repeated_touch_with_nail_file_short_horvertflip_short_600ms.mp4	386.5133029159988	387.1216236862274	0.6083207702286018	n/a	n/a	n/a	n/a
361.9541015625	0.2	741282	281	25	2	0	0	85	134	stimuli\Videos_short_600ms_horflip\5.repeated_tap_with_finger_moving_from_top_to_bottom_short_horflip_short_600ms.mp4	5.repeated_tap_with_finger_moving_from_top_to_bottom_short_horflip_short_600ms.mp4	387.3133047927695	387.9216047425943	0.6082999498248682	n/a	n/a	n/a	n/a
362.75439453125	0.2	742921	282	25	2	0	0	86	6	stimuli\Videos_short_600ms\15.single_stroke_top_to_bottom_with_a_plastic_whisk_short_short_600ms.mp4	15.single_stroke_top_to_bottom_with_a_plastic_whisk_short_short_600ms.mp4	388.11326649496186	388.72158873141234	0.6083222364504763	n/a	n/a	n/a	n/a
363.55419921875	0.2	744559	283	25	2	0	0	87	98	stimuli\Videos_short_600ms_horflip\17.repeated_touch_with_rolling_pin_short_horflip_short_600ms.mp4	17.repeated_touch_with_rolling_pin_short_horflip_short_600ms.mp4	388.9132534162309	389.5215689080469	0.608315491816029	n/a	n/a	n/a	n/a
364.35400390625	0.2	746197	284	25	2	0	0	88	291	stimuli\Videos_short_600ms_vertflip\29.single_pinch_with_tweezers_short_vertflip_short_600ms.mp4	29.single_pinch_with_tweezers_short_vertflip_short_600ms.mp4	389.71323505909095	390.3215549495799	0.6083198904889286	n/a	n/a	n/a	n/a
365.154296875	0.2	747836	285	25	2	0	1	89	383	stimuli\Targets_short_600ms_vertflip\hand-stroke_short_horvertflip_short_600ms.mp4	hand-stroke_short_horvertflip_short_600ms.mp4	390.51320937082346	391.121535419461	0.6083260486375366	n/a	n/a	n/a	n/a
365.9541015625	0.2	749474	286	25	2	0	0	90	286	stimuli\Videos_short_600ms_vertflip\24.single_stroke_top_to_bottom_with_a_spoon_short_vertflip_short_600ms.mp4	24.single_stroke_top_to_bottom_with_a_spoon_short_vertflip_short_600ms.mp4	391.3131798703689	391.92151970152554	0.608339831156627	n/a	n/a	n/a	n/a
366.75390625	0.2	751112	287	25	2	0	0	91	189	stimuli\Videos_short_600ms_horvertflip\18.single_stroke_from_top_to_bottom_with_rolling_pin_short_horvertflip_short_600ms.mp4	18.single_stroke_from_top_to_bottom_with_rolling_pin_short_horvertflip_short_600ms.mp4	392.113183506608	392.72150163762853	0.6083181310204964	2.0	2.0	1.5930984186161368	1.0
400.15283203125	0.2	819513	288	25	3	0	1	0	366	stimuli\Targets_short_600ms_horflip\brush-stroke_short_horflip_short_600ms.mp4	brush-stroke_short_horflip_short_600ms.mp4	425.51314602988714	426.12078148638466	0.607635456497519	n/a	n/a	n/a	n/a
400.953125	0.2	821152	289	25	3	0	0	1	3	stimuli\Videos_short_600ms\12.repeated_touch_with_nail_file_short_short_600ms.mp4	12.repeated_touch_with_nail_file_short_short_600ms.mp4	426.3125235879015	426.9207384966576	0.6082149087560538	n/a	n/a	n/a	n/a
401.7529296875	0.2	822790	290	25	3	0	0	2	301	stimuli\Videos_short_600ms_vertflip\38.double_slap_with_pencil_short_vertflip_short_600ms.mp4	38.double_slap_with_pencil_short_vertflip_short_600ms.mp4	427.1124269343272	427.7207204327606	0.6082934984333406	n/a	n/a	n/a	n/a
402.552734375	0.2	824428	291	25	3	0	0	3	131	stimuli\Videos_short_600ms_horflip\47.(long)scratching_with_finger_nails_short_horflip_short_600ms.mp4	47.(long)scratching_with_finger_nails_short_horflip_short_600ms.mp4	427.91240857718367	428.52072670820417	0.6083181310204964	n/a	n/a	n/a	n/a
403.35302734375	0.2	826067	292	25	3	0	0	4	288	stimuli\Videos_short_600ms_vertflip\26.single_touch_with_a_blunt_syringe_short_vertflip_short_600ms.mp4	26.single_touch_with_a_blunt_syringe_short_vertflip_short_600ms.mp4	428.7123934457377	429.32071216324766	0.6083187175099738	n/a	n/a	n/a	n/a
404.15283203125	0.2	827705	293	25	3	0	0	5	25	stimuli\Videos_short_600ms\32.single_(long)pinch_with_fingers_short_short_600ms.mp4	32.single_(long)pinch_with_fingers_short_short_600ms.mp4	429.5123756750872	430.1206976182948	0.6083219432075566	n/a	n/a	n/a	n/a
404.95263671875	0.2	829343	294	25	3	0	0	6	51	stimuli\Videos_short_600ms\56.repeated_touch_with_nail_file_short_short_600ms.mp4	56.repeated_touch_with_nail_file_short_short_600ms.mp4	430.3123573179473	430.9206783814152	0.6083210634678835	n/a	n/a	n/a	n/a
405.7529296875	0.2	830982	295	25	3	0	0	7	334	stimuli\Videos_short_600ms_vertflip\68.stroke_top_to_bottom_with_shawl_short_vertflip_short_600ms.mp4	68.stroke_top_to_bottom_with_shawl_short_vertflip_short_600ms.mp4	431.112359487961	431.7206594377858	0.6082999498248682	n/a	n/a	n/a	n/a
406.552734375	0.2	832620	296	25	3	0	0	8	355	stimuli\Videos_short_600ms_vertflip\87.single_stroke_top_to_bottom_with_plastic_brush_short_vertflip_short_600ms.mp4	87.single_stroke_top_to_bottom_with_plastic_brush_short_vertflip_short_600ms.mp4	431.91232206988934	432.52065281044634	0.608330740556994	n/a	n/a	n/a	n/a
407.3525390625	0.2	834258	297	25	3	0	0	9	226	stimuli\Videos_short_600ms_horvertflip\51.repeated_touch_with_hammer_short_horvertflip_short_600ms.mp4	51.repeated_touch_with_hammer_short_horvertflip_short_600ms.mp4	432.7123045924818	433.32062506946386	0.6083204769820441	n/a	n/a	n/a	n/a
408.15283203125	0.2	835897	298	25	3	0	0	10	160	stimuli\Videos_short_600ms_horflip\73.single_stroke_with_flat_hand_short_horflip_short_600ms.mp4	73.single_stroke_with_flat_hand_short_horflip_short_600ms.mp4	433.51228946103583	434.12060759205633	0.6083181310204964	n/a	n/a	n/a	n/a
408.95263671875	0.2	837535	299	25	3	0	0	11	314	stimuli\Videos_short_600ms_vertflip\5.repeated_tap_with_finger_moving_from_top_to_bottom_short_vertflip_short_600ms.mp4	5.repeated_tap_with_finger_moving_from_top_to_bottom_short_vertflip_short_600ms.mp4	434.3122766755514	434.9205907011419	0.6083140255905164	n/a	n/a	n/a	n/a
409.7529296875	0.2	839174	300	25	3	0	0	12	70	stimuli\Videos_short_600ms\73.single_stroke_with_flat_hand_short_short_600ms.mp4	73.single_stroke_with_flat_hand_short_short_600ms.mp4	435.11225274675235	435.7205714642623	0.6083187175099738	n/a	n/a	n/a	n/a
410.552734375	0.2	840812	301	25	3	0	0	13	329	stimuli\Videos_short_600ms_vertflip\63.stroke_top_to_bottom_with_screwdriver_short_vertflip_short_600ms.mp4	63.stroke_top_to_bottom_with_screwdriver_short_vertflip_short_600ms.mp4	435.9122235395443	436.52055545308394	0.6083319135395868	n/a	n/a	n/a	n/a
411.3525390625	0.2	842450	302	25	3	0	0	14	229	stimuli\Videos_short_600ms_horvertflip\54.repeated_touch_with_knife_short_horvertflip_short_600ms.mp4	54.repeated_touch_with_knife_short_horvertflip_short_600ms.mp4	436.7122169122049	437.3205370959404	0.6083201837354864	n/a	n/a	n/a	n/a
412.15283203125	0.2	844089	303	25	3	0	1	15	374	stimuli\Targets_short_600ms_horvertflip\chopstickwood-tap_short_vertflip_short_600ms.mp4	chopstickwood-tap_short_vertflip_short_600ms.mp4	437.512199434801	438.1205213780049	0.6083219432039186	n/a	n/a	n/a	n/a
412.95263671875	0.2	845727	304	25	3	0	0	16	356	stimuli\Videos_short_600ms_vertflip\88.repeated_stroke_with_plastic_brush_short_vertflip_short_600ms.mp4	88.repeated_stroke_with_plastic_brush_short_vertflip_short_600ms.mp4	438.3121667086489	438.920503020865	0.6083363122161245	n/a	n/a	n/a	n/a
413.75244140625	0.2	847365	305	25	3	0	0	17	316	stimuli\Videos_short_600ms_vertflip\51.repeated_touch_with_hammer_short_vertflip_short_600ms.mp4	51.repeated_touch_with_hammer_short_vertflip_short_600ms.mp4	439.1121636002535	439.72048612994695	0.6083225296933961	n/a	n/a	n/a	n/a
414.552734375	0.2	849004	306	25	3	0	0	18	215	stimuli\Videos_short_600ms_horvertflip\41.injection_with_blunt_syringe_short_horvertflip_short_600ms.mp4	41.injection_with_blunt_syringe_short_horvertflip_short_600ms.mp4	439.91215667966753	440.5204680660536	0.608311386386049	n/a	n/a	n/a	n/a
415.3525390625	0.2	850642	307	25	3	0	0	19	48	stimuli\Videos_short_600ms\53.touch_top_to_bottom_with_knife_short_short_600ms.mp4	53.touch_top_to_bottom_with_knife_short_short_600ms.mp4	440.71214418742966	441.3204482426845	0.6083040552548482	n/a	n/a	n/a	n/a
416.15234375	0.2	852280	308	25	3	0	0	20	338	stimuli\Videos_short_600ms_vertflip\71.single_stroke_with_finger_top_to_bottom_short_vertflip_short_600ms.mp4	71.single_stroke_with_finger_top_to_bottom_short_vertflip_short_600ms.mp4	441.51212495055006	442.12041053137	0.6082855808199383	n/a	n/a	n/a	n/a
416.95263671875	0.2	853919	309	25	3	0	0	21	53	stimuli\Videos_short_600ms\58.single_slap_with_pencil_short_short_600ms.mp4	58.single_slap_with_pencil_short_short_600ms.mp4	442.31209896903965	442.92041710006015	0.6083181310204964	n/a	n/a	n/a	n/a
417.75244140625	0.2	855557	310	25	3	0	0	22	82	stimuli\Videos_short_600ms\84.single_touch_with_cotton_bud_short_short_600ms.mp4	84.single_touch_with_cotton_bud_short_short_600ms.mp4	443.11207885242766	443.720374110333	0.6082952579054108	n/a	n/a	n/a	n/a
418.55224609375	0.2	857195	311	25	3	0	0	23	299	stimuli\Videos_short_600ms_vertflip\36.single_slap_with_full_hand_short_vertflip_short_600ms.mp4	36.single_slap_with_full_hand_short_vertflip_short_600ms.mp4	443.9120619615096	444.5203736411386	0.6083116796289687	n/a	n/a	n/a	n/a
419.3525390625	0.2	858834	312	25	3	0	0	24	162	stimuli\Videos_short_600ms_horflip\75.(long)stroke_with_fingers_all_over_the_hand_short_horflip_short_600ms.mp4	75.(long)stroke_with_fingers_all_over_the_hand_short_horflip_short_600ms.mp4	444.7120453638381	445.3203673070457	0.6083219432075566	n/a	n/a	n/a	n/a
420.15234375	0.2	860472	313	25	3	0	0	25	303	stimuli\Videos_short_600ms_vertflip\4.repeated_tap_with_finger_slow_short_vertflip_short_600ms.mp4	4.repeated_tap_with_finger_slow_short_vertflip_short_600ms.mp4	445.5120299391492	446.1203501228847	0.6083201837354864	n/a	n/a	n/a	n/a
420.9521484375	0.2	862110	314	25	3	0	0	26	165	stimuli\Videos_short_600ms_horflip\78.single_stroke_top_to_bottom_with_soft_brush_short_horflip_short_600ms.mp4	78.single_stroke_top_to_bottom_with_soft_brush_short_horflip_short_600ms.mp4	446.3120098225372	446.9203300062727	0.6083201837354864	n/a	n/a	n/a	n/a
421.75244140625	0.2	863749	315	25	3	0	0	27	242	stimuli\Videos_short_600ms_horvertflip\66.stroke_top_to_bottom_with_sponge_short_horvertflip_short_600ms.mp4	66.stroke_top_to_bottom_with_sponge_short_horvertflip_short_600ms.mp4	447.1119938113552	447.7203134086012	0.6083195972460089	n/a	n/a	n/a	n/a
422.55224609375	0.2	865387	316	25	3	0	0	28	163	stimuli\Videos_short_600ms_horflip\76.tickle_with_fingers_from_top_to_bottom_short_horflip_short_600ms.mp4	76.tickle_with_fingers_from_top_to_bottom_short_horflip_short_600ms.mp4	447.9119742812363	448.5202950514613	0.6083207702249638	n/a	n/a	n/a	n/a
423.35205078125	0.2	867025	317	25	3	0	0	29	127	stimuli\Videos_short_600ms_horflip\43.touch_top_to_bottom_with_sharp_wooden_stick_short_horflip_short_600ms.mp4	43.touch_top_to_bottom_with_sharp_wooden_stick_short_horflip_short_600ms.mp4	448.7119588565438	449.32027757405376	0.6083187175099738	n/a	n/a	n/a	n/a
424.15234375	0.2	868664	318	25	3	0	0	30	187	stimuli\Videos_short_600ms_horvertflip\16.repeated_touch_with_plastic_brush_short_horvertflip_short_600ms.mp4	16.repeated_touch_with_plastic_brush_short_horvertflip_short_600ms.mp4	449.51194108589334	450.1202618561183	0.6083207702249638	n/a	n/a	n/a	n/a
424.9521484375	0.2	870302	319	25	3	0	0	31	85	stimuli\Videos_short_600ms\87.single_stroke_top_to_bottom_with_plastic_brush_short_short_600ms.mp4	87.single_stroke_top_to_bottom_with_plastic_brush_short_short_600ms.mp4	450.3119435491499	450.9202437922213	0.6083002430714259	n/a	n/a	n/a	n/a
425.751953125	0.2	871940	320	25	3	0	0	32	184	stimuli\Videos_short_600ms_horvertflip\13.single_touch_with_pen_short_horvertflip_short_600ms.mp4	13.single_touch_with_pen_short_horvertflip_short_600ms.mp4	451.1119096500224	451.7202257283243	0.6083160783018684	n/a	n/a	n/a	n/a
426.55224609375	0.2	873579	321	25	3	0	0	33	112	stimuli\Videos_short_600ms_horflip\3.single_push_with_finger_short_horflip_short_600ms.mp4	3.single_push_with_finger_short_horflip_short_600ms.mp4	451.91189187936834	452.5202085441633	0.6083166647949838	n/a	n/a	n/a	n/a
427.35205078125	0.2	875217	322	25	3	0	0	34	213	stimuli\Videos_short_600ms_horvertflip\4.repeated_tap_with_finger_slow_short_horvertflip_short_600ms.mp4	4.repeated_tap_with_finger_slow_short_horvertflip_short_600ms.mp4	452.7118462504368	453.3201937059639	0.6083474555271096	n/a	n/a	n/a	n/a
428.15185546875	0.2	876855	323	25	3	0	0	35	307	stimuli\Videos_short_600ms_vertflip\43.touch_top_to_bottom_with_sharp_wooden_stick_short_vertflip_short_600ms.mp4	43.touch_top_to_bottom_with_sharp_wooden_stick_short_vertflip_short_600ms.mp4	453.5118604434974	454.12017476233086	0.6083143188334361	n/a	n/a	n/a	n/a
428.9521484375	0.2	878494	324	25	3	0	0	36	321	stimuli\Videos_short_600ms_vertflip\56.repeated_touch_with_nail_file_short_vertflip_short_600ms.mp4	56.repeated_touch_with_nail_file_short_vertflip_short_600ms.mp4	454.3118130550938	454.920160217378	0.6083471622841898	n/a	n/a	n/a	n/a
429.751953125	0.2	880132	325	25	3	0	0	37	164	stimuli\Videos_short_600ms_horflip\77.tapping_with_all_fingers_short_horflip_short_600ms.mp4	77.tapping_with_all_fingers_short_horflip_short_600ms.mp4	455.11183194007754	455.72014127374496	0.608309333667421	n/a	n/a	n/a	n/a
430.55224609375	0.2	881771	326	25	3	0	0	38	26	stimuli\Videos_short_600ms\33.scratch_top_to_bottom_with_scissors_short_short_600ms.mp4	33.scratch_top_to_bottom_with_scissors_short_short_600ms.mp4	455.9117775137929	456.5200976975284	0.6083201837354864	n/a	n/a	n/a	n/a
431.35205078125	0.2	883409	327	25	3	0	0	39	251	stimuli\Videos_short_600ms_horvertflip\74.fingers_walking_from_top_to_bottom_short_horvertflip_short_600ms.mp4	74.fingers_walking_from_top_to_bottom_short_horvertflip_short_600ms.mp4	456.7117978649985	457.3200799268779	0.6082820618794358	n/a	n/a	n/a	n/a
432.15185546875	0.2	885047	328	25	3	0	0	40	109	stimuli\Videos_short_600ms_horflip\27.single_push_with_a_plastic_whisk_short_horflip_short_600ms.mp4	27.single_push_with_a_plastic_whisk_short_horflip_short_600ms.mp4	457.5117677780545	458.1200850293426	0.6083172512880992	n/a	n/a	n/a	n/a
432.9521484375	0.2	886686	329	25	3	0	0	41	254	stimuli\Videos_short_600ms_horvertflip\77.tapping_with_all_fingers_short_horvertflip_short_600ms.mp4	77.tapping_with_all_fingers_short_horvertflip_short_600ms.mp4	458.3117508871401	458.920045558556	0.6082946714159334	n/a	n/a	n/a	n/a
433.751953125	0.2	888324	330	25	3	0	0	42	310	stimuli\Videos_short_600ms_vertflip\46.scratching_top_to_bottom_with_finger_nails_short_vertflip_short_600ms.mp4	46.scratching_top_to_bottom_with_finger_nails_short_vertflip_short_600ms.mp4	459.1117337029791	459.7200497812846	0.6083160783055064	n/a	n/a	n/a	n/a
434.5517578125	0.2	889962	331	25	3	0	0	43	168	stimuli\Videos_short_600ms_horflip\80.stroke_with_sharp_stick_all_over_the_hand_short_horflip_short_600ms.mp4	80.stroke_with_sharp_stick_all_over_the_hand_short_horflip_short_600ms.mp4	459.9117150525926	460.52003611606415	0.6083210634715215	n/a	n/a	n/a	n/a
435.35205078125	0.2	891601	332	25	3	0	1	44	380	stimuli\Targets_short_600ms_vertflip\chopstickwood-tap_short_horvertflip_short_600ms.mp4	chopstickwood-tap_short_horvertflip_short_600ms.mp4	460.7116966954527	461.32002509004815	0.6083283945954463	n/a	n/a	n/a	n/a
436.15185546875	0.2	893239	333	25	3	0	0	45	58	stimuli\Videos_short_600ms\62.touch_top_to_bottom_with_scissors_short_short_600ms.mp4	62.touch_top_to_bottom_with_scissors_short_short_600ms.mp4	461.51168127076016	462.1200023342317	0.6083210634715215	n/a	n/a	n/a	n/a
436.9599609375	0.2	894894	334	25	3	0	0	46	122	stimuli\Videos_short_600ms_horflip\39.single_stab_with_scissors_short_horflip_short_600ms.mp4	39.single_stab_with_scissors_short_horflip_short_600ms.mp4	462.3200151197161	462.92829248967246	0.6082773699563404	n/a	n/a	n/a	n/a
437.76025390625	0.2	896533	335	25	3	0	0	47	86	stimuli\Videos_short_600ms\88.repeated_stroke_with_plastic_brush_short_short_600ms.mp4	88.repeated_stroke_with_plastic_brush_short_short_600ms.mp4	463.11998943144863	463.728273839286	0.6082844078373455	n/a	n/a	n/a	n/a
438.56005859375	0.2	898171	336	25	3	0	0	48	4	stimuli\Videos_short_600ms\13.single_touch_with_pen_short_short_600ms.mp4	13.single_touch_with_pen_short_short_600ms.mp4	463.9199605174835	464.5282880323466	0.6083275148630491	n/a	n/a	n/a	n/a
439.35986328125	0.2	899809	337	25	3	0	0	49	263	stimuli\Videos_short_600ms_horvertflip\85.touch_top_to_bottom_with_fabric_short_horvertflip_short_600ms.mp4	85.touch_top_to_bottom_with_fabric_short_horvertflip_short_600ms.mp4	464.71994362656915	465.3282708481856	0.6083272216164914	n/a	n/a	n/a	n/a
440.16015625	0.2	901448	338	25	3	0	1	50	369	stimuli\Targets_short_600ms_horflip\finger-tap_short_horflip_short_600ms.mp4	finger-tap_short_horflip_short_600ms.mp4	465.5199282018766	466.1282504383271	0.6083222364504763	n/a	n/a	n/a	n/a
440.9599609375	0.2	903086	339	25	3	0	0	51	115	stimuli\Videos_short_600ms_horflip\32.single_(long)pinch_with_fingers_short_horflip_short_600ms.mp4	32.single_(long)pinch_with_fingers_short_horflip_short_600ms.mp4	466.3199083785112	466.9282399988042	0.6083316202930291	n/a	n/a	n/a	n/a
441.759765625	0.2	904724	340	25	3	0	0	52	206	stimuli\Videos_short_600ms_horvertflip\33.scratch_top_to_bottom_with_scissors_short_horvertflip_short_600ms.mp4	33.scratch_top_to_bottom_with_scissors_short_horvertflip_short_600ms.mp4	467.1198909011037	467.72821255106464	0.6083216499609989	n/a	n/a	n/a	n/a
442.56005859375	0.2	906363	341	25	3	0	1	53	365	stimuli\Targets_short_600ms\hand-stroke_short_short_600ms.mp4	hand-stroke_short_short_600ms.mp4	467.91987547641475	468.5281373043799	0.6082618279651797	n/a	n/a	n/a	n/a
443.35986328125	0.2	908001	342	25	3	0	0	54	113	stimuli\Videos_short_600ms_horflip\30.finger_pulling_back_another_finger_short_horflip_short_600ms.mp4	30.finger_pulling_back_another_finger_short_horflip_short_600ms.mp4	468.7198565327817	469.3281764232743	0.6083198904925666	n/a	n/a	n/a	n/a
444.15966796875	0.2	909639	343	25	3	0	0	55	209	stimuli\Videos_short_600ms_horvertflip\36.single_slap_with_full_hand_short_horvertflip_short_600ms.mp4	36.single_slap_with_full_hand_short_horvertflip_short_600ms.mp4	469.5198399351102	470.1281595323562	0.6083195972460089	n/a	n/a	n/a	n/a
444.9599609375	0.2	911278	344	25	3	0	0	56	199	stimuli\Videos_short_600ms_horvertflip\27.single_push_with_a_plastic_whisk_short_horvertflip_short_600ms.mp4	27.single_push_with_a_plastic_whisk_short_horvertflip_short_600ms.mp4	470.3198236306853	470.92814293468473	0.6083193039994512	n/a	n/a	n/a	n/a
445.759765625	0.2	912916	345	25	3	0	0	57	252	stimuli\Videos_short_600ms_horvertflip\75.(long)stroke_with_fingers_all_over_the_hand_short_horvertflip_short_600ms.mp4	75.(long)stroke_with_fingers_all_over_the_hand_short_horvertflip_short_600ms.mp4	471.11980116811174	471.7281231113193	0.6083219432075566	n/a	n/a	n/a	n/a
446.56005859375	0.2	914555	346	25	3	0	0	58	155	stimuli\Videos_short_600ms_horflip\69.stroke_with_soft_sock_short_horflip_short_600ms.mp4	69.stroke_with_soft_sock_short_horflip_short_600ms.mp4	471.9197968867338	472.5281068068944	0.6083099201605364	n/a	n/a	n/a	n/a
447.35986328125	0.2	916193	347	25	3	0	0	59	357	stimuli\Videos_short_600ms_vertflip\89.single_touch_with_plastic_brush_short_vertflip_short_600ms.mp4	89.single_touch_with_plastic_brush_short_vertflip_short_600ms.mp4	472.7197465658792	473.3280913822018	0.6083448163226421	n/a	n/a	n/a	n/a
448.15966796875	0.2	917831	348	25	3	0	0	60	202	stimuli\Videos_short_600ms_horvertflip\3.single_push_with_finger_short_horvertflip_short_600ms.mp4	3.single_push_with_finger_short_horvertflip_short_600ms.mp4	473.5197513751009	474.1280724385688	0.6083210634678835	n/a	n/a	n/a	n/a
448.9599609375	0.2	919470	349	25	3	0	0	61	83	stimuli\Videos_short_600ms\85.touch_top_to_bottom_with_fabric_short_short_600ms.mp4	85.touch_top_to_bottom_with_fabric_short_short_600ms.mp4	474.3197104380888	474.9280640517609	0.6083536136720795	n/a	n/a	n/a	n/a
449.759765625	0.2	921108	350	25	3	0	0	62	108	stimuli\Videos_short_600ms_horflip\26.single_touch_with_a_blunt_syringe_short_horflip_short_600ms.mp4	26.single_touch_with_a_blunt_syringe_short_horflip_short_600ms.mp4	475.11971993923	475.7280404162084	0.6083204769784061	n/a	n/a	n/a	n/a
450.5595703125	0.2	922746	351	25	3	0	0	63	148	stimuli\Videos_short_600ms_horflip\62.touch_top_to_bottom_with_scissors_short_horflip_short_600ms.mp4	62.touch_top_to_bottom_with_scissors_short_horflip_short_600ms.mp4	475.9197053942735	476.5280211793324	0.6083157850589487	n/a	n/a	n/a	n/a
451.35986328125	0.2	924385	352	25	3	0	0	64	228	stimuli\Videos_short_600ms_horvertflip\53.touch_top_to_bottom_with_knife_short_horvertflip_short_600ms.mp4	53.touch_top_to_bottom_with_knife_short_horvertflip_short_600ms.mp4	476.7197096170021	477.328012499278	0.6083028822758934	n/a	n/a	n/a	n/a
452.15966796875	0.2	926023	353	25	3	0	0	65	158	stimuli\Videos_short_600ms_horflip\71.single_stroke_with_finger_top_to_bottom_short_horflip_short_600ms.mp4	71.single_stroke_with_finger_top_to_bottom_short_horflip_short_600ms.mp4	477.5197208776117	478.12796012570834	0.6082392480966519	n/a	n/a	n/a	n/a
452.95947265625	0.2	927661	354	25	3	0	0	66	308	stimuli\Videos_short_600ms_vertflip\44.pushing_top_to_bottom_with_finger_short_vertflip_short_600ms.mp4	44.pushing_top_to_bottom_with_finger_short_vertflip_short_600ms.mp4	478.3196632256331	478.9279444077729	0.6082811821397627	n/a	n/a	n/a	n/a
453.759765625	0.2	929300	355	25	3	0	0	67	55	stimuli\Videos_short_600ms\6.single_touch_with_flat_hand_short_short_600ms.mp4	6.single_touch_with_flat_hand_short_short_600ms.mp4	479.1196665686257	479.72795244268855	0.6082858740628581	n/a	n/a	n/a	n/a
454.5595703125	0.2	930938	356	25	3	0	0	68	220	stimuli\Videos_short_600ms_horvertflip\46.scratching_top_to_bottom_with_finger_nails_short_horvertflip_short_600ms.mp4	46.scratching_top_to_bottom_with_finger_nails_short_horvertflip_short_600ms.mp4	479.91961419505606	480.5279393639576	0.6083251689015015	n/a	n/a	n/a	n/a
455.359375	0.2	932576	357	25	3	0	1	69	376	stimuli\Targets_short_600ms_horvertflip\hand-pinch_short_vertflip_short_600ms.mp4	hand-pinch_short_vertflip_short_600ms.mp4	480.7195967176485	481.3279166081411	0.6083198904925666	n/a	n/a	n/a	n/a
456.15966796875	0.2	934215	358	25	3	0	0	70	295	stimuli\Videos_short_600ms_vertflip\32.single_(long)pinch_with_fingers_short_vertflip_short_600ms.mp4	32.single_(long)pinch_with_fingers_short_vertflip_short_600ms.mp4	481.5195786537515	482.1279152592142	0.6083366054626822	n/a	n/a	n/a	n/a
