onset	duration	onsetsample	eventnumber	subjectnr	sequencenumber	blocksequencenumber	istarget	presentationnumber	stimnumber	stim	stimname	time_stimon	time_stimoff	stimdur	cresp	resp	rt	correct
28.359375	0.2	58080	0	8	0	0	0	0	249	stimuli\Videos_short_600ms_horvertflip\72.(short)stroke_with_finger_all_over_the_hand_short_horvertflip_short_600ms.mp4	72.(short)stroke_with_finger_all_over_the_hand_short_horvertflip_short_600ms.mp4	50.10446973375838	50.71230121027429	0.6078314765159121	n/a	n/a	n/a	n/a
29.1591796875	0.2	59718	1	8	0	0	0	1	314	stimuli\Videos_short_600ms_vertflip\5.repeated_tap_with_finger_moving_from_top_to_bottom_short_vertflip_short_600ms.mp4	5.repeated_tap_with_finger_moving_from_top_to_bottom_short_vertflip_short_600ms.mp4	50.90401995697539	51.51227986215213	0.6082599051767374	n/a	n/a	n/a	n/a
29.958984375	0.2	61356	2	8	0	0	0	2	194	stimuli\Videos_short_600ms_horvertflip\22.single_touch_with_metal_chopstick_short_horvertflip_short_600ms.mp4	22.single_touch_with_metal_chopstick_short_horvertflip_short_600ms.mp4	51.704041422394766	52.31225528835216	0.6082138659573957	n/a	n/a	n/a	n/a
30.75927734375	0.2	62995	3	8	0	0	0	3	356	stimuli\Videos_short_600ms_vertflip\88.repeated_stroke_with_plastic_brush_short_vertflip_short_600ms.mp4	88.repeated_stroke_with_plastic_brush_short_vertflip_short_600ms.mp4	52.50403151076671	53.11222954157847	0.6081980308117636	n/a	n/a	n/a	n/a
31.55908203125	0.2	64633	4	8	0	0	0	4	215	stimuli\Videos_short_600ms_horvertflip\41.injection_with_blunt_syringe_short_horvertflip_short_600ms.mp4	41.injection_with_blunt_syringe_short_horvertflip_short_600ms.mp4	53.30388817337485	53.91222138941089	0.6083332160360442	n/a	n/a	n/a	n/a
32.35888671875	0.2	66271	5	8	0	0	0	5	2	stimuli\Videos_short_600ms\11.single_touch_with_lighter_short_short_600ms.mp4	11.single_touch_with_lighter_short_short_600ms.mp4	54.10394658746736	54.71219183047242	0.608245243005058	n/a	n/a	n/a	n/a
33.1591796875	0.2	67910	6	8	0	0	0	6	97	stimuli\Videos_short_600ms_horflip\16.repeated_touch_with_plastic_brush_short_horflip_short_600ms.mp4	16.repeated_touch_with_plastic_brush_short_horflip_short_600ms.mp4	54.90388447850751	55.512146143144946	0.608261664637439	n/a	n/a	n/a	n/a
33.958984375	0.2	69548	7	8	0	0	0	7	234	stimuli\Videos_short_600ms_horvertflip\59.single_push_with_long_side_pencil_short_horvertflip_short_600ms.mp4	59.single_push_with_long_side_pencil_short_horvertflip_short_600ms.mp4	55.70386166416824	56.31214590855029	0.6082842443820482	n/a	n/a	n/a	n/a
34.7587890625	0.2	71186	8	8	0	0	0	8	54	stimuli\Videos_short_600ms\59.single_push_with_long_side_pencil_short_short_600ms.mp4	59.single_push_with_long_side_pencil_short_short_600ms.mp4	56.503782840332406	57.112132184757456	0.6083493444250507	n/a	n/a	n/a	n/a
35.55908203125	0.2	72825	9	8	0	0	1	9	381	stimuli\Targets_short_600ms_vertflip\finger-tap_short_horvertflip_short_600ms.mp4	finger-tap_short_horvertflip_short_600ms.mp4	57.30382483279254	57.912107024470515	0.6082821916779722	n/a	n/a	n/a	n/a
36.35888671875	0.2	74463	10	8	0	0	0	10	205	stimuli\Videos_short_600ms_horvertflip\32.single_(long)pinch_with_fingers_short_horvertflip_short_600ms.mp4	32.single_(long)pinch_with_fingers_short_horvertflip_short_600ms.mp4	58.103742196792155	58.712090661486855	0.6083484646946999	n/a	n/a	n/a	n/a
37.1591796875	0.2	76102	11	8	0	0	0	11	63	stimuli\Videos_short_600ms\67.single_touch_with_sponge_short_short_600ms.mp4	67.single_touch_with_sponge_short_short_600ms.mp4	58.903723487860816	59.51206286200909	0.6083393741482723	n/a	n/a	n/a	n/a
37.958984375	0.2	77740	12	8	0	0	0	12	4	stimuli\Videos_short_600ms\13.single_touch_with_pen_short_short_600ms.mp4	13.single_touch_with_pen_short_short_600ms.mp4	59.7038704614713	60.31204239361705	0.6081719321457513	n/a	n/a	n/a	n/a
38.7587890625	0.2	79378	13	8	0	0	0	13	123	stimuli\Videos_short_600ms_horflip\4.repeated_tap_with_finger_slow_short_horflip_short_600ms.mp4	4.repeated_tap_with_finger_slow_short_horflip_short_600ms.mp4	60.5037001456833	61.11201928603441	0.6083191403511137	n/a	n/a	n/a	n/a
39.55908203125	0.2	81017	14	8	0	0	0	14	70	stimuli\Videos_short_600ms\73.single_stroke_with_flat_hand_short_short_600ms.mp4	73.single_stroke_with_flat_hand_short_short_600ms.mp4	61.3037896435801	61.91199940412935	0.6082097605492436	n/a	n/a	n/a	n/a
40.35888671875	0.2	82655	15	8	0	0	0	15	90	stimuli\Videos_short_600ms_horflip\1.repeated_touch_with_finger_fast_short_horflip_short_600ms.mp4	1.repeated_touch_with_finger_fast_short_horflip_short_600ms.mp4	62.1036603818734	62.711978935737534	0.6083185538641374	n/a	n/a	n/a	n/a
41.15869140625	0.2	84293	16	8	0	0	1	16	365	stimuli\Targets_short_600ms\hand-stroke_short_short_600ms.mp4	hand-stroke_short_short_600ms.mp4	62.903613228328595	63.51195465518094	0.6083414268523484	n/a	n/a	n/a	n/a
41.958984375	0.2	85932	17	8	0	0	0	17	232	stimuli\Videos_short_600ms_horvertflip\57.single_touch_with_nail_file_short_horvertflip_short_600ms.mp4	57.single_touch_with_nail_file_short_horvertflip_short_600ms.mp4	63.7036965681134	64.3119359462496	0.6082393781362043	n/a	n/a	n/a	n/a
42.7587890625	0.2	87570	18	8	0	0	0	18	130	stimuli\Videos_short_600ms_horflip\46.scratching_top_to_bottom_with_finger_nails_short_horflip_short_600ms.mp4	46.scratching_top_to_bottom_with_finger_nails_short_horflip_short_600ms.mp4	64.50356965235392	65.11191225217999	0.6083425998260736	n/a	n/a	n/a	n/a
43.55859375	0.2	89208	19	8	0	0	0	19	281	stimuli\Videos_short_600ms_vertflip\2.single_touch_with_finger_short_vertflip_short_600ms.mp4	2.single_touch_with_finger_short_vertflip_short_600ms.mp4	65.30363950294054	65.91189002432748	0.6082505213869354	n/a	n/a	n/a	n/a
44.35888671875	0.2	90847	20	8	0	0	0	20	283	stimuli\Videos_short_600ms_vertflip\21.repeated_touch_with_metal_chopstick_short_vertflip_short_600ms.mp4	21.repeated_touch_with_metal_chopstick_short_vertflip_short_600ms.mp4	66.1036196210357	66.71186984917904	0.6082502281433335	n/a	n/a	n/a	n/a
45.15869140625	0.2	92485	21	8	0	0	0	21	121	stimuli\Videos_short_600ms_horflip\38.double_slap_with_pencil_short_horflip_short_600ms.mp4	38.double_slap_with_pencil_short_horflip_short_600ms.mp4	66.90372143515674	67.51185524565585	0.6081338104991119	n/a	n/a	n/a	n/a
45.95849609375	0.2	94123	22	8	0	0	0	22	60	stimuli\Videos_short_600ms\64.repeated_touch_with_screwdriver_short_short_600ms.mp4	64.repeated_touch_with_screwdriver_short_short_600ms.mp4	67.70355170585572	68.31180662589418	0.6082549200384619	n/a	n/a	n/a	n/a
46.7587890625	0.2	95762	23	8	0	0	0	23	303	stimuli\Videos_short_600ms_vertflip\4.repeated_tap_with_finger_slow_short_vertflip_short_600ms.mp4	4.repeated_tap_with_finger_slow_short_vertflip_short_600ms.mp4	68.50356935911054	69.11177999939014	0.6082106402795944	n/a	n/a	n/a	n/a
47.55859375	0.2	97400	24	8	0	0	0	24	95	stimuli\Videos_short_600ms_horflip\14.repeated_touch_with_pencil_short_horflip_short_600ms.mp4	14.repeated_touch_with_pencil_short_horflip_short_600ms.mp4	69.30346707579997	69.911758064781	0.6082909889810253	n/a	n/a	n/a	n/a
48.3583984375	0.2	99038	25	8	0	0	0	25	116	stimuli\Videos_short_600ms_horflip\33.scratch_top_to_bottom_with_scissors_short_horflip_short_600ms.mp4	33.scratch_top_to_bottom_with_scissors_short_horflip_short_600ms.mp4	70.10347094661324	70.71173847611931	0.6082675295060653	n/a	n/a	n/a	n/a
49.15869140625	0.2	100677	26	8	0	0	0	26	80	stimuli\Videos_short_600ms\82.repeated_touch_with_cotton_bud_short_short_600ms.mp4	82.repeated_touch_with_cotton_bud_short_short_600ms.mp4	70.90339710791591	71.51172827124788	0.6083311633319681	n/a	n/a	n/a	n/a
49.95849609375	0.2	102315	27	8	0	0	0	27	246	stimuli\Videos_short_600ms_horvertflip\7.repeated_touch_with_hairbrush_short_horvertflip_short_600ms.mp4	7.repeated_touch_with_hairbrush_short_horvertflip_short_600ms.mp4	71.70343206253347	72.3117330217915	0.6083009592580311	n/a	n/a	n/a	n/a
50.75830078125	0.2	103953	28	8	0	0	0	28	317	stimuli\Videos_short_600ms_vertflip\52.touch_top_to_bottom_with_hammer_short_vertflip_short_600ms.mp4	52.touch_top_to_bottom_with_hammer_short_vertflip_short_600ms.mp4	72.50349927392926	73.11170522231373	0.608205948384466	n/a	n/a	n/a	n/a
51.55859375	0.2	105592	29	8	0	0	0	29	133	stimuli\Videos_short_600ms_horflip\49.repeated_slap_with_hand_short_horflip_short_600ms.mp4	49.repeated_slap_with_hand_short_horflip_short_600ms.mp4	73.30362835969004	73.9116914985209	0.6080631388308575	n/a	n/a	n/a	n/a
52.3583984375	0.2	107230	30	8	0	0	0	30	49	stimuli\Videos_short_600ms\54.repeated_touch_with_knife_short_short_600ms.mp4	54.repeated_touch_with_knife_short_short_600ms.mp4	74.10352842232692	74.71165695444392	0.6081285321170071	n/a	n/a	n/a	n/a
53.158203125	0.2	108868	31	8	0	0	1	31	372	stimuli\Targets_short_600ms_horvertflip\brush-stroke_short_vertflip_short_600ms.mp4	brush-stroke_short_vertflip_short_600ms.mp4	74.9033144132668	75.51163414010466	0.6083197268378626	n/a	n/a	n/a	n/a
53.95849609375	0.2	110507	32	8	0	0	0	32	292	stimuli\Videos_short_600ms_vertflip\3.single_push_with_finger_short_vertflip_short_600ms.mp4	3.single_push_with_finger_short_vertflip_short_600ms.mp4	75.7033259084094	76.31161249873912	0.6082865903297261	n/a	n/a	n/a	n/a
54.75830078125	0.2	112145	33	8	0	0	1	33	367	stimuli\Targets_short_600ms_horflip\chopstick-silver-tap_short_horflip_short_600ms.mp4	chopstick-silver-tap_short_horflip_short_600ms.mp4	76.50327083729212	77.11159115061696	0.6083203133248389	n/a	n/a	n/a	n/a
55.55810546875	0.2	113783	34	8	0	0	0	34	31	stimuli\Videos_short_600ms\38.double_slap_with_pencil_short_short_600ms.mp4	38.double_slap_with_pencil_short_short_600ms.mp4	77.3033022729885	77.9115695092512	0.6082672362626909	n/a	n/a	n/a	n/a
56.3583984375	0.2	115422	35	8	0	0	0	35	167	stimuli\Videos_short_600ms_horflip\8.single_touch_with_hairbrush_short_horflip_short_600ms.mp4	8.single_touch_with_hairbrush_short_horflip_short_600ms.mp4	78.10327975189261	78.711548747616	0.6082689957233924	n/a	n/a	n/a	n/a
57.158203125	0.2	117060	36	8	0	0	1	36	382	stimuli\Targets_short_600ms_vertflip\hand-pinch_short_horvertflip_short_600ms.mp4	hand-pinch_short_horvertflip_short_600ms.mp4	78.90328186324541	79.51152710625024	0.6082452430048306	n/a	n/a	n/a	n/a
57.95849609375	0.2	118699	37	8	0	0	0	37	118	stimuli\Videos_short_600ms_horflip\35.single_punch_with_hand_short_horflip_short_600ms.mp4	35.single_punch_with_hand_short_horflip_short_600ms.mp4	79.70324555970797	80.31150663785843	0.6082610781504627	n/a	n/a	n/a	n/a
58.75830078125	0.2	120337	38	8	0	0	0	38	337	stimuli\Videos_short_600ms_vertflip\70.(long)stroke_with_finger_all_over_the_hand_short_vertflip_short_600ms.mp4	70.(long)stroke_with_finger_all_over_the_hand_short_vertflip_short_600ms.mp4	80.50325617512021	81.11148470324929	0.6082285281290751	n/a	n/a	n/a	n/a
59.55810546875	0.2	121975	39	8	0	0	0	39	342	stimuli\Videos_short_600ms_vertflip\75.(long)stroke_with_fingers_all_over_the_hand_short_vertflip_short_600ms.mp4	75.(long)stroke_with_fingers_all_over_the_hand_short_vertflip_short_600ms.mp4	81.3032213378001	81.91146511458783	0.6082437767877309	n/a	n/a	n/a	n/a
60.3583984375	0.2	123614	40	8	0	0	1	40	380	stimuli\Targets_short_600ms_vertflip\chopstickwood-tap_short_horvertflip_short_600ms.mp4	chopstickwood-tap_short_horvertflip_short_600ms.mp4	82.10310087339622	82.71144669889986	0.6083458255036476	n/a	n/a	n/a	n/a
61.158203125	0.2	125252	41	8	0	0	0	41	218	stimuli\Videos_short_600ms_horvertflip\44.pushing_top_to_bottom_with_finger_short_horvertflip_short_600ms.mp4	44.pushing_top_to_bottom_with_finger_short_horvertflip_short_600ms.mp4	82.90308216446488	83.51141626023127	0.608334095766395	n/a	n/a	n/a	n/a
61.9580078125	0.2	126890	42	8	0	0	0	42	275	stimuli\Videos_short_600ms_vertflip\14.repeated_touch_with_pencil_short_vertflip_short_600ms.mp4	14.repeated_touch_with_pencil_short_vertflip_short_600ms.mp4	83.70306638796819	84.31140400265554	0.6083376146873434	n/a	n/a	n/a	n/a
62.75830078125	0.2	128529	43	8	0	0	0	43	99	stimuli\Videos_short_600ms_horflip\18.single_stroke_from_top_to_bottom_with_rolling_pin_short_horflip_short_600ms.mp4	18.single_stroke_from_top_to_bottom_with_rolling_pin_short_horflip_short_600ms.mp4	84.50305882228736	85.11137356398694	0.6083147416995871	n/a	n/a	n/a	n/a
63.55810546875	0.2	130167	44	8	0	0	0	44	20	stimuli\Videos_short_600ms\28.single_injection_with_sharp_needle_short_short_600ms.mp4	28.single_injection_with_sharp_needle_short_short_600ms.mp4	85.3031169431365	85.91135720100306	0.6082402578665551	n/a	n/a	n/a	n/a
64.35791015625	0.2	131805	45	8	0	0	0	45	280	stimuli\Videos_short_600ms_vertflip\19.single_touch_with_rolling_pin_short_vertflip_short_600ms.mp4	19.single_touch_with_rolling_pin_short_vertflip_short_600ms.mp4	86.10345305876353	86.71131210016256	0.6078590413990241	n/a	n/a	n/a	n/a
65.158203125	0.2	133444	46	8	0	0	0	46	243	stimuli\Videos_short_600ms_horvertflip\67.single_touch_with_sponge_short_horvertflip_short_600ms.mp4	67.single_touch_with_sponge_short_horvertflip_short_600ms.mp4	86.90323787672992	87.51132066287096	0.6080827861410398	n/a	n/a	n/a	n/a
65.9580078125	0.2	135082	47	8	0	0	0	47	261	stimuli\Videos_short_600ms_horvertflip\83.single_stroke_top_to_bottom_with_cotton_bud_short_horvertflip_short_600ms.mp4	83.single_stroke_top_to_bottom_with_cotton_bud_short_horvertflip_short_600ms.mp4	87.7030854487914	88.31130283366997	0.6082173848785715	n/a	n/a	n/a	n/a
66.7578125	0.2	136720	48	8	0	0	0	48	161	stimuli\Videos_short_600ms_horflip\74.fingers_walking_from_top_to_bottom_short_horflip_short_600ms.mp4	74.fingers_walking_from_top_to_bottom_short_horflip_short_600ms.mp4	88.50295706681482	89.11128265852153	0.6083255917067163	n/a	n/a	n/a	n/a
67.55810546875	0.2	138359	49	8	0	0	0	49	12	stimuli\Videos_short_600ms\20.single_touch_with_screwdriver_short_short_600ms.mp4	20.single_touch_with_screwdriver_short_short_600ms.mp4	89.30290932678349	89.91125016714864	0.6083408403651447	n/a	n/a	n/a	n/a
68.35791015625	0.2	139997	50	8	0	0	0	50	323	stimuli\Videos_short_600ms_vertflip\58.single_slap_with_pencil_short_vertflip_short_600ms.mp4	58.single_slap_with_pencil_short_vertflip_short_600ms.mp4	90.10291495705746	90.71123057848718	0.6083156214297105	n/a	n/a	n/a	n/a
69.15771484375	0.2	141635	51	8	0	0	0	51	355	stimuli\Videos_short_600ms_vertflip\87.single_stroke_top_to_bottom_with_plastic_brush_short_vertflip_short_600ms.mp4	87.single_stroke_top_to_bottom_with_plastic_brush_short_vertflip_short_600ms.mp4	90.9029079778636	91.51120981685176	0.6083018389881545	n/a	n/a	n/a	n/a
69.9580078125	0.2	143274	52	8	0	0	0	52	45	stimuli\Videos_short_600ms\50.single_(long)hard_push_with_thumb_short_short_600ms.mp4	50.single_(long)hard_push_with_thumb_short_short_600ms.mp4	91.70290011893962	92.3111887619732	0.6082886430335748	n/a	n/a	n/a	n/a
70.7578125	0.2	144912	53	8	0	0	0	53	207	stimuli\Videos_short_600ms_horvertflip\34.repeated_punch_with_hand_short_horvertflip_short_600ms.mp4	34.repeated_punch_with_hand_short_horvertflip_short_600ms.mp4	92.50293976545208	93.1111677070944	0.6082279416423262	n/a	n/a	n/a	n/a
71.5576171875	0.2	146550	54	8	0	0	0	54	55	stimuli\Videos_short_600ms\6.single_touch_with_flat_hand_short_short_600ms.mp4	6.single_touch_with_flat_hand_short_short_600ms.mp4	93.30292809436332	93.911146945459	0.6082188510956712	n/a	n/a	n/a	n/a
72.35791015625	0.2	148189	55	8	0	0	0	55	105	stimuli\Videos_short_600ms_horflip\23.single_push_with_a_spoon_short_horflip_short_600ms.mp4	23.single_push_with_a_spoon_short_horflip_short_600ms.mp4	94.10278974210996	94.71112882301465	0.6083390809046705	n/a	n/a	n/a	n/a
73.15771484375	0.2	149827	56	8	0	0	0	56	291	stimuli\Videos_short_600ms_vertflip\29.single_pinch_with_tweezers_short_vertflip_short_600ms.mp4	29.single_pinch_with_tweezers_short_vertflip_short_600ms.mp4	94.90276135614522	95.51110278299755	0.6083414268523484	n/a	n/a	n/a	n/a
73.95751953125	0.2	151465	57	8	0	0	0	57	309	stimuli\Videos_short_600ms_vertflip\45.scratching_with_finger_nails_short_vertflip_short_600ms.mp4	45.scratching_with_finger_nails_short_vertflip_short_600ms.mp4	95.70274675262226	96.31108202136215	0.6083352687398929	n/a	n/a	n/a	n/a
74.7578125	0.2	153104	58	8	0	0	0	58	304	stimuli\Videos_short_600ms_vertflip\40.repeated_push_with_finger_short_vertflip_short_600ms.mp4	40.repeated_push_with_finger_short_vertflip_short_600ms.mp4	96.50271572746648	97.11106037999662	0.6083446525301497	n/a	n/a	n/a	n/a
75.5576171875	0.2	154742	59	8	0	0	0	59	204	stimuli\Videos_short_600ms_horvertflip\31.hand_grabbing_wrist_short_horvertflip_short_600ms.mp4	31.hand_grabbing_wrist_short_horvertflip_short_600ms.mp4	97.3027222374708	97.91103991160458	0.6083176741337866	n/a	n/a	n/a	n/a
76.35791015625	0.2	156381	60	8	0	0	0	60	129	stimuli\Videos_short_600ms_horflip\45.scratching_with_finger_nails_short_horflip_short_600ms.mp4	45.scratching_with_finger_nails_short_horflip_short_600ms.mp4	98.1028167205061	98.71102061618647	0.6082038956803899	n/a	n/a	n/a	n/a
77.15771484375	0.2	158019	61	8	0	0	0	61	264	stimuli\Videos_short_600ms_horvertflip\86.touch_top_to_bottom_with_hair_brush_short_horvertflip_short_600ms.mp4	86.touch_top_to_bottom_with_hair_brush_short_horvertflip_short_600ms.mp4	98.90268921825988	99.51100044103804	0.608311222778184	n/a	n/a	n/a	n/a
77.95751953125	0.2	159657	62	8	0	0	0	62	282	stimuli\Videos_short_600ms_vertflip\20.single_touch_with_screwdriver_short_vertflip_short_600ms.mp4	20.single_touch_with_screwdriver_short_vertflip_short_600ms.mp4	99.70278458102553	100.31097879967253	0.608194218646986	n/a	n/a	n/a	n/a
78.7578125	0.2	161296	63	8	0	0	0	63	338	stimuli\Videos_short_600ms_vertflip\71.single_stroke_with_finger_top_to_bottom_short_vertflip_short_600ms.mp4	71.single_stroke_with_finger_top_to_bottom_short_vertflip_short_600ms.mp4	100.50270253151189	101.11095745155036	0.6082549200384619	n/a	n/a	n/a	n/a
79.5576171875	0.2	162934	64	8	0	0	0	64	253	stimuli\Videos_short_600ms_horvertflip\76.tickle_with_fingers_from_top_to_bottom_short_horvertflip_short_600ms.mp4	76.tickle_with_fingers_from_top_to_bottom_short_horvertflip_short_600ms.mp4	101.3026166698337	101.91092261423	0.6083059443963066	n/a	n/a	n/a	n/a
80.357421875	0.2	164572	65	8	0	0	0	65	173	stimuli\Videos_short_600ms_horflip\85.touch_top_to_bottom_with_fabric_short_horflip_short_600ms.mp4	85.touch_top_to_bottom_with_fabric_short_horflip_short_600ms.mp4	102.10257039601947	102.7109132890887	0.6083428930692207	n/a	n/a	n/a	n/a
81.15771484375	0.2	166211	66	8	0	0	1	66	383	stimuli\Targets_short_600ms_vertflip\hand-stroke_short_horvertflip_short_600ms.mp4	hand-stroke_short_horvertflip_short_600ms.mp4	102.90254992762743	103.51089340718364	0.608343479556197	n/a	n/a	n/a	n/a
81.95751953125	0.2	167849	67	8	0	0	0	67	96	stimuli\Videos_short_600ms_horflip\15.single_stroke_top_to_bottom_with_a_plastic_whisk_short_horflip_short_600ms.mp4	15.single_stroke_top_to_bottom_with_a_plastic_whisk_short_horflip_short_600ms.mp4	103.7025523322236	104.31087733744334	0.60832500521974	n/a	n/a	n/a	n/a
82.75732421875	0.2	169487	68	8	0	0	1	68	368	stimuli\Targets_short_600ms_horflip\chopstickwood-tap_short_horflip_short_600ms.mp4	chopstickwood-tap_short_horflip_short_600ms.mp4	104.50262247605384	105.11084983120897	0.6082273551551225	n/a	n/a	n/a	n/a
83.5576171875	0.2	171126	69	8	0	0	0	69	92	stimuli\Videos_short_600ms_horflip\11.single_touch_with_lighter_short_horflip_short_600ms.mp4	11.single_touch_with_lighter_short_horflip_short_600ms.mp4	105.30259321035874	105.91082789660004	0.6082346862413033	n/a	n/a	n/a	n/a
84.357421875	0.2	172764	70	8	0	0	1	70	375	stimuli\Targets_short_600ms_horvertflip\finger-tap_short_vertflip_short_600ms.mp4	finger-tap_short_vertflip_short_600ms.mp4	106.10253110139888	106.71080684172124	0.6082757403223695	n/a	n/a	n/a	n/a
85.1572265625	0.2	174402	71	8	0	0	0	71	30	stimuli\Videos_short_600ms\37.single_stab_with_nail_file_short_short_600ms.mp4	37.single_stab_with_nail_file_short_short_600ms.mp4	106.90280534266071	107.5107866665728	0.6079813239120995	n/a	n/a	n/a	n/a
85.95751953125	0.2	176041	72	8	0	0	0	72	88	stimuli\Videos_short_600ms\9.single_touch_with_hammer_short_short_600ms.mp4	9.single_touch_with_hammer_short_short_600ms.mp4	107.70252066193255	108.31076473196369	0.6082440700311054	n/a	n/a	n/a	n/a
86.75732421875	0.2	177679	73	8	0	0	0	73	82	stimuli\Videos_short_600ms\84.single_touch_with_cotton_bud_short_short_600ms.mp4	84.single_touch_with_cotton_bud_short_short_600ms.mp4	108.50242717592482	109.11074485005884	0.6083176741340139	n/a	n/a	n/a	n/a
87.55712890625	0.2	179317	74	8	0	0	0	74	288	stimuli\Videos_short_600ms_vertflip\26.single_touch_with_a_blunt_syringe_short_vertflip_short_600ms.mp4	26.single_touch_with_a_blunt_syringe_short_vertflip_short_600ms.mp4	109.30247004811532	109.91072232896272	0.6082522808474096	n/a	n/a	n/a	n/a
88.357421875	0.2	180956	75	8	0	0	0	75	184	stimuli\Videos_short_600ms_horvertflip\13.single_touch_with_pen_short_horvertflip_short_600ms.mp4	13.single_touch_with_pen_short_horvertflip_short_600ms.mp4	110.1024281729526	110.71069980786685	0.6082716349142174	n/a	n/a	n/a	n/a
89.1572265625	0.2	182594	76	8	0	0	0	76	139	stimuli\Videos_short_600ms_horflip\54.repeated_touch_with_knife_short_horflip_short_600ms.mp4	54.repeated_touch_with_knife_short_horflip_short_600ms.mp4	110.90239069644144	111.51067904623164	0.6082883497902003	n/a	n/a	n/a	n/a
89.95703125	0.2	184232	77	8	0	0	0	77	89	stimuli\Videos_short_600ms\90.repeated_touch_with_sponge_short_short_600ms.mp4	90.repeated_touch_with_sponge_short_short_600ms.mp4	111.70238313076084	112.3106585778396	0.6082754470787677	n/a	n/a	n/a	n/a
90.75732421875	0.2	185871	78	8	0	0	0	78	145	stimuli\Videos_short_600ms_horflip\6.single_touch_with_flat_hand_short_horflip_short_600ms.mp4	6.single_touch_with_flat_hand_short_horflip_short_600ms.mp4	112.50243509349777	113.11063693647408	0.6082018429763139	n/a	n/a	n/a	n/a
91.55712890625	0.2	187509	79	8	0	0	0	79	270	stimuli\Videos_short_600ms_vertflip\1.repeated_touch_with_finger_fast_short_vertflip_short_600ms.mp4	1.repeated_touch_with_finger_fast_short_vertflip_short_600ms.mp4	113.30229762097474	113.91061353564784	0.608315914673085	n/a	n/a	n/a	n/a
92.35693359375	0.2	189147	80	8	0	0	0	80	224	stimuli\Videos_short_600ms_horvertflip\5.repeated_tap_with_finger_moving_from_top_to_bottom_short_horvertflip_short_600ms.mp4	5.repeated_tap_with_finger_moving_from_top_to_bottom_short_horvertflip_short_600ms.mp4	114.10225193364728	114.71057723211038	0.6083252984631144	n/a	n/a	n/a	n/a
93.1572265625	0.2	190786	81	8	0	0	0	81	78	stimuli\Videos_short_600ms\80.stroke_with_sharp_stick_all_over_the_hand_short_short_600ms.mp4	80.stroke_with_sharp_stick_all_over_the_hand_short_short_600ms.mp4	114.9023569734461	115.510549725876	0.6081927524298862	n/a	n/a	n/a	n/a
93.95703125	0.2	192424	82	8	0	0	0	82	40	stimuli\Videos_short_600ms\46.scratching_top_to_bottom_with_finger_nails_short_short_600ms.mp4	46.scratching_top_to_bottom_with_finger_nails_short_short_600ms.mp4	115.70223826850317	116.31054743857726	0.6083091700741079	n/a	n/a	n/a	n/a
94.75732421875	0.2	194063	83	8	0	0	0	83	134	stimuli\Videos_short_600ms_horflip\5.repeated_tap_with_finger_moving_from_top_to_bottom_short_horflip_short_600ms.mp4	5.repeated_tap_with_finger_moving_from_top_to_bottom_short_horflip_short_600ms.mp4	116.5023468272234	117.11053166208036	0.6081848348569565	n/a	n/a	n/a	n/a
95.55712890625	0.2	195701	84	8	0	0	0	84	74	stimuli\Videos_short_600ms\77.tapping_with_all_fingers_short_short_600ms.mp4	77.tapping_with_all_fingers_short_short_600ms.mp4	117.30237181156416	117.91051383287936	0.6081420213151887	n/a	n/a	n/a	n/a
96.35693359375	0.2	197339	85	8	0	0	0	85	38	stimuli\Videos_short_600ms\44.pushing_top_to_bottom_with_finger_short_short_600ms.mp4	44.pushing_top_to_bottom_with_finger_short_short_600ms.mp4	118.10226161068069	118.710495710435	0.608234099754327	n/a	n/a	n/a	n/a
97.1572265625	0.2	198978	86	8	0	0	0	86	56	stimuli\Videos_short_600ms\60.single_push_with_tip_of_pencil_short_short_600ms.mp4	60.single_push_with_tip_of_pencil_short_short_600ms.mp4	118.90227017338908	119.51046908393096	0.608198910541887	n/a	n/a	n/a	n/a
97.95703125	0.2	200616	87	8	0	0	0	87	75	stimuli\Videos_short_600ms\78.single_stroke_top_to_bottom_with_soft_brush_short_short_600ms.mp4	78.single_stroke_top_to_bottom_with_soft_brush_short_short_600ms.mp4	119.70221891443634	120.3104477358088	0.6082288213724496	n/a	n/a	n/a	n/a
98.7568359375	0.2	202254	88	8	0	0	0	88	16	stimuli\Videos_short_600ms\24.single_stroke_top_to_bottom_with_a_spoon_short_short_600ms.mp4	24.single_stroke_top_to_bottom_with_a_spoon_short_short_600ms.mp4	120.50210783382248	121.11042726741698	0.6083194335944881	n/a	n/a	n/a	n/a
99.55712890625	0.2	203893	89	8	0	0	0	89	106	stimuli\Videos_short_600ms_horflip\24.single_stroke_top_to_bottom_with_a_spoon_short_horflip_short_600ms.mp4	24.single_stroke_top_to_bottom_with_a_spoon_short_horflip_short_600ms.mp4	121.3021861884688	121.91040562605122	0.6082194375824201	n/a	n/a	n/a	n/a
100.35693359375	0.2	205531	90	8	0	0	0	90	247	stimuli\Videos_short_600ms_horvertflip\70.(long)stroke_with_finger_all_over_the_hand_short_horvertflip_short_600ms.mp4	70.(long)stroke_with_finger_all_over_the_hand_short_horvertflip_short_600ms.mp4	122.10206807001236	122.71038545090278	0.6083173808904121	n/a	n/a	n/a	n/a
101.15673828125	0.2	207169	91	8	0	0	0	91	108	stimuli\Videos_short_600ms_horflip\26.single_touch_with_a_blunt_syringe_short_horflip_short_600ms.mp4	26.single_touch_with_a_blunt_syringe_short_horflip_short_600ms.mp4	122.9021637260214	123.51036058385944	0.6081968578380383	n/a	n/a	n/a	n/a
101.95703125	0.2	208808	92	8	0	0	0	92	265	stimuli\Videos_short_600ms_horvertflip\87.single_stroke_top_to_bottom_with_plastic_brush_short_horvertflip_short_600ms.mp4	87.single_stroke_top_to_bottom_with_plastic_brush_short_horvertflip_short_600ms.mp4	123.70210982787783	124.31034216817147	0.6082323402936254	n/a	n/a	n/a	n/a
102.7568359375	0.2	210446	93	8	0	0	0	93	346	stimuli\Videos_short_600ms_vertflip\79.long_with_soft_brush_all_over_the_hand_short_vertflip_short_600ms.mp4	79.long_with_soft_brush_all_over_the_hand_short_vertflip_short_600ms.mp4	124.50212249599416	125.11032111329293	0.6081986172987399	n/a	n/a	n/a	n/a
103.556640625	0.2	212084	94	8	0	0	0	94	333	stimuli\Videos_short_600ms_vertflip\67.single_touch_with_sponge_short_vertflip_short_600ms.mp4	67.single_touch_with_sponge_short_vertflip_short_600ms.mp4	125.3020771019103	125.91030064490089	0.6082235429905722	n/a	n/a	n/a	n/a
104.35693359375	0.2	213723	95	8	0	0	0	95	199	stimuli\Videos_short_600ms_horvertflip\27.single_push_with_a_plastic_whisk_short_horvertflip_short_600ms.mp4	27.single_push_with_a_plastic_whisk_short_horvertflip_short_600ms.mp4	126.10199827807446	126.71027812380498	0.6082798457305216	n/a	n/a	n/a	n/a
105.15673828125	0.2	215361	96	8	0	0	0	96	340	stimuli\Videos_short_600ms_vertflip\73.single_stroke_with_flat_hand_short_vertflip_short_600ms.mp4	73.single_stroke_with_flat_hand_short_vertflip_short_600ms.mp4	126.90194408668754	127.5102605878476	0.6083165011600613	n/a	n/a	n/a	n/a
105.95654296875	0.2	216999	97	8	0	0	0	97	160	stimuli\Videos_short_600ms_horflip\73.single_stroke_with_flat_hand_short_horflip_short_600ms.mp4	73.single_stroke_with_flat_hand_short_horflip_short_600ms.mp4	127.70196907102832	128.31023806675148	0.6082689957231651	n/a	n/a	n/a	n/a
106.7568359375	0.2	218638	98	8	0	0	0	98	200	stimuli\Videos_short_600ms_horvertflip\28.single_injection_with_sharp_needle_short_horvertflip_short_600ms.mp4	28.single_injection_with_sharp_needle_short_horvertflip_short_600ms.mp4	128.50190168368658	129.11021495916884	0.60831327548226	9.0	9.0	7.296281145385365	1.0
149.7470703125	0.2	306682	99	8	1	0	0	0	47	stimuli\Videos_short_600ms\52.touch_top_to_bottom_with_hammer_short_short_600ms.mp4	52.touch_top_to_bottom_with_hammer_short_short_600ms.mp4	171.49240704769545	172.10075815158098	0.6083511038855249	n/a	n/a	n/a	n/a
150.546875	0.2	308320	100	8	1	0	0	1	359	stimuli\Videos_short_600ms_vertflip\90.repeated_touch_with_sponge_short_vertflip_short_600ms.mp4	90.repeated_touch_with_sponge_short_vertflip_short_600ms.mp4	172.29248422936803	172.90072478047796	0.6082405511099296	n/a	n/a	n/a	n/a
151.34716796875	0.2	309959	101	8	1	0	0	2	68	stimuli\Videos_short_600ms\71.single_stroke_with_finger_top_to_bottom_short_short_600ms.mp4	71.single_stroke_with_finger_top_to_bottom_short_short_600ms.mp4	173.09246610692367	173.70073598237718	0.6082698754535159	n/a	n/a	n/a	n/a
152.14697265625	0.2	311597	102	8	1	0	0	3	230	stimuli\Videos_short_600ms_horvertflip\55.touch_top_to_bottom_with_nail_file_short_horvertflip_short_600ms.mp4	55.touch_top_to_bottom_with_nail_file_short_horvertflip_short_600ms.mp4	173.89234710873689	174.50073868021673	0.6083915714798422	n/a	n/a	n/a	n/a
152.94677734375	0.2	313235	103	8	1	0	0	4	79	stimuli\Videos_short_600ms\81.single_stroke_top_to_bottom_with_cotton_pad_short_short_600ms.mp4	81.single_stroke_top_to_bottom_with_cotton_pad_short_short_600ms.mp4	174.69242956879134	175.30072466318052	0.6082950943891774	n/a	n/a	n/a	n/a
153.7470703125	0.2	314874	104	8	1	0	0	5	305	stimuli\Videos_short_600ms_vertflip\41.injection_with_blunt_syringe_short_vertflip_short_600ms.mp4	41.injection_with_blunt_syringe_short_vertflip_short_600ms.mp4	175.49232875169787	176.10070360830173	0.6083748566038594	n/a	n/a	n/a	n/a
154.546875	0.2	316512	105	8	1	0	0	6	269	stimuli\Videos_short_600ms_horvertflip\90.repeated_touch_with_sponge_short_horvertflip_short_600ms.mp4	90.repeated_touch_with_sponge_short_horvertflip_short_600ms.mp4	176.29228394410077	176.9006805007191	0.6083965566183451	n/a	n/a	n/a	n/a
155.3466796875	0.2	318150	106	8	1	0	0	7	237	stimuli\Videos_short_600ms_horvertflip\61.single_hit_with_rolling_pin_short_horvertflip_short_600ms.mp4	61.single_hit_with_rolling_pin_short_horvertflip_short_600ms.mp4	177.09241713526967	177.70061927148936	0.6082021362196883	n/a	n/a	n/a	n/a
156.14697265625	0.2	319789	107	8	1	0	0	8	85	stimuli\Videos_short_600ms\87.single_stroke_top_to_bottom_with_plastic_brush_short_short_600ms.mp4	87.single_stroke_top_to_bottom_with_plastic_brush_short_short_600ms.mp4	177.8922415410998	178.50058941930752	0.6083478782077236	n/a	n/a	n/a	n/a
156.94677734375	0.2	321427	108	8	1	0	0	9	244	stimuli\Videos_short_600ms_horvertflip\68.stroke_top_to_bottom_with_shawl_short_horvertflip_short_600ms.mp4	68.stroke_top_to_bottom_with_shawl_short_horvertflip_short_600ms.mp4	178.69224218623526	179.3005689509157	0.6083267646804416	n/a	n/a	n/a	n/a
157.74658203125	0.2	323065	109	8	1	0	0	10	11	stimuli\Videos_short_600ms\2.single_touch_with_finger_short_short_600ms.mp4	2.single_touch_with_finger_short_short_600ms.mp4	179.49226746381964	180.1005467230632	0.6082792592435453	n/a	n/a	n/a	n/a
158.546875	0.2	324704	110	8	1	0	0	11	100	stimuli\Videos_short_600ms_horflip\19.single_touch_with_rolling_pin_short_horflip_short_600ms.mp4	19.single_touch_with_rolling_pin_short_horflip_short_600ms.mp4	180.29217778997668	180.90052713440173	0.6083493444250507	n/a	n/a	n/a	n/a
159.3466796875	0.2	326342	111	8	1	0	0	12	110	stimuli\Videos_short_600ms_horflip\28.single_injection_with_sharp_needle_short_horflip_short_600ms.mp4	28.single_injection_with_sharp_needle_short_horflip_short_600ms.mp4	181.0921567350979	181.7005051997926	0.6083484646946999	n/a	n/a	n/a	n/a
160.146484375	0.2	327980	112	8	1	0	0	13	267	stimuli\Videos_short_600ms_horvertflip\89.single_touch_with_plastic_brush_short_horvertflip_short_600ms.mp4	89.single_touch_with_plastic_brush_short_horvertflip_short_600ms.mp4	181.89219139647207	182.5004838516704	0.6082924551983524	n/a	n/a	n/a	n/a
160.94677734375	0.2	329619	113	8	1	0	0	14	7	stimuli\Videos_short_600ms\16.repeated_touch_with_plastic_brush_short_short_600ms.mp4	16.repeated_touch_with_plastic_brush_short_short_600ms.mp4	182.6921149185839	183.30046191706128	0.6083469984773728	n/a	n/a	n/a	n/a
161.74658203125	0.2	331257	114	8	1	0	0	15	255	stimuli\Videos_short_600ms_horvertflip\78.single_stroke_top_to_bottom_with_soft_brush_short_horvertflip_short_600ms.mp4	78.single_stroke_top_to_bottom_with_soft_brush_short_horvertflip_short_600ms.mp4	183.49218212997948	184.100439102722	0.608256972742538	n/a	n/a	n/a	n/a
162.54638671875	0.2	332895	115	8	1	0	0	16	152	stimuli\Videos_short_600ms_horflip\66.stroke_top_to_bottom_with_sponge_short_horflip_short_600ms.mp4	66.stroke_top_to_bottom_with_sponge_short_horflip_short_600ms.mp4	184.2920942155972	184.90041980730393	0.6083255917067163	n/a	n/a	n/a	n/a
163.3466796875	0.2	334534	116	8	1	0	0	17	223	stimuli\Videos_short_600ms_horvertflip\49.repeated_slap_with_hand_short_horvertflip_short_600ms.mp4	49.repeated_slap_with_hand_short_horvertflip_short_600ms.mp4	185.0921018985753	185.7004008051292	0.608298906553955	n/a	n/a	n/a	n/a
164.146484375	0.2	336172	117	8	1	0	1	18	377	stimuli\Targets_short_600ms_horvertflip\hand-stroke_short_vertflip_short_600ms.mp4	hand-stroke_short_vertflip_short_600ms.mp4	185.89204418826696	186.50037505835553	0.6083308700885937	n/a	n/a	n/a	n/a
164.9462890625	0.2	337810	118	8	1	0	0	19	216	stimuli\Videos_short_600ms_horvertflip\42.single_slap_with_plastic_whisk_short_horvertflip_short_600ms.mp4	42.single_slap_with_plastic_whisk_short_horvertflip_short_600ms.mp4	186.6921427767104	187.3003446196867	0.6082018429763139	n/a	n/a	n/a	n/a
165.74658203125	0.2	339449	119	8	1	0	0	20	21	stimuli\Videos_short_600ms\29.single_pinch_with_tweezers_short_short_600ms.mp4	29.single_pinch_with_tweezers_short_short_600ms.mp4	187.49204313259065	188.1003141810179	0.6082710484272411	n/a	n/a	n/a	n/a
166.54638671875	0.2	341087	120	8	1	0	0	21	208	stimuli\Videos_short_600ms_horvertflip\35.single_punch_with_hand_short_horvertflip_short_600ms.mp4	35.single_punch_with_hand_short_horvertflip_short_600ms.mp4	188.2919681209196	188.90028755451385	0.6083194335942608	n/a	n/a	n/a	n/a
167.34619140625	0.2	342725	121	8	1	0	0	22	252	stimuli\Videos_short_600ms_horvertflip\75.(long)stroke_with_fingers_all_over_the_hand_short_horvertflip_short_600ms.mp4	75.(long)stroke_with_fingers_all_over_the_hand_short_horvertflip_short_600ms.mp4	189.09197228497624	189.7002609280098	0.6082886430335748	n/a	n/a	n/a	n/a
168.146484375	0.2	344364	122	8	1	0	0	23	140	stimuli\Videos_short_600ms_horflip\55.touch_top_to_bottom_with_nail_file_short_horflip_short_600ms.mp4	55.touch_top_to_bottom_with_nail_file_short_horflip_short_600ms.mp4	189.8919849530928	190.50022990285424	0.6082449497614562	n/a	n/a	n/a	n/a
168.9462890625	0.2	346002	123	8	1	0	0	24	142	stimuli\Videos_short_600ms_horflip\57.single_touch_with_nail_file_short_horflip_short_600ms.mp4	57.single_touch_with_nail_file_short_horflip_short_600ms.mp4	190.69201785500627	191.30020738175836	0.6081895267520849	n/a	n/a	n/a	n/a
169.74658203125	0.2	347641	124	8	1	0	0	25	197	stimuli\Videos_short_600ms_horvertflip\25.single_touch_with_stanley_knife_short_horvertflip_short_600ms.mp4	25.single_touch_with_stanley_knife_short_horvertflip_short_600ms.mp4	191.4918847811348	192.1001696120038	0.6082848308690245	n/a	n/a	n/a	n/a
170.54638671875	0.2	349279	125	8	1	0	0	26	151	stimuli\Videos_short_600ms_horflip\65.stroke_top_to_bottom_with_stanley_knife_short_horflip_short_600ms.mp4	65.stroke_top_to_bottom_with_stanley_knife_short_horflip_short_600ms.mp4	192.29188396005316	192.900139173335	0.6082552132818364	n/a	n/a	n/a	n/a
171.34619140625	0.2	350917	126	8	1	0	0	27	306	stimuli\Videos_short_600ms_vertflip\42.single_slap_with_plastic_whisk_short_vertflip_short_600ms.mp4	42.single_slap_with_plastic_whisk_short_vertflip_short_600ms.mp4	193.0918690632866	193.7001216373776	0.6082525740910114	n/a	n/a	n/a	n/a
172.146484375	0.2	352556	127	8	1	0	0	28	195	stimuli\Videos_short_600ms_horvertflip\23.single_push_with_a_spoon_short_horvertflip_short_600ms.mp4	23.single_push_with_a_spoon_short_horvertflip_short_600ms.mp4	193.89196120037445	194.5000929581695	0.6081317577950358	n/a	n/a	n/a	n/a
172.9462890625	0.2	354194	128	8	1	0	0	29	325	stimuli\Videos_short_600ms_vertflip\6.single_touch_with_flat_hand_short_vertflip_short_600ms.mp4	6.single_touch_with_flat_hand_short_vertflip_short_600ms.mp4	194.6917982156724	195.3000912573575	0.6082930416851013	n/a	n/a	n/a	n/a
173.74609375	0.2	355832	129	8	1	0	0	30	155	stimuli\Videos_short_600ms_horflip\69.stroke_with_soft_sock_short_horflip_short_600ms.mp4	69.stroke_with_soft_sock_short_horflip_short_600ms.mp4	195.49177774728037	196.1000672700443	0.6082895227639256	n/a	n/a	n/a	n/a
174.54638671875	0.2	357471	130	8	1	0	0	31	296	stimuli\Videos_short_600ms_vertflip\33.scratch_top_to_bottom_with_scissors_short_vertflip_short_600ms.mp4	33.scratch_top_to_bottom_with_scissors_short_vertflip_short_600ms.mp4	196.2921772034897	196.90004533543535	0.6078681319456791	n/a	n/a	n/a	n/a
175.34619140625	0.2	359109	131	8	1	0	0	32	113	stimuli\Videos_short_600ms_horflip\30.finger_pulling_back_another_finger_short_horflip_short_600ms.mp4	30.finger_pulling_back_another_finger_short_horflip_short_600ms.mp4	197.09261038269435	197.7000242805566	0.6074138978622159	n/a	n/a	n/a	n/a
176.14599609375	0.2	360747	132	8	1	0	0	33	23	stimuli\Videos_short_600ms\30.finger_pulling_back_another_finger_short_short_600ms.mp4	30.finger_pulling_back_another_finger_short_short_600ms.mp4	197.89237613983732	198.50000615811223	0.6076300182749037	n/a	n/a	n/a	n/a
176.9462890625	0.2	362386	133	8	1	0	0	34	137	stimuli\Videos_short_600ms_horflip\52.touch_top_to_bottom_with_hammer_short_horflip_short_600ms.mp4	52.touch_top_to_bottom_with_hammer_short_horflip_short_600ms.mp4	198.6917917643168	199.29998510323344	0.6081933389166352	n/a	n/a	n/a	n/a
177.74609375	0.2	364024	134	8	1	0	0	35	93	stimuli\Videos_short_600ms_horflip\12.repeated_touch_with_nail_file_short_horflip_short_600ms.mp4	12.repeated_touch_with_nail_file_short_horflip_short_600ms.mp4	199.4916950526313	200.09996375511128	0.608268702480018	n/a	n/a	n/a	n/a
178.5458984375	0.2	365662	135	8	1	0	0	36	24	stimuli\Videos_short_600ms\31.hand_grabbing_wrist_short_short_600ms.mp4	31.hand_grabbing_wrist_short_short_600ms.mp4	200.29167429099607	200.8999485651011	0.6082742741050424	n/a	n/a	n/a	n/a
179.34619140625	0.2	367301	136	8	1	0	0	37	57	stimuli\Videos_short_600ms\61.single_hit_with_rolling_pin_short_short_600ms.mp4	61.single_hit_with_rolling_pin_short_short_600ms.mp4	201.09166056720323	201.69992868319628	0.6082681159930416	n/a	n/a	n/a	n/a
180.14599609375	0.2	368939	137	8	1	0	0	38	14	stimuli\Videos_short_600ms\22.single_touch_with_metal_chopstick_short_short_600ms.mp4	22.single_touch_with_metal_chopstick_short_short_600ms.mp4	201.89164068529817	202.4999076283175	0.6082669430193164	n/a	n/a	n/a	n/a
180.94580078125	0.2	370577	138	8	1	0	0	39	221	stimuli\Videos_short_600ms_horvertflip\47.(long)scratching_with_finger_nails_short_horvertflip_short_600ms.mp4	47.(long)scratching_with_finger_nails_short_horvertflip_short_600ms.mp4	202.69161523176783	203.2998768964053	0.608261664637439	n/a	n/a	n/a	n/a
181.74609375	0.2	372216	139	8	1	0	0	40	225	stimuli\Videos_short_600ms_horvertflip\50.single_(long)hard_push_with_thumb_short_horvertflip_short_600ms.mp4	50.single_(long)hard_push_with_thumb_short_horvertflip_short_600ms.mp4	203.49160444040945	204.09985936044768	0.6082549200382346	n/a	n/a	n/a	n/a
182.5458984375	0.2	373854	140	8	1	0	0	41	227	stimuli\Videos_short_600ms_horvertflip\52.touch_top_to_bottom_with_hammer_short_horvertflip_short_600ms.mp4	52.touch_top_to_bottom_with_hammer_short_horvertflip_short_600ms.mp4	204.29164144773108	204.89983801232552	0.6081965645944365	n/a	n/a	n/a	n/a
183.345703125	0.2	375492	141	8	1	0	0	42	148	stimuli\Videos_short_600ms_horflip\62.touch_top_to_bottom_with_scissors_short_horflip_short_600ms.mp4	62.touch_top_to_bottom_with_scissors_short_horflip_short_600ms.mp4	205.0916074901411	205.69981842366408	0.6082109335229688	n/a	n/a	n/a	n/a
184.14599609375	0.2	377131	142	8	1	0	0	43	19	stimuli\Videos_short_600ms\27.single_push_with_a_plastic_whisk_short_short_600ms.mp4	27.single_push_with_a_plastic_whisk_short_short_600ms.mp4	205.8915057933173	206.49980382014087	0.6082980268236042	n/a	n/a	n/a	n/a
184.94580078125	0.2	378769	143	8	1	0	0	44	65	stimuli\Videos_short_600ms\69.stroke_with_soft_sock_short_short_600ms.mp4	69.stroke_with_soft_sock_short_short_600ms.mp4	206.69150614520936	207.29976986255087	0.6082637173415151	n/a	n/a	n/a	n/a
185.74560546875	0.2	380407	144	8	1	0	0	45	183	stimuli\Videos_short_600ms_horvertflip\12.repeated_touch_with_nail_file_short_horvertflip_short_600ms.mp4	12.repeated_touch_with_nail_file_short_horvertflip_short_600ms.mp4	207.4914897822257	208.09975291308024	0.6082631308545388	n/a	n/a	n/a	n/a
186.5458984375	0.2	382046	145	8	1	0	0	46	277	stimuli\Videos_short_600ms_vertflip\16.repeated_touch_with_plastic_brush_short_vertflip_short_600ms.mp4	16.repeated_touch_with_plastic_brush_short_vertflip_short_600ms.mp4	208.29144409489825	208.8997312717147	0.608287176816475	n/a	n/a	n/a	n/a
187.345703125	0.2	383684	146	8	1	0	0	47	28	stimuli\Videos_short_600ms\35.single_punch_with_hand_short_short_600ms.mp4	35.single_punch_with_hand_short_short_600ms.mp4	209.0915098400767	209.6997096303489	0.6081997902722378	n/a	n/a	n/a	n/a
188.14599609375	0.2	385323	147	8	1	0	0	48	104	stimuli\Videos_short_600ms_horflip\22.single_touch_with_metal_chopstick_short_horflip_short_600ms.mp4	22.single_touch_with_metal_chopstick_short_horflip_short_600ms.mp4	209.89142515137223	210.49968857547037	0.6082634240981406	n/a	n/a	n/a	n/a
188.94580078125	0.2	386961	148	8	1	0	0	49	231	stimuli\Videos_short_600ms_horvertflip\56.repeated_touch_with_nail_file_short_horvertflip_short_600ms.mp4	56.repeated_touch_with_nail_file_short_horvertflip_short_600ms.mp4	210.69140937487532	211.2996675205916	0.6082581457162632	n/a	n/a	n/a	n/a
189.74560546875	0.2	388599	149	8	1	0	0	50	120	stimuli\Videos_short_600ms_horflip\37.single_stab_with_nail_file_short_horflip_short_600ms.mp4	37.single_stab_with_nail_file_short_horflip_short_600ms.mp4	211.49150561737133	212.09964675895617	0.6081411415848379	n/a	n/a	n/a	n/a
190.5458984375	0.2	390238	150	8	1	0	0	51	294	stimuli\Videos_short_600ms_vertflip\31.hand_grabbing_wrist_short_vertflip_short_600ms.mp4	31.hand_grabbing_wrist_short_vertflip_short_600ms.mp4	212.29173411265697	212.89962599732095	0.6078918846640136	n/a	n/a	n/a	n/a
191.345703125	0.2	391876	151	8	1	0	0	52	143	stimuli\Videos_short_600ms_horflip\58.single_slap_with_pencil_short_horflip_short_600ms.mp4	58.single_slap_with_pencil_short_horflip_short_600ms.mp4	213.0916558753081	213.69960582217257	0.6079499468644372	n/a	n/a	n/a	n/a
192.1455078125	0.2	393514	152	8	1	0	0	53	122	stimuli\Videos_short_600ms_horflip\39.single_stab_with_scissors_short_horflip_short_600ms.mp4	39.single_stab_with_scissors_short_horflip_short_600ms.mp4	213.89134421618385	214.49963696462555	0.6082927484417269	n/a	n/a	n/a	n/a
192.94580078125	0.2	395153	153	8	1	0	0	54	210	stimuli\Videos_short_600ms_horvertflip\37.single_stab_with_nail_file_short_horvertflip_short_600ms.mp4	37.single_stab_with_nail_file_short_horvertflip_short_600ms.mp4	214.691274776138	215.2995648853887	0.6082901092506745	n/a	n/a	n/a	n/a
193.74560546875	0.2	396791	154	8	1	0	0	55	272	stimuli\Videos_short_600ms_vertflip\11.single_touch_with_lighter_short_vertflip_short_600ms.mp4	11.single_touch_with_lighter_short_vertflip_short_600ms.mp4	215.49134140104684	216.09955614673436	0.6082147456875191	n/a	n/a	n/a	n/a
194.54541015625	0.2	398429	155	8	1	0	0	56	71	stimuli\Videos_short_600ms\74.fingers_walking_from_top_to_bottom_short_short_600ms.mp4	74.fingers_walking_from_top_to_bottom_short_short_600ms.mp4	216.2912895556071	216.89954154321117	0.6082519876040351	n/a	n/a	n/a	n/a
195.345703125	0.2	400068	156	8	1	0	0	57	332	stimuli\Videos_short_600ms_vertflip\66.stroke_top_to_bottom_with_sponge_short_vertflip_short_600ms.mp4	66.stroke_top_to_bottom_with_sponge_short_vertflip_short_600ms.mp4	217.0913397588836	217.69954893294585	0.6082091740622673	n/a	n/a	n/a	n/a
196.1455078125	0.2	401706	157	8	1	0	0	58	235	stimuli\Videos_short_600ms_horvertflip\6.single_touch_with_flat_hand_short_horvertflip_short_600ms.mp4	6.single_touch_with_flat_hand_short_horvertflip_short_600ms.mp4	217.89134333645347	218.4995363821267	0.6081930456732607	n/a	n/a	n/a	n/a
196.9453125	0.2	403344	158	8	1	0	0	59	50	stimuli\Videos_short_600ms\55.touch_top_to_bottom_with_nail_file_short_short_600ms.mp4	55.touch_top_to_bottom_with_nail_file_short_short_600ms.mp4	218.6913184694099	219.29950506372757	0.6081865943176581	n/a	n/a	n/a	n/a
197.74560546875	0.2	404983	159	8	1	0	0	60	201	stimuli\Videos_short_600ms_horvertflip\29.single_pinch_with_tweezers_short_horvertflip_short_600ms.mp4	29.single_pinch_with_tweezers_short_horvertflip_short_600ms.mp4	219.4911727860706	220.099484008849	0.6083112227784113	n/a	n/a	n/a	n/a
198.54541015625	0.2	406621	160	8	1	0	0	61	52	stimuli\Videos_short_600ms\57.single_touch_with_nail_file_short_short_600ms.mp4	57.single_touch_with_nail_file_short_short_600ms.mp4	220.29115114470503	220.89947204451664	0.6083208998115879	n/a	n/a	n/a	n/a
199.34521484375	0.2	408259	161	8	1	0	0	62	15	stimuli\Videos_short_600ms\23.single_push_with_a_spoon_short_short_600ms.mp4	23.single_push_with_a_spoon_short_short_600ms.mp4	221.0911330222607	221.69944365855213	0.608310636291435	n/a	n/a	n/a	n/a
200.1455078125	0.2	409898	162	8	1	0	1	63	364	stimuli\Targets_short_600ms\hand-pinch_short_short_600ms.mp4	hand-pinch_short_short_600ms.mp4	221.89110434305255	222.4994308144894	0.6083264714368397	n/a	n/a	n/a	n/a
200.9453125	0.2	411536	163	8	1	0	0	64	149	stimuli\Videos_short_600ms_horflip\63.stroke_top_to_bottom_with_screwdriver_short_horflip_short_600ms.mp4	63.stroke_top_to_bottom_with_screwdriver_short_horflip_short_600ms.mp4	222.69118005850785	223.29940184203792	0.608221783530098	n/a	n/a	n/a	n/a
201.7451171875	0.2	413174	164	8	1	0	0	65	17	stimuli\Videos_short_600ms\25.single_touch_with_stanley_knife_short_short_600ms.mp4	25.single_touch_with_stanley_knife_short_short_600ms.mp4	223.49114932659583	224.09939339662697	0.6082440700311054	n/a	n/a	n/a	n/a
202.54541015625	0.2	414813	165	8	1	0	0	66	171	stimuli\Videos_short_600ms_horflip\83.single_stroke_top_to_bottom_with_cotton_bud_short_horflip_short_600ms.mp4	83.single_stroke_top_to_bottom_with_cotton_bud_short_horflip_short_600ms.mp4	224.29102329056673	224.89931955792963	0.6082962673629027	n/a	n/a	n/a	n/a
203.34521484375	0.2	416451	166	8	1	0	0	67	178	stimuli\Videos_short_600ms_horflip\9.single_touch_with_hammer_short_horflip_short_600ms.mp4	9.single_touch_with_hammer_short_horflip_short_600ms.mp4	225.09109783304825	225.699341609836	0.6082437767877309	n/a	n/a	n/a	n/a
204.14501953125	0.2	418089	167	8	1	0	0	68	87	stimuli\Videos_short_600ms\89.single_touch_with_plastic_brush_short_short_600ms.mp4	89.single_touch_with_plastic_brush_short_short_600ms.mp4	225.8909767821576	226.49931938198347	0.6083425998258463	n/a	n/a	n/a	n/a
204.9453125	0.2	419728	168	8	1	0	0	69	51	stimuli\Videos_short_600ms\56.repeated_touch_with_nail_file_short_short_600ms.mp4	56.repeated_touch_with_nail_file_short_short_600ms.mp4	226.6909788935104	227.29929774061793	0.6083188471075118	n/a	n/a	n/a	n/a
205.7451171875	0.2	421366	169	8	1	0	0	70	53	stimuli\Videos_short_600ms\58.single_slap_with_pencil_short_short_600ms.mp4	58.single_slap_with_pencil_short_short_600ms.mp4	227.4909355521304	228.09927521952204	0.6083396673916468	n/a	n/a	n/a	n/a
206.54541015625	0.2	423005	170	8	1	0	0	71	256	stimuli\Videos_short_600ms_horvertflip\79.long_with_soft_brush_all_over_the_hand_short_horvertflip_short_600ms.mp4	79.long_with_soft_brush_all_over_the_hand_short_horvertflip_short_600ms.mp4	228.29093971618727	228.89925299166953	0.60831327548226	n/a	n/a	n/a	n/a
207.34521484375	0.2	424643	171	8	1	0	0	72	177	stimuli\Videos_short_600ms_horflip\89.single_touch_with_plastic_brush_short_horflip_short_600ms.mp4	89.single_touch_with_plastic_brush_short_horflip_short_600ms.mp4	229.09112422495764	229.6992360421989	0.6081118172412516	n/a	n/a	n/a	n/a
208.14501953125	0.2	426281	172	8	1	0	0	73	37	stimuli\Videos_short_600ms\43.touch_top_to_bottom_with_sharp_wooden_stick_short_short_600ms.mp4	43.touch_top_to_bottom_with_sharp_wooden_stick_short_short_600ms.mp4	229.890960947012	230.499213521103	0.6082525740910114	n/a	n/a	n/a	n/a
208.9453125	0.2	427920	173	8	1	0	0	74	164	stimuli\Videos_short_600ms_horflip\77.tapping_with_all_fingers_short_horflip_short_600ms.mp4	77.tapping_with_all_fingers_short_horflip_short_600ms.mp4	230.6909237637442	231.2991924662242	0.608268702480018	n/a	n/a	n/a	n/a
209.7451171875	0.2	429558	174	8	1	0	0	75	114	stimuli\Videos_short_600ms_horflip\31.hand_grabbing_wrist_short_horflip_short_600ms.mp4	31.hand_grabbing_wrist_short_horflip_short_600ms.mp4	231.4908625345147	232.09917317080613	0.608310636291435	n/a	n/a	n/a	n/a
210.544921875	0.2	431196	175	8	1	0	0	76	220	stimuli\Videos_short_600ms_horvertflip\46.scratching_top_to_bottom_with_finger_nails_short_horvertflip_short_600ms.mp4	46.scratching_top_to_bottom_with_finger_nails_short_horvertflip_short_600ms.mp4	232.2908980756192	232.89915182268396	0.6082537470647367	n/a	n/a	n/a	n/a
211.34521484375	0.2	432835	176	8	1	0	0	77	170	stimuli\Videos_short_600ms_horflip\82.repeated_touch_with_cotton_bud_short_horflip_short_600ms.mp4	82.repeated_touch_with_cotton_bud_short_horflip_short_600ms.mp4	233.09078464905792	233.69913897862125	0.6083543295633262	n/a	n/a	n/a	n/a
212.14501953125	0.2	434473	177	8	1	0	0	78	77	stimuli\Videos_short_600ms\8.single_touch_with_hairbrush_short_short_600ms.mp4	8.single_touch_with_hairbrush_short_short_600ms.mp4	233.8907703387783	234.49910472778788	0.6083343890095421	n/a	n/a	n/a	n/a
212.94482421875	0.2	436111	178	8	1	0	0	79	315	stimuli\Videos_short_600ms_vertflip\50.single_(long)hard_push_with_thumb_short_vertflip_short_600ms.mp4	50.single_(long)hard_push_with_thumb_short_vertflip_short_600ms.mp4	234.6908132109686	235.29909569589017	0.608282484921574	n/a	n/a	n/a	n/a
213.7451171875	0.2	437750	179	8	1	0	0	80	284	stimuli\Videos_short_600ms_vertflip\22.single_touch_with_metal_chopstick_short_vertflip_short_600ms.mp4	22.single_touch_with_metal_chopstick_short_vertflip_short_600ms.mp4	235.49074113173197	236.0990678964124	0.6083267646804416	n/a	n/a	n/a	n/a
214.544921875	0.2	439388	180	8	1	0	0	81	48	stimuli\Videos_short_600ms\53.touch_top_to_bottom_with_knife_short_short_600ms.mp4	53.touch_top_to_bottom_with_knife_short_short_600ms.mp4	236.2907265282088	236.89904977396804	0.6083232457592658	n/a	n/a	n/a	n/a
215.3447265625	0.2	441026	181	8	1	0	0	82	111	stimuli\Videos_short_600ms_horflip\29.single_pinch_with_tweezers_short_horflip_short_600ms.mp4	29.single_pinch_with_tweezers_short_horflip_short_600ms.mp4	237.09070664630372	237.69903399747113	0.6083273511674179	n/a	n/a	n/a	n/a
216.14501953125	0.2	442665	182	8	1	0	0	83	328	stimuli\Videos_short_600ms_vertflip\62.touch_top_to_bottom_with_scissors_short_vertflip_short_600ms.mp4	62.touch_top_to_bottom_with_scissors_short_vertflip_short_600ms.mp4	237.89068441845143	238.4990170480005	0.6083326295490679	n/a	n/a	n/a	n/a
216.94482421875	0.2	444303	183	8	1	0	0	84	311	stimuli\Videos_short_600ms_vertflip\47.(long)scratching_with_finger_nails_short_vertflip_short_600ms.mp4	47.(long)scratching_with_finger_nails_short_vertflip_short_600ms.mp4	238.69064225004513	239.2989845566276	0.6083423065824718	n/a	n/a	n/a	n/a
217.7529296875	0.2	445958	184	8	1	0	0	85	245	stimuli\Videos_short_600ms_horvertflip\69.stroke_with_soft_sock_short_horvertflip_short_600ms.mp4	69.stroke_with_soft_sock_short_horvertflip_short_600ms.mp4	239.4989883101437	240.10728193831577	0.6082936281720777	n/a	n/a	n/a	n/a
218.55322265625	0.2	447597	185	8	1	0	0	86	327	stimuli\Videos_short_600ms_vertflip\61.single_hit_with_rolling_pin_short_vertflip_short_600ms.mp4	61.single_hit_with_rolling_pin_short_vertflip_short_600ms.mp4	240.29902824989972	240.9072714402007	0.608243190300982	n/a	n/a	n/a	n/a
219.35302734375	0.2	449235	186	8	1	0	0	87	33	stimuli\Videos_short_600ms\4.repeated_tap_with_finger_slow_short_short_600ms.mp4	4.repeated_tap_with_finger_slow_short_short_600ms.mp4	241.09905088829305	241.7072327907156	0.6081819024225297	n/a	n/a	n/a	n/a
220.15283203125	0.2	450873	187	8	1	0	0	88	26	stimuli\Videos_short_600ms\33.scratch_top_to_bottom_with_scissors_short_short_600ms.mp4	33.scratch_top_to_bottom_with_scissors_short_short_600ms.mp4	241.89895681579856	242.50727918182724	0.6083223660286876	n/a	n/a	n/a	n/a
220.953125	0.2	452512	188	8	1	0	1	89	370	stimuli\Targets_short_600ms_horflip\hand-pinch_short_horflip_short_600ms.mp4	hand-pinch_short_horflip_short_600ms.mp4	242.6990817961512	243.30720974178143	0.6081279456302582	n/a	n/a	n/a	n/a
221.7529296875	0.2	454150	189	8	1	0	0	90	141	stimuli\Videos_short_600ms_horflip\56.repeated_touch_with_nail_file_short_horflip_short_600ms.mp4	56.repeated_touch_with_nail_file_short_horflip_short_600ms.mp4	243.49886632087396	244.10718604771185	0.6083197268378626	n/a	n/a	n/a	n/a
222.55322265625	0.2	455789	190	8	1	0	0	91	198	stimuli\Videos_short_600ms_horvertflip\26.single_touch_with_a_blunt_syringe_short_horvertflip_short_600ms.mp4	26.single_touch_with_a_blunt_syringe_short_horvertflip_short_600ms.mp4	244.29885025113367	244.90716469958969	0.6083144484559853	n/a	n/a	n/a	n/a
223.35302734375	0.2	457427	191	8	1	0	0	92	9	stimuli\Videos_short_600ms\18.single_stroke_from_top_to_bottom_with_rolling_pin_short_short_600ms.mp4	18.single_stroke_from_top_to_bottom_with_rolling_pin_short_short_600ms.mp4	245.09889605575836	245.7071445244412	0.6082484686828593	3.0	2.0	5.22542121487254	0.0
262.3349609375	0.2	537262	192	8	2	0	0	0	250	stimuli\Videos_short_600ms_horvertflip\73.single_stroke_with_flat_hand_short_horvertflip_short_600ms.mp4	73.single_stroke_with_flat_hand_short_horvertflip_short_600ms.mp4	284.0811099615969	284.689451974936	0.6083420133390973	n/a	n/a	n/a	n/a
263.13525390625	0.2	538901	193	8	2	0	0	1	154	stimuli\Videos_short_600ms_horflip\68.stroke_top_to_bottom_with_shawl_short_horflip_short_600ms.mp4	68.stroke_top_to_bottom_with_shawl_short_horflip_short_600ms.mp4	284.8811428635104	285.48943326600465	0.6082904024942763	n/a	n/a	n/a	n/a
263.93505859375	0.2	540539	194	8	2	0	0	2	138	stimuli\Videos_short_600ms_horflip\53.touch_top_to_bottom_with_knife_short_horflip_short_600ms.mp4	53.touch_top_to_bottom_with_knife_short_horflip_short_600ms.mp4	285.6811464410803	286.28940957193504	0.6082631308547661	n/a	n/a	n/a	n/a
264.73486328125	0.2	542177	195	8	2	0	0	3	297	stimuli\Videos_short_600ms_vertflip\34.repeated_punch_with_hand_short_vertflip_short_600ms.mp4	34.repeated_punch_with_hand_short_vertflip_short_600ms.mp4	286.4810957686145	287.08938998327335	0.6082942146588266	n/a	n/a	n/a	n/a
265.53515625	0.2	543816	196	8	2	0	0	4	310	stimuli\Videos_short_600ms_vertflip\46.scratching_top_to_bottom_with_finger_nails_short_vertflip_short_600ms.mp4	46.scratching_top_to_bottom_with_finger_nails_short_vertflip_short_600ms.mp4	287.28114626513434	287.8893686351512	0.608222370016847	n/a	n/a	n/a	n/a
266.3349609375	0.2	545454	197	8	2	0	0	5	357	stimuli\Videos_short_600ms_vertflip\89.single_touch_with_plastic_brush_short_vertflip_short_600ms.mp4	89.single_touch_with_plastic_brush_short_vertflip_short_600ms.mp4	288.0810269737042	288.68934347486424	0.6083165011600613	n/a	n/a	n/a	n/a
267.134765625	0.2	547092	198	8	2	0	0	6	3	stimuli\Videos_short_600ms\12.repeated_touch_with_nail_file_short_short_600ms.mp4	12.repeated_touch_with_nail_file_short_short_600ms.mp4	288.88112350944357	289.489320074038	0.6081965645944365	n/a	n/a	n/a	n/a
267.93505859375	0.2	548731	199	8	2	0	0	7	44	stimuli\Videos_short_600ms\5.repeated_tap_with_finger_moving_from_top_to_bottom_short_short_600ms.mp4	5.repeated_tap_with_finger_moving_from_top_to_bottom_short_short_600ms.mp4	289.6810394072261	290.28929843267247	0.6082590254463867	n/a	n/a	n/a	n/a
268.73486328125	0.2	550369	200	8	2	0	0	8	109	stimuli\Videos_short_600ms_horflip\27.single_push_with_a_plastic_whisk_short_horflip_short_600ms.mp4	27.single_push_with_a_plastic_whisk_short_horflip_short_600ms.mp4	290.4810119009917	291.0892852953666	0.608273394374919	n/a	n/a	n/a	n/a
269.53466796875	0.2	552007	201	8	2	0	0	9	32	stimuli\Videos_short_600ms\39.single_stab_with_scissors_short_short_600ms.mp4	39.single_stab_with_scissors_short_short_600ms.mp4	291.2809565366308	291.8892366756047	0.6082801389738961	n/a	n/a	n/a	n/a
270.3349609375	0.2	553646	202	8	2	0	0	10	86	stimuli\Videos_short_600ms\88.repeated_stroke_with_plastic_brush_short_short_600ms.mp4	88.repeated_stroke_with_plastic_brush_short_short_600ms.mp4	292.0810331318164	292.68924289236566	0.6082097605492436	n/a	n/a	n/a	n/a
271.134765625	0.2	555284	203	8	2	0	0	11	188	stimuli\Videos_short_600ms_horvertflip\17.repeated_touch_with_rolling_pin_short_horvertflip_short_600ms.mp4	17.repeated_touch_with_rolling_pin_short_horvertflip_short_600ms.mp4	292.8808827565822	293.48922858208584	0.6083458255036476	n/a	n/a	n/a	n/a
271.9345703125	0.2	556922	204	8	2	0	0	12	193	stimuli\Videos_short_600ms_horvertflip\21.repeated_touch_with_metal_chopstick_short_horvertflip_short_600ms.mp4	21.repeated_touch_with_metal_chopstick_short_horvertflip_short_600ms.mp4	293.6808370692547	294.28920811369403	0.6083710444393091	n/a	n/a	n/a	n/a
272.73486328125	0.2	558561	205	8	2	0	0	13	318	stimuli\Videos_short_600ms_vertflip\53.touch_top_to_bottom_with_knife_short_vertflip_short_600ms.mp4	53.touch_top_to_bottom_with_knife_short_vertflip_short_600ms.mp4	294.4811981105738	295.08918823178897	0.6079901212151526	n/a	n/a	n/a	n/a
273.53466796875	0.2	560199	206	8	2	0	0	14	351	stimuli\Videos_short_600ms_vertflip\83.single_stroke_top_to_bottom_with_cotton_bud_short_vertflip_short_600ms.mp4	83.single_stroke_top_to_bottom_with_cotton_bud_short_vertflip_short_600ms.mp4	295.28083102843993	295.8891601390678	0.6083291106278921	n/a	n/a	n/a	n/a
274.33447265625	0.2	561837	207	8	2	0	0	15	84	stimuli\Videos_short_600ms\86.touch_top_to_bottom_with_hair_brush_short_short_600ms.mp4	86.touch_top_to_bottom_with_hair_brush_short_short_600ms.mp4	296.0808167181601	296.6891478814921	0.6083311633319681	n/a	n/a	n/a	n/a
275.134765625	0.2	563476	208	8	2	0	0	16	226	stimuli\Videos_short_600ms_horvertflip\51.repeated_touch_with_hammer_short_horvertflip_short_600ms.mp4	51.repeated_touch_with_hammer_short_horvertflip_short_600ms.mp4	296.8807865727349	297.4891159766062	0.6083294038712665	n/a	n/a	n/a	n/a
275.9345703125	0.2	565114	209	8	2	0	0	17	175	stimuli\Videos_short_600ms_horflip\87.single_stroke_top_to_bottom_with_plastic_brush_short_horflip_short_600ms.mp4	87.single_stroke_top_to_bottom_with_plastic_brush_short_horflip_short_600ms.mp4	297.68081742194454	298.2890919892932	0.6082745673486443	n/a	n/a	n/a	n/a
276.734375	0.2	566752	210	8	2	0	0	18	260	stimuli\Videos_short_600ms_horvertflip\82.repeated_touch_with_cotton_bud_short_horvertflip_short_600ms.mp4	82.repeated_touch_with_cotton_bud_short_horvertflip_short_600ms.mp4	298.48075062108956	299.0890724006315	0.6083217795419387	n/a	n/a	n/a	n/a
277.53466796875	0.2	568391	211	8	2	0	0	19	214	stimuli\Videos_short_600ms_horvertflip\40.repeated_push_with_finger_short_horvertflip_short_600ms.mp4	40.repeated_push_with_finger_short_horvertflip_short_600ms.mp4	299.28084187844706	299.88904958629223	0.6082077078451675	n/a	n/a	n/a	n/a
278.33447265625	0.2	570029	212	8	2	0	0	20	27	stimuli\Videos_short_600ms\34.repeated_punch_with_hand_short_short_600ms.mp4	34.repeated_punch_with_hand_short_short_600ms.mp4	300.0807249329646	300.6890302908739	0.6083053579093303	n/a	n/a	n/a	n/a
279.134765625	0.2	571668	213	8	2	0	0	21	349	stimuli\Videos_short_600ms_vertflip\81.single_stroke_top_to_bottom_with_cotton_pad_short_vertflip_short_600ms.mp4	81.single_stroke_top_to_bottom_with_cotton_pad_short_vertflip_short_600ms.mp4	300.88066399697846	301.4890080630214	0.608344066042946	n/a	n/a	n/a	n/a
279.9345703125	0.2	573306	214	8	2	0	0	22	179	stimuli\Videos_short_600ms_horflip\90.repeated_touch_with_sponge_short_horflip_short_600ms.mp4	90.repeated_touch_with_sponge_short_horflip_short_600ms.mp4	301.6807793002977	302.28898700814284	0.6082077078451675	n/a	n/a	n/a	n/a
280.734375	0.2	574944	215	8	2	0	0	23	229	stimuli\Videos_short_600ms_horvertflip\54.repeated_touch_with_knife_short_horvertflip_short_600ms.mp4	54.repeated_touch_with_knife_short_horvertflip_short_600ms.mp4	302.480720710259	303.0889911721995	0.6082704619404922	n/a	n/a	n/a	n/a
281.53466796875	0.2	576583	216	8	2	0	0	24	307	stimuli\Videos_short_600ms_vertflip\43.touch_top_to_bottom_with_sharp_wooden_stick_short_vertflip_short_600ms.mp4	43.touch_top_to_bottom_with_sharp_wooden_stick_short_vertflip_short_600ms.mp4	303.28064863102236	303.8889443118983	0.6082956808759263	n/a	n/a	n/a	n/a
282.33447265625	0.2	578221	217	8	2	0	0	25	147	stimuli\Videos_short_600ms_horflip\61.single_hit_with_rolling_pin_short_horflip_short_600ms.mp4	61.single_hit_with_rolling_pin_short_horflip_short_600ms.mp4	304.0806076355898	304.68890185024884	0.608294214659054	n/a	n/a	n/a	n/a
283.13427734375	0.2	579859	218	8	2	0	0	26	330	stimuli\Videos_short_600ms_vertflip\64.repeated_touch_with_screwdriver_short_vertflip_short_600ms.mp4	64.repeated_touch_with_screwdriver_short_vertflip_short_600ms.mp4	304.88066429022183	305.4888766899619	0.6082123997400686	n/a	n/a	n/a	n/a
283.9345703125	0.2	581498	219	8	2	0	0	27	273	stimuli\Videos_short_600ms_vertflip\12.repeated_touch_with_nail_file_short_vertflip_short_600ms.mp4	12.repeated_touch_with_nail_file_short_vertflip_short_600ms.mp4	305.68061273802573	306.28887792158434	0.6082651835586148	n/a	n/a	n/a	n/a
284.734375	0.2	583136	220	8	2	0	0	28	278	stimuli\Videos_short_600ms_vertflip\17.repeated_touch_with_rolling_pin_short_vertflip_short_600ms.mp4	17.repeated_touch_with_rolling_pin_short_vertflip_short_600ms.mp4	306.48054593717075	307.08885569373183	0.6083097565610842	n/a	n/a	n/a	n/a
285.5341796875	0.2	584774	221	8	2	0	0	29	335	stimuli\Videos_short_600ms_vertflip\69.stroke_with_soft_sock_short_vertflip_short_600ms.mp4	69.stroke_with_soft_sock_short_vertflip_short_600ms.mp4	307.2805166714759	307.88882584155	0.6083091700741079	n/a	n/a	n/a	n/a
286.33447265625	0.2	586413	222	8	2	0	0	30	191	stimuli\Videos_short_600ms_horvertflip\2.single_touch_with_finger_short_horvertflip_short_600ms.mp4	2.single_touch_with_finger_short_horvertflip_short_600ms.mp4	308.0805143841769	308.68881915559973	0.6083047714228087	n/a	n/a	n/a	n/a
287.13427734375	0.2	588051	223	8	2	0	0	31	41	stimuli\Videos_short_600ms\47.(long)scratching_with_finger_nails_short_short_600ms.mp4	47.(long)scratching_with_finger_nails_short_short_600ms.mp4	308.88051884147717	309.48879751423397	0.6082786727567964	n/a	n/a	n/a	n/a
287.93408203125	0.2	589689	224	8	2	0	0	32	259	stimuli\Videos_short_600ms_horvertflip\81.single_stroke_top_to_bottom_with_cotton_pad_short_horvertflip_short_600ms.mp4	81.single_stroke_top_to_bottom_with_cotton_pad_short_horvertflip_short_600ms.mp4	309.6805300433766	310.2887758728684	0.6082458294918069	n/a	n/a	n/a	n/a
288.734375	0.2	591328	225	8	2	0	0	33	156	stimuli\Videos_short_600ms_horflip\7.repeated_touch_with_hairbrush_short_horflip_short_600ms.mp4	7.repeated_touch_with_hairbrush_short_horflip_short_600ms.mp4	310.48040430059086	311.08875481798964	0.608350517398776	n/a	n/a	n/a	n/a
289.5341796875	0.2	592966	226	8	2	0	0	34	358	stimuli\Videos_short_600ms_vertflip\9.single_touch_with_hammer_short_vertflip_short_600ms.mp4	9.single_touch_with_hammer_short_vertflip_short_600ms.mp4	311.2804108105952	311.88873112392	0.6083203133248389	n/a	n/a	n/a	n/a
290.333984375	0.2	594604	227	8	2	0	0	35	187	stimuli\Videos_short_600ms_horvertflip\16.repeated_touch_with_plastic_brush_short_horvertflip_short_600ms.mp4	16.repeated_touch_with_plastic_brush_short_horvertflip_short_600ms.mp4	312.0803944476115	312.68870977579786	0.608315328186336	n/a	n/a	n/a	n/a
291.13427734375	0.2	596243	228	8	2	0	0	36	168	stimuli\Videos_short_600ms_horflip\80.stroke_with_sharp_stick_all_over_the_hand_short_horflip_short_600ms.mp4	80.stroke_with_sharp_stick_all_over_the_hand_short_horflip_short_600ms.mp4	312.8803493467708	313.4886898938928	0.6083405471219976	n/a	n/a	n/a	n/a
291.93408203125	0.2	597881	229	8	2	0	0	37	334	stimuli\Videos_short_600ms_vertflip\68.stroke_top_to_bottom_with_shawl_short_vertflip_short_600ms.mp4	68.stroke_top_to_bottom_with_shawl_short_vertflip_short_600ms.mp4	313.68044793521426	314.2886691322574	0.6082211970431217	n/a	n/a	n/a	n/a
292.73388671875	0.2	599519	230	8	2	0	0	38	213	stimuli\Videos_short_600ms_horvertflip\4.repeated_tap_with_finger_slow_short_horvertflip_short_600ms.mp4	4.repeated_tap_with_finger_slow_short_horvertflip_short_600ms.mp4	314.4803321627055	315.0886451449444	0.6083129822388855	n/a	n/a	n/a	n/a
293.5341796875	0.2	601158	231	8	2	0	0	39	242	stimuli\Videos_short_600ms_horvertflip\66.stroke_top_to_bottom_with_sponge_short_horvertflip_short_600ms.mp4	66.stroke_top_to_bottom_with_sponge_short_horvertflip_short_600ms.mp4	315.28041139708216	315.888624383309	0.6082129862268175	n/a	n/a	n/a	n/a
294.333984375	0.2	602796	232	8	2	0	0	40	25	stimuli\Videos_short_600ms\32.single_(long)pinch_with_fingers_short_short_600ms.mp4	32.single_(long)pinch_with_fingers_short_short_600ms.mp4	316.08034342325345	316.68860567437787	0.6082622511244153	n/a	n/a	n/a	n/a
295.1337890625	0.2	604434	233	8	2	0	0	41	128	stimuli\Videos_short_600ms_horflip\44.pushing_top_to_bottom_with_finger_short_horflip_short_600ms.mp4	44.pushing_top_to_bottom_with_finger_short_horflip_short_600ms.mp4	316.8804126873531	317.488581980308	0.6081692929549263	n/a	n/a	n/a	n/a
295.93408203125	0.2	606073	234	8	2	0	0	42	289	stimuli\Videos_short_600ms_vertflip\27.single_push_with_a_plastic_whisk_short_vertflip_short_600ms.mp4	27.single_push_with_a_plastic_whisk_short_vertflip_short_600ms.mp4	317.6803224270234	318.28856268488994	0.6082402578665551	n/a	n/a	n/a	n/a
296.73388671875	0.2	607711	235	8	2	0	0	43	125	stimuli\Videos_short_600ms_horflip\41.injection_with_blunt_syringe_short_horflip_short_600ms.mp4	41.injection_with_blunt_syringe_short_horflip_short_600ms.mp4	318.48026149103725	319.0885442692022	0.6082827781649485	n/a	n/a	n/a	n/a
297.53369140625	0.2	609349	236	8	2	0	0	44	239	stimuli\Videos_short_600ms_horvertflip\63.stroke_top_to_bottom_with_screwdriver_short_horvertflip_short_600ms.mp4	63.stroke_top_to_bottom_with_screwdriver_short_horvertflip_short_600ms.mp4	319.2803163862086	319.88850151430916	0.6081851281005584	n/a	n/a	n/a	n/a
298.333984375	0.2	610988	237	8	2	0	1	45	363	stimuli\Targets_short_600ms\finger-tap_short_short_600ms.mp4	finger-tap_short_short_600ms.mp4	320.08068798429144	320.6885009864709	0.607813002179455	n/a	n/a	n/a	n/a
299.1337890625	0.2	612626	238	8	2	0	0	46	64	stimuli\Videos_short_600ms\68.stroke_top_to_bottom_with_shawl_short_short_600ms.mp4	68.stroke_top_to_bottom_with_shawl_short_short_600ms.mp4	320.88026254671377	321.4884509004919	0.6081883537781323	n/a	n/a	n/a	n/a
299.93408203125	0.2	614265	239	8	2	0	0	47	331	stimuli\Videos_short_600ms_vertflip\65.stroke_top_to_bottom_with_stanley_knife_short_vertflip_short_600ms.mp4	65.stroke_top_to_bottom_with_stanley_knife_short_vertflip_short_600ms.mp4	321.6801180363482	322.2884621023911	0.608344066042946	n/a	n/a	n/a	n/a
300.73388671875	0.2	615903	240	8	2	0	0	48	248	stimuli\Videos_short_600ms_horvertflip\71.single_stroke_with_finger_top_to_bottom_short_horvertflip_short_600ms.mp4	71.single_stroke_with_finger_top_to_bottom_short_horvertflip_short_600ms.mp4	322.4801468328535	323.08843430291336	0.6082874700598495	n/a	n/a	n/a	n/a
301.53369140625	0.2	617541	241	8	2	0	0	49	254	stimuli\Videos_short_600ms_horvertflip\77.tapping_with_all_fingers_short_horvertflip_short_600ms.mp4	77.tapping_with_all_fingers_short_horvertflip_short_600ms.mp4	323.2800987995786	323.88842849669345	0.6083296971148684	n/a	n/a	n/a	n/a
302.333984375	0.2	619180	242	8	2	0	0	50	169	stimuli\Videos_short_600ms_horflip\81.single_stroke_top_to_bottom_with_cotton_pad_short_horflip_short_600ms.mp4	81.single_stroke_top_to_bottom_with_cotton_pad_short_horflip_short_600ms.mp4	324.08005927036334	324.6883951255902	0.6083358552268692	n/a	n/a	n/a	n/a
303.1337890625	0.2	620818	243	8	2	0	0	51	276	stimuli\Videos_short_600ms_vertflip\15.single_stroke_top_to_bottom_with_a_plastic_whisk_short_vertflip_short_600ms.mp4	15.single_stroke_top_to_bottom_with_a_plastic_whisk_short_vertflip_short_600ms.mp4	324.880049945222	325.4883793490933	0.6083294038712665	n/a	n/a	n/a	n/a
303.93359375	0.2	622456	244	8	2	0	0	52	316	stimuli\Videos_short_600ms_vertflip\51.repeated_touch_with_hammer_short_vertflip_short_600ms.mp4	51.repeated_touch_with_hammer_short_vertflip_short_600ms.mp4	325.68000132546035	326.2883486171813	0.6083472917209747	n/a	n/a	n/a	n/a
304.73388671875	0.2	624095	245	8	2	0	0	53	126	stimuli\Videos_short_600ms_horflip\42.single_slap_with_plastic_whisk_short_horflip_short_600ms.mp4	42.single_slap_with_plastic_whisk_short_horflip_short_600ms.mp4	326.4799793908512	327.08828650822124	0.6083071173700318	n/a	n/a	n/a	n/a
305.53369140625	0.2	625733	246	8	2	0	0	54	345	stimuli\Videos_short_600ms_vertflip\78.single_stroke_top_to_bottom_with_soft_brush_short_vertflip_short_600ms.mp4	78.single_stroke_top_to_bottom_with_soft_brush_short_vertflip_short_600ms.mp4	327.28005715901054	327.8883249817602	0.6082678227496672	n/a	n/a	n/a	n/a
306.33349609375	0.2	627371	247	8	2	0	0	55	341	stimuli\Videos_short_600ms_vertflip\74.fingers_walking_from_top_to_bottom_short_vertflip_short_600ms.mp4	74.fingers_walking_from_top_to_bottom_short_vertflip_short_600ms.mp4	328.0800874217332	328.68828369308426	0.608196271351062	n/a	n/a	n/a	n/a
307.1337890625	0.2	629010	248	8	2	0	0	56	132	stimuli\Videos_short_600ms_horflip\48.single_slap_with_hand_short_horflip_short_600ms.mp4	48.single_slap_with_hand_short_horflip_short_600ms.mp4	328.8800370425108	329.4882658638835	0.608228821372677	n/a	n/a	n/a	n/a
307.93359375	0.2	630648	249	8	2	0	0	57	336	stimuli\Videos_short_600ms_vertflip\7.repeated_touch_with_hairbrush_short_vertflip_short_600ms.mp4	7.repeated_touch_with_hairbrush_short_vertflip_short_600ms.mp4	329.68006319982555	330.2882257481813	0.6081625483557218	n/a	n/a	n/a	n/a
308.7333984375	0.2	632286	250	8	2	0	0	58	172	stimuli\Videos_short_600ms_horflip\84.single_touch_with_cotton_bud_short_horflip_short_600ms.mp4	84.single_touch_with_cotton_bud_short_horflip_short_600ms.mp4	330.47990578674876	331.08822346088255	0.6083176741337866	n/a	n/a	n/a	n/a
309.53369140625	0.2	633925	251	8	2	0	0	59	58	stimuli\Videos_short_600ms\62.touch_top_to_bottom_with_scissors_short_short_600ms.mp4	62.touch_top_to_bottom_with_scissors_short_short_600ms.mp4	331.2798859048437	331.88820093978666	0.6083150349429616	n/a	n/a	n/a	n/a
310.33349609375	0.2	635563	252	8	2	0	0	60	266	stimuli\Videos_short_600ms_horvertflip\88.repeated_stroke_with_plastic_brush_short_horvertflip_short_600ms.mp4	88.repeated_stroke_with_plastic_brush_short_horvertflip_short_600ms.mp4	332.07983464589097	332.6881790051775	0.6083443592865478	n/a	n/a	n/a	n/a
311.13330078125	0.2	637201	253	8	2	0	0	61	203	stimuli\Videos_short_600ms_horvertflip\30.finger_pulling_back_another_finger_short_horvertflip_short_600ms.mp4	30.finger_pulling_back_another_finger_short_horvertflip_short_600ms.mp4	332.87981417749916	333.48815970975943	0.6083455322602731	n/a	n/a	n/a	n/a
311.93359375	0.2	638840	254	8	2	0	0	62	212	stimuli\Videos_short_600ms_horvertflip\39.single_stab_with_scissors_short_horvertflip_short_600ms.mp4	39.single_stab_with_scissors_short_horvertflip_short_600ms.mp4	333.6798887199807	334.2881357224462	0.6082470024655322	n/a	n/a	n/a	n/a
312.7333984375	0.2	640478	255	8	2	0	0	63	300	stimuli\Videos_short_600ms_vertflip\37.single_stab_with_nail_file_short_vertflip_short_600ms.mp4	37.single_stab_with_nail_file_short_vertflip_short_600ms.mp4	334.4799389232569	335.0881164270281	0.6081775037712305	n/a	n/a	n/a	n/a
313.533203125	0.2	642116	256	8	2	0	0	64	135	stimuli\Videos_short_600ms_horflip\50.single_(long)hard_push_with_thumb_short_horflip_short_600ms.mp4	50.single_(long)hard_push_with_thumb_short_horflip_short_600ms.mp4	335.28015950097006	335.8880763113259	0.6079168103558459	n/a	n/a	n/a	n/a
314.33349609375	0.2	643755	257	8	2	0	0	65	13	stimuli\Videos_short_600ms\21.repeated_touch_with_metal_chopstick_short_short_600ms.mp4	21.repeated_touch_with_metal_chopstick_short_short_600ms.mp4	336.08023785561636	336.68804704563104	0.6078091900146774	n/a	n/a	n/a	n/a
315.13330078125	0.2	645393	258	8	2	0	0	66	206	stimuli\Videos_short_600ms_horvertflip\33.scratch_top_to_bottom_with_scissors_short_horvertflip_short_600ms.mp4	33.scratch_top_to_bottom_with_scissors_short_horvertflip_short_600ms.mp4	336.87984291535577	337.4880479840101	0.6082050686543425	n/a	n/a	n/a	n/a
315.93310546875	0.2	647031	259	8	2	0	0	67	222	stimuli\Videos_short_600ms_horvertflip\48.single_slap_with_hand_short_horvertflip_short_600ms.mp4	48.single_slap_with_hand_short_horvertflip_short_600ms.mp4	337.67977904693544	338.2880322075132	0.6082531605777604	n/a	n/a	n/a	n/a
316.7333984375	0.2	648670	260	8	2	0	0	68	157	stimuli\Videos_short_600ms_horflip\70.(long)stroke_with_finger_all_over_the_hand_short_horflip_short_600ms.mp4	70.(long)stroke_with_finger_all_over_the_hand_short_horflip_short_600ms.mp4	338.47965916901853	339.08801379182523	0.6083546228067007	n/a	n/a	n/a	n/a
317.533203125	0.2	650308	261	8	2	0	1	69	366	stimuli\Targets_short_600ms_horflip\brush-stroke_short_horflip_short_600ms.mp4	brush-stroke_short_horflip_short_600ms.mp4	339.2796662655096	339.8879971355982	0.6083308700885937	n/a	n/a	n/a	n/a
318.33349609375	0.2	651947	262	8	2	0	0	70	180	stimuli\Videos_short_600ms_horvertflip\1.repeated_touch_with_finger_fast_short_horvertflip_short_600ms.mp4	1.repeated_touch_with_finger_fast_short_horvertflip_short_600ms.mp4	340.0797428606952	340.6879684563901	0.6082255956948757	n/a	n/a	n/a	n/a
319.13330078125	0.2	653585	263	8	2	0	0	71	258	stimuli\Videos_short_600ms_horvertflip\80.stroke_with_sharp_stick_all_over_the_hand_short_horvertflip_short_600ms.mp4	80.stroke_with_sharp_stick_all_over_the_hand_short_horvertflip_short_600ms.mp4	340.87973617474495	341.48794652178094	0.6082103470359925	n/a	n/a	n/a	n/a
319.93310546875	0.2	655223	264	8	2	0	1	72	378	stimuli\Targets_short_600ms_vertflip\brush-stroke_short_horvertflip_short_600ms.mp4	brush-stroke_short_horvertflip_short_600ms.mp4	341.67972538338654	342.28793719663963	0.6082118132530923	n/a	n/a	n/a	n/a
320.7333984375	0.2	656862	265	8	2	0	0	73	262	stimuli\Videos_short_600ms_horvertflip\84.single_touch_with_cotton_bud_short_horvertflip_short_600ms.mp4	84.single_touch_with_cotton_bud_short_horvertflip_short_600ms.mp4	342.4796465595507	343.08790470526696	0.6082581457162632	n/a	n/a	n/a	n/a
321.533203125	0.2	658500	266	8	2	0	0	74	10	stimuli\Videos_short_600ms\19.single_touch_with_rolling_pin_short_short_600ms.mp4	19.single_touch_with_rolling_pin_short_short_600ms.mp4	343.27967682227336	343.8878836503882	0.6082068281148167	n/a	n/a	n/a	n/a
322.3330078125	0.2	660138	267	8	2	0	0	75	159	stimuli\Videos_short_600ms_horflip\72.(short)stroke_with_finger_all_over_the_hand_short_horflip_short_600ms.mp4	72.(short)stroke_with_finger_all_over_the_hand_short_horflip_short_600ms.mp4	344.0796633917239	344.68786288875276	0.6081994970288633	n/a	n/a	n/a	n/a
323.13330078125	0.2	661777	268	8	2	0	0	76	279	stimuli\Videos_short_600ms_vertflip\18.single_stroke_from_top_to_bottom_with_rolling_pin_short_vertflip_short_600ms.mp4	18.single_stroke_from_top_to_bottom_with_rolling_pin_short_vertflip_short_600ms.mp4	344.8794995272915	345.48783743522245	0.6083379079309452	n/a	n/a	n/a	n/a
323.93310546875	0.2	663415	269	8	2	0	0	77	35	stimuli\Videos_short_600ms\41.injection_with_blunt_syringe_short_short_600ms.mp4	41.injection_with_blunt_syringe_short_short_600ms.mp4	345.6794984129665	346.2878190195347	0.6083206065682134	n/a	n/a	n/a	n/a
324.73291015625	0.2	665053	270	8	2	0	0	78	209	stimuli\Videos_short_600ms_horvertflip\36.single_slap_with_full_hand_short_horvertflip_short_600ms.mp4	36.single_slap_with_full_hand_short_horvertflip_short_600ms.mp4	346.4795263297417	347.0877950322215	0.6082687024797906	n/a	n/a	n/a	n/a
325.533203125	0.2	666692	271	8	2	0	0	79	163	stimuli\Videos_short_600ms_horflip\76.tickle_with_fingers_from_top_to_bottom_short_horflip_short_600ms.mp4	76.tickle_with_fingers_from_top_to_bottom_short_horflip_short_600ms.mp4	347.2795231627126	347.88777397734293	0.6082508146303098	n/a	n/a	n/a	n/a
326.3330078125	0.2	668330	272	8	2	0	0	80	18	stimuli\Videos_short_600ms\26.single_touch_with_a_blunt_syringe_short_short_600ms.mp4	26.single_touch_with_a_blunt_syringe_short_short_600ms.mp4	348.0805771382725	348.68775438868124	0.6071772504087676	n/a	n/a	n/a	n/a
327.1328125	0.2	669968	273	8	2	0	0	81	313	stimuli\Videos_short_600ms_vertflip\49.repeated_slap_with_hand_short_vertflip_short_600ms.mp4	49.repeated_slap_with_hand_short_vertflip_short_600ms.mp4	348.8800083046542	349.48773392028943	0.6077256156352178	n/a	n/a	n/a	n/a
327.93310546875	0.2	671607	274	8	2	0	0	82	352	stimuli\Videos_short_600ms_vertflip\84.single_touch_with_cotton_bud_short_vertflip_short_600ms.mp4	84.single_touch_with_cotton_bud_short_vertflip_short_600ms.mp4	349.6796248008877	350.2877087600025	0.6080839591147651	n/a	n/a	n/a	n/a
328.73291015625	0.2	673245	275	8	2	0	0	83	354	stimuli\Videos_short_600ms_vertflip\86.touch_top_to_bottom_with_hair_brush_short_vertflip_short_600ms.mp4	86.touch_top_to_bottom_with_hair_brush_short_vertflip_short_600ms.mp4	350.479460056725	351.0876926902622	0.6082326335372272	n/a	n/a	n/a	n/a
329.53271484375	0.2	674883	276	8	2	0	1	84	379	stimuli\Targets_short_600ms_vertflip\chopstick-silver-tap_short_horvertflip_short_600ms.mp4	chopstick-silver-tap_short_horvertflip_short_600ms.mp4	351.2793263963665	351.8876751543046	0.6083487579380744	n/a	n/a	n/a	n/a
330.3330078125	0.2	676522	277	8	2	0	0	85	69	stimuli\Videos_short_600ms\72.(short)stroke_with_finger_all_over_the_hand_short_short_600ms.mp4	72.(short)stroke_with_finger_all_over_the_hand_short_short_600ms.mp4	352.0794604672658	352.6876233088651	0.6081628415993237	n/a	n/a	n/a	n/a
331.1328125	0.2	678160	278	8	2	0	0	86	339	stimuli\Videos_short_600ms_vertflip\72.(short)stroke_with_finger_all_over_the_hand_short_vertflip_short_600ms.mp4	72.(short)stroke_with_finger_all_over_the_hand_short_vertflip_short_600ms.mp4	352.8794247502153	353.4876004945256	0.6081757443103015	n/a	n/a	n/a	n/a
331.9326171875	0.2	679798	279	8	2	0	0	87	174	stimuli\Videos_short_600ms_horflip\86.touch_top_to_bottom_with_hair_brush_short_horflip_short_600ms.mp4	86.touch_top_to_bottom_with_hair_brush_short_horflip_short_600ms.mp4	353.6793817020787	354.2876075910169	0.6082258889382501	n/a	n/a	n/a	n/a
332.73291015625	0.2	681437	280	8	2	0	1	88	376	stimuli\Targets_short_600ms_horvertflip\hand-pinch_short_vertflip_short_600ms.mp4	hand-pinch_short_vertflip_short_600ms.mp4	354.47937618910214	355.08758624289476	0.608210053792618	n/a	n/a	n/a	n/a
333.53271484375	0.2	683075	281	8	2	0	0	89	176	stimuli\Videos_short_600ms_horflip\88.repeated_stroke_with_plastic_brush_short_horflip_short_600ms.mp4	88.repeated_stroke_with_plastic_brush_short_horflip_short_600ms.mp4	355.27921994899907	355.8875757447797	0.6083557957806534	n/a	n/a	n/a	n/a
334.33251953125	0.2	684713	282	8	2	0	0	90	271	stimuli\Videos_short_600ms_vertflip\10.single_touch_with_knife_short_vertflip_short_600ms.mp4	10.single_touch_with_knife_short_vertflip_short_600ms.mp4	356.07919830763353	356.68754354665043	0.6083452390168986	n/a	n/a	n/a	n/a
335.1328125	0.2	686352	283	8	2	0	0	91	146	stimuli\Videos_short_600ms_horflip\60.single_push_with_tip_of_pencil_short_horflip_short_600ms.mp4	60.single_push_with_tip_of_pencil_short_horflip_short_600ms.mp4	356.87919807303865	357.48753158231807	0.6083335092794186	n/a	n/a	n/a	n/a
335.9326171875	0.2	687990	284	8	2	0	0	92	83	stimuli\Videos_short_600ms\85.touch_top_to_bottom_with_fabric_short_short_600ms.mp4	85.touch_top_to_bottom_with_fabric_short_short_600ms.mp4	357.6791764316731	358.2875008504059	0.6083244187327637	n/a	n/a	n/a	n/a
336.73291015625	0.2	689629	285	8	2	0	0	93	162	stimuli\Videos_short_600ms_horflip\75.(long)stroke_with_fingers_all_over_the_hand_short_horflip_short_600ms.mp4	75.(long)stroke_with_fingers_all_over_the_hand_short_horflip_short_600ms.mp4	358.4791562565247	359.0874780360666	0.6083217795419387	n/a	n/a	n/a	n/a
337.53271484375	0.2	691267	286	8	2	0	0	94	251	stimuli\Videos_short_600ms_horvertflip\74.fingers_walking_from_top_to_bottom_short_horvertflip_short_600ms.mp4	74.fingers_walking_from_top_to_bottom_short_horvertflip_short_600ms.mp4	359.27926569497527	359.8874540487534	0.6081883537781323	5.0	5.0	5.6909997137943265	1.0
376.59814453125	0.2	771273	287	8	3	0	0	0	301	stimuli\Videos_short_600ms_vertflip\38.double_slap_with_pencil_short_vertflip_short_600ms.mp4	38.double_slap_with_pencil_short_vertflip_short_600ms.mp4	398.3447361043666	398.9530775312187	0.608341426852121	n/a	n/a	n/a	n/a
377.39794921875	0.2	772911	288	8	3	0	0	1	136	stimuli\Videos_short_600ms_horflip\51.repeated_touch_with_hammer_short_horflip_short_600ms.mp4	51.repeated_touch_with_hammer_short_horflip_short_600ms.mp4	399.14486372391	399.7530570628269	0.6081933389168626	n/a	n/a	n/a	n/a
378.1982421875	0.2	774550	289	8	3	0	0	2	344	stimuli\Videos_short_600ms_vertflip\77.tapping_with_all_fingers_short_vertflip_short_600ms.mp4	77.tapping_with_all_fingers_short_vertflip_short_600ms.mp4	399.94469106217457	400.5530368876785	0.608345825503875	n/a	n/a	n/a	n/a
378.998046875	0.2	776188	290	8	3	0	0	3	189	stimuli\Videos_short_600ms_horvertflip\18.single_stroke_from_top_to_bottom_with_rolling_pin_short_horvertflip_short_600ms.mp4	18.single_stroke_from_top_to_bottom_with_rolling_pin_short_horvertflip_short_600ms.mp4	400.7446782181121	401.3530152463127	0.6083370282005944	n/a	n/a	n/a	n/a
379.7978515625	0.2	777826	291	8	3	0	0	4	42	stimuli\Videos_short_600ms\48.single_slap_with_hand_short_short_600ms.mp4	48.single_slap_with_hand_short_short_600ms.mp4	401.54476390384434	402.1529921387301	0.6082282348857007	n/a	n/a	n/a	n/a
380.59814453125	0.2	779465	292	8	3	0	0	5	76	stimuli\Videos_short_600ms\79.long_with_soft_brush_all_over_the_hand_short_short_600ms.mp4	79.long_with_soft_brush_all_over_the_hand_short_short_600ms.mp4	402.3446642597246	402.9529699108775	0.6083056511529321	n/a	n/a	n/a	n/a
381.39794921875	0.2	781103	293	8	3	0	0	6	241	stimuli\Videos_short_600ms_horvertflip\65.stroke_top_to_bottom_with_stanley_knife_short_horvertflip_short_600ms.mp4	65.stroke_top_to_bottom_with_stanley_knife_short_horvertflip_short_600ms.mp4	403.1447341103112	403.7529512019462	0.6082170916349696	n/a	n/a	n/a	n/a
382.19775390625	0.2	782741	294	8	3	0	0	7	150	stimuli\Videos_short_600ms_horflip\64.repeated_touch_with_screwdriver_short_horflip_short_600ms.mp4	64.repeated_touch_with_screwdriver_short_horflip_short_600ms.mp4	403.9446517675542	404.5529283876067	0.608276620052493	n/a	n/a	n/a	n/a
382.998046875	0.2	784380	295	8	3	0	1	8	371	stimuli\Targets_short_600ms_horflip\hand-stroke_short_horflip_short_600ms.mp4	hand-stroke_short_horflip_short_600ms.mp4	404.7446796843292	405.3529058665108	0.6082261821816246	n/a	n/a	n/a	n/a
383.7978515625	0.2	786018	296	8	3	0	0	9	165	stimuli\Videos_short_600ms_horflip\78.single_stroke_top_to_bottom_with_soft_brush_short_horflip_short_600ms.mp4	78.single_stroke_top_to_bottom_with_soft_brush_short_horflip_short_600ms.mp4	405.5445598064123	406.15288627784935	0.6083264714370671	n/a	n/a	n/a	n/a
384.59765625	0.2	787656	297	8	3	0	0	10	102	stimuli\Videos_short_600ms_horflip\20.single_touch_with_screwdriver_short_horflip_short_600ms.mp4	20.single_touch_with_screwdriver_short_horflip_short_600ms.mp4	406.3445645569562	406.95286082431903	0.6082962673629027	n/a	n/a	n/a	n/a
385.39794921875	0.2	789295	298	8	3	0	0	11	350	stimuli\Videos_short_600ms_vertflip\82.repeated_touch_with_cotton_bud_short_vertflip_short_600ms.mp4	82.repeated_touch_with_cotton_bud_short_vertflip_short_600ms.mp4	407.1445027412397	407.7528385964665	0.6083358552268692	n/a	n/a	n/a	n/a
386.19775390625	0.2	790933	299	8	3	0	0	12	287	stimuli\Videos_short_600ms_vertflip\25.single_touch_with_stanley_knife_short_vertflip_short_600ms.mp4	25.single_touch_with_stanley_knife_short_vertflip_short_600ms.mp4	407.9445963445446	408.5528166618574	0.6082203173127709	n/a	n/a	n/a	n/a
386.99755859375	0.2	792571	300	8	3	0	0	13	39	stimuli\Videos_short_600ms\45.scratching_with_finger_nails_short_short_600ms.mp4	45.scratching_with_finger_nails_short_short_600ms.mp4	408.74455681532936	409.3527973664393	0.6082405511099296	n/a	n/a	n/a	n/a
387.7978515625	0.2	794210	301	8	3	0	0	14	236	stimuli\Videos_short_600ms_horvertflip\60.single_push_with_tip_of_pencil_short_horvertflip_short_600ms.mp4	60.single_push_with_tip_of_pencil_short_horvertflip_short_600ms.mp4	409.54456097938623	410.1527768980475	0.6082159186612444	n/a	n/a	n/a	n/a
388.59765625	0.2	795848	302	8	3	0	0	15	36	stimuli\Videos_short_600ms\42.single_slap_with_plastic_whisk_short_short_600ms.mp4	42.single_slap_with_plastic_whisk_short_short_600ms.mp4	410.3444836217675	410.95275672289904	0.6082731011315445	n/a	n/a	n/a	n/a
389.3974609375	0.2	797486	303	8	3	0	0	16	321	stimuli\Videos_short_600ms_vertflip\56.repeated_touch_with_nail_file_short_vertflip_short_600ms.mp4	56.repeated_touch_with_nail_file_short_vertflip_short_600ms.mp4	411.144471364192	411.7527415328891	0.6082701686971177	n/a	n/a	n/a	n/a
390.19775390625	0.2	799125	304	8	3	0	0	17	98	stimuli\Videos_short_600ms_horflip\17.repeated_touch_with_rolling_pin_short_horflip_short_600ms.mp4	17.repeated_touch_with_rolling_pin_short_horflip_short_600ms.mp4	411.9444503093132	412.5527237036881	0.608273394374919	n/a	n/a	n/a	n/a
390.99755859375	0.2	800763	305	8	3	0	1	18	360	stimuli\Targets_short_600ms\brush-stroke_short_short_600ms.mp4	brush-stroke_short_short_600ms.mp4	412.7445600410072	413.35269267853255	0.6081326375253866	n/a	n/a	n/a	n/a
391.79736328125	0.2	802401	306	8	3	0	0	19	299	stimuli\Videos_short_600ms_vertflip\36.single_slap_with_full_hand_short_vertflip_short_600ms.mp4	36.single_slap_with_full_hand_short_vertflip_short_600ms.mp4	413.5443551224937	414.1526833533912	0.6083282308975413	n/a	n/a	n/a	n/a
392.59765625	0.2	804040	307	8	3	0	0	20	72	stimuli\Videos_short_600ms\75.(long)stroke_with_fingers_all_over_the_hand_short_short_600ms.mp4	75.(long)stroke_with_fingers_all_over_the_hand_short_short_600ms.mp4	414.34439535549313	414.9526493958013	0.6082540403081111	n/a	n/a	n/a	n/a
393.3974609375	0.2	805678	308	8	3	0	0	21	295	stimuli\Videos_short_600ms_vertflip\32.single_(long)pinch_with_fingers_short_vertflip_short_600ms.mp4	32.single_(long)pinch_with_fingers_short_vertflip_short_600ms.mp4	415.1446226778053	415.75262834092246	0.6080056631171828	n/a	n/a	n/a	n/a
394.197265625	0.2	807316	309	8	3	0	0	22	185	stimuli\Videos_short_600ms_horvertflip\14.repeated_touch_with_pencil_short_horvertflip_short_600ms.mp4	14.repeated_touch_with_pencil_short_horvertflip_short_600ms.mp4	415.94441042820586	416.552608165774	0.6081977375681618	n/a	n/a	n/a	n/a
394.99755859375	0.2	808955	310	8	3	0	0	23	124	stimuli\Videos_short_600ms_horflip\40.repeated_push_with_finger_short_horflip_short_600ms.mp4	40.repeated_push_with_finger_short_horflip_short_600ms.mp4	416.74427090297854	417.3525850581911	0.6083141552126108	n/a	n/a	n/a	n/a
395.79736328125	0.2	810593	311	8	3	0	1	24	374	stimuli\Targets_short_600ms_horvertflip\chopstickwood-tap_short_vertflip_short_600ms.mp4	chopstickwood-tap_short_vertflip_short_600ms.mp4	417.5443492576248	418.1525640033123	0.6082147456875191	n/a	n/a	n/a	n/a
396.59765625	0.2	812232	312	8	3	0	0	25	219	stimuli\Videos_short_600ms_horvertflip\45.scratching_with_finger_nails_short_horvertflip_short_600ms.mp4	45.scratching_with_finger_nails_short_horvertflip_short_600ms.mp4	418.34428011082264	418.95254177545985	0.6082616646372117	n/a	n/a	n/a	n/a
397.3974609375	0.2	813870	313	8	3	0	0	26	91	stimuli\Videos_short_600ms_horflip\10.single_touch_with_knife_short_horflip_short_600ms.mp4	10.single_touch_with_knife_short_horflip_short_600ms.mp4	419.1442502586408	419.75252101382466	0.6082707551838666	n/a	n/a	n/a	n/a
398.197265625	0.2	815508	314	8	3	0	0	27	186	stimuli\Videos_short_600ms_horvertflip\15.single_stroke_top_to_bottom_with_a_plastic_whisk_short_horvertflip_short_600ms.mp4	15.single_stroke_top_to_bottom_with_a_plastic_whisk_short_horvertflip_short_600ms.mp4	419.9441608780412	420.55249878597215	0.6083379079309452	n/a	n/a	n/a	n/a
398.99755859375	0.2	817147	315	8	3	0	0	28	43	stimuli\Videos_short_600ms\49.repeated_slap_with_hand_short_short_600ms.mp4	49.repeated_slap_with_hand_short_short_600ms.mp4	420.7441679745323	421.35247978379743	0.6083118092651603	n/a	n/a	n/a	n/a
399.79736328125	0.2	818785	316	8	3	0	0	29	228	stimuli\Videos_short_600ms_horvertflip\53.touch_top_to_bottom_with_knife_short_horvertflip_short_600ms.mp4	53.touch_top_to_bottom_with_knife_short_horvertflip_short_600ms.mp4	421.54423078727655	422.1524557964845	0.6082250092078993	n/a	n/a	n/a	n/a
400.59716796875	0.2	820423	317	8	3	0	0	30	329	stimuli\Videos_short_600ms_vertflip\63.stroke_top_to_bottom_with_screwdriver_short_vertflip_short_600ms.mp4	63.stroke_top_to_bottom_with_screwdriver_short_vertflip_short_600ms.mp4	422.3441343688346	422.9524391402572	0.6083047714225813	n/a	n/a	n/a	n/a
401.3974609375	0.2	822062	318	8	3	0	0	31	217	stimuli\Videos_short_600ms_horvertflip\43.touch_top_to_bottom_with_sharp_wooden_stick_short_horvertflip_short_600ms.mp4	43.touch_top_to_bottom_with_sharp_wooden_stick_short_horvertflip_short_600ms.mp4	423.1441458639772	423.7524163259177	0.6082704619404922	n/a	n/a	n/a	n/a
402.197265625	0.2	823700	319	8	3	0	0	32	46	stimuli\Videos_short_600ms\51.repeated_touch_with_hammer_short_short_600ms.mp4	51.repeated_touch_with_hammer_short_short_600ms.mp4	423.9440638144638	424.55239292509145	0.6083291106276647	n/a	n/a	n/a	n/a
402.9970703125	0.2	825338	320	8	3	0	0	33	117	stimuli\Videos_short_600ms_horflip\34.repeated_punch_with_hand_short_horflip_short_600ms.mp4	34.repeated_punch_with_hand_short_horflip_short_600ms.mp4	424.74418615562536	425.3523686445351	0.6081824889097334	n/a	n/a	n/a	n/a
403.79736328125	0.2	826977	321	8	3	0	0	34	326	stimuli\Videos_short_600ms_vertflip\60.single_push_with_tip_of_pencil_short_vertflip_short_600ms.mp4	60.single_push_with_tip_of_pencil_short_vertflip_short_600ms.mp4	425.5440331412003	426.1523505220905	0.6083173808901847	n/a	n/a	n/a	n/a
404.59716796875	0.2	828615	322	8	3	0	0	35	324	stimuli\Videos_short_600ms_vertflip\59.single_push_with_long_side_pencil_short_vertflip_short_600ms.mp4	59.single_push_with_long_side_pencil_short_vertflip_short_600ms.mp4	426.3439880403596	426.9523277077512	0.6083396673916468	n/a	n/a	n/a	n/a
405.39697265625	0.2	830253	323	8	3	0	0	36	268	stimuli\Videos_short_600ms_horvertflip\9.single_touch_with_hammer_short_horvertflip_short_600ms.mp4	9.single_touch_with_hammer_short_horvertflip_short_600ms.mp4	427.1439945503639	427.7523148636887	0.6083203133248389	n/a	n/a	n/a	n/a
406.197265625	0.2	831892	324	8	3	0	0	37	238	stimuli\Videos_short_600ms_horvertflip\62.touch_top_to_bottom_with_scissors_short_horvertflip_short_600ms.mp4	62.touch_top_to_bottom_with_scissors_short_horvertflip_short_600ms.mp4	427.9439655779124	428.55228589123726	0.6083203133248389	n/a	n/a	n/a	n/a
406.9970703125	0.2	833530	325	8	3	0	0	38	196	stimuli\Videos_short_600ms_horvertflip\24.single_stroke_top_to_bottom_with_a_spoon_short_horvertflip_short_600ms.mp4	24.single_stroke_top_to_bottom_with_a_spoon_short_horvertflip_short_600ms.mp4	428.7439627041267	429.3522639566281	0.6083012525014055	n/a	n/a	n/a	n/a
407.796875	0.2	835168	326	8	3	0	0	39	233	stimuli\Videos_short_600ms_horvertflip\58.single_slap_with_pencil_short_horvertflip_short_600ms.mp4	58.single_slap_with_pencil_short_horvertflip_short_600ms.mp4	429.5439196559903	430.1522423152626	0.6083226592722895	n/a	n/a	n/a	n/a
408.59716796875	0.2	836807	327	8	3	0	0	40	257	stimuli\Videos_short_600ms_horvertflip\8.single_touch_with_hairbrush_short_horvertflip_short_600ms.mp4	8.single_touch_with_hairbrush_short_horvertflip_short_600ms.mp4	430.3439722052142	430.9522209671402	0.6082487619260064	n/a	n/a	n/a	n/a
409.39697265625	0.2	838445	328	8	3	0	0	41	190	stimuli\Videos_short_600ms_horvertflip\19.single_touch_with_rolling_pin_short_horvertflip_short_600ms.mp4	19.single_touch_with_rolling_pin_short_horvertflip_short_600ms.mp4	431.1439963098246	431.7521987392879	0.6082024294632902	n/a	n/a	n/a	n/a
410.19677734375	0.2	840083	329	8	3	0	0	42	144	stimuli\Videos_short_600ms_horflip\59.single_push_with_long_side_pencil_short_horflip_short_600ms.mp4	59.single_push_with_long_side_pencil_short_horflip_short_600ms.mp4	431.94386440892686	432.55217856413947	0.6083141552126108	n/a	n/a	n/a	n/a
410.9970703125	0.2	841722	330	8	3	0	0	43	166	stimuli\Videos_short_600ms_horflip\79.long_with_soft_brush_all_over_the_hand_short_horflip_short_600ms.mp4	79.long_with_soft_brush_all_over_the_hand_short_horflip_short_600ms.mp4	432.7438424743177	433.3521557498	0.60831327548226	n/a	n/a	n/a	n/a
411.796875	0.2	843360	331	8	3	0	0	44	290	stimuli\Videos_short_600ms_vertflip\28.single_injection_with_sharp_needle_short_vertflip_short_600ms.mp4	28.single_injection_with_sharp_needle_short_vertflip_short_600ms.mp4	433.5438173140308	434.1521364543819	0.6083191403511137	n/a	n/a	n/a	n/a
412.5966796875	0.2	844998	332	8	3	0	0	45	34	stimuli\Videos_short_600ms\40.repeated_push_with_finger_short_short_600ms.mp4	40.repeated_push_with_finger_short_short_600ms.mp4	434.3438827659659	434.952113346799	0.6082305808331512	n/a	n/a	n/a	n/a
413.39697265625	0.2	846637	333	8	3	0	0	46	1	stimuli\Videos_short_600ms\10.single_touch_with_knife_short_short_600ms.mp4	10.single_touch_with_knife_short_short_600ms.mp4	435.1438555529751	435.75209082570314	0.6082352727280522	n/a	n/a	n/a	n/a
414.19677734375	0.2	848275	334	8	3	0	0	47	286	stimuli\Videos_short_600ms_vertflip\24.single_stroke_top_to_bottom_with_a_spoon_short_vertflip_short_600ms.mp4	24.single_stroke_top_to_bottom_with_a_spoon_short_vertflip_short_600ms.mp4	435.9438485737812	436.552069477581	0.6082209037997472	n/a	n/a	n/a	n/a
414.9970703125	0.2	849914	335	8	3	0	0	48	240	stimuli\Videos_short_600ms_horvertflip\64.repeated_touch_with_screwdriver_short_horvertflip_short_600ms.mp4	64.repeated_touch_with_screwdriver_short_horvertflip_short_600ms.mp4	436.743753328313	437.3520469564851	0.6082936281720777	n/a	n/a	n/a	n/a
415.796875	0.2	851552	336	8	3	0	0	49	298	stimuli\Videos_short_600ms_vertflip\35.single_punch_with_hand_short_vertflip_short_600ms.mp4	35.single_punch_with_hand_short_vertflip_short_600ms.mp4	437.543830216742	438.1520305935012	0.6082003767592141	n/a	n/a	n/a	n/a
416.5966796875	0.2	853190	337	8	3	0	0	50	153	stimuli\Videos_short_600ms_horflip\67.single_touch_with_sponge_short_horflip_short_600ms.mp4	67.single_touch_with_sponge_short_horflip_short_600ms.mp4	438.3436663523096	438.95198607914745	0.6083197268378626	n/a	n/a	n/a	n/a
417.39697265625	0.2	854829	338	8	3	0	0	51	115	stimuli\Videos_short_600ms_horflip\32.single_(long)pinch_with_fingers_short_horflip_short_600ms.mp4	32.single_(long)pinch_with_fingers_short_horflip_short_600ms.mp4	439.14368987043326	439.7519911229346	0.6083012525014055	n/a	n/a	n/a	n/a
418.19677734375	0.2	856467	339	8	3	0	0	52	274	stimuli\Videos_short_600ms_vertflip\13.single_touch_with_pen_short_vertflip_short_600ms.mp4	13.single_touch_with_pen_short_vertflip_short_600ms.mp4	439.944622736454	440.551958631562	0.6073358951080081	n/a	n/a	n/a	n/a
418.99658203125	0.2	858105	340	8	3	0	0	53	59	stimuli\Videos_short_600ms\63.stroke_top_to_bottom_with_screwdriver_short_short_600ms.mp4	63.stroke_top_to_bottom_with_screwdriver_short_short_600ms.mp4	440.74423717998343	441.3519493064207	0.6077121264372636	n/a	n/a	n/a	n/a
419.796875	0.2	859744	341	8	3	0	0	54	182	stimuli\Videos_short_600ms_horvertflip\11.single_touch_with_lighter_short_horvertflip_short_600ms.mp4	11.single_touch_with_lighter_short_horvertflip_short_600ms.mp4	441.5436592558185	442.15192238667305	0.6082631308545388	n/a	n/a	n/a	n/a
420.5966796875	0.2	861382	342	8	3	0	0	55	353	stimuli\Videos_short_600ms_vertflip\85.touch_top_to_bottom_with_fabric_short_vertflip_short_600ms.mp4	85.touch_top_to_bottom_with_fabric_short_vertflip_short_600ms.mp4	442.34362676444584	442.9519092493672	0.6082824849213466	n/a	n/a	n/a	n/a
421.396484375	0.2	863020	343	8	3	0	0	56	67	stimuli\Videos_short_600ms\70.(long)stroke_with_finger_all_over_the_hand_short_short_600ms.mp4	70.(long)stroke_with_finger_all_over_the_hand_short_short_600ms.mp4	443.1436385528318	443.7518802769157	0.6082417240838822	n/a	n/a	n/a	n/a
422.19677734375	0.2	864659	344	8	3	0	0	57	61	stimuli\Videos_short_600ms\65.stroke_top_to_bottom_with_stanley_knife_short_short_600ms.mp4	65.stroke_top_to_bottom_with_stanley_knife_short_short_600ms.mp4	443.9436538601392	444.55186479366216	0.6082109335229688	n/a	n/a	n/a	n/a
422.99658203125	0.2	866297	345	8	3	0	1	58	362	stimuli\Targets_short_600ms\chopstickwood-tap_short_short_600ms.mp4	chopstickwood-tap_short_short_600ms.mp4	444.7438448202652	445.35183464823695	0.6079898279717781	n/a	n/a	n/a	n/a
423.79638671875	0.2	867935	346	8	3	0	0	59	8	stimuli\Videos_short_600ms\17.repeated_touch_with_rolling_pin_short_short_600ms.mp4	17.repeated_touch_with_rolling_pin_short_short_600ms.mp4	445.5434742192101	446.1518124203844	0.6083382011743197	n/a	n/a	n/a	n/a
424.5966796875	0.2	869574	347	8	3	0	0	60	127	stimuli\Videos_short_600ms_horflip\43.touch_top_to_bottom_with_sharp_wooden_stick_short_horflip_short_600ms.mp4	43.touch_top_to_bottom_with_sharp_wooden_stick_short_horflip_short_600ms.mp4	446.3434763305627	446.951791658749	0.608315328186336	n/a	n/a	n/a	n/a
425.396484375	0.2	871212	348	8	3	0	0	61	158	stimuli\Videos_short_600ms_horflip\71.single_stroke_with_finger_top_to_bottom_short_horflip_short_600ms.mp4	71.single_stroke_with_finger_top_to_bottom_short_horflip_short_600ms.mp4	447.1435256541088	447.7517711903572	0.6082455362484325	n/a	n/a	n/a	n/a
426.1962890625	0.2	872850	349	8	3	0	0	62	0	stimuli\Videos_short_600ms\1.repeated_touch_with_finger_fast_short_short_600ms.mp4	1.repeated_touch_with_finger_fast_short_short_600ms.mp4	447.9434653046096	448.5517474962876	0.6082821916779722	n/a	n/a	n/a	n/a
426.99658203125	0.2	874489	350	8	3	0	0	63	94	stimuli\Videos_short_600ms_horflip\13.single_touch_with_pen_short_horflip_short_600ms.mp4	13.single_touch_with_pen_short_horflip_short_600ms.mp4	448.7434146321437	449.3517261481654	0.6083115160217858	n/a	n/a	n/a	n/a
427.79638671875	0.2	876127	351	8	3	0	0	64	192	stimuli\Videos_short_600ms_horvertflip\20.single_touch_with_screwdriver_short_horvertflip_short_600ms.mp4	20.single_touch_with_screwdriver_short_horvertflip_short_600ms.mp4	449.5433897651003	450.1517071459907	0.6083173808904121	n/a	n/a	n/a	n/a
428.59619140625	0.2	877765	352	8	3	0	0	65	6	stimuli\Videos_short_600ms\15.single_stroke_top_to_bottom_with_a_plastic_whisk_short_short_600ms.mp4	15.single_stroke_top_to_bottom_with_a_plastic_whisk_short_short_600ms.mp4	450.3435065346366	450.9516852113816	0.6081786767449557	n/a	n/a	n/a	n/a
429.396484375	0.2	879404	353	8	3	0	0	66	308	stimuli\Videos_short_600ms_vertflip\44.pushing_top_to_bottom_with_finger_short_vertflip_short_600ms.mp4	44.pushing_top_to_bottom_with_finger_short_vertflip_short_600ms.mp4	451.143347068856	451.7520673662282	0.6087202973722015	n/a	n/a	n/a	n/a
430.1962890625	0.2	881042	354	8	3	0	0	67	66	stimuli\Videos_short_600ms\7.repeated_touch_with_hairbrush_short_short_600ms.mp4	7.repeated_touch_with_hairbrush_short_short_600ms.mp4	451.9432993288244	452.5516425151373	0.6083431863128226	n/a	n/a	n/a	n/a
430.99609375	0.2	882680	355	8	3	0	0	68	202	stimuli\Videos_short_600ms_horvertflip\3.single_push_with_finger_short_horvertflip_short_600ms.mp4	3.single_push_with_finger_short_horvertflip_short_600ms.mp4	452.74342254971657	453.3516229264755	0.6082003767589867	n/a	n/a	n/a	n/a
431.79638671875	0.2	884319	356	8	3	0	0	69	348	stimuli\Videos_short_600ms_vertflip\80.stroke_with_sharp_stick_all_over_the_hand_short_vertflip_short_600ms.mp4	80.stroke_with_sharp_stick_all_over_the_hand_short_vertflip_short_600ms.mp4	453.54330765693794	454.1515974729453	0.6082898160073	n/a	n/a	n/a	n/a
432.59619140625	0.2	885957	357	8	3	0	0	70	73	stimuli\Videos_short_600ms\76.tickle_with_fingers_from_top_to_bottom_short_short_600ms.mp4	76.tickle_with_fingers_from_top_to_bottom_short_short_600ms.mp4	454.3434168021451	454.9515514923744	0.6081346902292353	n/a	n/a	n/a	n/a
433.39599609375	0.2	887595	358	8	3	0	0	71	81	stimuli\Videos_short_600ms\83.single_stroke_top_to_bottom_with_cotton_bud_short_short_600ms.mp4	83.single_stroke_top_to_bottom_with_cotton_bud_short_short_600ms.mp4	455.1432394485146	455.75155624291824	0.6083167944036632	n/a	n/a	n/a	n/a
434.1962890625	0.2	889234	359	8	3	0	0	72	302	stimuli\Videos_short_600ms_vertflip\39.single_stab_with_scissors_short_vertflip_short_600ms.mp4	39.single_stab_with_scissors_short_vertflip_short_600ms.mp4	455.94335563156415	456.5515387069606	0.6081830753964823	n/a	n/a	n/a	n/a
