onset	duration	onsetsample	eventnumber	subjectnr	sequencenumber	blocksequencenumber	istarget	presentationnumber	stimnumber	stim	stimname	time_stimon	time_stimoff	stimdur	cresp	resp	rt	correct
13.0380859375	0.2	26702	0	56	0	0	0	0	183	stimuli\Videos_short_600ms_horvertflip\12.repeated_touch_with_nail_file_short_horvertflip_short_600ms.mp4	12.repeated_touch_with_nail_file_short_horvertflip_short_600ms.mp4	40.02741254918806	40.63570604762231	0.6082934984342501				
13.837890625	0.2	28340	1	56	0	0	0	1	319	stimuli\Videos_short_600ms_vertflip\54.repeated_touch_with_knife_short_vertflip_short_600ms.mp4	54.repeated_touch_with_knife_short_vertflip_short_600ms.mp4	40.82748040609749	41.4356920891571	0.6082116830596078				
14.6376953125	0.2	29978	2	56	0	0	0	2	347	stimuli\Videos_short_600ms_vertflip\8.single_touch_with_hairbrush_short_vertflip_short_600ms.mp4	8.single_touch_with_hairbrush_short_vertflip_short_600ms.mp4	41.62736733079828	42.23569572539577	0.6083283945974927				
15.43798828125	0.2	31617	3	56	0	0	0	3	95	stimuli\Videos_short_600ms_horflip\14.repeated_touch_with_pencil_short_horflip_short_600ms.mp4	14.repeated_touch_with_pencil_short_horflip_short_600ms.mp4	42.42734985339211	43.03568206017553	0.608332206783416				
16.23779296875	0.2	33255	4	56	0	0	0	4	228	stimuli\Videos_short_600ms_horvertflip\53.touch_top_to_bottom_with_knife_short_horvertflip_short_600ms.mp4	53.touch_top_to_bottom_with_knife_short_horvertflip_short_600ms.mp4	43.22733384221124	43.83565461243711	0.6083207702258733				
17.03759765625	0.2	34893	5	56	0	0	0	5	253	stimuli\Videos_short_600ms_horvertflip\76.tickle_with_fingers_from_top_to_bottom_short_horvertflip_short_600ms.mp4	76.tickle_with_fingers_from_top_to_bottom_short_horvertflip_short_600ms.mp4	44.02731812427555	44.63563742827591	0.6083193040003607				
17.837890625	0.2	36532	6	56	0	0	0	6	123	stimuli\Videos_short_600ms_horflip\4.repeated_tap_with_finger_slow_short_horflip_short_600ms.mp4	4.repeated_tap_with_finger_slow_short_horflip_short_600ms.mp4	44.82730064686916	45.43562171034	0.6083210634708394				
18.6376953125	0.2	38170	7	56	0	0	0	7	25	stimuli\Videos_short_600ms\32.single_(long)pinch_with_fingers_short_short_600ms.mp4	32.single_(long)pinch_with_fingers_short_short_600ms.mp4	45.627287274894115	46.23560247346336	0.6083151985692439				
19.4375	0.2	39808	8	56	0	0	0	8	142	stimuli\Videos_short_600ms_horflip\57.single_touch_with_nail_file_short_horflip_short_600ms.mp4	57.single_touch_with_nail_file_short_horflip_short_600ms.mp4	46.42726774477228	47.035585582547355	0.6083178377750755				
20.23779296875	0.2	41447	9	56	0	0	0	9	126	stimuli\Videos_short_600ms_horflip\42.single_slap_with_plastic_whisk_short_horflip_short_600ms.mp4	42.single_slap_with_plastic_whisk_short_horflip_short_600ms.mp4	47.22725349306188	47.83556898487632	0.6083154918144373				
21.03759765625	0.2	43085	10	56	0	0	0	10	192	stimuli\Videos_short_600ms_horvertflip\20.single_touch_with_screwdriver_short_horvertflip_short_600ms.mp4	20.single_touch_with_screwdriver_short_horvertflip_short_600ms.mp4	48.02720991684441	48.63555443992095	0.6083445230765392				
21.83740234375	0.2	44723	11	56	0	0	0	11	92	stimuli\Videos_short_600ms_horflip\11.single_touch_with_lighter_short_horflip_short_600ms.mp4	11.single_touch_with_lighter_short_horflip_short_600ms.mp4	48.827193905663535	49.43553520304431	0.6083412973807754				
22.6376953125	0.2	46362	12	56	0	0	0	12	117	stimuli\Videos_short_600ms_horflip\34.repeated_punch_with_hand_short_horflip_short_600ms.mp4	34.repeated_punch_with_hand_short_horflip_short_600ms.mp4	49.627175548522246	50.235524763519834	0.6083492149975882				
23.4375	0.2	48000	13	56	0	0	0	13	189	stimuli\Videos_short_600ms_horvertflip\18.single_stroke_from_top_to_bottom_with_rolling_pin_short_horvertflip_short_600ms.mp4	18.single_stroke_from_top_to_bottom_with_rolling_pin_short_horvertflip_short_600ms.mp4	50.42713930343143	51.035510511809434	0.6083712083780028				
24.2373046875	0.2	49638	14	56	0	0	0	14	51	stimuli\Videos_short_600ms\56.repeated_touch_with_nail_file_short_short_600ms.mp4	56.repeated_touch_with_nail_file_short_short_600ms.mp4	51.22711156244782	51.83548511678623	0.6083735543384137				
25.03759765625	0.2	51277	15	56	0	0	0	15	225	stimuli\Videos_short_600ms_horvertflip\50.single_(long)hard_push_with_thumb_short_horvertflip_short_600ms.mp4	50.single_(long)hard_push_with_thumb_short_horvertflip_short_600ms.mp4	52.02716153140773	52.635450631165895	0.6082890997581671				
25.83740234375	0.2	52915	16	56	0	0	0	16	193	stimuli\Videos_short_600ms_horvertflip\21.repeated_touch_with_metal_chopstick_short_horvertflip_short_600ms.mp4	21.repeated_touch_with_metal_chopstick_short_horvertflip_short_600ms.mp4	52.827144054001565	53.435461012041515	0.6083169580399499				
26.63720703125	0.2	54553	17	56	0	0	0	17	94	stimuli\Videos_short_600ms_horflip\13.single_touch_with_pen_short_horflip_short_600ms.mp4	13.single_touch_with_pen_short_horflip_short_600ms.mp4	53.627115433282825	54.235412450657805	0.60829701737498				
27.4375	0.2	56192	18	56	0	0	0	18	268	stimuli\Videos_short_600ms_horvertflip\9.single_touch_with_hammer_short_horvertflip_short_600ms.mp4	9.single_touch_with_hammer_short_horvertflip_short_600ms.mp4	54.42710352753283	55.03541638014167	0.608312852608833				
28.2373046875	0.2	57830	19	56	0	0	0	19	327	stimuli\Videos_short_600ms_vertflip\61.single_hit_with_rolling_pin_short_vertflip_short_600ms.mp4	61.single_hit_with_rolling_pin_short_vertflip_short_600ms.mp4	55.22704734177728	55.83538775942293	0.6083404176456497				
29.037109375	0.2	59468	20	56	0	0	0	20	190	stimuli\Videos_short_600ms_horvertflip\19.single_touch_with_rolling_pin_short_horvertflip_short_600ms.mp4	19.single_touch_with_rolling_pin_short_horvertflip_short_600ms.mp4	56.02706446728939	56.63537585367294	0.6083113863835479				
29.83740234375	0.2	61107	21	56	0	0	0	21	238	stimuli\Videos_short_600ms_horvertflip\62.touch_top_to_bottom_with_scissors_short_horvertflip_short_600ms.mp4	62.touch_top_to_bottom_with_scissors_short_horvertflip_short_600ms.mp4	56.82704933584387	57.435361308717575	0.6083119728737074				
30.63720703125	0.2	62745	22	56	0	0	0	22	288	stimuli\Videos_short_600ms_vertflip\26.single_touch_with_a_blunt_syringe_short_vertflip_short_600ms.mp4	26.single_touch_with_a_blunt_syringe_short_vertflip_short_600ms.mp4	57.627031858437704	58.23536347873096	0.6083316202932565				
31.43701171875	0.2	64383	23	56	0	0	0	23	342	stimuli\Videos_short_600ms_vertflip\75.(long)stroke_with_fingers_all_over_the_hand_short_vertflip_short_600ms.mp4	75.(long)stroke_with_fingers_all_over_the_hand_short_vertflip_short_600ms.mp4	58.42702083242307	59.03533779046279	0.6083169580397225				
32.2373046875	0.2	66022	24	56	0	0	0	24	311	stimuli\Videos_short_600ms_vertflip\47.(long)scratching_with_finger_nails_short_vertflip_short_600ms.mp4	47.(long)scratching_with_finger_nails_short_vertflip_short_600ms.mp4	59.22699924958579	59.83532119279175	0.608321943205965				
33.037109375	0.2	67660	25	56	0	0	0	25	264	stimuli\Videos_short_600ms_horvertflip\86.touch_top_to_bottom_with_hair_brush_short_horvertflip_short_600ms.mp4	86.touch_top_to_bottom_with_hair_brush_short_horvertflip_short_600ms.mp4	60.026993795227554	60.63530254240527	0.6083087471777162				
33.83740234375	0.2	69299	26	56	0	0	0	26	247	stimuli\Videos_short_600ms_horvertflip\70.(long)stroke_with_finger_all_over_the_hand_short_horvertflip_short_600ms.mp4	70.(long)stroke_with_finger_all_over_the_hand_short_horvertflip_short_600ms.mp4	60.826966933979065	61.43528975692038	0.608322822941318				
34.63720703125	0.2	70937	27	56	0	0	0	27	262	stimuli\Videos_short_600ms_horvertflip\84.single_touch_with_cotton_bud_short_horvertflip_short_600ms.mp4	84.single_touch_with_cotton_bud_short_horvertflip_short_600ms.mp4	61.62695150928835	62.23526876057326	0.608317251284916				
35.43701171875	0.2	72575	28	56	0	0	0	28	76	stimuli\Videos_short_600ms\79.long_with_soft_brush_all_over_the_hand_short_short_600ms.mp4	79.long_with_soft_brush_all_over_the_hand_short_short_600ms.mp4	62.42757066693025	63.03525421561767	0.6076835486874188				
36.2373046875	0.2	74214	29	56	0	0	0	29	302	stimuli\Videos_short_600ms_vertflip\39.single_stab_with_scissors_short_vertflip_short_600ms.mp4	39.single_stab_with_scissors_short_vertflip_short_600ms.mp4	63.22691362202522	63.83524055039743	0.6083269283722075				
37.037109375	0.2	75852	30	56	0	0	0	30	160	stimuli\Videos_short_600ms_horflip\73.single_stroke_with_flat_hand_short_horflip_short_600ms.mp4	73.single_stroke_with_flat_hand_short_horflip_short_600ms.mp4	64.0268803093852	64.63522160676598	0.6083412973807754				
37.8369140625	0.2	77490	31	56	0	0	0	31	322	stimuli\Videos_short_600ms_vertflip\57.single_touch_with_nail_file_short_vertflip_short_600ms.mp4	57.single_touch_with_nail_file_short_vertflip_short_600ms.mp4	64.82683819939302	65.43520324962446	0.6083650502314413				
38.63720703125	0.2	79129	32	56	0	0	1	32	366	stimuli\Targets_short_600ms_horflip\brush-stroke_short_horflip_short_600ms.mp4	brush-stroke_short_horflip_short_600ms.mp4	65.6268227747023	66.2351857722183	0.6083629975159965				
39.43701171875	0.2	80767	33	56	0	0	0	33	315	stimuli\Videos_short_600ms_vertflip\50.single_(long)hard_push_with_thumb_short_vertflip_short_600ms.mp4	50.single_(long)hard_push_with_thumb_short_vertflip_short_600ms.mp4	66.42683726100881	67.03517298673319	0.6083357257243733				
40.23681640625	0.2	82405	34	56	0	0	0	34	68	stimuli\Videos_short_600ms\71.single_stroke_with_finger_top_to_bottom_short_short_600ms.mp4	71.single_stroke_with_finger_top_to_bottom_short_short_600ms.mp4	67.2268177308872	67.83514964442566	0.60833191353845				
41.037109375	0.2	84044	35	56	0	0	0	35	100	stimuli\Videos_short_600ms_horflip\19.single_touch_with_rolling_pin_short_horflip_short_600ms.mp4	19.single_touch_with_rolling_pin_short_horflip_short_600ms.mp4	68.02682429957667	68.63513216701949	0.608307867442818				
41.8369140625	0.2	85682	36	56	0	0	0	36	286	stimuli\Videos_short_600ms_vertflip\24.single_stroke_top_to_bottom_with_a_spoon_short_vertflip_short_600ms.mp4	24.single_stroke_top_to_bottom_with_a_spoon_short_vertflip_short_600ms.mp4	68.82680594243539	69.43507891371473	0.608272971279348				
42.63671875	0.2	87320	37	56	0	0	0	37	275	stimuli\Videos_short_600ms_vertflip\14.repeated_touch_with_pencil_short_vertflip_short_600ms.mp4	14.repeated_touch_with_pencil_short_vertflip_short_600ms.mp4	69.62678553257842	70.23508372293372	0.6082981903552991				
43.43701171875	0.2	88959	38	56	0	0	0	38	207	stimuli\Videos_short_600ms_horvertflip\34.repeated_punch_with_hand_short_horvertflip_short_600ms.mp4	34.repeated_punch_with_hand_short_horvertflip_short_600ms.mp4	70.4267674686821	71.03506712526291	0.6082996565808116				
44.23681640625	0.2	90597	39	56	0	0	0	39	309	stimuli\Videos_short_600ms_vertflip\45.scratching_with_finger_nails_short_vertflip_short_600ms.mp4	45.scratching_with_finger_nails_short_vertflip_short_600ms.mp4	71.22675116425626	71.8350745736875	0.6083234094312502				
45.03662109375	0.2	92235	40	56	0	0	0	40	285	stimuli\Videos_short_600ms_vertflip\23.single_push_with_a_spoon_short_vertflip_short_600ms.mp4	23.single_push_with_a_spoon_short_vertflip_short_600ms.mp4	72.02671990433169	72.63503774210676	0.6083178377750755				
45.8369140625	0.2	93874	41	56	0	0	0	41	26	stimuli\Videos_short_600ms\33.scratch_top_to_bottom_with_scissors_short_short_600ms.mp4	33.scratch_top_to_bottom_with_scissors_short_short_600ms.mp4	72.82671796891418	73.43503903238502	0.6083210634708394				
46.63671875	0.2	95512	42	56	0	0	1	42	382	stimuli\Targets_short_600ms_vertflip\hand-pinch_short_horvertflip_short_600ms.mp4	hand-pinch_short_horvertflip_short_600ms.mp4	73.62669961177289	74.23502302120414	0.6083234094312502				
47.4365234375	0.2	97150	43	56	0	0	0	43	344	stimuli\Videos_short_600ms_vertflip\77.tapping_with_all_fingers_short_vertflip_short_600ms.mp4	77.tapping_with_all_fingers_short_vertflip_short_600ms.mp4	74.42668330734682	75.03501639386559	0.608333086518769				
48.23681640625	0.2	98789	44	56	0	0	0	44	287	stimuli\Videos_short_600ms_vertflip\25.single_touch_with_stanley_knife_short_vertflip_short_600ms.mp4	25.single_touch_with_stanley_knife_short_vertflip_short_600ms.mp4	75.22666905563642	75.83498777314662	0.6083187175102012				
49.03662109375	0.2	100427	45	56	0	0	0	45	2	stimuli\Videos_short_600ms\11.single_touch_with_lighter_short_short_600ms.mp4	11.single_touch_with_lighter_short_short_600ms.mp4	76.02665304445554	76.63497293494606	0.6083198904905203				
49.83642578125	0.2	102065	46	56	0	0	0	46	40	stimuli\Videos_short_600ms\46.scratching_top_to_bottom_with_finger_nails_short_short_600ms.mp4	46.scratching_top_to_bottom_with_finger_nails_short_short_600ms.mp4	76.82663732651986	77.43495369806965	0.6083163715497903				
50.63671875	0.2	103704	47	56	0	0	0	47	53	stimuli\Videos_short_600ms\58.single_slap_with_pencil_short_short_600ms.mp4	58.single_slap_with_pencil_short_short_600ms.mp4	77.62661515719242	78.23493944635902	0.6083242891666032				
51.4365234375	0.2	105342	48	56	0	0	0	48	124	stimuli\Videos_short_600ms_horflip\40.repeated_push_with_finger_short_horflip_short_600ms.mp4	40.repeated_push_with_finger_short_horflip_short_600ms.mp4	78.42660119872721	79.03492284868821	0.6083216499609989				
52.236328125	0.2	106980	49	56	0	0	0	49	46	stimuli\Videos_short_600ms\51.repeated_touch_with_hammer_short_short_600ms.mp4	51.repeated_touch_with_hammer_short_short_600ms.mp4	79.2265414940307	79.83490654426214	0.6083650502314413				
53.03662109375	0.2	108619	50	56	0	0	0	50	354	stimuli\Videos_short_600ms_vertflip\86.touch_top_to_bottom_with_hair_brush_short_vertflip_short_600ms.mp4	86.touch_top_to_bottom_with_hair_brush_short_vertflip_short_600ms.mp4	80.02654278430919	80.63489375877703	0.6083509744678395				
53.83642578125	0.2	110257	51	56	0	0	0	51	125	stimuli\Videos_short_600ms_horflip\41.injection_with_blunt_syringe_short_horflip_short_600ms.mp4	41.injection_with_blunt_syringe_short_horflip_short_600ms.mp4	80.82652706637327	81.43487422865542	0.6083471622821435				
54.63671875	0.2	111896	52	56	0	0	0	52	130	stimuli\Videos_short_600ms_horflip\46.scratching_top_to_bottom_with_finger_nails_short_horflip_short_600ms.mp4	46.scratching_top_to_bottom_with_finger_nails_short_horflip_short_600ms.mp4	81.62651779982912	82.23485851071973	0.6083407108906158				
55.4365234375	0.2	113534	53	56	0	0	0	53	29	stimuli\Videos_short_600ms\36.single_slap_with_full_hand_short_short_600ms.mp4	36.single_slap_with_full_hand_short_short_600ms.mp4	82.42650560083416	83.03483986033325	0.6083342594990881				
56.236328125	0.2	115172	54	56	0	0	0	54	34	stimuli\Videos_short_600ms\40.repeated_push_with_finger_short_short_600ms.mp4	40.repeated_push_with_finger_short_short_600ms.mp4	83.22650806409274	83.83482267617205	0.6083146120793117				
57.03662109375	0.2	116811	55	56	0	0	0	55	140	stimuli\Videos_short_600ms_horflip\55.touch_top_to_bottom_with_nail_file_short_horflip_short_600ms.mp4	55.touch_top_to_bottom_with_nail_file_short_horflip_short_600ms.mp4	84.02649674483314	84.63479053651236	0.6082937916792162				
57.83642578125	0.2	118449	56	56	0	0	0	56	91	stimuli\Videos_short_600ms_horflip\10.single_touch_with_knife_short_horflip_short_600ms.mp4	10.single_touch_with_knife_short_horflip_short_600ms.mp4	84.82647105656497	85.43478772135973	0.6083166647947564				
58.63623046875	0.2	120087	57	56	0	0	0	57	210	stimuli\Videos_short_600ms_horvertflip\37.single_stab_with_nail_file_short_horvertflip_short_600ms.mp4	37.single_stab_with_nail_file_short_horvertflip_short_600ms.mp4	85.62645445889393	86.23472977613369	0.6082753172397588				
59.4365234375	0.2	121726	58	56	0	0	0	58	184	stimuli\Videos_short_600ms_horvertflip\13.single_touch_with_pen_short_horvertflip_short_600ms.mp4	13.single_touch_with_pen_short_horvertflip_short_600ms.mp4	86.4264378612229	87.03469529051335	0.608257429290461				
60.236328125	0.2	123364	59	56	0	0	0	59	283	stimuli\Videos_short_600ms_vertflip\21.repeated_touch_with_metal_chopstick_short_vertflip_short_600ms.mp4	21.repeated_touch_with_metal_chopstick_short_vertflip_short_600ms.mp4	87.2264206770617	87.83475904199167	0.6083383649299776				
61.0361328125	0.2	125002	60	56	0	0	0	60	200	stimuli\Videos_short_600ms_horvertflip\28.single_injection_with_sharp_needle_short_horvertflip_short_600ms.mp4	28.single_injection_with_sharp_needle_short_horvertflip_short_600ms.mp4	88.02640290641057	88.6347336469687	0.6083307405581309				
61.83642578125	0.2	126641	61	56	0	0	0	61	306	stimuli\Videos_short_600ms_vertflip\42.single_slap_with_plastic_whisk_short_vertflip_short_600ms.mp4	42.single_slap_with_plastic_whisk_short_vertflip_short_600ms.mp4	88.82638748171985	89.43471616956253	0.6083286878426861				
62.63623046875	0.2	128279	62	56	0	0	0	62	202	stimuli\Videos_short_600ms_horvertflip\3.single_push_with_finger_short_horvertflip_short_600ms.mp4	3.single_push_with_finger_short_horvertflip_short_600ms.mp4	89.62637059080362	90.23469429348027	0.608323702676671				
63.43603515625	0.2	129917	63	56	0	0	0	63	241	stimuli\Videos_short_600ms_horvertflip\65.stroke_top_to_bottom_with_stanley_knife_short_horvertflip_short_600ms.mp4	65.stroke_top_to_bottom_with_stanley_knife_short_horvertflip_short_600ms.mp4	90.42635692558338	91.03467652282892	0.6083195972455542				
64.236328125	0.2	131556	64	56	0	0	0	64	20	stimuli\Videos_short_600ms\28.single_injection_with_sharp_needle_short_short_600ms.mp4	28.single_injection_with_sharp_needle_short_short_600ms.mp4	91.22634208738282	91.83466080489325	0.6083187175104285				
65.0361328125	0.2	133194	65	56	0	0	0	65	294	stimuli\Videos_short_600ms_vertflip\31.hand_grabbing_wrist_short_vertflip_short_600ms.mp4	31.hand_grabbing_wrist_short_vertflip_short_600ms.mp4	92.02632578295696	92.63464215450676	0.6083163715497903				
65.8359375	0.2	134832	66	56	0	0	0	66	237	stimuli\Videos_short_600ms_horvertflip\61.single_hit_with_rolling_pin_short_horvertflip_short_600ms.mp4	61.single_hit_with_rolling_pin_short_horvertflip_short_600ms.mp4	92.82630889204096	93.43458890120178	0.6082800091608078				
66.63623046875	0.2	136471	67	56	0	0	0	67	62	stimuli\Videos_short_600ms\66.stroke_top_to_bottom_with_sponge_short_short_600ms.mp4	66.stroke_top_to_bottom_with_sponge_short_short_600ms.mp4	93.62627176721504	94.23460954565483	0.6083377784398181				
67.43603515625	0.2	138109	68	56	0	0	0	68	320	stimuli\Videos_short_600ms_vertflip\55.touch_top_to_bottom_with_nail_file_short_vertflip_short_600ms.mp4	55.touch_top_to_bottom_with_nail_file_short_vertflip_short_600ms.mp4	94.42625077086792	95.0345929479838	0.608342177115901				
68.23583984375	0.2	139747	69	56	0	0	0	69	112	stimuli\Videos_short_600ms_horflip\3.single_push_with_finger_short_horflip_short_600ms.mp4	3.single_push_with_finger_short_horflip_short_600ms.mp4	95.22621247306164	95.83457723004813	0.6083647569864752				
69.0361328125	0.2	141386	70	56	0	0	1	70	362	stimuli\Targets_short_600ms\chopstickwood-tap_short_short_600ms.mp4	chopstickwood-tap_short_short_600ms.mp4	96.02621728228088	96.6345618053574	0.6083445230765392				
69.8359375	0.2	143024	71	56	0	0	0	71	106	stimuli\Videos_short_600ms_horflip\24.single_stroke_top_to_bottom_with_a_spoon_short_horflip_short_600ms.mp4	24.single_stroke_top_to_bottom_with_a_spoon_short_horflip_short_600ms.mp4	96.82620332381543	97.43454814013715	0.6083448163217327				
70.6357421875	0.2	144662	72	56	0	0	0	72	67	stimuli\Videos_short_600ms\70.(long)stroke_with_finger_all_over_the_hand_short_short_600ms.mp4	70.(long)stroke_with_finger_all_over_the_hand_short_short_600ms.mp4	97.62619610998672	98.23452948975068	0.6083333797639625				
71.43603515625	0.2	146301	73	56	0	0	0	73	345	stimuli\Videos_short_600ms_vertflip\78.single_stroke_top_to_bottom_with_soft_brush_short_vertflip_short_600ms.mp4	78.single_stroke_top_to_bottom_with_soft_brush_short_vertflip_short_600ms.mp4	98.42618009880584	99.03450732042324	0.6083272216174009				
72.23583984375	0.2	147939	74	56	0	0	1	74	363	stimuli\Targets_short_600ms\finger-tap_short_short_600ms.mp4	finger-tap_short_short_600ms.mp4	99.2261857877604	99.83448573758596	0.6082999498255504				
73.0361328125	0.2	149578	75	56	0	0	0	75	45	stimuli\Videos_short_600ms\50.single_(long)hard_push_with_thumb_short_short_600ms.mp4	50.single_(long)hard_push_with_thumb_short_short_600ms.mp4	100.02615863326672	100.6344547709066	0.6082961376398544				
73.8359375	0.2	151216	76	56	0	0	0	76	335	stimuli\Videos_short_600ms_vertflip\69.stroke_with_soft_sock_short_vertflip_short_600ms.mp4	69.stroke_with_soft_sock_short_vertflip_short_600ms.mp4	100.82614995321272	101.43443875972572	0.6082888065129737				
74.6357421875	0.2	152854	77	56	0	0	0	77	3	stimuli\Videos_short_600ms\12.repeated_touch_with_nail_file_short_short_600ms.mp4	12.repeated_touch_with_nail_file_short_short_600ms.mp4	101.6261233852092	102.23442832020125	0.6083049349920202				
75.43603515625	0.2	154493	78	56	0	0	0	78	295	stimuli\Videos_short_600ms_vertflip\32.single_(long)pinch_with_fingers_short_vertflip_short_600ms.mp4	32.single_(long)pinch_with_fingers_short_vertflip_short_600ms.mp4	102.42611059972432	103.03441230902035	0.608301709296029				
76.23583984375	0.2	156131	79	56	0	0	0	79	65	stimuli\Videos_short_600ms\69.stroke_with_soft_sock_short_short_600ms.mp4	69.stroke_with_soft_sock_short_short_600ms.mp4	103.22609810748418	103.83439424512405	0.6082961376398544				
77.03564453125	0.2	157769	80	56	0	0	0	80	263	stimuli\Videos_short_600ms_horvertflip\85.touch_top_to_bottom_with_fabric_short_horvertflip_short_600ms.mp4	85.touch_top_to_bottom_with_fabric_short_horvertflip_short_600ms.mp4	104.02609148014562	104.63440609222494	0.6083146120793117				
77.8359375	0.2	159408	81	56	0	0	0	81	351	stimuli\Videos_short_600ms_vertflip\83.single_stroke_top_to_bottom_with_cotton_bud_short_vertflip_short_600ms.mp4	83.single_stroke_top_to_bottom_with_cotton_bud_short_vertflip_short_600ms.mp4	104.82606344591682	105.4343798174666	0.6083163715497903				
78.6357421875	0.2	161046	82	56	0	0	0	82	270	stimuli\Videos_short_600ms_vertflip\1.repeated_touch_with_finger_fast_short_vertflip_short_600ms.mp4	1.repeated_touch_with_finger_fast_short_vertflip_short_600ms.mp4	105.62604362255024	106.23436351304076	0.6083198904905203				
79.435546875	0.2	162684	83	56	0	0	0	83	141	stimuli\Videos_short_600ms_horflip\56.repeated_touch_with_nail_file_short_horflip_short_600ms.mp4	56.repeated_touch_with_nail_file_short_horflip_short_600ms.mp4	106.42602819785952	107.03434779510484	0.6083195972453268				
80.23583984375	0.2	164323	84	56	0	0	0	84	274	stimuli\Videos_short_600ms_vertflip\13.single_touch_with_pen_short_vertflip_short_600ms.mp4	13.single_touch_with_pen_short_vertflip_short_600ms.mp4	107.22601042720817	107.83433031769869	0.6083198904905203				
81.03564453125	0.2	165961	85	56	0	0	0	85	308	stimuli\Videos_short_600ms_vertflip\44.pushing_top_to_bottom_with_finger_short_vertflip_short_600ms.mp4	44.pushing_top_to_bottom_with_finger_short_vertflip_short_600ms.mp4	108.02599734847809	108.63431577274332	0.6083184242652351				
81.83544921875	0.2	167599	86	56	0	0	0	86	101	stimuli\Videos_short_600ms_horflip\2.single_touch_with_finger_short_horflip_short_600ms.mp4	2.single_touch_with_finger_short_horflip_short_600ms.mp4	108.82598573597328	109.43429800209196	0.6083122661186735				
82.6357421875	0.2	169238	87	56	0	0	0	87	163	stimuli\Videos_short_600ms_horflip\76.tickle_with_fingers_from_top_to_bottom_short_horflip_short_600ms.mp4	76.tickle_with_fingers_from_top_to_bottom_short_horflip_short_600ms.mp4	109.62596122068544	110.2342831638914	0.608321943205965				
83.435546875	0.2	170876	88	56	0	0	0	88	54	stimuli\Videos_short_600ms\59.single_push_with_long_side_pencil_short_short_600ms.mp4	59.single_push_with_long_side_pencil_short_short_600ms.mp4	110.42592702831008	111.03426920542596	0.608342177115901				
84.2353515625	0.2	172514	89	56	0	0	0	89	119	stimuli\Videos_short_600ms_horflip\36.single_slap_with_full_hand_short_horflip_short_600ms.mp4	36.single_slap_with_full_hand_short_horflip_short_600ms.mp4	111.22588521156308	111.83425084828468	0.6083656367216008				
85.03564453125	0.2	174153	90	56	0	0	0	90	6	stimuli\Videos_short_600ms\15.single_stroke_top_to_bottom_with_a_plastic_whisk_short_short_600ms.mp4	15.single_stroke_top_to_bottom_with_a_plastic_whisk_short_short_600ms.mp4	112.02587242607795	112.63423161140804	0.6083591853300732				
85.83544921875	0.2	175791	91	56	0	0	0	91	234	stimuli\Videos_short_600ms_horvertflip\59.single_push_with_long_side_pencil_short_horvertflip_short_600ms.mp4	59.single_push_with_long_side_pencil_short_horvertflip_short_600ms.mp4	112.825885152914	113.43421941241309	0.6083342594990881				
86.63525390625	0.2	177429	92	56	0	0	0	92	139	stimuli\Videos_short_600ms_horflip\54.repeated_touch_with_knife_short_horflip_short_600ms.mp4	54.repeated_touch_with_knife_short_horflip_short_600ms.mp4	113.625860051136	114.23418463354778	0.6083245824117967				
87.435546875	0.2	179068	93	56	0	0	0	93	330	stimuli\Videos_short_600ms_vertflip\64.repeated_touch_with_screwdriver_short_vertflip_short_600ms.mp4	64.repeated_touch_with_screwdriver_short_vertflip_short_600ms.mp4	114.42587072525656	115.03419824011894	0.608327514862367	4.0	4.0	1.9022232961508507	1.0
120.734375	0.2	247264	94	56	1	0	0	0	38	stimuli\Videos_short_600ms\44.pushing_top_to_bottom_with_finger_short_short_600ms.mp4	44.pushing_top_to_bottom_with_finger_short_short_600ms.mp4	147.7251672010079	148.33346568460843	0.6082984836004925				
121.5341796875	0.2	248902	95	56	1	0	0	1	75	stimuli\Videos_short_600ms\78.single_stroke_top_to_bottom_with_soft_brush_short_short_600ms.mp4	78.single_stroke_top_to_bottom_with_soft_brush_short_short_600ms.mp4	148.5251673183061	149.1334707870726	0.6083034687665076				
122.33447265625	0.2	250541	96	56	1	0	0	2	230	stimuli\Videos_short_600ms_horvertflip\55.touch_top_to_bottom_with_nail_file_short_horvertflip_short_600ms.mp4	55.touch_top_to_bottom_with_nail_file_short_horvertflip_short_600ms.mp4	149.32515511931115	149.9334527231763	0.6082976038651395				
123.13427734375	0.2	252179	97	56	1	0	0	3	173	stimuli\Videos_short_600ms_horflip\85.touch_top_to_bottom_with_fabric_short_horflip_short_600ms.mp4	85.touch_top_to_bottom_with_fabric_short_horflip_short_600ms.mp4	150.1251358824345	150.7334616378264	0.6083257553918884				
123.93408203125	0.2	253817	98	56	1	0	0	4	185	stimuli\Videos_short_600ms_horvertflip\14.repeated_touch_with_pencil_short_horvertflip_short_600ms.mp4	14.repeated_touch_with_pencil_short_horvertflip_short_600ms.mp4	150.9251204577438	151.533439175254	0.6083187175102012				
124.734375	0.2	255456	99	56	1	0	0	5	78	stimuli\Videos_short_600ms\80.stroke_with_sharp_stick_all_over_the_hand_short_short_600ms.mp4	80.stroke_with_sharp_stick_all_over_the_hand_short_short_600ms.mp4	151.72510239384746	152.33342551003375	0.6083231161862841				
125.5341796875	0.2	257094	100	56	1	0	0	6	250	stimuli\Videos_short_600ms_horvertflip\73.single_stroke_with_flat_hand_short_horvertflip_short_600ms.mp4	73.single_stroke_with_flat_hand_short_horvertflip_short_600ms.mp4	152.5250849164413	153.1334051001768	0.6083201837354864				
126.333984375	0.2	258732	101	56	1	0	0	7	89	stimuli\Videos_short_600ms\90.repeated_touch_with_sponge_short_short_600ms.mp4	90.repeated_touch_with_sponge_short_short_600ms.mp4	153.32507271744635	153.9333893822411	0.6083166647947564				
127.13427734375	0.2	260371	102	56	1	0	0	8	69	stimuli\Videos_short_600ms\72.(short)stroke_with_finger_all_over_the_hand_short_short_600ms.mp4	72.(short)stroke_with_finger_all_over_the_hand_short_short_600ms.mp4	154.12506081169636	154.73337190483494	0.6083110931385818				
127.93408203125	0.2	262009	103	56	1	0	0	9	333	stimuli\Videos_short_600ms_vertflip\67.single_touch_with_sponge_short_vertflip_short_600ms.mp4	67.single_touch_with_sponge_short_vertflip_short_600ms.mp4	154.92502368687042	155.53335735987935	0.6083336730089286				
128.73388671875	0.2	263647	104	56	1	0	0	10	66	stimuli\Videos_short_600ms\7.repeated_touch_with_hairbrush_short_short_600ms.mp4	7.repeated_touch_with_hairbrush_short_short_600ms.mp4	155.7249988783376	156.33334046896334	0.6083415906257414				
129.5341796875	0.2	265286	105	56	1	0	0	11	27	stimuli\Videos_short_600ms\34.repeated_punch_with_hand_short_short_600ms.mp4	34.repeated_punch_with_hand_short_short_600ms.mp4	156.52495999404118	157.13332328480217	0.6083632907609626				
130.333984375	0.2	266924	106	56	1	0	0	12	284	stimuli\Videos_short_600ms_vertflip\22.single_touch_with_metal_chopstick_short_vertflip_short_600ms.mp4	22.single_touch_with_metal_chopstick_short_vertflip_short_600ms.mp4	157.3249551261731	157.9333084466016	0.6083533204284777				
131.1337890625	0.2	268562	107	56	1	0	0	13	255	stimuli\Videos_short_600ms_horvertflip\78.single_stroke_top_to_bottom_with_soft_brush_short_horvertflip_short_600ms.mp4	78.single_stroke_top_to_bottom_with_soft_brush_short_horvertflip_short_600ms.mp4	158.1249270919443	158.7332912624404	0.6083641704960883				
131.93408203125	0.2	270201	108	56	1	0	0	14	81	stimuli\Videos_short_600ms\83.single_stroke_top_to_bottom_with_cotton_bud_short_short_600ms.mp4	83.single_stroke_top_to_bottom_with_cotton_bud_short_short_600ms.mp4	158.92494128500562	159.5332758377499	0.6083345527442816				
132.73388671875	0.2	271839	109	56	1	0	0	15	223	stimuli\Videos_short_600ms_horvertflip\49.repeated_slap_with_hand_short_horvertflip_short_600ms.mp4	49.repeated_slap_with_hand_short_horvertflip_short_600ms.mp4	159.7249287927657	160.33326070630417	0.60833191353845				
133.5341796875	0.2	273478	110	56	1	0	0	16	17	stimuli\Videos_short_600ms\25.single_touch_with_stanley_knife_short_short_600ms.mp4	25.single_touch_with_stanley_knife_short_short_600ms.mp4	160.52491336807498	161.1332417626727	0.60832839459772				
134.333984375	0.2	275116	111	56	1	0	1	17	372	stimuli\Targets_short_600ms_horvertflip\brush-stroke_short_vertflip_short_600ms.mp4	brush-stroke_short_vertflip_short_600ms.mp4	161.32491495159843	161.9332316163932	0.6083166647947564				
135.1337890625	0.2	276754	112	56	1	0	0	18	115	stimuli\Videos_short_600ms_horflip\32.single_(long)pinch_with_fingers_short_horflip_short_600ms.mp4	32.single_(long)pinch_with_fingers_short_horflip_short_600ms.mp4	162.12488779710475	162.73316458057002	0.6082767834652714				
135.93408203125	0.2	278393	113	56	1	0	0	19	199	stimuli\Videos_short_600ms_horvertflip\27.single_push_with_a_plastic_whisk_short_horvertflip_short_600ms.mp4	27.single_push_with_a_plastic_whisk_short_horvertflip_short_600ms.mp4	162.92488322248187	163.5331781871414	0.6082949646595353				
136.73388671875	0.2	280031	114	56	1	0	0	20	307	stimuli\Videos_short_600ms_vertflip\43.touch_top_to_bottom_with_sharp_wooden_stick_short_vertflip_short_600ms.mp4	43.touch_top_to_bottom_with_sharp_wooden_stick_short_vertflip_short_600ms.mp4	163.72486075990946	164.33315777728444	0.60829701737498				
137.53369140625	0.2	281669	115	56	1	0	0	21	47	stimuli\Videos_short_600ms\52.touch_top_to_bottom_with_hammer_short_short_600ms.mp4	52.touch_top_to_bottom_with_hammer_short_short_600ms.mp4	164.5248429892581	165.1331441120642	0.6083011228060968				
138.333984375	0.2	283308	116	56	1	0	0	22	135	stimuli\Videos_short_600ms_horflip\50.single_(long)hard_push_with_thumb_short_horflip_short_600ms.mp4	50.single_(long)hard_push_with_thumb_short_horflip_short_600ms.mp4	165.32482785781235	165.93313895095093	0.6083110931385818				
139.1337890625	0.2	284946	117	56	1	0	0	23	171	stimuli\Videos_short_600ms_horflip\83.single_stroke_top_to_bottom_with_cotton_bud_short_horflip_short_600ms.mp4	83.single_stroke_top_to_bottom_with_cotton_bud_short_horflip_short_600ms.mp4	166.12480803444578	166.73314376017015	0.6083357257243733				
139.93359375	0.2	286584	118	56	1	0	0	24	269	stimuli\Videos_short_600ms_horvertflip\90.repeated_touch_with_sponge_short_horvertflip_short_600ms.mp4	90.repeated_touch_with_sponge_short_horvertflip_short_600ms.mp4	166.92479583545082	167.53311191375542	0.6083160783045969				
140.73388671875	0.2	288223	119	56	1	0	0	25	340	stimuli\Videos_short_600ms_vertflip\73.single_stroke_with_flat_hand_short_vertflip_short_600ms.mp4	73.single_stroke_with_flat_hand_short_vertflip_short_600ms.mp4	167.72477395936858	168.33309590257454	0.608321943205965				
141.53369140625	0.2	289861	120	56	1	0	0	26	15	stimuli\Videos_short_600ms\23.single_push_with_a_spoon_short_short_600ms.mp4	23.single_push_with_a_spoon_short_short_600ms.mp4	168.52475824143266	169.13308047788382	0.6083222364511585				
142.33349609375	0.2	291499	121	56	1	0	0	27	341	stimuli\Videos_short_600ms_vertflip\74.fingers_walking_from_top_to_bottom_short_vertflip_short_600ms.mp4	74.fingers_walking_from_top_to_bottom_short_vertflip_short_600ms.mp4	169.32474193700682	169.93306358696782	0.6083216499609989				
143.1337890625	0.2	293138	122	56	1	0	0	28	198	stimuli\Videos_short_600ms_horvertflip\26.single_touch_with_a_blunt_syringe_short_horvertflip_short_600ms.mp4	26.single_touch_with_a_blunt_syringe_short_horvertflip_short_600ms.mp4	170.12472592582594	170.73304669605182	0.6083207702258733				
143.93359375	0.2	294776	123	56	1	0	0	29	146	stimuli\Videos_short_600ms_horflip\60.single_push_with_tip_of_pencil_short_horflip_short_600ms.mp4	60.single_push_with_tip_of_pencil_short_horflip_short_600ms.mp4	170.92471108762538	171.53302980513558	0.6083187175102012				
144.7333984375	0.2	296414	124	56	1	0	0	30	133	stimuli\Videos_short_600ms_horflip\49.repeated_slap_with_hand_short_horflip_short_600ms.mp4	49.repeated_slap_with_hand_short_horflip_short_600ms.mp4	171.72466956412336	172.3330140871999	0.6083445230765392				
145.53369140625	0.2	298053	125	56	1	0	1	31	376	stimuli\Targets_short_600ms_horvertflip\hand-pinch_short_vertflip_short_600ms.mp4	hand-pinch_short_vertflip_short_600ms.mp4	172.52467935850882	173.13299660979374	0.608317251284916				
146.33349609375	0.2	299691	126	56	1	0	0	32	267	stimuli\Videos_short_600ms_horvertflip\89.single_touch_with_plastic_brush_short_horvertflip_short_600ms.mp4	89.single_touch_with_plastic_brush_short_horvertflip_short_600ms.mp4	173.32467126494475	173.93298323781846	0.6083119728737074				
147.13330078125	0.2	301329	127	56	1	0	0	33	150	stimuli\Videos_short_600ms_horflip\64.repeated_touch_with_screwdriver_short_horflip_short_600ms.mp4	64.repeated_touch_with_screwdriver_short_horflip_short_600ms.mp4	174.12460628183726	174.73296458743198	0.6083583055947202				
147.93359375	0.2	302968	128	56	1	0	0	34	43	stimuli\Videos_short_600ms\49.repeated_slap_with_hand_short_short_600ms.mp4	49.repeated_slap_with_hand_short_short_600ms.mp4	174.92461314377192	175.53294916274126	0.6083360189693394				
148.7333984375	0.2	304606	129	56	1	0	0	35	272	stimuli\Videos_short_600ms_vertflip\11.single_touch_with_lighter_short_vertflip_short_600ms.mp4	11.single_touch_with_lighter_short_vertflip_short_600ms.mp4	175.72459595961072	176.33292816639414	0.608332206783416				
149.533203125	0.2	306244	130	56	1	0	0	36	252	stimuli\Videos_short_600ms_horvertflip\75.(long)stroke_with_fingers_all_over_the_hand_short_horvertflip_short_600ms.mp4	75.(long)stroke_with_fingers_all_over_the_hand_short_horvertflip_short_600ms.mp4	176.52460722022147	177.13290541057677	0.6082981903552991				
150.33349609375	0.2	307883	131	56	1	0	0	37	343	stimuli\Videos_short_600ms_vertflip\76.tickle_with_fingers_from_top_to_bottom_short_vertflip_short_600ms.mp4	76.tickle_with_fingers_from_top_to_bottom_short_vertflip_short_600ms.mp4	177.32457947923783	177.93289673052277	0.608317251284916				
151.13330078125	0.2	309521	132	56	1	0	0	38	71	stimuli\Videos_short_600ms\74.fingers_walking_from_top_to_bottom_short_short_600ms.mp4	74.fingers_walking_from_top_to_bottom_short_short_600ms.mp4	178.12456552077242	178.7328379055616	0.6082723847891884				
151.93310546875	0.2	311159	133	56	1	0	0	39	10	stimuli\Videos_short_600ms\19.single_touch_with_rolling_pin_short_short_600ms.mp4	19.single_touch_with_rolling_pin_short_short_600ms.mp4	178.92456299886476	179.53284359451595	0.6082805956511947				
152.7333984375	0.2	312798	134	56	1	0	0	40	157	stimuli\Videos_short_600ms_horflip\70.(long)stroke_with_finger_all_over_the_hand_short_horflip_short_600ms.mp4	70.(long)stroke_with_finger_all_over_the_hand_short_horflip_short_600ms.mp4	179.7245317389402	180.3328355009519	0.6083037620117011				
153.533203125	0.2	314436	135	56	1	0	0	41	32	stimuli\Videos_short_600ms\39.single_stab_with_scissors_short_short_600ms.mp4	39.single_stab_with_scissors_short_short_600ms.mp4	180.52451367504383	181.1328156775853	0.6083020025414498				
154.33349609375	0.2	316075	136	56	1	0	0	42	204	stimuli\Videos_short_600ms_horvertflip\31.hand_grabbing_wrist_short_horvertflip_short_600ms.mp4	31.hand_grabbing_wrist_short_horvertflip_short_600ms.mp4	181.3245000098236	181.93282371250007	0.6083237026764436				
155.13330078125	0.2	317713	137	56	1	0	0	43	154	stimuli\Videos_short_600ms_horflip\68.stroke_top_to_bottom_with_shawl_short_horflip_short_600ms.mp4	68.stroke_top_to_bottom_with_shawl_short_horflip_short_600ms.mp4	182.12448282566243	182.732802422908	0.6083195972455542				
155.93310546875	0.2	319351	138	56	1	0	0	44	155	stimuli\Videos_short_600ms_horflip\69.stroke_with_soft_sock_short_horflip_short_600ms.mp4	69.stroke_with_soft_sock_short_horflip_short_600ms.mp4	182.92446564150143	183.532793742854	0.6083281013525266				
156.7333984375	0.2	320990	139	56	1	0	0	45	259	stimuli\Videos_short_600ms_horvertflip\81.single_stroke_top_to_bottom_with_cotton_pad_short_horvertflip_short_600ms.mp4	81.single_stroke_top_to_bottom_with_cotton_pad_short_horvertflip_short_600ms.mp4	183.7244481640953	184.33276922756613	0.6083210634708394				
157.533203125	0.2	322628	140	56	1	0	0	46	56	stimuli\Videos_short_600ms\60.single_push_with_tip_of_pencil_short_short_600ms.mp4	60.single_push_with_tip_of_pencil_short_short_600ms.mp4	184.5244318596692	185.1327529231401	0.6083210634708394				
158.3330078125	0.2	324266	141	56	1	0	0	47	338	stimuli\Videos_short_600ms_vertflip\71.single_stroke_with_finger_top_to_bottom_short_vertflip_short_600ms.mp4	71.single_stroke_with_finger_top_to_bottom_short_vertflip_short_600ms.mp4	185.32441555524335	185.93274043090017	0.6083248756567627				
159.13330078125	0.2	325905	142	56	1	0	0	48	277	stimuli\Videos_short_600ms_vertflip\16.repeated_touch_with_plastic_brush_short_vertflip_short_600ms.mp4	16.repeated_touch_with_plastic_brush_short_vertflip_short_600ms.mp4	186.12442388340332	186.73271914130805	0.6082952579047287				
159.93310546875	0.2	327543	143	56	1	0	0	49	256	stimuli\Videos_short_600ms_horvertflip\79.long_with_soft_brush_all_over_the_hand_short_horvertflip_short_600ms.mp4	79.long_with_soft_brush_all_over_the_hand_short_horvertflip_short_600ms.mp4	186.9243501029437	187.5327054760878	0.6083553731441498				
160.73291015625	0.2	329181	144	56	1	0	0	50	36	stimuli\Videos_short_600ms\42.single_slap_with_plastic_whisk_short_short_600ms.mp4	42.single_slap_with_plastic_whisk_short_short_600ms.mp4	187.72432118897973	188.33268653245617	0.6083653434764074				
161.533203125	0.2	330820	145	56	1	0	0	51	240	stimuli\Videos_short_600ms_horvertflip\64.repeated_touch_with_screwdriver_short_horvertflip_short_600ms.mp4	64.repeated_touch_with_screwdriver_short_horvertflip_short_600ms.mp4	188.52432687793407	189.1326716942556	0.6083448163215053				
162.3330078125	0.2	332458	146	56	1	0	0	52	324	stimuli\Videos_short_600ms_vertflip\59.single_push_with_long_side_pencil_short_vertflip_short_600ms.mp4	59.single_push_with_long_side_pencil_short_vertflip_short_600ms.mp4	189.32431438569415	189.93265392360425	0.6083395379100693				
163.1328125	0.2	334096	147	56	1	0	0	53	0	stimuli\Videos_short_600ms\1.repeated_touch_with_finger_fast_short_short_600ms.mp4	1.repeated_touch_with_finger_fast_short_short_600ms.mp4	190.12430160020904	190.73264260434465	0.6083410041355819				
163.93310546875	0.2	335735	148	56	1	0	0	54	149	stimuli\Videos_short_600ms_horflip\63.stroke_top_to_bottom_with_screwdriver_short_horflip_short_600ms.mp4	63.stroke_top_to_bottom_with_screwdriver_short_horflip_short_600ms.mp4	190.92428734849864	191.53262248773285	0.6083351392342138				
164.73291015625	0.2	337373	149	56	1	0	0	55	49	stimuli\Videos_short_600ms\54.repeated_touch_with_knife_short_short_600ms.mp4	54.repeated_touch_with_knife_short_short_600ms.mp4	191.72429157122747	192.3326079427773	0.6083163715497903				
165.53271484375	0.2	339011	150	56	1	0	0	56	151	stimuli\Videos_short_600ms_horflip\65.stroke_top_to_bottom_with_stanley_knife_short_horflip_short_600ms.mp4	65.stroke_top_to_bottom_with_stanley_knife_short_horflip_short_600ms.mp4	192.5242784924974	193.13256524629492	0.608286753797529				
166.3330078125	0.2	340650	151	56	1	0	0	57	128	stimuli\Videos_short_600ms_horflip\44.pushing_top_to_bottom_with_finger_short_horflip_short_600ms.mp4	44.pushing_top_to_bottom_with_finger_short_horflip_short_600ms.mp4	193.32425368396432	193.93256858928885	0.6083149053245052				
167.1328125	0.2	342288	152	56	1	0	0	58	13	stimuli\Videos_short_600ms\21.repeated_touch_with_metal_chopstick_short_short_600ms.mp4	21.repeated_touch_with_metal_chopstick_short_short_600ms.mp4	194.12423532682303	194.7325170954543	0.6082817686312865				
167.9326171875	0.2	343926	153	56	1	0	0	59	191	stimuli\Videos_short_600ms_horvertflip\2.single_touch_with_finger_short_horvertflip_short_600ms.mp4	2.single_touch_with_finger_short_horvertflip_short_600ms.mp4	194.92422107511263	195.53252747632996	0.6083064012173054				
168.73291015625	0.2	345565	154	56	1	0	0	60	297	stimuli\Videos_short_600ms_vertflip\34.repeated_punch_with_hand_short_vertflip_short_600ms.mp4	34.repeated_punch_with_hand_short_vertflip_short_600ms.mp4	195.72420535717671	196.33250354753227	0.6082981903555265				
169.53271484375	0.2	347203	155	56	1	0	0	61	233	stimuli\Videos_short_600ms_horvertflip\58.single_slap_with_pencil_short_horvertflip_short_600ms.mp4	58.single_slap_with_pencil_short_horvertflip_short_600ms.mp4	196.5241875865256	197.1325186203287	0.6083310338030969				
170.33251953125	0.2	348841	156	56	1	0	0	62	312	stimuli\Videos_short_600ms_vertflip\48.single_slap_with_hand_short_vertflip_short_600ms.mp4	48.single_slap_with_hand_short_vertflip_short_600ms.mp4	197.3241715753447	197.93249469153105	0.6083231161862841				
171.1328125	0.2	350480	157	56	1	0	0	63	73	stimuli\Videos_short_600ms\76.tickle_with_fingers_from_top_to_bottom_short_short_600ms.mp4	76.tickle_with_fingers_from_top_to_bottom_short_short_600ms.mp4	198.12415644389895	198.73247574789957	0.6083193040005881				
171.9326171875	0.2	352118	158	56	1	0	0	64	188	stimuli\Videos_short_600ms_horvertflip\17.repeated_touch_with_rolling_pin_short_horvertflip_short_600ms.mp4	17.repeated_touch_with_rolling_pin_short_horvertflip_short_600ms.mp4	198.92413750026753	199.532461202944	0.6083237026764436				
172.73291015625	0.2	353757	159	56	1	0	0	65	350	stimuli\Videos_short_600ms_vertflip\82.repeated_touch_with_cotton_bud_short_vertflip_short_600ms.mp4	82.repeated_touch_with_cotton_bud_short_vertflip_short_600ms.mp4	199.72409920246128	200.33244079308704	0.6083415906257414				
173.53271484375	0.2	355395	160	56	1	0	0	66	174	stimuli\Videos_short_600ms_horflip\86.touch_top_to_bottom_with_hair_brush_short_horflip_short_600ms.mp4	86.touch_top_to_bottom_with_hair_brush_short_horflip_short_600ms.mp4	200.52410547790575	201.1324259548865	0.6083204769806798				
174.33251953125	0.2	357033	161	56	1	0	0	67	118	stimuli\Videos_short_600ms_horflip\35.single_punch_with_hand_short_horflip_short_600ms.mp4	35.single_punch_with_hand_short_horflip_short_600ms.mp4	201.324085361294	201.93241053019577	0.6083251689017288				
175.1328125	0.2	358672	162	56	1	0	0	68	164	stimuli\Videos_short_600ms_horflip\77.tapping_with_all_fingers_short_horflip_short_600ms.mp4	77.tapping_with_all_fingers_short_horflip_short_600ms.mp4	202.1240491162032	202.73239246629944	0.6083433500962201				
175.9326171875	0.2	360310	163	56	1	0	0	69	280	stimuli\Videos_short_600ms_vertflip\19.single_touch_with_rolling_pin_short_vertflip_short_600ms.mp4	19.single_touch_with_rolling_pin_short_vertflip_short_600ms.mp4	202.92404424833512	203.5323755753834	0.6083313270482904				
176.732421875	0.2	361948	164	56	1	0	0	70	213	stimuli\Videos_short_600ms_horvertflip\4.repeated_tap_with_finger_slow_short_horvertflip_short_600ms.mp4	4.repeated_tap_with_finger_slow_short_horvertflip_short_600ms.mp4	203.72401885331192	204.3323586844674	0.6083398311554902				
177.53271484375	0.2	363587	165	56	1	0	0	71	98	stimuli\Videos_short_600ms_horflip\17.repeated_touch_with_rolling_pin_short_horflip_short_600ms.mp4	17.repeated_touch_with_rolling_pin_short_horflip_short_600ms.mp4	204.52400518809168	205.13234413951184	0.6083389514201372				
178.33251953125	0.2	365225	166	56	1	0	1	72	379	stimuli\Targets_short_600ms_vertflip\chopstick-silver-tap_short_horvertflip_short_600ms.mp4	chopstick-silver-tap_short_horvertflip_short_600ms.mp4	205.32406454089391	205.93232842157613	0.608263880682216				
179.13232421875	0.2	366863	167	56	1	0	0	73	359	stimuli\Videos_short_600ms_vertflip\90.repeated_touch_with_sponge_short_vertflip_short_600ms.mp4	90.repeated_touch_with_sponge_short_vertflip_short_600ms.mp4	206.12397463195543	206.73229217648532	0.6083175445298821				
179.9326171875	0.2	368502	168	56	1	0	0	74	4	stimuli\Videos_short_600ms\13.single_touch_with_pen_short_short_600ms.mp4	13.single_touch_with_pen_short_short_600ms.mp4	206.92396565865624	207.5323128209384	0.6083471622821435				
180.732421875	0.2	370140	169	56	1	0	0	75	220	stimuli\Videos_short_600ms_horvertflip\46.scratching_top_to_bottom_with_finger_nails_short_horvertflip_short_600ms.mp4	46.scratching_top_to_bottom_with_finger_nails_short_horvertflip_short_600ms.mp4	207.7239646029741	208.33223434855745	0.6082697455833568				
181.5322265625	0.2	371778	170	56	1	0	0	76	120	stimuli\Videos_short_600ms_horflip\37.single_stab_with_nail_file_short_horflip_short_600ms.mp4	37.single_stab_with_nail_file_short_horflip_short_600ms.mp4	208.52394360662697	209.132248541619	0.6083049349920202				
182.33251953125	0.2	373417	171	56	1	0	0	77	235	stimuli\Videos_short_600ms_horvertflip\6.single_touch_with_flat_hand_short_horvertflip_short_600ms.mp4	6.single_touch_with_flat_hand_short_horvertflip_short_600ms.mp4	209.3239343400828	209.93224689944643	0.6083125593636396				
183.13232421875	0.2	375055	172	56	1	0	0	78	104	stimuli\Videos_short_600ms_horflip\22.single_touch_with_metal_chopstick_short_horflip_short_600ms.mp4	22.single_touch_with_metal_chopstick_short_horflip_short_600ms.mp4	210.12391363698063	210.732211534091	0.608297897110333				
183.93212890625	0.2	376693	173	56	1	0	0	79	314	stimuli\Videos_short_600ms_vertflip\5.repeated_tap_with_finger_moving_from_top_to_bottom_short_vertflip_short_600ms.mp4	5.repeated_tap_with_finger_moving_from_top_to_bottom_short_vertflip_short_600ms.mp4	210.92389264063377	211.53219522966515	0.608302589031382				
184.732421875	0.2	378332	174	56	1	0	0	80	266	stimuli\Videos_short_600ms_horvertflip\88.repeated_stroke_with_plastic_brush_short_horvertflip_short_600ms.mp4	88.repeated_stroke_with_plastic_brush_short_horvertflip_short_600ms.mp4	211.72387692269783	212.3322035578251	0.6083266351272414				
185.5322265625	0.2	379970	175	56	1	0	0	81	144	stimuli\Videos_short_600ms_horflip\59.single_push_with_long_side_pencil_short_horflip_short_600ms.mp4	59.single_push_with_long_side_pencil_short_horflip_short_600ms.mp4	212.52385856555657	213.13214033418785	0.6082817686312865				
186.33203125	0.2	381608	176	56	1	0	0	82	231	stimuli\Videos_short_600ms_horvertflip\56.repeated_touch_with_nail_file_short_horvertflip_short_600ms.mp4	56.repeated_touch_with_nail_file_short_horvertflip_short_600ms.mp4	213.32384695305177	213.93216449758165	0.6083175445298821				
187.13232421875	0.2	383247	177	56	1	0	0	83	84	stimuli\Videos_short_600ms\86.touch_top_to_bottom_with_hair_brush_short_short_600ms.mp4	86.touch_top_to_bottom_with_hair_brush_short_short_600ms.mp4	214.1238265431948	214.7321455539502	0.6083190107553946				
187.93212890625	0.2	384885	178	56	1	0	0	84	83	stimuli\Videos_short_600ms\85.touch_top_to_bottom_with_fabric_short_short_600ms.mp4	85.touch_top_to_bottom_with_fabric_short_short_600ms.mp4	214.9238137577097	215.53213071574964	0.6083169580399499				
188.73193359375	0.2	386523	179	56	1	0	0	85	14	stimuli\Videos_short_600ms\22.single_touch_with_metal_chopstick_short_short_600ms.mp4	22.single_touch_with_metal_chopstick_short_short_600ms.mp4	215.7237939343429	216.33211587754909	0.6083219432061924				
189.5322265625	0.2	388162	180	56	1	0	0	86	99	stimuli\Videos_short_600ms_horflip\18.single_stroke_from_top_to_bottom_with_rolling_pin_short_horflip_short_600ms.mp4	18.single_stroke_from_top_to_bottom_with_rolling_pin_short_horflip_short_600ms.mp4	216.5237726447508	217.13209781365276	0.6083251689019562				
190.33203125	0.2	389800	181	56	1	0	0	87	356	stimuli\Videos_short_600ms_vertflip\88.repeated_stroke_with_plastic_brush_short_vertflip_short_600ms.mp4	88.repeated_stroke_with_plastic_brush_short_vertflip_short_600ms.mp4	217.3237583930404	217.9320815092267	0.6083231161862841				
191.1318359375	0.2	391438	182	56	1	0	0	88	239	stimuli\Videos_short_600ms_horvertflip\63.stroke_top_to_bottom_with_screwdriver_short_horvertflip_short_600ms.mp4	63.stroke_top_to_bottom_with_screwdriver_short_horvertflip_short_600ms.mp4	218.12377111987644	218.73206608453597	0.6082949646595353				
191.93212890625	0.2	393077	183	56	1	0	0	89	317	stimuli\Videos_short_600ms_vertflip\52.touch_top_to_bottom_with_hammer_short_vertflip_short_600ms.mp4	52.touch_top_to_bottom_with_hammer_short_vertflip_short_600ms.mp4	218.92370701650407	219.53205359229605	0.6083465757919839				
192.73193359375	0.2	394715	184	56	1	0	0	90	165	stimuli\Videos_short_600ms_horflip\78.single_stroke_top_to_bottom_with_soft_brush_short_horflip_short_600ms.mp4	78.single_stroke_top_to_bottom_with_soft_brush_short_horflip_short_600ms.mp4	219.7236895390979	220.33203347568428	0.6083439365863796				
193.5322265625	0.2	396354	185	56	1	0	0	91	303	stimuli\Videos_short_600ms_vertflip\4.repeated_tap_with_finger_slow_short_vertflip_short_600ms.mp4	4.repeated_tap_with_finger_slow_short_vertflip_short_600ms.mp4	220.52365417374244	221.13201922397388	0.6083650502314413				
194.33203125	0.2	397992	186	56	1	0	0	92	251	stimuli\Videos_short_600ms_horvertflip\74.fingers_walking_from_top_to_bottom_short_horvertflip_short_600ms.mp4	74.fingers_walking_from_top_to_bottom_short_horvertflip_short_600ms.mp4	221.32366719382344	221.9320017465675	0.6083345527440542	3.0	4.0	1.4029445324015342	0.0
228.01416015625	0.2	466973	187	56	2	0	0	0	131	stimuli\Videos_short_600ms_horflip\47.(long)scratching_with_finger_nails_short_horflip_short_600ms.mp4	47.(long)scratching_with_finger_nails_short_horflip_short_600ms.mp4	255.0063208974941	255.61464577315087	0.6083248756567627				
228.81396484375	0.2	468611	188	56	2	0	0	1	246	stimuli\Videos_short_600ms_horvertflip\7.repeated_touch_with_hairbrush_short_horvertflip_short_600ms.mp4	7.repeated_touch_with_hairbrush_short_horvertflip_short_600ms.mp4	255.80627937399208	256.41456700752497	0.608287633532882				
229.6142578125	0.2	470250	189	56	2	0	1	2	364	stimuli\Targets_short_600ms\hand-pinch_short_short_600ms.mp4	hand-pinch_short_short_600ms.mp4	256.60625837764496	257.21459967502574	0.6083412973807754				
230.4140625	0.2	471888	190	56	2	0	0	3	258	stimuli\Videos_short_600ms_horvertflip\80.stroke_with_sharp_stick_all_over_the_hand_short_horvertflip_short_600ms.mp4	80.stroke_with_sharp_stick_all_over_the_hand_short_horvertflip_short_600ms.mp4	257.4062256514951	258.0145666556309	0.6083410041358093				
231.21435546875	0.2	473527	191	56	2	0	0	4	39	stimuli\Videos_short_600ms\45.scratching_with_finger_nails_short_short_600ms.mp4	45.scratching_with_finger_nails_short_short_600ms.mp4	258.20621638495095	258.8145729310754	0.6083565461244689				
232.01416015625	0.2	475165	192	56	2	0	0	5	93	stimuli\Videos_short_600ms_horflip\12.repeated_touch_with_nail_file_short_horflip_short_600ms.mp4	12.repeated_touch_with_nail_file_short_horflip_short_600ms.mp4	259.00619245615326	259.6145709956579	0.6083785395046561				
232.81396484375	0.2	476803	193	56	2	0	0	6	114	stimuli\Videos_short_600ms_horflip\31.hand_grabbing_wrist_short_horflip_short_600ms.mp4	31.hand_grabbing_wrist_short_horflip_short_600ms.mp4	259.8070344800485	260.4144910570517	0.6074565770031768				
233.6142578125	0.2	478442	194	56	2	0	0	7	162	stimuli\Videos_short_600ms_horflip\75.(long)stroke_with_fingers_all_over_the_hand_short_horflip_short_600ms.mp4	75.(long)stroke_with_fingers_all_over_the_hand_short_horflip_short_600ms.mp4	260.6063639458705	261.214505250113	0.6081413042425083				
234.4140625	0.2	480080	195	56	2	0	0	8	61	stimuli\Videos_short_600ms\65.stroke_top_to_bottom_with_stanley_knife_short_short_600ms.mp4	65.stroke_top_to_bottom_with_stanley_knife_short_short_600ms.mp4	261.4061030750556	262.0144819078055	0.6083788327498496				
235.2138671875	0.2	481718	196	56	2	0	0	9	316	stimuli\Videos_short_600ms_vertflip\51.repeated_touch_with_hammer_short_vertflip_short_600ms.mp4	51.repeated_touch_with_hammer_short_vertflip_short_600ms.mp4	262.2061254789792	262.8144726412613	0.6083471622821435				
236.01416015625	0.2	483357	197	56	2	0	0	10	179	stimuli\Videos_short_600ms_horflip\90.repeated_touch_with_sponge_short_horflip_short_600ms.mp4	90.repeated_touch_with_sponge_short_horflip_short_600ms.mp4	263.00610477587725	263.61445487060996	0.6083500947327138				
236.81396484375	0.2	484995	198	56	2	0	0	11	282	stimuli\Videos_short_600ms_vertflip\20.single_touch_with_screwdriver_short_vertflip_short_600ms.mp4	20.single_touch_with_screwdriver_short_vertflip_short_600ms.mp4	263.8060937498624	264.41445997307414	0.6083662232117604				
237.61376953125	0.2	486633	199	56	2	0	0	12	1	stimuli\Videos_short_600ms\10.single_touch_with_knife_short_short_600ms.mp4	10.single_touch_with_knife_short_short_600ms.mp4	264.60606776834925	265.21443340507085	0.6083656367216008				
238.4140625	0.2	488272	200	56	2	0	0	13	245	stimuli\Videos_short_600ms_horvertflip\69.stroke_with_soft_sock_short_horvertflip_short_600ms.mp4	69.stroke_with_soft_sock_short_horvertflip_short_600ms.mp4	265.4060183272304	266.01441915336045	0.6084008261300369				
239.2138671875	0.2	489910	201	56	2	0	0	14	261	stimuli\Videos_short_600ms_horvertflip\83.single_stroke_top_to_bottom_with_cotton_bud_short_horvertflip_short_600ms.mp4	83.single_stroke_top_to_bottom_with_cotton_bud_short_horvertflip_short_600ms.mp4	266.20603486625237	266.8143914123766	0.6083565461242415				
240.013671875	0.2	491548	202	56	2	0	0	15	214	stimuli\Videos_short_600ms_horvertflip\40.repeated_push_with_finger_short_horvertflip_short_600ms.mp4	40.repeated_push_with_finger_short_horvertflip_short_600ms.mp4	267.0060244267279	267.6143938756352	0.6083694489072968				
240.81396484375	0.2	493187	203	56	2	0	0	16	7	stimuli\Videos_short_600ms\16.repeated_touch_with_plastic_brush_short_short_600ms.mp4	16.repeated_touch_with_plastic_brush_short_short_600ms.mp4	267.8060081223018	268.41438314286574	0.6083750205639262				
241.61376953125	0.2	494825	204	56	2	0	0	17	11	stimuli\Videos_short_600ms\2.single_touch_with_finger_short_short_600ms.mp4	2.single_touch_with_finger_short_short_600ms.mp4	268.6059912313858	269.21436361274414	0.608372381358322				
242.41357421875	0.2	496463	205	56	2	0	0	18	82	stimuli\Videos_short_600ms\84.single_touch_with_cotton_bud_short_short_600ms.mp4	84.single_touch_with_cotton_bud_short_short_600ms.mp4	269.4059620241769	270.0143452556026	0.6083832314257052				
243.2138671875	0.2	498102	206	56	2	0	0	19	9	stimuli\Videos_short_600ms\18.single_stroke_from_top_to_bottom_with_rolling_pin_short_short_600ms.mp4	18.single_stroke_from_top_to_bottom_with_rolling_pin_short_short_600ms.mp4	270.20598706730584	270.8143286579316	0.6083415906257414				
244.013671875	0.2	499740	207	56	2	0	0	20	182	stimuli\Videos_short_600ms_horvertflip\11.single_touch_with_lighter_short_horvertflip_short_600ms.mp4	11.single_touch_with_lighter_short_horvertflip_short_600ms.mp4	271.0059229639335	271.6143117670156	0.6083888030821072				
244.8134765625	0.2	501378	208	56	2	0	0	21	170	stimuli\Videos_short_600ms_horflip\82.repeated_touch_with_cotton_bud_short_horflip_short_600ms.mp4	82.repeated_touch_with_cotton_bud_short_horflip_short_600ms.mp4	271.80590607301747	272.4142957558347	0.6083896828172328				
245.61376953125	0.2	503017	209	56	2	0	0	22	110	stimuli\Videos_short_600ms_horflip\28.single_injection_with_sharp_needle_short_horflip_short_600ms.mp4	28.single_injection_with_sharp_needle_short_horflip_short_600ms.mp4	272.6058883023661	273.21428385008494	0.6083955477188283				
246.41357421875	0.2	504655	210	56	2	0	0	23	332	stimuli\Videos_short_600ms_vertflip\66.stroke_top_to_bottom_with_sponge_short_vertflip_short_600ms.mp4	66.stroke_top_to_bottom_with_sponge_short_vertflip_short_600ms.mp4	273.4058951643008	274.01425962804205	0.6083644637412817				
247.21337890625	0.2	506293	211	56	2	0	0	24	21	stimuli\Videos_short_600ms\29.single_pinch_with_tweezers_short_short_600ms.mp4	29.single_pinch_with_tweezers_short_short_600ms.mp4	274.205883551796	274.8142078409626	0.6083242891666032				
248.013671875	0.2	507932	212	56	2	0	0	25	329	stimuli\Videos_short_600ms_vertflip\63.stroke_top_to_bottom_with_screwdriver_short_vertflip_short_600ms.mp4	63.stroke_top_to_bottom_with_screwdriver_short_vertflip_short_600ms.mp4	275.0058605027334	275.6142059055451	0.6083454028116648				
248.8134765625	0.2	509570	213	56	2	0	0	26	291	stimuli\Videos_short_600ms_vertflip\29.single_pinch_with_tweezers_short_vertflip_short_600ms.mp4	29.single_pinch_with_tweezers_short_vertflip_short_600ms.mp4	275.8058433185722	276.41419048085436	0.6083471622821435				
249.61328125	0.2	511208	214	56	2	0	0	27	215	stimuli\Videos_short_600ms_horvertflip\41.injection_with_blunt_syringe_short_horvertflip_short_600ms.mp4	41.injection_with_blunt_syringe_short_horvertflip_short_600ms.mp4	276.60582848037166	277.2141744696735	0.6083459893018244				
250.41357421875	0.2	512847	215	56	2	0	0	28	352	stimuli\Videos_short_600ms_vertflip\84.single_touch_with_cotton_bud_short_vertflip_short_600ms.mp4	84.single_touch_with_cotton_bud_short_vertflip_short_600ms.mp4	277.40579546097683	278.01416930856044	0.6083738475836071				
251.21337890625	0.2	514485	216	56	2	0	0	29	158	stimuli\Videos_short_600ms_horflip\71.single_stroke_with_finger_top_to_bottom_short_horflip_short_600ms.mp4	71.single_stroke_with_finger_top_to_bottom_short_horflip_short_600ms.mp4	278.20579323231436	278.8141445000274	0.6083512677130329				
252.013671875	0.2	516124	217	56	2	0	0	30	358	stimuli\Videos_short_600ms_vertflip\9.single_touch_with_hammer_short_vertflip_short_600ms.mp4	9.single_touch_with_hammer_short_vertflip_short_600ms.mp4	279.00577487517285	279.61415400116766	0.6083791259948157				
252.8134765625	0.2	517762	218	56	2	0	0	31	349	stimuli\Videos_short_600ms_vertflip\81.single_stroke_top_to_bottom_with_cotton_pad_short_vertflip_short_600ms.mp4	81.single_stroke_top_to_bottom_with_cotton_pad_short_vertflip_short_600ms.mp4	279.8057582775018	280.4141374034966	0.6083791259948157				
253.61328125	0.2	519400	219	56	2	0	0	32	48	stimuli\Videos_short_600ms\53.touch_top_to_bottom_with_knife_short_short_600ms.mp4	53.touch_top_to_bottom_with_knife_short_short_600ms.mp4	280.6057138215492	281.21411464767925	0.6084008261300369				
254.41357421875	0.2	521039	220	56	2	0	0	33	153	stimuli\Videos_short_600ms_horflip\67.single_touch_with_sponge_short_horflip_short_600ms.mp4	67.single_touch_with_sponge_short_horflip_short_600ms.mp4	281.4057324132866	282.01409922298853	0.6083668097019199				
255.21337890625	0.2	522677	221	56	2	0	0	34	334	stimuli\Videos_short_600ms_vertflip\68.stroke_top_to_bottom_with_shawl_short_vertflip_short_600ms.mp4	68.stroke_top_to_bottom_with_shawl_short_vertflip_short_600ms.mp4	282.205726079193	282.8140814523372	0.6083553731441498				
256.01318359375	0.2	524315	222	56	2	0	0	35	168	stimuli\Videos_short_600ms_horflip\80.stroke_with_sharp_stick_all_over_the_hand_short_horflip_short_600ms.mp4	80.stroke_with_sharp_stick_all_over_the_hand_short_horflip_short_600ms.mp4	283.005712707218	283.61404579373675	0.608333086518769				
256.8134765625	0.2	525954	223	56	2	0	0	36	348	stimuli\Videos_short_600ms_vertflip\80.stroke_with_sharp_stick_all_over_the_hand_short_vertflip_short_600ms.mp4	80.stroke_with_sharp_stick_all_over_the_hand_short_vertflip_short_600ms.mp4	283.8057324719357	284.41404796375014	0.6083154918144373				
257.61328125	0.2	527592	224	56	2	0	0	37	109	stimuli\Videos_short_600ms_horflip\27.single_push_with_a_plastic_whisk_short_horflip_short_600ms.mp4	27.single_push_with_a_plastic_whisk_short_horflip_short_600ms.mp4	284.6056868430028	285.21403341879477	0.6083465757919839				
258.4130859375	0.2	529230	225	56	2	0	0	38	242	stimuli\Videos_short_600ms_horvertflip\66.stroke_top_to_bottom_with_sponge_short_horvertflip_short_600ms.mp4	66.stroke_top_to_bottom_with_sponge_short_horvertflip_short_600ms.mp4	285.4057095401711	286.0140147684083	0.6083052282372137				
259.21337890625	0.2	530869	226	56	2	0	0	39	221	stimuli\Videos_short_600ms_horvertflip\47.(long)scratching_with_finger_nails_short_horvertflip_short_600ms.mp4	47.(long)scratching_with_finger_nails_short_horvertflip_short_600ms.mp4	286.2056084879198	286.8140043288836	0.6083958409637944				
260.01318359375	0.2	532507	227	56	2	0	0	40	77	stimuli\Videos_short_600ms\8.single_touch_with_hairbrush_short_short_600ms.mp4	8.single_touch_with_hairbrush_short_short_600ms.mp4	287.0056367567447	287.61398274604653	0.6083459893018244				
260.81298828125	0.2	534145	228	56	2	0	0	41	24	stimuli\Videos_short_600ms\31.hand_grabbing_wrist_short_short_600ms.mp4	31.hand_grabbing_wrist_short_short_600ms.mp4	287.80562455774975	288.4139649753952	0.6083404176454223				
261.61328125	0.2	535784	229	56	2	0	0	42	137	stimuli\Videos_short_600ms_horflip\52.touch_top_to_bottom_with_hammer_short_horflip_short_600ms.mp4	52.touch_top_to_bottom_with_hammer_short_horflip_short_600ms.mp4	288.60560883981384	289.2139536561356	0.6083448163217327				
262.4130859375	0.2	537422	230	56	2	0	0	43	229	stimuli\Videos_short_600ms_horvertflip\54.repeated_touch_with_knife_short_horvertflip_short_600ms.mp4	54.repeated_touch_with_knife_short_horvertflip_short_600ms.mp4	289.4056033854556	290.01390216230106	0.6082987768454586				
263.212890625	0.2	539060	231	56	2	0	0	44	293	stimuli\Videos_short_600ms_vertflip\30.finger_pulling_back_another_finger_short_vertflip_short_600ms.mp4	30.finger_pulling_back_another_finger_short_vertflip_short_600ms.mp4	290.20559969056785	290.8138706091315	0.6082709185636759				
264.01318359375	0.2	540699	232	56	2	0	0	45	159	stimuli\Videos_short_600ms_horflip\72.(short)stroke_with_finger_all_over_the_hand_short_horflip_short_600ms.mp4	72.(short)stroke_with_finger_all_over_the_hand_short_horflip_short_600ms.mp4	291.0055763482601	291.61390034418173	0.6083239959216371				
264.81298828125	0.2	542337	233	56	2	0	0	46	244	stimuli\Videos_short_600ms_horvertflip\68.stroke_top_to_bottom_with_shawl_short_horvertflip_short_600ms.mp4	68.stroke_top_to_bottom_with_shawl_short_horvertflip_short_600ms.mp4	291.8055770520484	292.41385999366	0.6082829416116056				
265.61279296875	0.2	543975	234	56	2	0	0	47	148	stimuli\Videos_short_600ms_horflip\62.touch_top_to_bottom_with_scissors_short_horflip_short_600ms.mp4	62.touch_top_to_bottom_with_scissors_short_horflip_short_600ms.mp4	292.6055108959604	293.2138504338707	0.6083395379102967				
266.4130859375	0.2	545614	235	56	2	0	0	48	323	stimuli\Videos_short_600ms_vertflip\58.single_slap_with_pencil_short_vertflip_short_600ms.mp4	58.single_slap_with_pencil_short_vertflip_short_600ms.mp4	293.40552890120784	294.0138329564645	0.6083040552566672				
267.212890625	0.2	547252	236	56	2	0	0	49	31	stimuli\Videos_short_600ms\38.double_slap_with_pencil_short_short_600ms.mp4	38.double_slap_with_pencil_short_short_600ms.mp4	294.2055111305565	294.8138409913795	0.6083298608230052				
268.0126953125	0.2	548890	237	56	2	0	0	50	248	stimuli\Videos_short_600ms_horvertflip\71.single_stroke_with_finger_top_to_bottom_short_horvertflip_short_600ms.mp4	71.single_stroke_with_finger_top_to_bottom_short_horvertflip_short_600ms.mp4	295.0054942396405	295.61382058152253	0.6083263418820479				
268.81298828125	0.2	550529	238	56	2	0	0	51	145	stimuli\Videos_short_600ms_horflip\6.single_touch_with_flat_hand_short_horflip_short_600ms.mp4	6.single_touch_with_flat_hand_short_horflip_short_600ms.mp4	295.80548819879186	296.4138010514009	0.6083128526090604				
269.61279296875	0.2	552167	239	56	2	0	0	52	279	stimuli\Videos_short_600ms_vertflip\18.single_stroke_from_top_to_bottom_with_rolling_pin_short_vertflip_short_600ms.mp4	18.single_stroke_from_top_to_bottom_with_rolling_pin_short_vertflip_short_600ms.mp4	296.60546309701385	297.21378738618046	0.6083242891666032				
270.4130859375	0.2	553806	240	56	2	0	0	53	290	stimuli\Videos_short_600ms_vertflip\28.single_injection_with_sharp_needle_short_vertflip_short_600ms.mp4	28.single_injection_with_sharp_needle_short_vertflip_short_600ms.mp4	297.40544884530345	298.0137681493038	0.6083193040003607				
271.212890625	0.2	555444	241	56	2	0	0	54	55	stimuli\Videos_short_600ms\6.single_touch_with_flat_hand_short_short_600ms.mp4	6.single_touch_with_flat_hand_short_short_600ms.mp4	298.20543019491697	298.813751551633	0.6083213567160328				
272.0126953125	0.2	557082	242	56	2	0	0	55	79	stimuli\Videos_short_600ms\81.single_stroke_top_to_bottom_with_cotton_pad_short_short_600ms.mp4	81.single_stroke_top_to_bottom_with_cotton_pad_short_short_600ms.mp4	299.0054156499616	299.6137355404521	0.6083198904905203				
272.81298828125	0.2	558721	243	56	2	0	0	56	74	stimuli\Videos_short_600ms\77.tapping_with_all_fingers_short_short_600ms.mp4	77.tapping_with_all_fingers_short_short_600ms.mp4	299.8053940671243	300.4137174765558	0.6083234094314776				
273.61279296875	0.2	560359	244	56	2	0	1	57	368	stimuli\Targets_short_600ms_horflip\chopstickwood-tap_short_horflip_short_600ms.mp4	chopstickwood-tap_short_horflip_short_600ms.mp4	300.60537131130695	301.21370087888477	0.6083295675778118				
274.41259765625	0.2	561997	245	56	2	0	0	58	108	stimuli\Videos_short_600ms_horflip\26.single_touch_with_a_blunt_syringe_short_horflip_short_600ms.mp4	26.single_touch_with_a_blunt_syringe_short_horflip_short_600ms.mp4	301.40531981747245	302.013685747439	0.6083659299665669				
275.212890625	0.2	563636	246	56	2	0	0	59	301	stimuli\Videos_short_600ms_vertflip\38.double_slap_with_pencil_short_vertflip_short_600ms.mp4	38.double_slap_with_pencil_short_vertflip_short_600ms.mp4	302.20534925927745	302.813668856523	0.6083195972455542				
276.0126953125	0.2	565274	247	56	2	0	0	60	300	stimuli\Videos_short_600ms_vertflip\37.single_stab_with_nail_file_short_vertflip_short_600ms.mp4	37.single_stab_with_nail_file_short_vertflip_short_600ms.mp4	303.0053071492855	303.6136516723618	0.6083445230763118				
276.8125	0.2	566912	248	56	2	0	0	61	8	stimuli\Videos_short_600ms\17.repeated_touch_with_rolling_pin_short_short_600ms.mp4	17.repeated_touch_with_rolling_pin_short_short_600ms.mp4	303.80530550711296	304.4136421125727	0.6083366054597263				
277.61279296875	0.2	568551	249	56	2	0	0	62	63	stimuli\Videos_short_600ms\67.single_touch_with_sponge_short_short_600ms.mp4	67.single_touch_with_sponge_short_short_600ms.mp4	304.60527923235463	305.2136002958255	0.6083210634708394				
278.41259765625	0.2	570189	250	56	2	0	0	63	80	stimuli\Videos_short_600ms\82.repeated_touch_with_cotton_bud_short_short_600ms.mp4	82.repeated_touch_with_cotton_bud_short_short_600ms.mp4	305.40528814700497	306.0136197672982	0.6083316202932565				
279.21240234375	0.2	571827	251	56	2	0	0	64	310	stimuli\Videos_short_600ms_vertflip\46.scratching_top_to_bottom_with_finger_nails_short_vertflip_short_600ms.mp4	46.scratching_top_to_bottom_with_finger_nails_short_vertflip_short_600ms.mp4	306.2052665641677	306.81354217465264	0.6082756104849523				
280.0126953125	0.2	573466	252	56	2	0	0	65	58	stimuli\Videos_short_600ms\62.touch_top_to_bottom_with_scissors_short_short_600ms.mp4	62.touch_top_to_bottom_with_scissors_short_short_600ms.mp4	307.00525289894745	307.6135446379112	0.6082917389637714				
280.8125	0.2	575104	253	56	2	0	0	66	331	stimuli\Videos_short_600ms_vertflip\65.stroke_top_to_bottom_with_stanley_knife_short_vertflip_short_600ms.mp4	65.stroke_top_to_bottom_with_stanley_knife_short_vertflip_short_600ms.mp4	307.8052319026003	308.4135330254064	0.6083011228060968				
281.6123046875	0.2	576742	254	56	2	0	0	67	357	stimuli\Videos_short_600ms_vertflip\89.single_touch_with_plastic_brush_short_vertflip_short_600ms.mp4	89.single_touch_with_plastic_brush_short_vertflip_short_600ms.mp4	308.60521706439977	309.2135193601862	0.6083022957864159				
282.41259765625	0.2	578381	255	56	2	0	0	68	122	stimuli\Videos_short_600ms_horflip\39.single_stab_with_scissors_short_horflip_short_600ms.mp4	39.single_stab_with_scissors_short_horflip_short_600ms.mp4	309.4052022261992	310.0135092139067	0.6083069877074649				
283.21240234375	0.2	580019	256	56	2	0	0	69	325	stimuli\Videos_short_600ms_vertflip\6.single_touch_with_flat_hand_short_vertflip_short_600ms.mp4	6.single_touch_with_flat_hand_short_vertflip_short_600ms.mp4	310.20518181634225	310.8135052257737	0.6083234094314776				
284.01220703125	0.2	581657	257	56	2	0	0	70	201	stimuli\Videos_short_600ms_horvertflip\29.single_pinch_with_tweezers_short_horvertflip_short_600ms.mp4	29.single_pinch_with_tweezers_short_horvertflip_short_600ms.mp4	311.0051643389361	311.61348774836756	0.6083234094314776				
284.8125	0.2	583296	258	56	2	0	1	71	380	stimuli\Targets_short_600ms_vertflip\chopstickwood-tap_short_horvertflip_short_600ms.mp4	chopstickwood-tap_short_horvertflip_short_600ms.mp4	311.8051483277552	312.4134799480487	0.6083316202934839				
285.6123046875	0.2	584934	259	56	2	0	0	72	304	stimuli\Videos_short_600ms_vertflip\40.repeated_push_with_finger_short_vertflip_short_600ms.mp4	40.repeated_push_with_finger_short_vertflip_short_600ms.mp4	312.60513642200544	313.2134545530255	0.6083181310200416				
286.412109375	0.2	586572	260	56	2	0	0	73	50	stimuli\Videos_short_600ms\55.touch_top_to_bottom_with_nail_file_short_short_600ms.mp4	55.touch_top_to_bottom_with_nail_file_short_short_600ms.mp4	313.4051168918836	314.01343942157996	0.6083225296963519				
287.21240234375	0.2	588211	261	56	2	0	0	74	22	stimuli\Videos_short_600ms\3.single_push_with_finger_short_short_600ms.mp4	3.single_push_with_finger_short_short_600ms.mp4	314.2051026401732	314.8134201847033	0.6083175445301094				
288.01220703125	0.2	589849	262	56	2	0	0	75	197	stimuli\Videos_short_600ms_horvertflip\25.single_touch_with_stanley_knife_short_horvertflip_short_600ms.mp4	25.single_touch_with_stanley_knife_short_horvertflip_short_600ms.mp4	315.0051130210488	315.6134035870323	0.6082905659834523				
288.8125	0.2	591488	263	56	2	0	0	76	206	stimuli\Videos_short_600ms_horvertflip\33.scratch_top_to_bottom_with_scissors_short_horvertflip_short_600ms.mp4	33.scratch_top_to_bottom_with_scissors_short_horvertflip_short_600ms.mp4	315.80506563264544	316.4133866961163	0.6083210634708394				
289.6123046875	0.2	593126	264	56	2	0	0	77	178	stimuli\Videos_short_600ms_horflip\9.single_touch_with_hammer_short_horflip_short_600ms.mp4	9.single_touch_with_hammer_short_horflip_short_600ms.mp4	316.6050311470251	317.2133706849354	0.6083395379102967				
290.412109375	0.2	594764	265	56	2	0	0	78	177	stimuli\Videos_short_600ms_horflip\89.single_touch_with_plastic_brush_short_horflip_short_600ms.mp4	89.single_touch_with_plastic_brush_short_horflip_short_600ms.mp4	317.4049896235231	318.01335144805876	0.6083618245356774				
291.21240234375	0.2	596403	266	56	2	0	0	79	161	stimuli\Videos_short_600ms_horflip\74.fingers_walking_from_top_to_bottom_short_horflip_short_600ms.mp4	74.fingers_walking_from_top_to_bottom_short_horflip_short_600ms.mp4	318.2049727326071	318.81334159502444	0.6083688624173647				
292.01220703125	0.2	598041	267	56	2	0	0	80	37	stimuli\Videos_short_600ms\43.touch_top_to_bottom_with_sharp_wooden_stick_short_short_600ms.mp4	43.touch_top_to_bottom_with_sharp_wooden_stick_short_short_600ms.mp4	319.00498311348247	319.61332558384356	0.6083424703610945				
292.81201171875	0.2	599679	268	56	2	0	0	81	175	stimuli\Videos_short_600ms_horflip\87.single_stroke_top_to_bottom_with_plastic_brush_short_horflip_short_600ms.mp4	87.single_stroke_top_to_bottom_with_plastic_brush_short_horflip_short_600ms.mp4	319.80497062124255	320.41327878193033	0.608308160687784				
293.6123046875	0.2	601318	269	56	2	0	0	82	298	stimuli\Videos_short_600ms_vertflip\35.single_punch_with_hand_short_vertflip_short_600ms.mp4	35.single_punch_with_hand_short_vertflip_short_600ms.mp4	320.60497425748144	321.2132786059833	0.6083043485018607				
294.412109375	0.2	602956	270	56	2	0	1	83	361	stimuli\Targets_short_600ms\chopstick-silver-tap_short_short_600ms.mp4	chopstick-silver-tap_short_short_600ms.mp4	321.4050954849936	322.0132467595686	0.6081512745749933				
295.2119140625	0.2	604594	271	56	2	0	0	84	273	stimuli\Videos_short_600ms_vertflip\12.repeated_touch_with_nail_file_short_vertflip_short_600ms.mp4	12.repeated_touch_with_nail_file_short_vertflip_short_600ms.mp4	322.20493754319864	322.8132515687878	0.6083140255891522				
296.01220703125	0.2	606233	272	56	2	0	1	85	370	stimuli\Targets_short_600ms_horflip\hand-pinch_short_horflip_short_600ms.mp4	hand-pinch_short_horflip_short_600ms.mp4	323.00491625360655	323.61321444396185	0.6082981903552991				
296.81201171875	0.2	607871	273	56	2	0	0	86	336	stimuli\Videos_short_600ms_vertflip\7.repeated_touch_with_hairbrush_short_vertflip_short_600ms.mp4	7.repeated_touch_with_hairbrush_short_vertflip_short_600ms.mp4	323.8049011221608	324.4132321559641	0.6083310338033243				
297.61181640625	0.2	609509	274	56	2	0	0	87	88	stimuli\Videos_short_600ms\9.single_touch_with_hammer_short_short_600ms.mp4	9.single_touch_with_hammer_short_short_600ms.mp4	324.604881298794	325.2131865270312	0.6083052282372137				
298.412109375	0.2	611148	275	56	2	0	0	88	12	stimuli\Videos_short_600ms\20.single_touch_with_screwdriver_short_short_600ms.mp4	20.single_touch_with_screwdriver_short_short_600ms.mp4	325.40486763357376	326.0131485224699	0.6082808888961608				
299.2119140625	0.2	612786	276	56	2	0	0	89	180	stimuli\Videos_short_600ms_horvertflip\1.repeated_touch_with_finger_fast_short_horvertflip_short_600ms.mp4	1.repeated_touch_with_finger_fast_short_horvertflip_short_600ms.mp4	326.2048519156381	326.81318588189197	0.6083339662538947				
300.01171875	0.2	614424	277	56	2	0	0	90	167	stimuli\Videos_short_600ms_horflip\8.single_touch_with_hairbrush_short_horflip_short_600ms.mp4	8.single_touch_with_hairbrush_short_horflip_short_600ms.mp4	327.0048320922713	327.6131560881929	0.6083239959216371				
300.81201171875	0.2	616063	278	56	2	0	0	91	216	stimuli\Videos_short_600ms_horvertflip\42.single_slap_with_plastic_whisk_short_horvertflip_short_600ms.mp4	42.single_slap_with_plastic_whisk_short_horvertflip_short_600ms.mp4	327.80482077301144	328.41313714456123	0.6083163715497903				
301.61181640625	0.2	617701	279	56	2	0	0	92	134	stimuli\Videos_short_600ms_horflip\5.repeated_tap_with_finger_moving_from_top_to_bottom_short_horflip_short_600ms.mp4	5.repeated_tap_with_finger_moving_from_top_to_bottom_short_horflip_short_600ms.mp4	328.6048003631547	329.21312142662555	0.6083210634708394				
302.41162109375	0.2	619339	280	56	2	0	0	93	5	stimuli\Videos_short_600ms\14.repeated_touch_with_pencil_short_short_600ms.mp4	14.repeated_touch_with_pencil_short_short_600ms.mp4	329.40478259250335	330.01310541544467	0.608322822941318				
303.2119140625	0.2	620978	281	56	2	0	0	94	96	stimuli\Videos_short_600ms_horflip\15.single_stroke_top_to_bottom_with_a_plastic_whisk_short_horflip_short_600ms.mp4	15.single_stroke_top_to_bottom_with_a_plastic_whisk_short_horflip_short_600ms.mp4	330.2047718597337	330.81308969750876	0.6083178377750755	5.0	5.0	1.8406063486970652	1.0
337.51904296875	0.2	691239	282	56	3	0	0	0	289	stimuli\Videos_short_600ms_vertflip\27.single_push_with_a_plastic_whisk_short_vertflip_short_600ms.mp4	27.single_push_with_a_plastic_whisk_short_vertflip_short_600ms.mp4	364.51239414952624	365.1207061223999	0.6083119728737074				
338.31884765625	0.2	692877	283	56	3	0	0	1	355	stimuli\Videos_short_600ms_vertflip\87.single_stroke_top_to_bottom_with_plastic_brush_short_vertflip_short_600ms.mp4	87.single_stroke_top_to_bottom_with_plastic_brush_short_vertflip_short_600ms.mp4	365.31237168695384	365.9206901112191	0.6083184242652351				
339.119140625	0.2	694516	284	56	3	0	0	2	227	stimuli\Videos_short_600ms_horvertflip\52.touch_top_to_bottom_with_hammer_short_horvertflip_short_600ms.mp4	52.touch_top_to_bottom_with_hammer_short_horvertflip_short_600ms.mp4	366.1123495176264	366.7206764459986	0.6083269283722075				
339.9189453125	0.2	696154	285	56	3	0	0	3	249	stimuli\Videos_short_600ms_horvertflip\72.(short)stroke_with_finger_all_over_the_hand_short_horvertflip_short_600ms.mp4	72.(short)stroke_with_finger_all_over_the_hand_short_horvertflip_short_600ms.mp4	366.91234289028785	367.5206563293869	0.6083134390989926				
340.71875	0.2	697792	286	56	3	0	0	4	222	stimuli\Videos_short_600ms_horvertflip\48.single_slap_with_hand_short_horvertflip_short_600ms.mp4	48.single_slap_with_hand_short_horvertflip_short_600ms.mp4	367.7123075249324	368.32057844349606	0.6082709185636759				
341.51904296875	0.2	699431	287	56	3	0	0	5	16	stimuli\Videos_short_600ms\24.single_stroke_top_to_bottom_with_a_spoon_short_short_600ms.mp4	24.single_stroke_top_to_bottom_with_a_spoon_short_short_600ms.mp4	368.51230207057415	369.1206143366928	0.6083122661186735				
342.31884765625	0.2	701069	288	56	3	0	1	6	371	stimuli\Targets_short_600ms_horflip\hand-stroke_short_horflip_short_600ms.mp4	hand-stroke_short_horflip_short_600ms.mp4	369.3122623065426	369.9206071228641	0.6083448163215053				
343.11865234375	0.2	702707	289	56	3	0	0	7	28	stimuli\Videos_short_600ms\35.single_punch_with_hand_short_short_600ms.mp4	35.single_punch_with_hand_short_short_600ms.mp4	370.11225685218415	370.7205902319481	0.6083333797639625				
343.9189453125	0.2	704346	290	56	3	0	0	8	313	stimuli\Videos_short_600ms_vertflip\49.repeated_slap_with_hand_short_vertflip_short_600ms.mp4	49.repeated_slap_with_hand_short_vertflip_short_600ms.mp4	370.91224084100327	371.5205583855334	0.6083175445301094				
344.71875	0.2	705984	291	56	3	0	0	9	326	stimuli\Videos_short_600ms_vertflip\60.single_push_with_tip_of_pencil_short_vertflip_short_600ms.mp4	60.single_push_with_tip_of_pencil_short_vertflip_short_600ms.mp4	371.7122371461155	372.32053181752985	0.6082946714143418				
345.5185546875	0.2	707622	292	56	3	0	0	10	271	stimuli\Videos_short_600ms_vertflip\10.single_touch_with_knife_short_vertflip_short_600ms.mp4	10.single_touch_with_knife_short_vertflip_short_600ms.mp4	372.51222905255145	373.12052313747586	0.6082940849244096				
346.31884765625	0.2	709261	293	56	3	0	0	11	59	stimuli\Videos_short_600ms\63.stroke_top_to_bottom_with_screwdriver_short_short_600ms.mp4	63.stroke_top_to_bottom_with_screwdriver_short_short_600ms.mp4	373.31220248454815	373.92047868152326	0.6082761969751118				
347.11865234375	0.2	710899	294	56	3	0	0	12	111	stimuli\Videos_short_600ms_horflip\29.single_pinch_with_tweezers_short_horflip_short_600ms.mp4	29.single_pinch_with_tweezers_short_horflip_short_600ms.mp4	374.11219761667985	374.72046179060703	0.6082641739271821				
347.91845703125	0.2	712537	295	56	3	0	0	13	129	stimuli\Videos_short_600ms_horflip\45.scratching_with_finger_nails_short_horflip_short_600ms.mp4	45.scratching_with_finger_nails_short_horflip_short_600ms.mp4	374.91217104867656	375.5204751039332	0.6083040552566672				
348.71875	0.2	714176	296	56	3	0	0	14	208	stimuli\Videos_short_600ms_horvertflip\35.single_punch_with_hand_short_horvertflip_short_600ms.mp4	35.single_punch_with_hand_short_horvertflip_short_600ms.mp4	375.71215386451536	376.3204793266623	0.6083254621469223				
349.5185546875	0.2	715814	297	56	3	0	0	15	70	stimuli\Videos_short_600ms\73.single_stroke_with_flat_hand_short_short_600ms.mp4	73.single_stroke_with_flat_hand_short_short_600ms.mp4	376.51213990605015	377.1204633154814	0.6083234094312502				
350.318359375	0.2	717452	298	56	3	0	0	16	90	stimuli\Videos_short_600ms_horflip\1.repeated_touch_with_finger_fast_short_horflip_short_600ms.mp4	1.repeated_touch_with_finger_fast_short_horflip_short_600ms.mp4	377.312122428644	377.9204473043007	0.6083248756567627				
351.11865234375	0.2	719091	299	56	3	0	0	17	18	stimuli\Videos_short_600ms\26.single_touch_with_a_blunt_syringe_short_short_600ms.mp4	26.single_touch_with_a_blunt_syringe_short_short_600ms.mp4	378.11210289852215	378.72042484172835	0.6083219432061924				
351.91845703125	0.2	720729	300	56	3	0	0	18	143	stimuli\Videos_short_600ms_horflip\58.single_slap_with_pencil_short_horflip_short_600ms.mp4	58.single_slap_with_pencil_short_horflip_short_600ms.mp4	378.91208483462583	379.5204064845868	0.6083216499609989				
352.71875	0.2	722368	301	56	3	0	0	19	181	stimuli\Videos_short_600ms_horvertflip\10.single_touch_with_knife_short_horvertflip_short_600ms.mp4	10.single_touch_with_knife_short_horvertflip_short_600ms.mp4	379.7120746883463	380.3203893004256	0.6083146120793117				
353.5185546875	0.2	724006	302	56	3	0	0	20	169	stimuli\Videos_short_600ms_horflip\81.single_stroke_top_to_bottom_with_cotton_pad_short_horflip_short_600ms.mp4	81.single_stroke_top_to_bottom_with_cotton_pad_short_horflip_short_600ms.mp4	380.5120528122641	381.12037211626466	0.6083193040005881				
354.318359375	0.2	725644	303	56	3	0	0	21	23	stimuli\Videos_short_600ms\30.finger_pulling_back_another_finger_short_short_600ms.mp4	30.finger_pulling_back_another_finger_short_short_600ms.mp4	381.3120414930045	381.9203563983287	0.6083149053242778				
355.11865234375	0.2	727283	304	56	3	0	0	22	236	stimuli\Videos_short_600ms_horvertflip\60.single_push_with_tip_of_pencil_short_horvertflip_short_600ms.mp4	60.single_push_with_tip_of_pencil_short_horvertflip_short_600ms.mp4	382.11202225612783	382.72033950741275	0.608317251284916				
355.91845703125	0.2	728921	305	56	3	0	0	23	19	stimuli\Videos_short_600ms\27.single_push_with_a_plastic_whisk_short_short_600ms.mp4	27.single_push_with_a_plastic_whisk_short_short_600ms.mp4	382.9119619649414	383.5203229097417	0.6083609448003244				
356.71826171875	0.2	730559	306	56	3	0	0	24	187	stimuli\Videos_short_600ms_horvertflip\16.repeated_touch_with_plastic_brush_short_horvertflip_short_600ms.mp4	16.repeated_touch_with_plastic_brush_short_horvertflip_short_600ms.mp4	383.711964721445	384.320307191806	0.6083424703610945				
357.5185546875	0.2	732198	307	56	3	0	0	25	87	stimuli\Videos_short_600ms\89.single_touch_with_plastic_brush_short_short_600ms.mp4	89.single_touch_with_plastic_brush_short_short_600ms.mp4	384.5119487102641	385.12028854141954	0.6083398311554902				
358.318359375	0.2	733836	308	56	3	0	0	26	41	stimuli\Videos_short_600ms\47.(long)scratching_with_finger_nails_short_short_600ms.mp4	47.(long)scratching_with_finger_nails_short_short_600ms.mp4	385.3119192098099	385.92027399646395	0.6083547866539902				
359.1181640625	0.2	735474	309	56	3	0	1	27	375	stimuli\Targets_short_600ms_horvertflip\finger-tap_short_vertflip_short_600ms.mp4	finger-tap_short_vertflip_short_600ms.mp4	386.1119237257842	386.72025417309715	0.6083304473129374				
359.91845703125	0.2	737113	310	56	3	0	0	28	205	stimuli\Videos_short_600ms_horvertflip\32.single_(long)pinch_with_fingers_short_horvertflip_short_600ms.mp4	32.single_(long)pinch_with_fingers_short_horvertflip_short_600ms.mp4	386.91191152678925	387.5202393348966	0.6083278081073331				
360.71826171875	0.2	738751	311	56	3	0	0	29	138	stimuli\Videos_short_600ms_horflip\53.touch_top_to_bottom_with_knife_short_horflip_short_600ms.mp4	53.touch_top_to_bottom_with_knife_short_horflip_short_600ms.mp4	387.71191252382255	388.32017757748486	0.6082650536623078				
361.51806640625	0.2	740389	312	56	3	0	0	30	121	stimuli\Videos_short_600ms_horflip\38.double_slap_with_pencil_short_horflip_short_600ms.mp4	38.double_slap_with_pencil_short_horflip_short_600ms.mp4	388.51188712879934	389.120161566304	0.6082744375046332				
362.318359375	0.2	742028	313	56	3	0	0	31	217	stimuli\Videos_short_600ms_horvertflip\43.touch_top_to_bottom_with_sharp_wooden_stick_short_horvertflip_short_600ms.mp4	43.touch_top_to_bottom_with_sharp_wooden_stick_short_horvertflip_short_600ms.mp4	389.31187668927487	389.9201857296978	0.6083090404229097				
363.1181640625	0.2	743666	314	56	3	0	0	32	105	stimuli\Videos_short_600ms_horflip\23.single_push_with_a_spoon_short_horflip_short_600ms.mp4	23.single_push_with_a_spoon_short_horflip_short_600ms.mp4	390.1118518807418	390.7201761699084	0.6083242891666032				
363.91796875	0.2	745304	315	56	3	0	0	33	232	stimuli\Videos_short_600ms_horvertflip\57.single_touch_with_nail_file_short_horvertflip_short_600ms.mp4	57.single_touch_with_nail_file_short_horvertflip_short_600ms.mp4	390.91183352360054	391.5201364058769	0.6083028822763481				
364.71826171875	0.2	746943	316	56	3	0	0	34	102	stimuli\Videos_short_600ms_horflip\20.single_touch_with_screwdriver_short_horflip_short_600ms.mp4	20.single_touch_with_screwdriver_short_horflip_short_600ms.mp4	391.71181897864494	392.3201423880764	0.6083234094314776				
365.51806640625	0.2	748581	317	56	3	0	0	35	30	stimuli\Videos_short_600ms\37.single_stab_with_nail_file_short_short_600ms.mp4	37.single_stab_with_nail_file_short_short_600ms.mp4	392.51180326070926	393.12012725663067	0.6083239959214097				
366.31787109375	0.2	750219	318	56	3	0	0	36	321	stimuli\Videos_short_600ms_vertflip\56.repeated_touch_with_nail_file_short_vertflip_short_600ms.mp4	56.repeated_touch_with_nail_file_short_vertflip_short_600ms.mp4	393.3117872495284	393.9201042075681	0.6083169580397225				
367.1181640625	0.2	751858	319	56	3	0	0	37	152	stimuli\Videos_short_600ms_horflip\66.stroke_top_to_bottom_with_sponge_short_horflip_short_600ms.mp4	66.stroke_top_to_bottom_with_sponge_short_horflip_short_600ms.mp4	394.1117542301334	394.72008819638745	0.6083339662541221				
367.91796875	0.2	753496	320	56	3	0	0	38	337	stimuli\Videos_short_600ms_vertflip\70.(long)stroke_with_finger_all_over_the_hand_short_vertflip_short_600ms.mp4	70.(long)stroke_with_finger_all_over_the_hand_short_vertflip_short_600ms.mp4	394.9117522947158	395.52007247845154	0.6083201837357137				
368.7177734375	0.2	755134	321	56	3	0	0	39	305	stimuli\Videos_short_600ms_vertflip\41.injection_with_blunt_syringe_short_vertflip_short_600ms.mp4	41.injection_with_blunt_syringe_short_vertflip_short_600ms.mp4	395.71173481730966	396.32005529429034	0.6083204769806798				
369.51806640625	0.2	756773	322	56	3	0	0	40	72	stimuli\Videos_short_600ms\75.(long)stroke_with_fingers_all_over_the_hand_short_short_600ms.mp4	75.(long)stroke_with_fingers_all_over_the_hand_short_short_600ms.mp4	396.5117176331487	397.12003811012937	0.6083204769806798				
370.31787109375	0.2	758411	323	56	3	0	0	41	257	stimuli\Videos_short_600ms_horvertflip\8.single_touch_with_hairbrush_short_horvertflip_short_600ms.mp4	8.single_touch_with_hairbrush_short_horvertflip_short_600ms.mp4	397.3117001557423	397.92002151245833	0.6083213567160328				
371.1181640625	0.2	760050	324	56	3	0	0	42	116	stimuli\Videos_short_600ms_horflip\33.scratch_top_to_bottom_with_scissors_short_horflip_short_600ms.mp4	33.scratch_top_to_bottom_with_scissors_short_horflip_short_600ms.mp4	398.1116474889277	398.72000432829714	0.608356839369435				
371.91796875	0.2	761688	325	56	3	0	1	43	367	stimuli\Targets_short_600ms_horflip\chopstick-silver-tap_short_horflip_short_600ms.mp4	chopstick-silver-tap_short_horflip_short_600ms.mp4	398.91162473311033	399.519986557646	0.6083618245356774				
372.7177734375	0.2	763326	326	56	3	0	0	44	203	stimuli\Videos_short_600ms_horvertflip\30.finger_pulling_back_another_finger_short_horvertflip_short_600ms.mp4	30.finger_pulling_back_another_finger_short_horvertflip_short_600ms.mp4	399.71160754894913	400.3199764113665	0.6083688624173647				
373.51806640625	0.2	764965	327	56	3	0	0	45	211	stimuli\Videos_short_600ms_horvertflip\38.double_slap_with_pencil_short_horvertflip_short_600ms.mp4	38.double_slap_with_pencil_short_horvertflip_short_600ms.mp4	400.5116179298247	401.1199574677348	0.6083395379100693				
374.31787109375	0.2	766603	328	56	3	0	0	46	226	stimuli\Videos_short_600ms_horvertflip\51.repeated_touch_with_hammer_short_horvertflip_short_600ms.mp4	51.repeated_touch_with_hammer_short_horvertflip_short_600ms.mp4	401.31160631732	401.9199396970837	0.6083333797637351				
375.11767578125	0.2	768241	329	56	3	0	0	47	166	stimuli\Videos_short_600ms_horflip\79.long_with_soft_brush_all_over_the_hand_short_horflip_short_600ms.mp4	79.long_with_soft_brush_all_over_the_hand_short_horflip_short_600ms.mp4	402.1115838547475	402.7198770599366	0.6082932051890566				
375.91796875	0.2	769880	330	56	3	0	0	48	260	stimuli\Videos_short_600ms_horvertflip\82.repeated_touch_with_cotton_bud_short_horvertflip_short_600ms.mp4	82.repeated_touch_with_cotton_bud_short_horvertflip_short_600ms.mp4	402.91159540860326	403.5198859745867	0.6082905659834523				
376.7177734375	0.2	771518	331	56	3	0	0	49	60	stimuli\Videos_short_600ms\64.repeated_touch_with_screwdriver_short_short_600ms.mp4	64.repeated_touch_with_screwdriver_short_short_600ms.mp4	403.71157470550133	404.31986409850447	0.6082893930031332				
377.517578125	0.2	773156	332	56	3	0	0	50	328	stimuli\Videos_short_600ms_vertflip\62.touch_top_to_bottom_with_scissors_short_vertflip_short_600ms.mp4	62.touch_top_to_bottom_with_scissors_short_vertflip_short_600ms.mp4	404.5115516564388	405.1198524859997	0.6083008295609034				
378.31787109375	0.2	774795	333	56	3	0	0	51	299	stimuli\Videos_short_600ms_vertflip\36.single_slap_with_full_hand_short_vertflip_short_600ms.mp4	36.single_slap_with_full_hand_short_vertflip_short_600ms.mp4	405.3115344722776	405.91982650448654	0.6082920322089649				
379.11767578125	0.2	776433	334	56	3	0	0	52	42	stimuli\Videos_short_600ms\48.single_slap_with_hand_short_short_600ms.mp4	48.single_slap_with_hand_short_short_600ms.mp4	406.1115155286461	406.7198195839028	0.6083040552566672				
379.91748046875	0.2	778071	335	56	3	0	1	53	373	stimuli\Targets_short_600ms_horvertflip\chopstick-silver-tap_short_vertflip_short_600ms.mp4	chopstick-silver-tap_short_vertflip_short_600ms.mp4	406.9115009836906	407.51982527285713	0.6083242891666032				
380.7177734375	0.2	779710	336	56	3	0	0	54	318	stimuli\Videos_short_600ms_vertflip\53.touch_top_to_bottom_with_knife_short_vertflip_short_600ms.mp4	53.touch_top_to_bottom_with_knife_short_vertflip_short_600ms.mp4	407.711485852245	408.3198127806172	0.6083269283722075				
381.517578125	0.2	781348	337	56	3	0	0	55	147	stimuli\Videos_short_600ms_horflip\61.single_hit_with_rolling_pin_short_horflip_short_600ms.mp4	61.single_hit_with_rolling_pin_short_horflip_short_600ms.mp4	408.51142438807824	409.1197859193687	0.608361531290484				
382.3173828125	0.2	782986	338	56	3	0	0	56	44	stimuli\Videos_short_600ms\5.repeated_tap_with_finger_moving_from_top_to_bottom_short_short_600ms.mp4	5.repeated_tap_with_finger_moving_from_top_to_bottom_short_short_600ms.mp4	409.3114684921368	409.9197804650105	0.6083119728737074				
383.11767578125	0.2	784625	339	56	3	0	0	57	195	stimuli\Videos_short_600ms_horvertflip\23.single_push_with_a_spoon_short_horvertflip_short_600ms.mp4	23.single_push_with_a_spoon_short_horvertflip_short_600ms.mp4	410.1114345930066	410.71975272402665	0.6083181310200416				
383.91748046875	0.2	786263	340	56	3	0	0	58	176	stimuli\Videos_short_600ms_horflip\88.repeated_stroke_with_plastic_brush_short_horflip_short_600ms.mp4	88.repeated_stroke_with_plastic_brush_short_horflip_short_600ms.mp4	410.9114168223553	411.51973671284577	0.6083198904905203				
384.71728515625	0.2	787901	341	56	3	0	0	59	172	stimuli\Videos_short_600ms_horflip\84.single_touch_with_cotton_bud_short_horflip_short_600ms.mp4	84.single_touch_with_cotton_bud_short_horflip_short_600ms.mp4	411.711403157135	412.31971982192977	0.6083166647947564				
385.517578125	0.2	789540	342	56	3	0	0	60	292	stimuli\Videos_short_600ms_vertflip\3.single_push_with_finger_short_vertflip_short_600ms.mp4	3.single_push_with_finger_short_vertflip_short_600ms.mp4	412.5113836270134	413.11970175803344	0.6083181310200416				
386.3173828125	0.2	791178	343	56	3	0	1	61	381	stimuli\Targets_short_600ms_vertflip\finger-tap_short_horvertflip_short_600ms.mp4	finger-tap_short_horvertflip_short_600ms.mp4	413.31137963888045	413.9196842806273	0.6083046417468267				
387.1171875	0.2	792816	344	56	3	0	0	62	265	stimuli\Videos_short_600ms_horvertflip\87.single_stroke_top_to_bottom_with_plastic_brush_short_horvertflip_short_600ms.mp4	87.single_stroke_top_to_bottom_with_plastic_brush_short_horvertflip_short_600ms.mp4	414.1113070314009	414.7196691491815	0.6083621177806435				
387.91748046875	0.2	794455	345	56	3	0	0	63	278	stimuli\Videos_short_600ms_vertflip\17.repeated_touch_with_rolling_pin_short_vertflip_short_600ms.mp4	17.repeated_touch_with_rolling_pin_short_vertflip_short_600ms.mp4	414.9112898472397	415.5196513785304	0.6083615312907114				
388.71728515625	0.2	796093	346	56	3	0	0	64	186	stimuli\Videos_short_600ms_horvertflip\15.single_stroke_top_to_bottom_with_a_plastic_whisk_short_horvertflip_short_600ms.mp4	15.single_stroke_top_to_bottom_with_a_plastic_whisk_short_horvertflip_short_600ms.mp4	415.7113181160646	416.3196330213889	0.6083149053242778				
389.51708984375	0.2	797731	347	56	3	0	0	65	254	stimuli\Videos_short_600ms_horvertflip\77.tapping_with_all_fingers_short_horvertflip_short_600ms.mp4	77.tapping_with_all_fingers_short_horvertflip_short_600ms.mp4	416.51128656289507	417.11961964941383	0.608333086518769				
390.3173828125	0.2	799370	348	56	3	0	0	66	224	stimuli\Videos_short_600ms_horvertflip\5.repeated_tap_with_finger_moving_from_top_to_bottom_short_horvertflip_short_600ms.mp4	5.repeated_tap_with_finger_moving_from_top_to_bottom_short_horvertflip_short_600ms.mp4	417.31127113820435	417.9196012922723	0.6083301540679713				
391.1171875	0.2	801008	349	56	3	0	0	67	64	stimuli\Videos_short_600ms\68.stroke_top_to_bottom_with_shawl_short_short_600ms.mp4	68.stroke_top_to_bottom_with_shawl_short_short_600ms.mp4	418.1112747744433	418.7195401213505	0.6082653469072739				
391.91748046875	0.2	802647	350	56	3	0	0	68	353	stimuli\Videos_short_600ms_vertflip\85.touch_top_to_bottom_with_fabric_short_vertflip_short_600ms.mp4	85.touch_top_to_bottom_with_fabric_short_vertflip_short_600ms.mp4	418.9112572970371	419.5195232304345	0.6082659333974334				
392.71728515625	0.2	804285	351	56	3	0	0	69	136	stimuli\Videos_short_600ms_horflip\51.repeated_touch_with_hammer_short_horflip_short_600ms.mp4	51.repeated_touch_with_hammer_short_horflip_short_600ms.mp4	419.7112310222787	420.3195060462733	0.6082750239945653				
393.51708984375	0.2	805923	352	56	3	0	0	70	276	stimuli\Videos_short_600ms_vertflip\15.single_stroke_top_to_bottom_with_a_plastic_whisk_short_vertflip_short_600ms.mp4	15.single_stroke_top_to_bottom_with_a_plastic_whisk_short_vertflip_short_600ms.mp4	420.5112164773232	421.1195322623828	0.6083157850596308				
394.3173828125	0.2	807562	353	56	3	0	0	71	196	stimuli\Videos_short_600ms_horvertflip\24.single_stroke_top_to_bottom_with_a_spoon_short_horvertflip_short_600ms.mp4	24.single_stroke_top_to_bottom_with_a_spoon_short_horvertflip_short_600ms.mp4	421.3111975336917	421.91949924298774	0.608301709296029				
395.1171875	0.2	809200	354	56	3	0	0	72	281	stimuli\Videos_short_600ms_vertflip\2.single_touch_with_finger_short_vertflip_short_600ms.mp4	2.single_touch_with_finger_short_vertflip_short_600ms.mp4	422.1111862144319	422.71948235207174	0.6082961376398544				
395.9169921875	0.2	810838	355	56	3	0	0	73	156	stimuli\Videos_short_600ms_horflip\7.repeated_touch_with_hairbrush_short_horflip_short_600ms.mp4	7.repeated_touch_with_hairbrush_short_horflip_short_600ms.mp4	422.9111663910651	423.519491853212	0.6083254621469223				
396.71728515625	0.2	812477	356	56	3	0	0	74	346	stimuli\Videos_short_600ms_vertflip\79.long_with_soft_brush_all_over_the_hand_short_vertflip_short_600ms.mp4	79.long_with_soft_brush_all_over_the_hand_short_vertflip_short_600ms.mp4	423.7111474474336	424.3194696838848	0.6083222364511585				
397.51708984375	0.2	814115	357	56	3	0	0	75	107	stimuli\Videos_short_600ms_horflip\25.single_touch_with_stanley_knife_short_horflip_short_600ms.mp4	25.single_touch_with_stanley_knife_short_horflip_short_600ms.mp4	424.5111302632724	425.11945308621375	0.608322822941318				
398.31689453125	0.2	815753	358	56	3	0	0	76	85	stimuli\Videos_short_600ms\87.single_stroke_top_to_bottom_with_plastic_brush_short_short_600ms.mp4	87.single_stroke_top_to_bottom_with_plastic_brush_short_short_600ms.mp4	425.3111142520915	425.91943502231743	0.6083207702258733				
399.1171875	0.2	817392	359	56	3	0	0	77	33	stimuli\Videos_short_600ms\4.repeated_tap_with_finger_slow_short_short_600ms.mp4	4.repeated_tap_with_finger_slow_short_short_600ms.mp4	426.1110973611755	426.7194169584211	0.6083195972455542				
399.9169921875	0.2	819030	360	56	3	0	1	78	378	stimuli\Targets_short_600ms_vertflip\brush-stroke_short_horvertflip_short_600ms.mp4	brush-stroke_short_horvertflip_short_600ms.mp4	426.9110798837694	427.51940036075007	0.6083204769806798				
400.716796875	0.2	820668	361	56	3	0	0	79	339	stimuli\Videos_short_600ms_vertflip\72.(short)stroke_with_finger_all_over_the_hand_short_vertflip_short_600ms.mp4	72.(short)stroke_with_finger_all_over_the_hand_short_vertflip_short_600ms.mp4	427.7110641658335	428.3193831765889	0.6083190107553946				
401.51708984375	0.2	822307	362	56	3	0	0	80	243	stimuli\Videos_short_600ms_horvertflip\67.single_touch_with_sponge_short_horvertflip_short_600ms.mp4	67.single_touch_with_sponge_short_horvertflip_short_600ms.mp4	428.5110551925343	429.119366872163	0.6083116796287413				
402.31689453125	0.2	823945	363	56	3	0	0	81	219	stimuli\Videos_short_600ms_horvertflip\45.scratching_with_finger_nails_short_horvertflip_short_600ms.mp4	45.scratching_with_finger_nails_short_horvertflip_short_600ms.mp4	429.31101572174794	429.91934939475686	0.6083336730089286				
403.11669921875	0.2	825583	364	56	3	0	0	82	218	stimuli\Videos_short_600ms_horvertflip\44.pushing_top_to_bottom_with_finger_short_horvertflip_short_600ms.mp4	44.pushing_top_to_bottom_with_finger_short_horvertflip_short_600ms.mp4	430.11099179295024	430.71933484980127	0.6083430568510266				
403.9169921875	0.2	827222	365	56	3	0	0	83	103	stimuli\Videos_short_600ms_horflip\21.repeated_touch_with_metal_chopstick_short_horflip_short_600ms.mp4	21.repeated_touch_with_metal_chopstick_short_horflip_short_600ms.mp4	430.91095261540863	431.51931795888527	0.6083653434766347				
404.716796875	0.2	828860	366	56	3	0	0	84	97	stimuli\Videos_short_600ms_horflip\16.repeated_touch_with_plastic_brush_short_horflip_short_600ms.mp4	16.repeated_touch_with_plastic_brush_short_horflip_short_600ms.mp4	431.7109638760194	432.3193001882339	0.6083363122145329				
405.5166015625	0.2	830498	367	56	3	0	0	85	35	stimuli\Videos_short_600ms\41.injection_with_blunt_syringe_short_short_600ms.mp4	41.injection_with_blunt_syringe_short_short_600ms.mp4	432.51094757159353	433.11927831215166	0.6083307405581309				
406.31689453125	0.2	832137	368	56	3	0	0	86	52	stimuli\Videos_short_600ms\57.single_touch_with_nail_file_short_short_600ms.mp4	57.single_touch_with_nail_file_short_short_600ms.mp4	433.3109597119394	433.9192488116976	0.6082890997581671				
407.11669921875	0.2	833775	369	56	3	0	0	87	296	stimuli\Videos_short_600ms_vertflip\33.scratch_top_to_bottom_with_scissors_short_vertflip_short_600ms.mp4	33.scratch_top_to_bottom_with_scissors_short_vertflip_short_600ms.mp4	434.1109375426122	434.71923602621246	0.6082984836002652				
407.91650390625	0.2	835413	370	56	3	0	0	88	194	stimuli\Videos_short_600ms_horvertflip\22.single_touch_with_metal_chopstick_short_horvertflip_short_600ms.mp4	22.single_touch_with_metal_chopstick_short_horvertflip_short_600ms.mp4	434.91091273407915	435.5192079919839	0.6082952579047287				
408.716796875	0.2	837052	371	56	3	0	0	89	113	stimuli\Videos_short_600ms_horflip\30.finger_pulling_back_another_finger_short_horflip_short_600ms.mp4	30.finger_pulling_back_another_finger_short_horflip_short_600ms.mp4	435.710895256673	436.31921485391854	0.6083195972455542				
409.5166015625	0.2	838690	372	56	3	0	0	90	57	stimuli\Videos_short_600ms\61.single_hit_with_rolling_pin_short_short_600ms.mp4	61.single_hit_with_rolling_pin_short_short_600ms.mp4	436.5108780725118	437.11918506021925	0.6083069877074649				
410.31640625	0.2	840328	373	56	3	0	0	91	212	stimuli\Videos_short_600ms_horvertflip\39.single_stab_with_scissors_short_horvertflip_short_600ms.mp4	39.single_stab_with_scissors_short_horvertflip_short_600ms.mp4	437.31086294106626	437.91918341804694	0.6083204769806798				
411.11669921875	0.2	841967	374	56	3	0	0	92	209	stimuli\Videos_short_600ms_horvertflip\36.single_slap_with_full_hand_short_horvertflip_short_600ms.mp4	36.single_slap_with_full_hand_short_horvertflip_short_600ms.mp4	438.1108451704149	438.71917033931686	0.6083251689019562				
