onset	duration	onsetsample	eventnumber	subjectnr	sequencenumber	blocksequencenumber	istarget	presentationnumber	stimnumber	stim	stimname	time_stimon	time_stimoff	stimdur	cresp	resp	rt	correct
33.2197265625	0.2	68034	0	20	0	0	0	0	14	stimuli\Videos_short_600ms\22.single_touch_with_metal_chopstick_short_short_600ms.mp4	22.single_touch_with_metal_chopstick_short_short_600ms.mp4	75.17307718812685	75.7782778613041	0.6052006731772508	n/a	n/a	n/a	n/a
34.01953125	0.2	69672	1	20	0	0	0	1	305	stimuli\Videos_short_600ms_vertflip\41.injection_with_blunt_syringe_short_vertflip_short_600ms.mp4	41.injection_with_blunt_syringe_short_vertflip_short_600ms.mp4	75.97827011958884	76.58660648069531	0.6083363611064669	n/a	n/a	n/a	n/a
34.8193359375	0.2	71310	2	20	0	0	0	2	122	stimuli\Videos_short_600ms_horflip\39.single_stab_with_scissors_short_horflip_short_600ms.mp4	39.single_stab_with_scissors_short_horflip_short_600ms.mp4	76.7782227309076	77.38654912162315	0.608326390715547	n/a	n/a	n/a	n/a
35.61962890625	0.2	72949	3	20	0	0	0	3	117	stimuli\Videos_short_600ms_horflip\34.repeated_punch_with_hand_short_horflip_short_600ms.mp4	34.repeated_punch_with_hand_short_horflip_short_600ms.mp4	77.5782460147027	78.18657240541825	0.608326390715547	n/a	n/a	n/a	n/a
36.41943359375	0.2	74587	4	20	0	0	0	4	71	stimuli\Videos_short_600ms\74.fingers_walking_from_top_to_bottom_short_short_600ms.mp4	74.fingers_walking_from_top_to_bottom_short_short_600ms.mp4	78.37821358160772	78.98652472349022	0.6083111418824956	n/a	n/a	n/a	n/a
37.21923828125	0.2	76225	5	20	0	0	0	5	167	stimuli\Videos_short_600ms_horflip\8.single_touch_with_hairbrush_short_horflip_short_600ms.mp4	8.single_touch_with_hairbrush_short_horflip_short_600ms.mp4	79.1782230828037	79.78650284727973	0.6082797644760376	n/a	n/a	n/a	n/a
38.01953125	0.2	77864	6	20	0	0	0	6	324	stimuli\Videos_short_600ms_vertflip\59.single_push_with_long_side_pencil_short_vertflip_short_600ms.mp4	59.single_push_with_long_side_pencil_short_vertflip_short_600ms.mp4	79.9782443138713	80.58653492847839	0.6082906146070854	n/a	n/a	n/a	n/a
38.8193359375	0.2	79502	7	20	0	0	0	7	295	stimuli\Videos_short_600ms_vertflip\32.single_(long)pinch_with_fingers_short_vertflip_short_600ms.mp4	32.single_(long)pinch_with_fingers_short_vertflip_short_600ms.mp4	80.77875790629992	81.38653299304974	0.6077750867498253	n/a	n/a	n/a	n/a
39.619140625	0.2	81140	8	20	0	0	1	8	383	stimuli\Targets_short_600ms_vertflip\hand-stroke_short_horvertflip_short_600ms.mp4	hand-stroke_short_horvertflip_short_600ms.mp4	81.57890640647452	82.18651727502174	0.6076108685472263	n/a	n/a	n/a	n/a
40.41943359375	0.2	82779	9	20	0	0	0	9	194	stimuli\Videos_short_600ms_horvertflip\22.single_touch_with_metal_chopstick_short_horvertflip_short_600ms.mp4	22.single_touch_with_metal_chopstick_short_horvertflip_short_600ms.mp4	82.3784009663068	82.98648718790105	0.6080862215942489	n/a	n/a	n/a	n/a
41.21923828125	0.2	84417	10	20	0	0	0	10	308	stimuli\Videos_short_600ms_vertflip\44.pushing_top_to_bottom_with_finger_short_vertflip_short_600ms.mp4	44.pushing_top_to_bottom_with_finger_short_vertflip_short_600ms.mp4	83.17833568957121	83.78646707117127	0.6081313816000602	n/a	n/a	n/a	n/a
42.01953125	0.2	86056	11	20	0	0	0	11	189	stimuli\Videos_short_600ms_horvertflip\18.single_stroke_from_top_to_bottom_with_rolling_pin_short_horvertflip_short_600ms.mp4	18.single_stroke_from_top_to_bottom_with_rolling_pin_short_horvertflip_short_600ms.mp4	83.97814226398827	84.58643639755701	0.6082941335687337	n/a	n/a	n/a	n/a
42.8193359375	0.2	87694	12	20	0	0	0	12	313	stimuli\Videos_short_600ms_vertflip\49.repeated_slap_with_hand_short_vertflip_short_600ms.mp4	49.repeated_slap_with_hand_short_vertflip_short_600ms.mp4	84.77812830544099	85.38638607640769	0.6082577709667021	n/a	n/a	n/a	n/a
43.619140625	0.2	89332	13	20	0	0	0	13	103	stimuli\Videos_short_600ms_horflip\21.repeated_touch_with_metal_chopstick_short_horflip_short_600ms.mp4	21.repeated_touch_with_metal_chopstick_short_horflip_short_600ms.mp4	85.5784964474617	86.18643135371212	0.6079349062504207	n/a	n/a	n/a	n/a
44.41943359375	0.2	90971	14	20	0	0	0	14	243	stimuli\Videos_short_600ms_horvertflip\67.single_touch_with_sponge_short_horvertflip_short_600ms.mp4	67.single_touch_with_sponge_short_horvertflip_short_600ms.mp4	86.37817545952498	86.9863959881493	0.6082205286243152	n/a	n/a	n/a	n/a
45.21923828125	0.2	92609	15	20	0	0	0	15	202	stimuli\Videos_short_600ms_horvertflip\3.single_push_with_finger_short_horvertflip_short_600ms.mp4	3.single_push_with_finger_short_horvertflip_short_600ms.mp4	87.1780424427809	87.7863823228488	0.6083398800678879	n/a	n/a	n/a	n/a
46.01904296875	0.2	94247	16	20	0	0	0	16	339	stimuli\Videos_short_600ms_vertflip\72.(short)stroke_with_finger_all_over_the_hand_short_vertflip_short_600ms.mp4	72.(short)stroke_with_finger_all_over_the_hand_short_vertflip_short_600ms.mp4	87.9780988634634	88.58642261495788	0.6083237514944813	n/a	n/a	n/a	n/a
46.8193359375	0.2	95886	17	20	0	0	0	17	78	stimuli\Videos_short_600ms\80.stroke_with_sharp_stick_all_over_the_hand_short_short_600ms.mp4	80.stroke_with_sharp_stick_all_over_the_hand_short_short_600ms.mp4	88.77806818984914	89.38639985900681	0.6083316691576783	n/a	n/a	n/a	n/a
47.619140625	0.2	97524	18	20	0	0	0	18	230	stimuli\Videos_short_600ms_horvertflip\55.touch_top_to_bottom_with_nail_file_short_horvertflip_short_600ms.mp4	55.touch_top_to_bottom_with_nail_file_short_horvertflip_short_600ms.mp4	89.57803810272844	90.18637827604311	0.6083401733146729	n/a	n/a	n/a	n/a
48.4189453125	0.2	99162	19	20	0	0	0	19	266	stimuli\Videos_short_600ms_horvertflip\88.repeated_stroke_with_plastic_brush_short_horvertflip_short_600ms.mp4	88.repeated_stroke_with_plastic_brush_short_horvertflip_short_600ms.mp4	90.37805493509404	90.98638865697944	0.6083337218854012	n/a	n/a	n/a	n/a
49.21923828125	0.2	100801	20	20	0	0	0	20	191	stimuli\Videos_short_600ms_horvertflip\2.single_touch_with_finger_short_horvertflip_short_600ms.mp4	2.single_touch_with_finger_short_horvertflip_short_600ms.mp4	91.17804625498913	91.78637117947072	0.6083249244816216	n/a	n/a	n/a	n/a
50.01904296875	0.2	102439	21	20	0	0	0	21	24	stimuli\Videos_short_600ms\31.hand_grabbing_wrist_short_short_600ms.mp4	31.hand_grabbing_wrist_short_short_600ms.mp4	91.97803053696111	92.58635898040438	0.6083284434432699	n/a	n/a	n/a	n/a
50.81884765625	0.2	104077	22	20	0	0	0	22	132	stimuli\Videos_short_600ms_horflip\48.single_slap_with_hand_short_horflip_short_600ms.mp4	48.single_slap_with_hand_short_horflip_short_600ms.mp4	92.77801863114156	93.38634208938925	0.6083234582476962	n/a	n/a	n/a	n/a
51.619140625	0.2	105716	23	20	0	0	0	23	51	stimuli\Videos_short_600ms\56.repeated_touch_with_nail_file_short_short_600ms.mp4	56.repeated_touch_with_nail_file_short_short_600ms.mp4	93.5779876642805	94.18633282279052	0.6083451585100192	n/a	n/a	n/a	n/a
52.4189453125	0.2	107354	24	20	0	0	0	24	11	stimuli\Videos_short_600ms\2.single_touch_with_finger_short_short_600ms.mp4	2.single_touch_with_finger_short_short_600ms.mp4	94.37804467145656	94.98632296969843	0.6082782982418848	n/a	n/a	n/a	n/a
53.21875	0.2	108992	25	20	0	0	0	25	37	stimuli\Videos_short_600ms\43.touch_top_to_bottom_with_sharp_wooden_stick_short_short_600ms.mp4	43.touch_top_to_bottom_with_sharp_wooden_stick_short_short_600ms.mp4	95.1779829136824	95.7863166355678	0.6083337218854012	n/a	n/a	n/a	n/a
54.01904296875	0.2	110631	26	20	0	0	0	26	105	stimuli\Videos_short_600ms_horflip\23.single_push_with_a_spoon_short_horflip_short_600ms.mp4	23.single_push_with_a_spoon_short_horflip_short_600ms.mp4	95.97795458604242	96.58630062429302	0.6083460382506019	n/a	n/a	n/a	n/a
54.81884765625	0.2	112269	27	20	0	0	0	27	345	stimuli\Videos_short_600ms_vertflip\78.single_stroke_top_to_bottom_with_soft_brush_short_vertflip_short_600ms.mp4	78.single_stroke_top_to_bottom_with_soft_brush_short_vertflip_short_600ms.mp4	96.77818930077342	97.38625176937784	0.6080624686044303	n/a	n/a	n/a	n/a
55.61865234375	0.2	113907	28	20	0	0	0	28	357	stimuli\Videos_short_600ms_vertflip\89.single_touch_with_plastic_brush_short_vertflip_short_600ms.mp4	89.single_touch_with_plastic_brush_short_vertflip_short_600ms.mp4	97.57794572998932	98.1862741734326	0.6083284434432699	n/a	n/a	n/a	n/a
56.4189453125	0.2	115546	29	20	0	0	0	29	177	stimuli\Videos_short_600ms_horflip\89.single_touch_with_plastic_brush_short_horflip_short_600ms.mp4	89.single_touch_with_plastic_brush_short_horflip_short_600ms.mp4	98.3778959953338	98.98626050813208	0.6083645127982891	n/a	n/a	n/a	n/a
57.21875	0.2	117184	30	20	0	0	0	30	118	stimuli\Videos_short_600ms_horflip\35.single_punch_with_hand_short_horflip_short_600ms.mp4	35.single_punch_with_hand_short_horflip_short_600ms.mp4	99.17791370743998	99.78625358750789	0.6083398800678879	n/a	n/a	n/a	n/a
58.0185546875	0.2	118822	31	20	0	0	0	31	178	stimuli\Videos_short_600ms_horflip\9.single_touch_with_hammer_short_horflip_short_600ms.mp4	9.single_touch_with_hammer_short_horflip_short_600ms.mp4	99.9778930042164	100.58624021545415	0.6083472112377422	n/a	n/a	n/a	n/a
58.81884765625	0.2	120461	32	20	0	0	0	32	19	stimuli\Videos_short_600ms\27.single_push_with_a_plastic_whisk_short_short_600ms.mp4	27.single_push_with_a_plastic_whisk_short_short_600ms.mp4	100.77788901606029	101.38622244469866	0.6083334286383888	n/a	n/a	n/a	n/a
59.61865234375	0.2	122099	33	20	0	0	0	33	149	stimuli\Videos_short_600ms_horflip\63.stroke_top_to_bottom_with_screwdriver_short_horflip_short_600ms.mp4	63.stroke_top_to_bottom_with_screwdriver_short_horflip_short_600ms.mp4	101.57812461053165	102.1861999819946	0.6080753714629736	n/a	n/a	n/a	n/a
60.41845703125	0.2	123737	34	20	0	0	0	34	66	stimuli\Videos_short_600ms\7.repeated_touch_with_hairbrush_short_short_600ms.mp4	7.repeated_touch_with_hairbrush_short_short_600ms.mp4	102.37787781403269	102.98620039254	0.608322578507341	n/a	n/a	n/a	n/a
61.21875	0.2	125376	35	20	0	0	0	35	213	stimuli\Videos_short_600ms_horvertflip\4.repeated_tap_with_finger_slow_short_horvertflip_short_600ms.mp4	4.repeated_tap_with_finger_slow_short_horvertflip_short_600ms.mp4	103.17784596743128	103.78615329710556	0.6083073296742896	n/a	n/a	n/a	n/a
62.0185546875	0.2	127014	36	20	0	0	0	36	358	stimuli\Videos_short_600ms_vertflip\9.single_touch_with_hammer_short_vertflip_short_600ms.mp4	9.single_touch_with_hammer_short_vertflip_short_600ms.mp4	103.97785458888688	104.58616631726296	0.6083117283760657	n/a	n/a	n/a	n/a
62.81884765625	0.2	128653	37	20	0	0	0	37	201	stimuli\Videos_short_600ms_horvertflip\29.single_pinch_with_tweezers_short_horvertflip_short_600ms.mp4	29.single_pinch_with_tweezers_short_horvertflip_short_600ms.mp4	104.77784238982052	105.38616056962589	0.6083181798053374	n/a	n/a	n/a	n/a
63.61865234375	0.2	130291	38	20	0	0	0	38	33	stimuli\Videos_short_600ms\4.repeated_tap_with_finger_slow_short_short_600ms.mp4	4.repeated_tap_with_finger_slow_short_short_600ms.mp4	105.57783605568989	106.18616567212008	0.6083296164301828	n/a	n/a	n/a	n/a
64.41845703125	0.2	131929	39	20	0	0	0	39	75	stimuli\Videos_short_600ms\78.single_stroke_top_to_bottom_with_soft_brush_short_short_600ms.mp4	78.single_stroke_top_to_bottom_with_soft_brush_short_short_600ms.mp4	106.37781769844082	106.9861493675985	0.6083316691576783	n/a	n/a	n/a	n/a
65.21875	0.2	133568	40	20	0	0	0	40	8	stimuli\Videos_short_600ms\17.repeated_touch_with_rolling_pin_short_short_600ms.mp4	17.repeated_touch_with_rolling_pin_short_short_600ms.mp4	107.17780872508888	107.78613540905144	0.6083266839625594	n/a	n/a	n/a	n/a
66.0185546875	0.2	135206	41	20	0	0	0	41	5	stimuli\Videos_short_600ms\14.repeated_touch_with_pencil_short_short_600ms.mp4	14.repeated_touch_with_pencil_short_short_600ms.mp4	107.97781676005091	108.58612145050417	0.6083046904532239	n/a	n/a	n/a	n/a
66.818359375	0.2	136844	42	20	0	0	0	42	147	stimuli\Videos_short_600ms_horflip\61.single_hit_with_rolling_pin_short_horflip_short_600ms.mp4	61.single_hit_with_rolling_pin_short_horflip_short_600ms.mp4	108.77778520669632	109.38610661221652	0.6083214055202006	n/a	n/a	n/a	n/a
67.61865234375	0.2	138483	43	20	0	0	0	43	207	stimuli\Videos_short_600ms_horvertflip\34.repeated_punch_with_hand_short_horvertflip_short_600ms.mp4	34.repeated_punch_with_hand_short_horvertflip_short_600ms.mp4	109.57776802243438	110.18609881185192	0.6083307894175505	n/a	n/a	n/a	n/a
68.41845703125	0.2	140121	44	20	0	0	0	44	150	stimuli\Videos_short_600ms_horflip\64.repeated_touch_with_screwdriver_short_horflip_short_600ms.mp4	64.repeated_touch_with_screwdriver_short_horflip_short_600ms.mp4	110.37776315453766	110.98608074784966	0.6083175933119946	n/a	n/a	n/a	n/a
69.21826171875	0.2	141759	45	20	0	0	0	45	309	stimuli\Videos_short_600ms_vertflip\45.scratching_with_finger_nails_short_vertflip_short_600ms.mp4	45.scratching_with_finger_nails_short_vertflip_short_600ms.mp4	111.17774860949704	111.7860703082638	0.6083216987667583	n/a	n/a	n/a	n/a
70.0185546875	0.2	143398	46	20	0	0	0	46	294	stimuli\Videos_short_600ms_vertflip\31.hand_grabbing_wrist_short_vertflip_short_600ms.mp4	31.hand_grabbing_wrist_short_vertflip_short_600ms.mp4	111.97775517822517	112.58605810919744	0.608302930972286	n/a	n/a	n/a	n/a
70.818359375	0.2	145036	47	20	0	0	0	47	221	stimuli\Videos_short_600ms_horvertflip\47.(long)scratching_with_finger_nails_short_horvertflip_short_600ms.mp4	47.(long)scratching_with_finger_nails_short_horvertflip_short_600ms.mp4	112.77770016512729	113.386047083118	0.6083469179907297	n/a	n/a	n/a	n/a
71.6181640625	0.2	146674	48	20	0	0	0	48	349	stimuli\Videos_short_600ms_vertflip\81.single_stroke_top_to_bottom_with_cotton_pad_short_vertflip_short_600ms.mp4	81.single_stroke_top_to_bottom_with_cotton_pad_short_vertflip_short_600ms.mp4	113.57772022320772	114.18603459080488	0.6083143675971314	n/a	n/a	n/a	n/a
72.41845703125	0.2	148313	49	20	0	0	0	49	218	stimuli\Videos_short_600ms_horvertflip\44.pushing_top_to_bottom_with_finger_short_horvertflip_short_600ms.mp4	44.pushing_top_to_bottom_with_finger_short_horvertflip_short_600ms.mp4	114.37766667634378	114.98601124836024	0.6083445720164491	n/a	n/a	n/a	n/a
73.21826171875	0.2	149951	50	20	0	0	0	50	84	stimuli\Videos_short_600ms\86.touch_top_to_bottom_with_hair_brush_short_short_600ms.mp4	86.touch_top_to_bottom_with_hair_brush_short_short_600ms.mp4	115.17766796662954	115.78600579396992	0.6083378273403923	n/a	n/a	n/a	n/a
74.01806640625	0.2	151589	51	20	0	0	0	51	49	stimuli\Videos_short_600ms\54.repeated_touch_with_knife_short_short_600ms.mp4	54.repeated_touch_with_knife_short_short_600ms.mp4	115.97765518106962	116.58598802321444	0.6083328421448186	n/a	n/a	n/a	n/a
74.818359375	0.2	153228	52	20	0	0	0	52	209	stimuli\Videos_short_600ms_horvertflip\36.single_slap_with_full_hand_short_horvertflip_short_600ms.mp4	36.single_slap_with_full_hand_short_horvertflip_short_600ms.mp4	116.77766937421416	117.38594561972856	0.6082762455143893	n/a	n/a	n/a	n/a
75.6181640625	0.2	154866	53	20	0	0	1	53	373	stimuli\Targets_short_600ms_horvertflip\chopstick-silver-tap_short_vertflip_short_600ms.mp4	chopstick-silver-tap_short_vertflip_short_600ms.mp4	117.57765248319902	118.1859331274154	0.6082806442163928	n/a	n/a	n/a	n/a
76.41796875	0.2	156504	54	20	0	0	0	54	223	stimuli\Videos_short_600ms_horvertflip\49.repeated_slap_with_hand_short_horvertflip_short_600ms.mp4	49.repeated_slap_with_hand_short_horvertflip_short_600ms.mp4	118.37764644231515	118.98591916886812	0.6082727265529684	n/a	n/a	n/a	n/a
77.21826171875	0.2	158143	55	20	0	0	0	55	21	stimuli\Videos_short_600ms\29.single_pinch_with_tweezers_short_short_600ms.mp4	29.single_pinch_with_tweezers_short_short_600ms.mp4	119.17760462532284	119.78594391889716	0.6083392935743177	n/a	n/a	n/a	n/a
78.01806640625	0.2	159781	56	20	0	0	0	56	239	stimuli\Videos_short_600ms_horvertflip\63.stroke_top_to_bottom_with_screwdriver_short_horvertflip_short_600ms.mp4	63.stroke_top_to_bottom_with_screwdriver_short_horvertflip_short_600ms.mp4	119.97761529950616	120.58590356813896	0.6082882686328048	n/a	n/a	n/a	n/a
78.81787109375	0.2	161419	57	20	0	0	0	57	82	stimuli\Videos_short_600ms\84.single_touch_with_cotton_bud_short_short_600ms.mp4	84.single_touch_with_cotton_bud_short_short_600ms.mp4	120.77760398017996	121.38593623583142	0.6083322556514759	n/a	n/a	n/a	n/a
79.6181640625	0.2	163058	58	20	0	0	0	58	136	stimuli\Videos_short_600ms_horflip\51.repeated_touch_with_hammer_short_horflip_short_600ms.mp4	51.repeated_touch_with_hammer_short_horflip_short_600ms.mp4	121.57759793929608	122.18592550299876	0.6083275637026873	n/a	n/a	n/a	n/a
80.41796875	0.2	164696	59	20	0	0	0	59	100	stimuli\Videos_short_600ms_horflip\19.single_touch_with_rolling_pin_short_horflip_short_600ms.mp4	19.single_touch_with_rolling_pin_short_horflip_short_600ms.mp4	122.37757870230666	122.98590567951578	0.6083269772091171	n/a	n/a	n/a	n/a
81.21826171875	0.2	166335	60	20	0	0	0	60	56	stimuli\Videos_short_600ms\60.single_push_with_tip_of_pencil_short_short_600ms.mp4	60.single_push_with_tip_of_pencil_short_short_600ms.mp4	123.1775726614228	123.7858893749942	0.608316713571412	n/a	n/a	n/a	n/a
82.01806640625	0.2	167973	61	20	0	0	0	61	219	stimuli\Videos_short_600ms_horvertflip\45.scratching_with_finger_nails_short_horvertflip_short_600ms.mp4	45.scratching_with_finger_nails_short_horvertflip_short_600ms.mp4	123.97755547716088	124.58588362735712	0.6083281501962574	n/a	n/a	n/a	n/a
82.81787109375	0.2	169611	62	20	0	0	0	62	34	stimuli\Videos_short_600ms\40.repeated_push_with_finger_short_short_600ms.mp4	40.repeated_push_with_finger_short_short_600ms.mp4	124.77754298484751	125.38584972802823	0.6083067431807194	n/a	n/a	n/a	n/a
83.6181640625	0.2	171250	63	20	0	0	0	63	312	stimuli\Videos_short_600ms_vertflip\48.single_slap_with_hand_short_vertflip_short_600ms.mp4	48.single_slap_with_hand_short_vertflip_short_600ms.mp4	125.57753283850866	126.18583694246809	0.6083041039594264	n/a	n/a	n/a	n/a
84.41796875	0.2	172888	64	20	0	0	0	64	346	stimuli\Videos_short_600ms_vertflip\79.long_with_soft_brush_all_over_the_hand_short_vertflip_short_600ms.mp4	79.long_with_soft_brush_all_over_the_hand_short_vertflip_short_600ms.mp4	126.37756257373326	126.98584497743012	0.6082824036968759	n/a	n/a	n/a	n/a
85.2177734375	0.2	174526	65	20	0	0	0	65	145	stimuli\Videos_short_600ms_horflip\6.single_touch_with_flat_hand_short_horflip_short_600ms.mp4	6.single_touch_with_flat_hand_short_horflip_short_600ms.mp4	127.17757706012458	127.78581107810125	0.6082340179766561	n/a	n/a	n/a	n/a
86.01806640625	0.2	176165	66	20	0	0	0	66	222	stimuli\Videos_short_600ms_horvertflip\48.single_slap_with_hand_short_horvertflip_short_600ms.mp4	48.single_slap_with_hand_short_horvertflip_short_600ms.mp4	127.97747571403374	128.58582028605042	0.6083445720166765	n/a	n/a	n/a	n/a
86.81787109375	0.2	177803	67	20	0	0	0	67	50	stimuli\Videos_short_600ms\55.touch_top_to_bottom_with_nail_file_short_short_600ms.mp4	55.touch_top_to_bottom_with_nail_file_short_short_600ms.mp4	128.77752744276768	129.38579430438472	0.6082668616170395	n/a	n/a	n/a	n/a
87.61767578125	0.2	179441	68	20	0	0	0	68	216	stimuli\Videos_short_600ms_horvertflip\42.single_slap_with_plastic_whisk_short_horvertflip_short_600ms.mp4	42.single_slap_with_plastic_whisk_short_horvertflip_short_600ms.mp4	129.57743196161277	130.18577418765494	0.6083422260421685	n/a	n/a	n/a	n/a
88.41796875	0.2	181080	69	20	0	0	0	69	255	stimuli\Videos_short_600ms_horvertflip\78.single_stroke_top_to_bottom_with_soft_brush_short_horvertflip_short_600ms.mp4	78.single_stroke_top_to_bottom_with_soft_brush_short_horvertflip_short_600ms.mp4	130.37746462930522	130.98579365924184	0.6083290299366126	n/a	n/a	n/a	n/a
89.2177734375	0.2	182718	70	20	0	0	0	70	211	stimuli\Videos_short_600ms_horvertflip\38.double_slap_with_pencil_short_horvertflip_short_600ms.mp4	38.double_slap_with_pencil_short_horvertflip_short_600ms.mp4	131.17745418971936	131.785775008746	0.6083208190266305	n/a	n/a	n/a	n/a
90.017578125	0.2	184356	71	20	0	0	0	71	108	stimuli\Videos_short_600ms_horflip\26.single_touch_with_a_blunt_syringe_short_horflip_short_600ms.mp4	26.single_touch_with_a_blunt_syringe_short_horflip_short_600ms.mp4	131.97744668260157	132.58577893825304	0.6083322556514759	n/a	n/a	n/a	n/a
90.81787109375	0.2	185995	72	20	0	0	0	72	273	stimuli\Videos_short_600ms_vertflip\12.repeated_touch_with_nail_file_short_vertflip_short_600ms.mp4	12.repeated_touch_with_nail_file_short_vertflip_short_600ms.mp4	132.7774720191244	133.38572832385694	0.6082563047325493	n/a	n/a	n/a	n/a
91.61767578125	0.2	187633	73	20	0	0	0	73	52	stimuli\Videos_short_600ms\57.single_touch_with_nail_file_short_short_600ms.mp4	57.single_touch_with_nail_file_short_short_600ms.mp4	133.5774049829081	134.18574808869062	0.6083431057825237	n/a	n/a	n/a	n/a
92.41748046875	0.2	189271	74	20	0	0	0	74	227	stimuli\Videos_short_600ms_horvertflip\52.touch_top_to_bottom_with_hammer_short_horvertflip_short_600ms.mp4	52.touch_top_to_bottom_with_hammer_short_horvertflip_short_600ms.mp4	134.37740568670029	134.98570509871115	0.6082994120108651	n/a	n/a	n/a	n/a
93.2177734375	0.2	190910	75	20	0	0	0	75	210	stimuli\Videos_short_600ms_horvertflip\37.single_stab_with_nail_file_short_horvertflip_short_600ms.mp4	37.single_stab_with_nail_file_short_horvertflip_short_600ms.mp4	135.177391728153	135.78569759159336	0.6083058634403642	n/a	n/a	n/a	n/a
94.017578125	0.2	192548	76	20	0	0	0	76	47	stimuli\Videos_short_600ms\52.touch_top_to_bottom_with_hammer_short_short_600ms.mp4	52.touch_top_to_bottom_with_hammer_short_short_600ms.mp4	135.97775253900386	136.58570445356827	0.6079519145644099	n/a	n/a	n/a	n/a
94.8173828125	0.2	194186	77	20	0	0	1	77	365	stimuli\Targets_short_600ms\hand-stroke_short_short_600ms.mp4	hand-stroke_short_short_600ms.mp4	136.77737759365775	137.38569548021655	0.6083178865587797	n/a	n/a	n/a	n/a
95.61767578125	0.2	195825	78	20	0	0	0	78	58	stimuli\Videos_short_600ms\62.touch_top_to_bottom_with_scissors_short_short_600ms.mp4	62.touch_top_to_bottom_with_scissors_short_short_600ms.mp4	137.57735454446015	138.18567946894177	0.6083249244816216	n/a	n/a	n/a	n/a
96.41748046875	0.2	197463	79	20	0	0	0	79	160	stimuli\Videos_short_600ms_horflip\73.single_stroke_with_flat_hand_short_horflip_short_600ms.mp4	73.single_stroke_with_flat_hand_short_horflip_short_600ms.mp4	138.37734117240643	138.98567606727897	0.6083348948725416	n/a	n/a	n/a	n/a
97.21728515625	0.2	199101	80	20	0	0	0	80	88	stimuli\Videos_short_600ms\9.single_touch_with_hammer_short_short_600ms.mp4	9.single_touch_with_hammer_short_short_600ms.mp4	139.17736650892903	139.7856559505492	0.6082894416201725	n/a	n/a	n/a	n/a
98.017578125	0.2	200740	81	20	0	0	0	81	69	stimuli\Videos_short_600ms\72.(short)stroke_with_finger_all_over_the_hand_short_short_600ms.mp4	72.(short)stroke_with_finger_all_over_the_hand_short_short_600ms.mp4	139.97737542363166	140.58563876628727	0.6082633426556185	n/a	n/a	n/a	n/a
98.8173828125	0.2	202378	82	20	0	0	0	82	90	stimuli\Videos_short_600ms_horflip\1.repeated_touch_with_finger_fast_short_horflip_short_600ms.mp4	1.repeated_touch_with_finger_fast_short_horflip_short_600ms.mp4	140.77730809416855	141.38563008618212	0.6083219920135434	n/a	n/a	n/a	n/a
99.61767578125	0.2	204017	83	20	0	0	0	83	114	stimuli\Videos_short_600ms_horflip\31.hand_grabbing_wrist_short_horflip_short_600ms.mp4	31.hand_grabbing_wrist_short_horflip_short_600ms.mp4	141.5773082114672	142.1856190601029	0.6083108486357105	n/a	n/a	n/a	n/a
100.41748046875	0.2	205655	84	20	0	0	0	84	67	stimuli\Videos_short_600ms\70.(long)stroke_with_finger_all_over_the_hand_short_short_600ms.mp4	70.(long)stroke_with_finger_all_over_the_hand_short_short_600ms.mp4	142.37726639447487	142.9856053948024	0.6083390003275326	n/a	n/a	n/a	n/a
101.21728515625	0.2	207293	85	20	0	0	0	85	298	stimuli\Videos_short_600ms_vertflip\35.single_punch_with_hand_short_vertflip_short_600ms.mp4	35.single_punch_with_hand_short_vertflip_short_600ms.mp4	143.1773697346439	143.78560111339925	0.608231378755363	n/a	n/a	n/a	n/a
102.017578125	0.2	208932	86	20	0	0	0	86	127	stimuli\Videos_short_600ms_horflip\43.touch_top_to_bottom_with_sharp_wooden_stick_short_horflip_short_600ms.mp4	43.touch_top_to_bottom_with_sharp_wooden_stick_short_horflip_short_600ms.mp4	143.97721736361154	144.58558744809898	0.6083700844874329	n/a	n/a	n/a	n/a
102.8173828125	0.2	210570	87	20	0	0	0	87	95	stimuli\Videos_short_600ms_horflip\14.repeated_touch_with_pencil_short_horflip_short_600ms.mp4	14.repeated_touch_with_pencil_short_horflip_short_600ms.mp4	144.77720751051947	145.38557612877275	0.6083686182532801	n/a	n/a	n/a	n/a
103.6171875	0.2	212208	88	20	0	0	0	88	135	stimuli\Videos_short_600ms_horflip\50.single_(long)hard_push_with_thumb_short_horflip_short_600ms.mp4	50.single_(long)hard_push_with_thumb_short_horflip_short_600ms.mp4	145.57721906444294	146.18556246347225	0.6083433990293088	n/a	n/a	n/a	n/a
104.41748046875	0.2	213847	89	20	0	0	0	89	73	stimuli\Videos_short_600ms\76.tickle_with_fingers_from_top_to_bottom_short_short_600ms.mp4	76.tickle_with_fingers_from_top_to_bottom_short_short_600ms.mp4	146.37722064797572	146.98555173063983	0.6083310826641082	n/a	n/a	n/a	n/a
105.21728515625	0.2	215485	90	20	0	0	0	90	263	stimuli\Videos_short_600ms_horvertflip\85.touch_top_to_bottom_with_fabric_short_horvertflip_short_600ms.mp4	85.touch_top_to_bottom_with_fabric_short_horvertflip_short_600ms.mp4	147.177839516002	147.7855594723551	0.607719956353094	n/a	n/a	n/a	n/a
106.01708984375	0.2	217123	91	20	0	0	0	91	323	stimuli\Videos_short_600ms_vertflip\58.single_slap_with_pencil_short_vertflip_short_600ms.mp4	58.single_slap_with_pencil_short_vertflip_short_600ms.mp4	147.97728129141183	148.58550416601042	0.6082228745985958	n/a	n/a	n/a	n/a
106.81689453125	0.2	218761	92	20	0	0	0	92	306	stimuli\Videos_short_600ms_vertflip\42.single_slap_with_plastic_whisk_short_vertflip_short_600ms.mp4	42.single_slap_with_plastic_whisk_short_vertflip_short_600ms.mp4	148.77718903597156	149.38549226019086	0.6083032242192985	3.0	3.0	2.466618984738716	1.0
145.72412109375	0.2	298443	93	20	1	0	0	0	170	stimuli\Videos_short_600ms_horflip\82.repeated_touch_with_cotton_bud_short_horflip_short_600ms.mp4	82.repeated_touch_with_cotton_bud_short_horflip_short_600ms.mp4	188.4849386982246	189.09326626192728	0.6083275637026873	n/a	n/a	n/a	n/a
146.5244140625	0.2	300082	94	20	1	0	0	1	133	stimuli\Videos_short_600ms_horflip\49.repeated_slap_with_hand_short_horflip_short_600ms.mp4	49.repeated_slap_with_hand_short_horflip_short_600ms.mp4	189.28511535009105	189.89324761143143	0.6081322613404154	n/a	n/a	n/a	n/a
147.32421875	0.2	301720	95	20	1	0	0	2	269	stimuli\Videos_short_600ms_horvertflip\90.repeated_touch_with_sponge_short_horvertflip_short_600ms.mp4	90.repeated_touch_with_sponge_short_horvertflip_short_600ms.mp4	190.0850741195925	190.69323423937792	0.6081601197854525	n/a	n/a	n/a	n/a
148.1240234375	0.2	303358	96	20	1	0	0	3	225	stimuli\Videos_short_600ms_horvertflip\50.single_(long)hard_push_with_thumb_short_horvertflip_short_600ms.mp4	50.single_(long)hard_push_with_thumb_short_horvertflip_short_600ms.mp4	190.8851155846885	191.49322585251957	0.6081102678310799	n/a	n/a	n/a	n/a
148.9326171875	0.2	305014	97	20	1	0	0	4	155	stimuli\Videos_short_600ms_horflip\69.stroke_with_soft_sock_short_horflip_short_600ms.mp4	69.stroke_with_soft_sock_short_horflip_short_600ms.mp4	191.6932175243107	192.30154420827307	0.608326683962332	n/a	n/a	n/a	n/a
149.732421875	0.2	306652	98	20	1	0	0	5	288	stimuli\Videos_short_600ms_vertflip\26.single_touch_with_a_blunt_syringe_short_vertflip_short_600ms.mp4	26.single_touch_with_a_blunt_syringe_short_vertflip_short_600ms.mp4	192.49320972394617	193.10151265491845	0.608302930972286	n/a	n/a	n/a	n/a
150.53271484375	0.2	308291	99	20	1	0	0	6	334	stimuli\Videos_short_600ms_vertflip\68.stroke_top_to_bottom_with_shawl_short_vertflip_short_600ms.mp4	68.stroke_top_to_bottom_with_shawl_short_vertflip_short_600ms.mp4	193.2931728921494	193.90152714131	0.608354249160584	n/a	n/a	n/a	n/a
151.33251953125	0.2	309929	100	20	1	0	0	7	116	stimuli\Videos_short_600ms_horflip\33.scratch_top_to_bottom_with_scissors_short_horflip_short_600ms.mp4	33.scratch_top_to_bottom_with_scissors_short_horflip_short_600ms.mp4	194.0932111315308	194.70150673133344	0.6082955998026591	n/a	n/a	n/a	n/a
152.13232421875	0.2	311567	101	20	1	0	0	8	39	stimuli\Videos_short_600ms\45.scratching_with_finger_nails_short_short_600ms.mp4	45.scratching_with_finger_nails_short_short_600ms.mp4	194.893169901032	195.501500103956	0.6083302029239803	n/a	n/a	n/a	n/a
152.9326171875	0.2	313206	102	20	1	0	0	9	31	stimuli\Videos_short_600ms\38.double_slap_with_pencil_short_short_600ms.mp4	38.double_slap_with_pencil_short_short_600ms.mp4	195.6932125391154	196.30148203995373	0.6082695008383325	n/a	n/a	n/a	n/a
153.732421875	0.2	314844	103	20	1	0	0	10	353	stimuli\Videos_short_600ms_vertflip\85.touch_top_to_bottom_with_fabric_short_vertflip_short_600ms.mp4	85.touch_top_to_bottom_with_fabric_short_vertflip_short_600ms.mp4	196.49314667588624	197.10146984088715	0.6083231650009111	n/a	n/a	n/a	n/a
154.5322265625	0.2	316482	104	20	1	0	0	11	337	stimuli\Videos_short_600ms_vertflip\70.(long)stroke_with_finger_all_over_the_hand_short_vertflip_short_600ms.mp4	70.(long)stroke_with_finger_all_over_the_hand_short_vertflip_short_600ms.mp4	197.29327728800672	197.90146262701617	0.6081853390094238	n/a	n/a	n/a	n/a
155.33251953125	0.2	318121	105	20	1	0	0	12	81	stimuli\Videos_short_600ms\83.single_stroke_top_to_bottom_with_cotton_bud_short_short_600ms.mp4	83.single_stroke_top_to_bottom_with_cotton_bud_short_short_600ms.mp4	198.09326684842085	198.70137887573287	0.6081120273120177	n/a	n/a	n/a	n/a
156.13232421875	0.2	319759	106	20	1	0	0	13	156	stimuli\Videos_short_600ms_horflip\7.repeated_touch_with_hairbrush_short_horflip_short_600ms.mp4	7.repeated_touch_with_hairbrush_short_horflip_short_600ms.mp4	198.89320245142585	199.5014344166748	0.6082319652489332	n/a	n/a	n/a	n/a
156.93212890625	0.2	321397	107	20	1	0	0	14	233	stimuli\Videos_short_600ms_horvertflip\58.single_slap_with_pencil_short_horvertflip_short_600ms.mp4	58.single_slap_with_pencil_short_horvertflip_short_600ms.mp4	199.69312368533792	200.30142339059557	0.6082997052576502	n/a	n/a	n/a	n/a
157.732421875	0.2	323036	108	20	1	0	0	15	259	stimuli\Videos_short_600ms_horvertflip\81.single_stroke_top_to_bottom_with_cotton_pad_short_horvertflip_short_600ms.mp4	81.single_stroke_top_to_bottom_with_cotton_pad_short_horvertflip_short_600ms.mp4	200.4930510774327	201.101411191529	0.6083601140962855	n/a	n/a	n/a	n/a
158.5322265625	0.2	324674	109	20	1	0	1	16	364	stimuli\Targets_short_600ms\hand-pinch_short_short_600ms.mp4	hand-pinch_short_short_600ms.mp4	201.2930333066772	201.90139840596908	0.6083650992918592	n/a	n/a	n/a	n/a
159.33203125	0.2	326312	110	20	1	0	0	17	195	stimuli\Videos_short_600ms_horvertflip\23.single_push_with_a_spoon_short_horvertflip_short_600ms.mp4	23.single_push_with_a_spoon_short_horvertflip_short_600ms.mp4	202.09304192813283	202.7013903123575	0.6083483842246551	n/a	n/a	n/a	n/a
160.13232421875	0.2	327951	111	20	1	0	0	18	10	stimuli\Videos_short_600ms\19.single_touch_with_rolling_pin_short_short_600ms.mp4	19.single_touch_with_rolling_pin_short_short_600ms.mp4	202.89303031555983	203.5013534805607	0.6083231650009111	n/a	n/a	n/a	n/a
160.93212890625	0.2	329589	112	20	1	0	0	19	329	stimuli\Videos_short_600ms_vertflip\63.stroke_top_to_bottom_with_screwdriver_short_vertflip_short_600ms.mp4	63.stroke_top_to_bottom_with_screwdriver_short_vertflip_short_600ms.mp4	203.69306210351192	204.30136356825028	0.6083014647383607	n/a	n/a	n/a	n/a
161.73193359375	0.2	331227	113	20	1	0	0	20	121	stimuli\Videos_short_600ms_horflip\38.double_slap_with_pencil_short_horflip_short_600ms.mp4	38.double_slap_with_pencil_short_horflip_short_600ms.mp4	204.49312966757248	205.1013273229471	0.6081976553746244	n/a	n/a	n/a	n/a
162.5322265625	0.2	332866	114	20	1	0	0	21	326	stimuli\Videos_short_600ms_vertflip\60.single_push_with_tip_of_pencil_short_vertflip_short_600ms.mp4	60.single_push_with_tip_of_pencil_short_vertflip_short_600ms.mp4	205.29301541862287	205.90133711738983	0.6083216987669857	n/a	n/a	n/a	n/a
163.33203125	0.2	334504	115	20	1	0	0	22	109	stimuli\Videos_short_600ms_horflip\27.single_push_with_a_plastic_whisk_short_horflip_short_600ms.mp4	27.single_push_with_a_plastic_whisk_short_horflip_short_600ms.mp4	206.09304192813283	206.70130292481417	0.6082609966813379	n/a	n/a	n/a	n/a
164.1318359375	0.2	336142	116	20	1	0	0	23	193	stimuli\Videos_short_600ms_horvertflip\21.repeated_touch_with_metal_chopstick_short_horvertflip_short_600ms.mp4	21.repeated_touch_with_metal_chopstick_short_horvertflip_short_600ms.mp4	206.89302621010484	207.501302748866	0.6082765387611744	n/a	n/a	n/a	n/a
164.93212890625	0.2	337781	117	20	1	0	0	24	199	stimuli\Videos_short_600ms_horvertflip\27.single_push_with_a_plastic_whisk_short_horvertflip_short_600ms.mp4	27.single_push_with_a_plastic_whisk_short_horvertflip_short_600ms.mp4	207.6929497899912	208.30128468486373	0.6083348948725416	n/a	n/a	n/a	n/a
165.73193359375	0.2	339419	118	20	1	0	0	25	265	stimuli\Videos_short_600ms_horvertflip\87.single_stroke_top_to_bottom_with_plastic_brush_short_horvertflip_short_600ms.mp4	87.single_stroke_top_to_bottom_with_plastic_brush_short_horvertflip_short_600ms.mp4	208.4929669156038	209.10129330631935	0.608326390715547	n/a	n/a	n/a	n/a
166.53173828125	0.2	341057	119	20	1	0	0	26	276	stimuli\Videos_short_600ms_vertflip\15.single_stroke_top_to_bottom_with_a_plastic_whisk_short_vertflip_short_600ms.mp4	15.single_stroke_top_to_bottom_with_a_plastic_whisk_short_vertflip_short_600ms.mp4	209.29293155004095	209.90128609244832	0.6083545424073691	n/a	n/a	n/a	n/a
167.33203125	0.2	342696	120	20	1	0	0	27	244	stimuli\Videos_short_600ms_horvertflip\68.stroke_top_to_bottom_with_shawl_short_horvertflip_short_600ms.mp4	68.stroke_top_to_bottom_with_shawl_short_horvertflip_short_600ms.mp4	210.0929560068232	210.7012689081864	0.608312901363206	n/a	n/a	n/a	n/a
168.1318359375	0.2	344334	121	20	1	0	0	28	261	stimuli\Videos_short_600ms_horvertflip\83.single_stroke_top_to_bottom_with_cotton_bud_short_horvertflip_short_600ms.mp4	83.single_stroke_top_to_bottom_with_cotton_bud_short_horvertflip_short_600ms.mp4	210.89292797243	211.5012572956134	0.6083293231833977	n/a	n/a	n/a	n/a
168.93212890625	0.2	345973	122	20	1	0	0	29	185	stimuli\Videos_short_600ms_horvertflip\14.repeated_touch_with_pencil_short_horvertflip_short_600ms.mp4	14.repeated_touch_with_pencil_short_horvertflip_short_600ms.mp4	211.6931386409242	212.30124538979385	0.608106748869659	n/a	n/a	n/a	n/a
169.73193359375	0.2	347611	123	20	1	0	0	30	260	stimuli\Videos_short_600ms_horvertflip\82.repeated_touch_with_cotton_bud_short_horvertflip_short_600ms.mp4	82.repeated_touch_with_cotton_bud_short_horvertflip_short_600ms.mp4	212.49296398313595	213.101234950208	0.6082709670720305	n/a	n/a	n/a	n/a
170.53173828125	0.2	349249	124	20	1	0	0	31	94	stimuli\Videos_short_600ms_horflip\13.single_touch_with_pen_short_horflip_short_600ms.mp4	13.single_touch_with_pen_short_horflip_short_600ms.mp4	213.2928591180837	213.9012212849077	0.6083621668240085	n/a	n/a	n/a	n/a
171.33203125	0.2	350888	125	20	1	0	0	32	332	stimuli\Videos_short_600ms_vertflip\66.stroke_top_to_bottom_with_sponge_short_vertflip_short_600ms.mp4	66.stroke_top_to_bottom_with_sponge_short_vertflip_short_600ms.mp4	214.0928615813566	214.701207912854	0.6083463314973869	n/a	n/a	n/a	n/a
172.1318359375	0.2	352526	126	20	1	0	0	33	220	stimuli\Videos_short_600ms_horvertflip\46.scratching_top_to_bottom_with_finger_nails_short_horvertflip_short_600ms.mp4	46.scratching_top_to_bottom_with_finger_nails_short_horvertflip_short_600ms.mp4	214.89293061165108	215.50119776651513	0.6082671548640519	n/a	n/a	n/a	n/a
172.931640625	0.2	354164	127	20	1	0	0	34	159	stimuli\Videos_short_600ms_horflip\72.(short)stroke_with_finger_all_over_the_hand_short_horflip_short_600ms.mp4	72.(short)stroke_with_finger_all_over_the_hand_short_horflip_short_600ms.mp4	215.6928195884163	216.30118527420177	0.6083656857854294	n/a	n/a	n/a	n/a
173.73193359375	0.2	355803	128	20	1	0	0	35	291	stimuli\Videos_short_600ms_vertflip\29.single_pinch_with_tweezers_short_vertflip_short_600ms.mp4	29.single_pinch_with_tweezers_short_vertflip_short_600ms.mp4	216.49293319222284	217.10117307513545	0.608239882912585	n/a	n/a	n/a	n/a
174.53173828125	0.2	357441	129	20	1	0	0	36	115	stimuli\Videos_short_600ms_horflip\32.single_(long)pinch_with_fingers_short_horflip_short_600ms.mp4	32.single_(long)pinch_with_fingers_short_horflip_short_600ms.mp4	217.29294181367845	217.90115002593757	0.6082082122591146	n/a	n/a	n/a	n/a
175.33154296875	0.2	359079	130	20	1	0	0	37	359	stimuli\Videos_short_600ms_vertflip\90.repeated_touch_with_sponge_short_vertflip_short_600ms.mp4	90.repeated_touch_with_sponge_short_vertflip_short_600ms.mp4	218.0929128995449	218.70114134583264	0.6082284462877396	n/a	n/a	n/a	n/a
176.1318359375	0.2	360718	131	20	1	0	1	38	366	stimuli\Targets_short_600ms_horflip\brush-stroke_short_horflip_short_600ms.mp4	brush-stroke_short_horflip_short_600ms.mp4	218.89279571812767	219.5011089127377	0.6083131946099911	n/a	n/a	n/a	n/a
176.931640625	0.2	362356	132	20	1	0	0	39	138	stimuli\Videos_short_600ms_horflip\53.touch_top_to_bottom_with_knife_short_horflip_short_600ms.mp4	53.touch_top_to_bottom_with_knife_short_horflip_short_600ms.mp4	219.69280873828507	220.3010902622418	0.6082815239567481	n/a	n/a	n/a	n/a
177.7314453125	0.2	363994	133	20	1	0	0	40	217	stimuli\Videos_short_600ms_horvertflip\43.touch_top_to_bottom_with_sharp_wooden_stick_short_horvertflip_short_600ms.mp4	43.touch_top_to_bottom_with_sharp_wooden_stick_short_horvertflip_short_600ms.mp4	220.49284873714737	221.1010683860311	0.6082196488837326	n/a	n/a	n/a	n/a
178.53173828125	0.2	365633	134	20	1	0	0	41	338	stimuli\Videos_short_600ms_vertflip\71.single_stroke_with_finger_top_to_bottom_short_vertflip_short_600ms.mp4	71.single_stroke_with_finger_top_to_bottom_short_vertflip_short_600ms.mp4	221.2927858063861	221.90105413423728	0.6082683278511922	n/a	n/a	n/a	n/a
179.33154296875	0.2	367271	135	20	1	0	0	42	42	stimuli\Videos_short_600ms\48.single_slap_with_hand_short_short_600ms.mp4	48.single_slap_with_hand_short_short_600ms.mp4	222.09276275718844	222.70107565855164	0.608312901363206	n/a	n/a	n/a	n/a
180.13134765625	0.2	368909	136	20	1	0	0	43	256	stimuli\Videos_short_600ms_horvertflip\79.long_with_soft_brush_all_over_the_hand_short_horvertflip_short_600ms.mp4	79.long_with_soft_brush_all_over_the_hand_short_horvertflip_short_600ms.mp4	222.89275437033007	223.5010625797447	0.6083082094146448	n/a	n/a	n/a	n/a
180.931640625	0.2	370548	137	20	1	0	0	44	190	stimuli\Videos_short_600ms_horvertflip\19.single_touch_with_rolling_pin_short_horvertflip_short_600ms.mp4	19.single_touch_with_rolling_pin_short_horvertflip_short_600ms.mp4	223.69277208243625	224.3010738404214	0.6083017579851457	n/a	n/a	n/a	n/a
181.7314453125	0.2	372186	138	20	1	0	0	45	325	stimuli\Videos_short_600ms_vertflip\6.single_touch_with_flat_hand_short_vertflip_short_600ms.mp4	6.single_touch_with_flat_hand_short_vertflip_short_600ms.mp4	224.49298157794328	225.10106164135505	0.6080800634117622	n/a	n/a	n/a	n/a
182.53125	0.2	373824	139	20	1	0	0	46	173	stimuli\Videos_short_600ms_horflip\85.touch_top_to_bottom_with_fabric_short_horflip_short_600ms.mp4	85.touch_top_to_bottom_with_fabric_short_horflip_short_600ms.mp4	225.29276997105944	225.90104387059955	0.6082738995401087	n/a	n/a	n/a	n/a
183.33154296875	0.2	375463	140	20	1	0	0	47	25	stimuli\Videos_short_600ms\32.single_(long)pinch_with_fingers_short_short_600ms.mp4	32.single_(long)pinch_with_fingers_short_short_600ms.mp4	226.0927038145835	226.70102961880548	0.6083258042219768	n/a	n/a	n/a	n/a
184.13134765625	0.2	377101	141	20	1	0	0	48	179	stimuli\Videos_short_600ms_horflip\90.repeated_touch_with_sponge_short_horflip_short_600ms.mp4	90.repeated_touch_with_sponge_short_horflip_short_600ms.mp4	226.89269308175108	227.50101947246665	0.608326390715547	n/a	n/a	n/a	n/a
184.93115234375	0.2	378739	142	20	1	0	0	49	92	stimuli\Videos_short_600ms_horflip\11.single_touch_with_lighter_short_horflip_short_600ms.mp4	11.single_touch_with_lighter_short_horflip_short_600ms.mp4	227.6926849881395	228.30100492742577	0.6083199392862753	n/a	n/a	n/a	n/a
185.7314453125	0.2	380378	143	20	1	0	0	50	257	stimuli\Videos_short_600ms_horvertflip\8.single_touch_with_hairbrush_short_horvertflip_short_600ms.mp4	8.single_touch_with_hairbrush_short_horvertflip_short_600ms.mp4	228.49266663089043	229.10099360809951	0.6083269772091171	n/a	n/a	n/a	n/a
186.53125	0.2	382016	144	20	1	0	0	51	331	stimuli\Videos_short_600ms_vertflip\65.stroke_top_to_bottom_with_stanley_knife_short_vertflip_short_600ms.mp4	65.stroke_top_to_bottom_with_stanley_knife_short_vertflip_short_600ms.mp4	229.2926541385773	229.90098170228	0.6083275637026873	n/a	n/a	n/a	n/a
187.33154296875	0.2	383655	145	20	1	0	0	52	254	stimuli\Videos_short_600ms_horvertflip\77.tapping_with_all_fingers_short_horvertflip_short_600ms.mp4	77.tapping_with_all_fingers_short_horvertflip_short_600ms.mp4	230.09283606888584	230.70097302217505	0.608136953289204	n/a	n/a	n/a	n/a
188.13134765625	0.2	385293	146	20	1	0	0	53	76	stimuli\Videos_short_600ms\79.long_with_soft_brush_all_over_the_hand_short_short_600ms.mp4	79.long_with_soft_brush_all_over_the_hand_short_short_600ms.mp4	230.89259631031015	231.5009555446663	0.6083592343561577	n/a	n/a	n/a	n/a
188.93115234375	0.2	386931	147	20	1	0	0	54	148	stimuli\Videos_short_600ms_horflip\62.touch_top_to_bottom_with_scissors_short_horflip_short_600ms.mp4	62.touch_top_to_bottom_with_scissors_short_horflip_short_600ms.mp4	231.69277912035932	232.30094510508047	0.608165984721154	n/a	n/a	n/a	n/a
189.7314453125	0.2	388570	148	20	1	0	0	55	40	stimuli\Videos_short_600ms\46.scratching_top_to_bottom_with_finger_nails_short_short_600ms.mp4	46.scratching_top_to_bottom_with_finger_nails_short_short_600ms.mp4	232.4926244033527	233.10093261276737	0.6083082094146448	n/a	n/a	n/a	n/a
190.53125	0.2	390208	149	20	1	0	0	56	169	stimuli\Videos_short_600ms_horflip\81.single_stroke_top_to_bottom_with_cotton_pad_short_horflip_short_600ms.mp4	81.single_stroke_top_to_bottom_with_cotton_pad_short_horflip_short_600ms.mp4	233.29264035597816	233.9008878633069	0.6082475073287696	n/a	n/a	n/a	n/a
191.3310546875	0.2	391846	150	20	1	0	1	57	379	stimuli\Targets_short_600ms_vertflip\chopstick-silver-tap_short_horvertflip_short_600ms.mp4	chopstick-silver-tap_short_horvertflip_short_600ms.mp4	234.09259589976455	234.700883288657	0.6082873888924496	n/a	n/a	n/a	n/a
192.13134765625	0.2	393485	151	20	1	0	0	58	319	stimuli\Videos_short_600ms_vertflip\54.repeated_touch_with_knife_short_vertflip_short_600ms.mp4	54.repeated_touch_with_knife_short_vertflip_short_600ms.mp4	234.8925816479707	235.5008578934851	0.6082762455143893	n/a	n/a	n/a	n/a
192.93115234375	0.2	395123	152	20	1	0	0	59	333	stimuli\Videos_short_600ms_vertflip\67.single_touch_with_sponge_short_vertflip_short_600ms.mp4	67.single_touch_with_sponge_short_vertflip_short_600ms.mp4	235.69253836474445	236.30086475546	0.608326390715547	n/a	n/a	n/a	n/a
193.73095703125	0.2	396761	153	20	1	0	0	60	23	stimuli\Videos_short_600ms\30.finger_pulling_back_another_finger_short_short_600ms.mp4	30.finger_pulling_back_another_finger_short_short_600ms.mp4	236.49254288074485	237.10087073769455	0.6083278569496997	n/a	n/a	n/a	n/a
194.53125	0.2	398400	154	20	1	0	0	61	344	stimuli\Videos_short_600ms_vertflip\77.tapping_with_all_fingers_short_vertflip_short_600ms.mp4	77.tapping_with_all_fingers_short_vertflip_short_600ms.mp4	237.29258815804928	237.9008558994069	0.6082677413576221	n/a	n/a	n/a	n/a
195.3310546875	0.2	400038	155	20	1	0	0	62	341	stimuli\Videos_short_600ms_vertflip\74.fingers_walking_from_top_to_bottom_short_vertflip_short_600ms.mp4	74.fingers_walking_from_top_to_bottom_short_vertflip_short_600ms.mp4	238.09260821612975	238.7008366624175	0.6082284462877396	n/a	n/a	n/a	n/a
196.130859375	0.2	401676	156	20	1	0	0	63	315	stimuli\Videos_short_600ms_vertflip\50.single_(long)hard_push_with_thumb_short_vertflip_short_600ms.mp4	50.single_(long)hard_push_with_thumb_short_vertflip_short_600ms.mp4	238.8925769560219	239.50082974179327	0.6082527857713558	n/a	n/a	n/a	n/a
196.93115234375	0.2	403315	157	20	1	0	0	64	280	stimuli\Videos_short_600ms_vertflip\19.single_touch_with_rolling_pin_short_vertflip_short_600ms.mp4	19.single_touch_with_rolling_pin_short_vertflip_short_600ms.mp4	239.69250141564885	240.30083249831296	0.6083310826641082	n/a	n/a	n/a	n/a
197.73095703125	0.2	404953	158	20	1	0	0	65	196	stimuli\Videos_short_600ms_horvertflip\24.single_stroke_top_to_bottom_with_a_spoon_short_horvertflip_short_600ms.mp4	24.single_stroke_top_to_bottom_with_a_spoon_short_horvertflip_short_600ms.mp4	240.49249156255655	241.10083320210535	0.6083416395488257	n/a	n/a	n/a	n/a
198.53076171875	0.2	406591	159	20	1	0	0	66	245	stimuli\Videos_short_600ms_horvertflip\69.stroke_with_soft_sock_short_horvertflip_short_600ms.mp4	69.stroke_with_soft_sock_short_horvertflip_short_600ms.mp4	241.29247819050303	241.9008107394011	0.6083325488980336	n/a	n/a	n/a	n/a
199.3310546875	0.2	408230	160	20	1	0	0	67	64	stimuli\Videos_short_600ms\68.stroke_top_to_bottom_with_shawl_short_short_600ms.mp4	68.stroke_top_to_bottom_with_shawl_short_short_600ms.mp4	242.09246657793005	242.70078944968415	0.608322871754126	n/a	n/a	n/a	n/a
200.130859375	0.2	409868	161	20	1	0	0	68	98	stimuli\Videos_short_600ms_horflip\17.repeated_touch_with_rolling_pin_short_horflip_short_600ms.mp4	17.repeated_touch_with_rolling_pin_short_horflip_short_600ms.mp4	242.89245965730584	243.50077578438368	0.6083161270778419	n/a	n/a	n/a	n/a
200.9306640625	0.2	411506	162	20	1	0	0	69	158	stimuli\Videos_short_600ms_horflip\71.single_stroke_with_finger_top_to_bottom_short_horflip_short_600ms.mp4	71.single_stroke_with_finger_top_to_bottom_short_horflip_short_600ms.mp4	243.69245801512375	244.30076505155125	0.6083070364275045	n/a	n/a	n/a	n/a
201.73095703125	0.2	413145	163	20	1	0	0	70	231	stimuli\Videos_short_600ms_horvertflip\56.repeated_touch_with_nail_file_short_horvertflip_short_600ms.mp4	56.repeated_touch_with_nail_file_short_horvertflip_short_600ms.mp4	244.4924144386507	245.1007522659911	0.6083378273403923	n/a	n/a	n/a	n/a
202.53076171875	0.2	414783	164	20	1	0	0	71	120	stimuli\Videos_short_600ms_horflip\37.single_stab_with_nail_file_short_horflip_short_600ms.mp4	37.single_stab_with_nail_file_short_horflip_short_600ms.mp4	245.29237438113933	245.9007611806935	0.6083867995541823	n/a	n/a	n/a	n/a
203.33056640625	0.2	416421	165	20	1	0	0	72	162	stimuli\Videos_short_600ms_horflip\75.(long)stroke_with_fingers_all_over_the_hand_short_horflip_short_600ms.mp4	75.(long)stroke_with_fingers_all_over_the_hand_short_horflip_short_600ms.mp4	246.0923651145406	246.70074077071695	0.6083756561763494	n/a	n/a	n/a	n/a
204.130859375	0.2	418060	166	20	1	0	0	73	304	stimuli\Videos_short_600ms_vertflip\40.repeated_push_with_finger_short_vertflip_short_600ms.mp4	40.repeated_push_with_finger_short_vertflip_short_600ms.mp4	246.8924708006839	247.5007200674936	0.6082492668097075	n/a	n/a	n/a	n/a
204.9306640625	0.2	419698	167	20	1	0	0	74	299	stimuli\Videos_short_600ms_vertflip\36.single_slap_with_full_hand_short_vertflip_short_600ms.mp4	36.single_slap_with_full_hand_short_vertflip_short_600ms.mp4	247.69233925017377	248.30070288323168	0.6083636330579338	n/a	n/a	n/a	n/a
205.73095703125	0.2	421337	168	20	1	0	0	75	272	stimuli\Videos_short_600ms_vertflip\11.single_touch_with_lighter_short_vertflip_short_600ms.mp4	11.single_touch_with_lighter_short_vertflip_short_600ms.mp4	248.49241561163785	249.10069566936068	0.6082800577228227	n/a	n/a	n/a	n/a
206.53076171875	0.2	422975	169	20	1	0	0	76	79	stimuli\Videos_short_600ms\81.single_stroke_top_to_bottom_with_cotton_pad_short_short_600ms.mp4	81.single_stroke_top_to_bottom_with_cotton_pad_short_short_600ms.mp4	249.29233625905655	249.90065766457656	0.6083214055199733	n/a	n/a	n/a	n/a
207.33056640625	0.2	424613	170	20	1	0	0	77	182	stimuli\Videos_short_600ms_horvertflip\11.single_touch_with_lighter_short_horvertflip_short_600ms.mp4	11.single_touch_with_lighter_short_horvertflip_short_600ms.mp4	250.0923525049286	250.70065045070555	0.6082979457769397	n/a	n/a	n/a	n/a
208.130859375	0.2	426252	171	20	1	0	0	78	267	stimuli\Videos_short_600ms_horvertflip\89.single_touch_with_plastic_brush_short_horvertflip_short_600ms.mp4	89.single_touch_with_plastic_brush_short_horvertflip_short_600ms.mp4	250.892369923788	251.5006197770913	0.6082498533032776	n/a	n/a	n/a	n/a
208.9306640625	0.2	427890	172	20	1	0	0	79	26	stimuli\Videos_short_600ms\33.scratch_top_to_bottom_with_scissors_short_short_600ms.mp4	33.scratch_top_to_bottom_with_scissors_short_short_600ms.mp4	251.69243103641907	252.3006266390662	0.6081956026471289	n/a	n/a	n/a	n/a
209.73046875	0.2	429528	173	20	1	0	0	80	140	stimuli\Videos_short_600ms_horflip\55.touch_top_to_bottom_with_nail_file_short_horflip_short_600ms.mp4	55.touch_top_to_bottom_with_nail_file_short_horflip_short_600ms.mp4	252.49231356175483	253.1006273428584	0.6083137811035613	n/a	n/a	n/a	n/a
210.53076171875	0.2	431167	174	20	1	0	0	81	57	stimuli\Videos_short_600ms\61.single_hit_with_rolling_pin_short_short_600ms.mp4	61.single_hit_with_rolling_pin_short_short_600ms.mp4	253.29229579099933	253.90060781262216	0.6083120216228508	n/a	n/a	n/a	n/a
211.33056640625	0.2	432805	175	20	1	0	0	82	215	stimuli\Videos_short_600ms_horvertflip\41.injection_with_blunt_syringe_short_horvertflip_short_600ms.mp4	41.injection_with_blunt_syringe_short_horvertflip_short_600ms.mp4	254.09228271219263	254.70060118524475	0.6083184730521225	n/a	n/a	n/a	n/a
212.13037109375	0.2	434443	176	20	1	0	0	83	153	stimuli\Videos_short_600ms_horflip\67.single_touch_with_sponge_short_horflip_short_600ms.mp4	67.single_touch_with_sponge_short_horflip_short_600ms.mp4	254.8923353206667	255.50060658098573	0.608271260319043	n/a	n/a	n/a	n/a
212.9306640625	0.2	436082	177	20	1	0	0	84	336	stimuli\Videos_short_600ms_vertflip\7.repeated_touch_with_hairbrush_short_vertflip_short_600ms.mp4	7.repeated_touch_with_hairbrush_short_vertflip_short_600ms.mp4	255.6922603667872	256.30059056971095	0.608330202923753	n/a	n/a	n/a	n/a
213.73046875	0.2	437720	178	20	1	0	0	85	352	stimuli\Videos_short_600ms_vertflip\84.single_touch_with_cotton_bud_short_vertflip_short_600ms.mp4	84.single_touch_with_cotton_bud_short_vertflip_short_600ms.mp4	256.4922754396721	257.100577784151	0.6083023444789433	n/a	n/a	n/a	n/a
214.5302734375	0.2	439358	179	20	1	0	0	86	174	stimuli\Videos_short_600ms_horflip\86.touch_top_to_bottom_with_hair_brush_short_horflip_short_600ms.mp4	86.touch_top_to_bottom_with_hair_brush_short_horflip_short_600ms.mp4	257.29236177152734	257.90056558508445	0.6082038135571111	n/a	n/a	n/a	n/a
215.33056640625	0.2	440997	180	20	1	0	0	87	13	stimuli\Videos_short_600ms\21.repeated_touch_with_metal_chopstick_short_short_600ms.mp4	21.repeated_touch_with_metal_chopstick_short_short_600ms.mp4	258.0922856446605	258.7005636496556	0.6082780049950998	n/a	n/a	n/a	n/a
216.13037109375	0.2	442635	181	20	1	0	0	88	93	stimuli\Videos_short_600ms_horflip\12.repeated_touch_with_nail_file_short_horflip_short_600ms.mp4	12.repeated_touch_with_nail_file_short_horflip_short_600ms.mp4	258.8922112772743	259.5005042378559	0.6082929605815934	n/a	n/a	n/a	n/a
216.93017578125	0.2	444273	182	20	1	0	0	89	63	stimuli\Videos_short_600ms\67.single_touch_with_sponge_short_short_600ms.mp4	67.single_touch_with_sponge_short_short_600ms.mp4	259.6921509857343	260.3004436530691	0.6082926673348084	n/a	n/a	n/a	n/a
217.73046875	0.2	445912	183	20	1	0	0	90	48	stimuli\Videos_short_600ms\53.touch_top_to_bottom_with_knife_short_short_600ms.mp4	53.touch_top_to_bottom_with_knife_short_short_600ms.mp4	260.4921047700402	261.10048687764584	0.6083821076056211	n/a	n/a	n/a	n/a
218.5302734375	0.2	447550	184	20	1	0	0	91	102	stimuli\Videos_short_600ms_horflip\20.single_touch_with_screwdriver_short_horflip_short_600ms.mp4	20.single_touch_with_screwdriver_short_horflip_short_600ms.mp4	261.29218904916775	261.9004391957178	0.6082501465500627	n/a	n/a	n/a	n/a
219.330078125	0.2	449188	185	20	1	0	0	92	151	stimuli\Videos_short_600ms_horflip\65.stroke_top_to_bottom_with_stanley_knife_short_horflip_short_600ms.mp4	65.stroke_top_to_bottom_with_stanley_knife_short_horflip_short_600ms.mp4	262.0921598417874	262.70044371171844	0.6082838699310287	3.0	3.0	3.726770822061781	1.0
260.7705078125	0.2	534058	186	20	2	0	0	0	198	stimuli\Videos_short_600ms_horvertflip\26.single_touch_with_a_blunt_syringe_short_horvertflip_short_600ms.mp4	26.single_touch_with_a_blunt_syringe_short_horvertflip_short_600ms.mp4	303.5331836601715	304.1415132766017	0.6083296164301828	n/a	n/a	n/a	n/a
261.57080078125	0.2	535697	187	20	2	0	1	1	362	stimuli\Targets_short_600ms\chopstickwood-tap_short_short_600ms.mp4	chopstickwood-tap_short_short_600ms.mp4	304.3331535730508	304.94151749935554	0.6083639263047189	n/a	n/a	n/a	n/a
262.37060546875	0.2	537335	188	20	2	0	0	2	119	stimuli\Videos_short_600ms_horflip\36.single_slap_with_full_hand_short_horflip_short_600ms.mp4	36.single_slap_with_full_hand_short_horflip_short_600ms.mp4	305.13325251451784	305.7415187896413	0.6082662751234693	n/a	n/a	n/a	n/a
263.17041015625	0.2	538973	189	20	2	0	1	3	381	stimuli\Targets_short_600ms_vertflip\finger-tap_short_horvertflip_short_600ms.mp4	finger-tap_short_horvertflip_short_600ms.mp4	305.9331737484299	306.5414708144665	0.6082970660365845	n/a	n/a	n/a	n/a
263.970703125	0.2	540612	190	20	2	0	0	4	356	stimuli\Videos_short_600ms_vertflip\88.repeated_stroke_with_plastic_brush_short_vertflip_short_600ms.mp4	88.repeated_stroke_with_plastic_brush_short_vertflip_short_600ms.mp4	306.7337597728158	307.3414855941048	0.6077258212890229	n/a	n/a	n/a	n/a
264.7705078125	0.2	542250	191	20	2	0	0	5	106	stimuli\Videos_short_600ms_horflip\24.single_stroke_top_to_bottom_with_a_spoon_short_horflip_short_600ms.mp4	24.single_stroke_top_to_bottom_with_a_spoon_short_horflip_short_600ms.mp4	307.5331434853613	308.14144582984	0.6083023444787159	n/a	n/a	n/a	n/a
265.5703125	0.2	543888	192	20	2	0	0	6	29	stimuli\Videos_short_600ms\36.single_slap_with_full_hand_short_short_600ms.mp4	36.single_slap_with_full_hand_short_short_600ms.mp4	308.3332034250052	308.9414318712927	0.6082284462875123	n/a	n/a	n/a	n/a
266.37060546875	0.2	545527	193	20	2	0	0	7	258	stimuli\Videos_short_600ms_horvertflip\80.stroke_with_sharp_stick_all_over_the_hand_short_horvertflip_short_600ms.mp4	80.stroke_with_sharp_stick_all_over_the_hand_short_horvertflip_short_600ms.mp4	309.1330932815106	309.74142934937026	0.6083360678596819	n/a	n/a	n/a	n/a
267.17041015625	0.2	547165	194	20	2	0	0	8	274	stimuli\Videos_short_600ms_vertflip\13.single_touch_with_pen_short_vertflip_short_600ms.mp4	13.single_touch_with_pen_short_vertflip_short_600ms.mp4	309.93310894088927	310.5414150975764	0.6083061566871493	n/a	n/a	n/a	n/a
267.97021484375	0.2	548803	195	20	2	0	0	9	296	stimuli\Videos_short_600ms_vertflip\33.scratch_top_to_bottom_with_scissors_short_vertflip_short_600ms.mp4	33.scratch_top_to_bottom_with_scissors_short_vertflip_short_600ms.mp4	310.7330726955861	311.34142518526596	0.6083524896798735	n/a	n/a	n/a	n/a
268.7705078125	0.2	550442	196	20	2	0	0	10	187	stimuli\Videos_short_600ms_horvertflip\16.repeated_touch_with_plastic_brush_short_horvertflip_short_600ms.mp4	16.repeated_touch_with_plastic_brush_short_horvertflip_short_600ms.mp4	311.5330895279517	312.14142383633066	0.6083343083789714	n/a	n/a	n/a	n/a
269.5703125	0.2	552080	197	20	2	0	0	11	354	stimuli\Videos_short_600ms_vertflip\86.touch_top_to_bottom_with_hair_brush_short_vertflip_short_600ms.mp4	86.touch_top_to_bottom_with_hair_brush_short_vertflip_short_600ms.mp4	312.33307087745584	312.9413996141459	0.6083287366900549	n/a	n/a	n/a	n/a
270.3701171875	0.2	553718	198	20	2	0	0	12	188	stimuli\Videos_short_600ms_horvertflip\17.repeated_touch_with_rolling_pin_short_horvertflip_short_600ms.mp4	17.repeated_touch_with_rolling_pin_short_horvertflip_short_600ms.mp4	313.1331205534623	313.74138712183253	0.6082665683702544	n/a	n/a	n/a	n/a
271.17041015625	0.2	555357	199	20	2	0	1	13	377	stimuli\Targets_short_600ms_horvertflip\hand-stroke_short_vertflip_short_600ms.mp4	hand-stroke_short_vertflip_short_600ms.mp4	313.9330145154229	314.54137492276595	0.6083604073430706	n/a	n/a	n/a	n/a
271.97021484375	0.2	556995	200	20	2	0	0	14	30	stimuli\Videos_short_600ms\37.single_stab_with_nail_file_short_short_600ms.mp4	37.single_stab_with_nail_file_short_short_600ms.mp4	314.73304014519226	315.34136184395925	0.6083216987669857	n/a	n/a	n/a	n/a
272.77001953125	0.2	558633	201	20	2	0	0	15	163	stimuli\Videos_short_600ms_horflip\76.tickle_with_fingers_from_top_to_bottom_short_horflip_short_600ms.mp4	76.tickle_with_fingers_from_top_to_bottom_short_horflip_short_600ms.mp4	315.5330033133955	316.1413490583991	0.6083457450035894	n/a	n/a	n/a	n/a
273.5703125	0.2	560272	202	20	2	0	0	16	175	stimuli\Videos_short_600ms_horflip\87.single_stroke_top_to_bottom_with_plastic_brush_short_horflip_short_600ms.mp4	87.single_stroke_top_to_bottom_with_plastic_brush_short_horflip_short_600ms.mp4	316.33297674523624	316.9413377390731	0.6083609938368681	n/a	n/a	n/a	n/a
274.3701171875	0.2	561910	203	20	2	0	0	17	292	stimuli\Videos_short_600ms_vertflip\3.single_push_with_finger_short_vertflip_short_600ms.mp4	3.single_push_with_finger_short_vertflip_short_600ms.mp4	317.13296454616966	317.7413281792276	0.6083636330579338	n/a	n/a	n/a	n/a
275.169921875	0.2	563548	204	20	2	0	0	18	181	stimuli\Videos_short_600ms_horvertflip\10.single_touch_with_knife_short_horvertflip_short_600ms.mp4	10.single_touch_with_knife_short_horvertflip_short_600ms.mp4	317.9330095302273	318.5413127544464	0.6083032242190711	n/a	n/a	n/a	n/a
275.97021484375	0.2	565187	205	20	2	0	0	19	172	stimuli\Videos_short_600ms_horflip\84.single_touch_with_cotton_bud_short_horflip_short_600ms.mp4	84.single_touch_with_cotton_bud_short_horflip_short_600ms.mp4	318.7329759241452	319.3412996756397	0.6083237514944813	n/a	n/a	n/a	n/a
276.77001953125	0.2	566825	206	20	2	0	0	20	17	stimuli\Videos_short_600ms\25.single_touch_with_stanley_knife_short_short_600ms.mp4	25.single_touch_with_stanley_knife_short_short_600ms.mp4	319.53300243365493	320.1412904090412	0.6082879753862471	n/a	n/a	n/a	n/a
277.5703125	0.2	568464	207	20	2	0	0	21	234	stimuli\Videos_short_600ms_horvertflip\59.single_push_with_long_side_pencil_short_horvertflip_short_600ms.mp4	59.single_push_with_long_side_pencil_short_horvertflip_short_600ms.mp4	320.3329972725114	320.94128143568923	0.6082841631778138	n/a	n/a	n/a	n/a
278.3701171875	0.2	570102	208	20	2	0	0	22	180	stimuli\Videos_short_600ms_horvertflip\1.repeated_touch_with_finger_fast_short_horvertflip_short_600ms.mp4	1.repeated_touch_with_finger_fast_short_horvertflip_short_600ms.mp4	321.13312935086583	321.74126806363574	0.6081387127699145	n/a	n/a	n/a	n/a
279.169921875	0.2	571740	209	20	2	0	0	23	130	stimuli\Videos_short_600ms_horflip\46.scratching_top_to_bottom_with_finger_nails_short_horflip_short_600ms.mp4	46.scratching_top_to_bottom_with_finger_nails_short_horflip_short_600ms.mp4	321.9335930913401	322.5412321115791	0.6076390202390485	n/a	n/a	n/a	n/a
279.97021484375	0.2	573379	210	20	2	0	0	24	293	stimuli\Videos_short_600ms_vertflip\30.finger_pulling_back_another_finger_short_vertflip_short_600ms.mp4	30.finger_pulling_back_another_finger_short_vertflip_short_600ms.mp4	322.73294806570016	323.3411987987438	0.6082507330436329	n/a	n/a	n/a	n/a
280.77001953125	0.2	575017	211	20	2	0	0	25	268	stimuli\Videos_short_600ms_horvertflip\9.single_touch_with_hammer_short_horvertflip_short_600ms.mp4	9.single_touch_with_hammer_short_horvertflip_short_600ms.mp4	323.53295903313006	324.1412346921509	0.6082756590208191	n/a	n/a	n/a	n/a
281.56982421875	0.2	576655	212	20	2	0	0	26	128	stimuli\Videos_short_600ms_horflip\44.pushing_top_to_bottom_with_finger_short_horflip_short_600ms.mp4	44.pushing_top_to_bottom_with_finger_short_horflip_short_600ms.mp4	324.3328667776898	324.94120900373196	0.6083422260421685	n/a	n/a	n/a	n/a
282.3701171875	0.2	578294	213	20	2	0	0	27	204	stimuli\Videos_short_600ms_horvertflip\31.hand_grabbing_wrist_short_horvertflip_short_600ms.mp4	31.hand_grabbing_wrist_short_horvertflip_short_600ms.mp4	325.13299152487434	325.74119123297646	0.60819970810212	n/a	n/a	n/a	n/a
283.169921875	0.2	579932	214	20	2	0	0	28	236	stimuli\Videos_short_600ms_horvertflip\60.single_push_with_tip_of_pencil_short_horvertflip_short_600ms.mp4	60.single_push_with_tip_of_pencil_short_horvertflip_short_600ms.mp4	325.9329112925525	326.5412004409259	0.6082891483733874	n/a	n/a	n/a	n/a
283.9697265625	0.2	581570	215	20	2	0	1	29	380	stimuli\Targets_short_600ms_vertflip\chopstickwood-tap_short_horvertflip_short_600ms.mp4	chopstickwood-tap_short_horvertflip_short_600ms.mp4	326.7328850176402	327.34118501614466	0.6082999985044353	n/a	n/a	n/a	n/a
284.77001953125	0.2	583209	216	20	2	0	0	30	113	stimuli\Videos_short_600ms_horflip\30.finger_pulling_back_another_finger_short_horflip_short_600ms.mp4	30.finger_pulling_back_another_finger_short_horflip_short_600ms.mp4	327.5328247261	328.1411437856459	0.60831905954592	n/a	n/a	n/a	n/a
285.56982421875	0.2	584847	217	20	2	0	0	31	310	stimuli\Videos_short_600ms_vertflip\46.scratching_top_to_bottom_with_finger_nails_short_vertflip_short_600ms.mp4	46.scratching_top_to_bottom_with_finger_nails_short_vertflip_short_600ms.mp4	328.33283657327047	328.94116648294744	0.6083299096769679	n/a	n/a	n/a	n/a
286.36962890625	0.2	586485	218	20	2	0	0	32	286	stimuli\Videos_short_600ms_vertflip\24.single_stroke_top_to_bottom_with_a_spoon_short_vertflip_short_600ms.mp4	24.single_stroke_top_to_bottom_with_a_spoon_short_vertflip_short_600ms.mp4	329.13277833445795	329.74114284725624	0.6083645127982891	n/a	n/a	n/a	n/a
287.169921875	0.2	588124	219	20	2	0	0	33	72	stimuli\Videos_short_600ms\75.(long)stroke_with_fingers_all_over_the_hand_short_short_600ms.mp4	75.(long)stroke_with_fingers_all_over_the_hand_short_short_600ms.mp4	329.9328227320218	330.54112918195574	0.6083064499339343	n/a	n/a	n/a	n/a
287.9697265625	0.2	589762	220	20	2	0	0	34	126	stimuli\Videos_short_600ms_horflip\42.single_slap_with_plastic_whisk_short_horflip_short_600ms.mp4	42.single_slap_with_plastic_whisk_short_horflip_short_600ms.mp4	330.7327932313949	331.34112138159117	0.6083281501962574	n/a	n/a	n/a	n/a
288.76953125	0.2	591400	221	20	2	0	0	35	36	stimuli\Videos_short_600ms\42.single_slap_with_plastic_whisk_short_short_600ms.mp4	42.single_slap_with_plastic_whisk_short_short_600ms.mp4	331.5328000933696	332.14110566356317	0.6083055701935791	n/a	n/a	n/a	n/a
289.56982421875	0.2	593039	222	20	2	0	0	36	285	stimuli\Videos_short_600ms_vertflip\23.single_push_with_a_spoon_short_vertflip_short_600ms.mp4	23.single_push_with_a_spoon_short_vertflip_short_600ms.mp4	332.33275417092227	332.94109258475623	0.6083384138339625	n/a	n/a	n/a	n/a
290.36962890625	0.2	594677	223	20	2	0	0	37	347	stimuli\Videos_short_600ms_vertflip\8.single_touch_with_hairbrush_short_vertflip_short_600ms.mp4	8.single_touch_with_hairbrush_short_vertflip_short_600ms.mp4	333.13277598848344	333.7410824384174	0.6083064499339343	n/a	n/a	n/a	n/a
291.16943359375	0.2	596315	224	20	2	0	0	38	192	stimuli\Videos_short_600ms_horvertflip\20.single_touch_with_screwdriver_short_horvertflip_short_600ms.mp4	20.single_touch_with_screwdriver_short_horvertflip_short_600ms.mp4	333.9327350512317	334.5410705325976	0.6083354813658843	n/a	n/a	n/a	n/a
291.9697265625	0.2	597954	225	20	2	0	0	39	16	stimuli\Videos_short_600ms\24.single_stroke_top_to_bottom_with_a_spoon_short_short_600ms.mp4	24.single_stroke_top_to_bottom_with_a_spoon_short_short_600ms.mp4	334.732753643078	335.3410615592459	0.6083079161678597	n/a	n/a	n/a	n/a
292.76953125	0.2	599592	226	20	2	0	0	40	86	stimuli\Videos_short_600ms\88.repeated_stroke_with_plastic_brush_short_short_600ms.mp4	88.repeated_stroke_with_plastic_brush_short_short_600ms.mp4	335.53270302868214	336.14104408173716	0.6083410530550282	n/a	n/a	n/a	n/a
293.5693359375	0.2	601230	227	20	2	0	0	41	28	stimuli\Videos_short_600ms\35.single_punch_with_hand_short_short_600ms.mp4	35.single_punch_with_hand_short_short_600ms.mp4	336.33307058420905	336.9410362813726	0.6079656971635359	n/a	n/a	n/a	n/a
294.36962890625	0.2	602869	228	20	2	0	0	42	275	stimuli\Videos_short_600ms_vertflip\14.repeated_touch_with_pencil_short_vertflip_short_600ms.mp4	14.repeated_touch_with_pencil_short_vertflip_short_600ms.mp4	337.1327029700328	337.7410117659408	0.6083087959079876	n/a	n/a	n/a	n/a
295.16943359375	0.2	604507	229	20	2	0	0	43	318	stimuli\Videos_short_600ms_vertflip\53.touch_top_to_bottom_with_knife_short_vertflip_short_600ms.mp4	53.touch_top_to_bottom_with_knife_short_vertflip_short_600ms.mp4	337.9326898912259	338.54096320427243	0.6082733130465385	n/a	n/a	n/a	n/a
295.9697265625	0.2	606146	230	20	2	0	0	44	212	stimuli\Videos_short_600ms_horvertflip\39.single_stab_with_scissors_short_horvertflip_short_600ms.mp4	39.single_stab_with_scissors_short_horvertflip_short_600ms.mp4	338.7327515903505	339.34095071195907	0.6081991216085498	n/a	n/a	n/a	n/a
296.76953125	0.2	607784	231	20	2	0	0	45	99	stimuli\Videos_short_600ms_horflip\18.single_stroke_from_top_to_bottom_with_rolling_pin_short_horflip_short_600ms.mp4	18.single_stroke_from_top_to_bottom_with_rolling_pin_short_horflip_short_600ms.mp4	339.53267399724996	340.1409690105588	0.6082950133088616	n/a	n/a	n/a	n/a
297.5693359375	0.2	609422	232	20	2	0	0	46	214	stimuli\Videos_short_600ms_horvertflip\40.repeated_push_with_finger_short_horvertflip_short_600ms.mp4	40.repeated_push_with_finger_short_horvertflip_short_600ms.mp4	340.3326579859752	340.94095270603725	0.6082947200620765	n/a	n/a	n/a	n/a
298.36962890625	0.2	611061	233	20	2	0	0	47	184	stimuli\Videos_short_600ms_horvertflip\13.single_touch_with_pen_short_horvertflip_short_600ms.mp4	13.single_touch_with_pen_short_horvertflip_short_600ms.mp4	341.1326625019756	341.7409425596984	0.6082800577228227	n/a	n/a	n/a	n/a
299.16943359375	0.2	612699	234	20	2	0	0	48	59	stimuli\Videos_short_600ms\63.stroke_top_to_bottom_with_screwdriver_short_short_600ms.mp4	63.stroke_top_to_bottom_with_screwdriver_short_short_600ms.mp4	341.9326324148549	342.5409549933622	0.608322578507341	n/a	n/a	n/a	n/a
299.96923828125	0.2	614337	235	20	2	0	0	49	111	stimuli\Videos_short_600ms_horflip\29.single_pinch_with_tweezers_short_horflip_short_600ms.mp4	29.single_pinch_with_tweezers_short_horflip_short_600ms.mp4	342.73266948124933	343.34091434935704	0.608244868107704	n/a	n/a	n/a	n/a
300.76953125	0.2	615976	236	20	2	0	0	50	290	stimuli\Videos_short_600ms_vertflip\28.single_injection_with_sharp_needle_short_vertflip_short_600ms.mp4	28.single_injection_with_sharp_needle_short_vertflip_short_600ms.mp4	343.5326209195807	344.1409261965275	0.608305276946794	n/a	n/a	n/a	n/a
301.5693359375	0.2	617614	237	20	2	0	0	51	112	stimuli\Videos_short_600ms_horflip\3.single_push_with_finger_short_horflip_short_600ms.mp4	3.single_push_with_finger_short_horflip_short_600ms.mp4	344.3326629711705	344.94090959875916	0.6082466275886418	n/a	n/a	n/a	n/a
302.369140625	0.2	619252	238	20	2	0	0	52	355	stimuli\Videos_short_600ms_vertflip\87.single_stroke_top_to_bottom_with_plastic_brush_short_vertflip_short_600ms.mp4	87.single_stroke_top_to_bottom_with_plastic_brush_short_vertflip_short_600ms.mp4	345.1325818591083	345.74089798618616	0.6083161270778419	n/a	n/a	n/a	n/a
303.16943359375	0.2	620891	239	20	2	0	0	53	271	stimuli\Videos_short_600ms_vertflip\10.single_touch_with_knife_short_vertflip_short_600ms.mp4	10.single_touch_with_knife_short_vertflip_short_600ms.mp4	345.9325875480961	346.5408913588087	0.6083038107126413	n/a	n/a	n/a	n/a
303.96923828125	0.2	622529	240	20	2	0	0	54	74	stimuli\Videos_short_600ms\77.tapping_with_all_fingers_short_short_600ms.mp4	77.tapping_with_all_fingers_short_short_600ms.mp4	346.73254954331196	347.34087329480644	0.6083237514944813	n/a	n/a	n/a	n/a
304.76904296875	0.2	624167	241	20	2	0	0	55	44	stimuli\Videos_short_600ms\5.repeated_tap_with_finger_moving_from_top_to_bottom_short_short_600ms.mp4	5.repeated_tap_with_finger_moving_from_top_to_bottom_short_short_600ms.mp4	347.53251593722985	348.14086168223366	0.6083457450038168	n/a	n/a	n/a	n/a
305.5693359375	0.2	625806	242	20	2	0	0	56	322	stimuli\Videos_short_600ms_vertflip\57.single_touch_with_nail_file_short_vertflip_short_600ms.mp4	57.single_touch_with_nail_file_short_vertflip_short_600ms.mp4	348.33248174465416	348.94085182914137	0.6083700844872055	n/a	n/a	n/a	n/a
306.369140625	0.2	627444	243	20	2	0	0	57	1	stimuli\Videos_short_600ms\10.single_touch_with_knife_short_short_600ms.mp4	10.single_touch_with_knife_short_short_600ms.mp4	349.13248068896564	349.7408375773475	0.6083568883818771	n/a	n/a	n/a	n/a
307.1689453125	0.2	629082	244	20	2	0	0	58	297	stimuli\Videos_short_600ms_vertflip\34.repeated_punch_with_hand_short_vertflip_short_600ms.mp4	34.repeated_punch_with_hand_short_vertflip_short_600ms.mp4	349.9325462002987	350.5408244985406	0.6082782982418848	n/a	n/a	n/a	n/a
307.96923828125	0.2	630721	245	20	2	0	0	59	61	stimuli\Videos_short_600ms\65.stroke_top_to_bottom_with_stanley_knife_short_short_600ms.mp4	65.stroke_top_to_bottom_with_stanley_knife_short_short_600ms.mp4	350.73246596797685	351.34081376570794	0.6083477977310849	n/a	n/a	n/a	n/a
308.76904296875	0.2	632359	246	20	2	0	0	60	264	stimuli\Videos_short_600ms_horvertflip\86.touch_top_to_bottom_with_hair_brush_short_horvertflip_short_600ms.mp4	86.touch_top_to_bottom_with_hair_brush_short_horvertflip_short_600ms.mp4	351.5324616865737	352.14079834092695	0.608336654353252	n/a	n/a	n/a	n/a
309.56884765625	0.2	633997	247	20	2	0	0	61	250	stimuli\Videos_short_600ms_horvertflip\73.single_stroke_with_flat_hand_short_horvertflip_short_600ms.mp4	73.single_stroke_with_flat_hand_short_horvertflip_short_600ms.mp4	352.3324747067311	352.94074919276477	0.6082744860336788	n/a	n/a	n/a	n/a
310.369140625	0.2	635636	248	20	2	0	0	62	165	stimuli\Videos_short_600ms_horflip\78.single_stroke_top_to_bottom_with_soft_brush_short_horflip_short_600ms.mp4	78.single_stroke_top_to_bottom_with_soft_brush_short_horflip_short_600ms.mp4	353.1327484232852	353.7407534155186	0.6080049922334183	n/a	n/a	n/a	n/a
311.1689453125	0.2	637274	249	20	2	0	0	63	279	stimuli\Videos_short_600ms_vertflip\18.single_stroke_from_top_to_bottom_with_rolling_pin_short_vertflip_short_600ms.mp4	18.single_stroke_from_top_to_bottom_with_rolling_pin_short_vertflip_short_600ms.mp4	353.93244825587067	354.54075939775316	0.6083111418824956	n/a	n/a	n/a	n/a
311.96875	0.2	638912	250	20	2	0	0	64	246	stimuli\Videos_short_600ms_horvertflip\7.repeated_touch_with_hairbrush_short_horvertflip_short_600ms.mp4	7.repeated_touch_with_hairbrush_short_horvertflip_short_600ms.mp4	354.73266449605376	355.3407266714114	0.6080621753576452	n/a	n/a	n/a	n/a
312.76904296875	0.2	640551	251	20	2	0	0	65	278	stimuli\Videos_short_600ms_vertflip\17.repeated_touch_with_rolling_pin_short_vertflip_short_600ms.mp4	17.repeated_touch_with_rolling_pin_short_vertflip_short_600ms.mp4	355.53239893176055	356.1407311874118	0.6083322556512485	n/a	n/a	n/a	n/a
313.56884765625	0.2	642189	252	20	2	0	1	66	378	stimuli\Targets_short_600ms_vertflip\brush-stroke_short_horvertflip_short_600ms.mp4	brush-stroke_short_horvertflip_short_600ms.mp4	356.3326057880465	356.9407098976949	0.6081041096483659	n/a	n/a	n/a	n/a
314.369140625	0.2	643828	253	20	2	0	0	67	70	stimuli\Videos_short_600ms\73.single_stroke_with_flat_hand_short_short_600ms.mp4	73.single_stroke_with_flat_hand_short_short_600ms.mp4	357.1324079637616	357.7407252638268	0.6083173000652096	n/a	n/a	n/a	n/a
315.1689453125	0.2	645466	254	20	2	0	0	68	205	stimuli\Videos_short_600ms_horvertflip\32.single_(long)pinch_with_fingers_short_horvertflip_short_600ms.mp4	32.single_(long)pinch_with_fingers_short_horvertflip_short_600ms.mp4	357.93237699690053	358.540700748395	0.6083237514944813	n/a	n/a	n/a	n/a
315.96875	0.2	647104	255	20	2	0	0	69	350	stimuli\Videos_short_600ms_vertflip\82.repeated_touch_with_cotton_bud_short_vertflip_short_600ms.mp4	82.repeated_touch_with_cotton_bud_short_vertflip_short_600ms.mp4	358.73238591160293	359.3406897223158	0.6083038107128687	n/a	n/a	n/a	n/a
316.76904296875	0.2	648743	256	20	2	0	1	70	372	stimuli\Targets_short_600ms_horvertflip\brush-stroke_short_vertflip_short_600ms.mp4	brush-stroke_short_vertflip_short_600ms.mp4	359.5323737125366	360.14067928272993	0.6083055701933517	n/a	n/a	n/a	n/a
317.56884765625	0.2	650381	257	20	2	0	0	71	146	stimuli\Videos_short_600ms_horflip\60.single_push_with_tip_of_pencil_short_horflip_short_600ms.mp4	60.single_push_with_tip_of_pencil_short_horflip_short_600ms.mp4	360.33235476879395	360.94066561742966	0.6083108486357105	n/a	n/a	n/a	n/a
318.36865234375	0.2	652019	258	20	2	0	0	72	262	stimuli\Videos_short_600ms_horvertflip\84.single_touch_with_cotton_bud_short_horvertflip_short_600ms.mp4	84.single_touch_with_cotton_bud_short_horvertflip_short_600ms.mp4	361.1322988759557	361.7406554710906	0.6083565951348646	n/a	n/a	n/a	n/a
319.1689453125	0.2	653658	259	20	2	0	1	73	367	stimuli\Targets_short_600ms_horflip\chopstick-silver-tap_short_horflip_short_600ms.mp4	chopstick-silver-tap_short_horflip_short_600ms.mp4	361.93233183689495	362.5406420990371	0.6083102621421403	n/a	n/a	n/a	n/a
319.96875	0.2	655296	260	20	2	0	0	74	68	stimuli\Videos_short_600ms\71.single_stroke_with_finger_top_to_bottom_short_short_600ms.mp4	71.single_stroke_with_finger_top_to_bottom_short_short_600ms.mp4	362.7324354703105	363.34062931347694	0.6081938431664184	n/a	n/a	n/a	n/a
320.7685546875	0.2	656934	261	20	2	0	0	75	22	stimuli\Videos_short_600ms\3.single_push_with_finger_short_short_600ms.mp4	3.single_push_with_finger_short_short_600ms.mp4	363.5326176938661	364.14061359544894	0.6079959015828535	n/a	n/a	n/a	n/a
321.56884765625	0.2	658573	262	20	2	0	0	76	131	stimuli\Videos_short_600ms_horflip\47.(long)scratching_with_finger_nails_short_horflip_short_600ms.mp4	47.(long)scratching_with_finger_nails_short_horflip_short_600ms.mp4	364.33231342099634	364.9406046220972	0.608291201100883	n/a	n/a	n/a	n/a
322.36865234375	0.2	660211	263	20	2	0	0	77	321	stimuli\Videos_short_600ms_vertflip\56.repeated_touch_with_nail_file_short_vertflip_short_600ms.mp4	56.repeated_touch_with_nail_file_short_vertflip_short_600ms.mp4	365.1322170601011	365.7405903703031	0.6083733102020688	n/a	n/a	n/a	n/a
323.16845703125	0.2	661849	264	20	2	0	0	78	183	stimuli\Videos_short_600ms_horvertflip\12.repeated_touch_with_nail_file_short_horvertflip_short_600ms.mp4	12.repeated_touch_with_nail_file_short_horvertflip_short_600ms.mp4	365.93226351039266	366.54055647097425	0.6082929605815934	n/a	n/a	n/a	n/a
323.96875	0.2	663488	265	20	2	0	0	79	247	stimuli\Videos_short_600ms_horvertflip\70.(long)stroke_with_finger_all_over_the_hand_short_horvertflip_short_600ms.mp4	70.(long)stroke_with_finger_all_over_the_hand_short_horvertflip_short_600ms.mp4	366.7323026295146	367.3405627464556	0.6082601169409827	n/a	n/a	n/a	n/a
324.7685546875	0.2	665126	266	20	2	0	0	80	96	stimuli\Videos_short_600ms_horflip\15.single_stroke_top_to_bottom_with_a_plastic_whisk_short_horflip_short_600ms.mp4	15.single_stroke_top_to_bottom_with_a_plastic_whisk_short_horflip_short_600ms.mp4	367.5322320743369	368.14055611907816	0.6083240447412663	n/a	n/a	n/a	n/a
325.568359375	0.2	666764	267	20	2	0	0	81	157	stimuli\Videos_short_600ms_horflip\70.(long)stroke_with_finger_all_over_the_hand_short_horflip_short_600ms.mp4	70.(long)stroke_with_finger_all_over_the_hand_short_horflip_short_600ms.mp4	368.3321732490306	368.9404975870186	0.6083243379880514	n/a	n/a	n/a	n/a
326.36865234375	0.2	668403	268	20	2	0	0	82	38	stimuli\Videos_short_600ms\44.pushing_top_to_bottom_with_finger_short_short_600ms.mp4	44.pushing_top_to_bottom_with_finger_short_short_600ms.mp4	369.1322038639955	369.7405053287339	0.6083014647383607	n/a	n/a	n/a	n/a
327.16845703125	0.2	670041	269	20	2	0	0	83	35	stimuli\Videos_short_600ms\41.injection_with_blunt_syringe_short_short_600ms.mp4	41.injection_with_blunt_syringe_short_short_600ms.mp4	369.932191958176	370.54047377537927	0.6082818172033058	n/a	n/a	n/a	n/a
327.96826171875	0.2	671679	270	20	2	0	0	84	240	stimuli\Videos_short_600ms_horvertflip\64.repeated_touch_with_screwdriver_short_horvertflip_short_600ms.mp4	64.repeated_touch_with_screwdriver_short_horvertflip_short_600ms.mp4	370.73221113651607	371.34051201476086	0.6083008782447905	n/a	n/a	n/a	n/a
328.7685546875	0.2	673318	271	20	2	0	0	85	45	stimuli\Videos_short_600ms\50.single_(long)hard_push_with_thumb_short_short_600ms.mp4	50.single_(long)hard_push_with_thumb_short_short_600ms.mp4	371.53218574134394	372.1404710775089	0.6082853361649541	n/a	n/a	n/a	n/a
329.568359375	0.2	674956	272	20	2	0	0	86	251	stimuli\Videos_short_600ms_horvertflip\74.fingers_walking_from_top_to_bottom_short_horvertflip_short_600ms.mp4	74.fingers_walking_from_top_to_bottom_short_horvertflip_short_600ms.mp4	372.3321556542232	372.94048468415986	0.6083290299366126	n/a	n/a	n/a	n/a
330.3681640625	0.2	676594	273	20	2	0	0	87	89	stimuli\Videos_short_600ms\90.repeated_touch_with_sponge_short_short_600ms.mp4	90.repeated_touch_with_sponge_short_short_600ms.mp4	373.132156944509	373.7404762973017	0.6083193527927051	n/a	n/a	n/a	n/a
331.16845703125	0.2	678233	274	20	2	0	1	88	361	stimuli\Targets_short_600ms\chopstick-silver-tap_short_short_600ms.mp4	chopstick-silver-tap_short_short_600ms.mp4	373.9322632171459	374.5404418114792	0.6081785943333671	n/a	n/a	n/a	n/a
331.96826171875	0.2	679871	275	20	2	0	0	89	18	stimuli\Videos_short_600ms\26.single_touch_with_a_blunt_syringe_short_short_600ms.mp4	26.single_touch_with_a_blunt_syringe_short_short_600ms.mp4	374.732117297543	375.340434890855	0.6083175933119946	n/a	n/a	n/a	n/a
332.76806640625	0.2	681509	276	20	2	0	0	90	144	stimuli\Videos_short_600ms_horflip\59.single_push_with_long_side_pencil_short_horflip_short_600ms.mp4	59.single_push_with_long_side_pencil_short_horflip_short_600ms.mp4	375.5320980605536	376.1404323689326	0.6083343083789714	n/a	n/a	n/a	n/a
333.568359375	0.2	683148	277	20	2	0	0	91	62	stimuli\Videos_short_600ms\66.stroke_top_to_bottom_with_sponge_short_short_600ms.mp4	66.stroke_top_to_bottom_with_sponge_short_short_600ms.mp4	376.3321527217554	376.9404204631128	0.6082677413573947	n/a	n/a	n/a	n/a
334.3681640625	0.2	684786	278	20	2	0	0	92	4	stimuli\Videos_short_600ms\13.single_touch_with_pen_short_short_600ms.mp4	13.single_touch_with_pen_short_short_600ms.mp4	377.13208656527945	377.7404085572932	0.6083219920137708	n/a	n/a	n/a	n/a
335.16845703125	0.2	686425	279	20	2	0	0	93	91	stimuli\Videos_short_600ms_horflip\10.single_touch_with_knife_short_horflip_short_600ms.mp4	10.single_touch_with_knife_short_horflip_short_600ms.mp4	377.93204856049533	378.5403954784863	0.6083469179909571	n/a	n/a	n/a	n/a
335.96826171875	0.2	688063	280	20	2	0	0	94	80	stimuli\Videos_short_600ms\82.repeated_touch_with_cotton_bud_short_short_600ms.mp4	82.repeated_touch_with_cotton_bud_short_short_600ms.mp4	378.73207976195386	379.34038239967936	0.608302637725501	n/a	n/a	n/a	n/a
336.76806640625	0.2	689701	281	20	2	0	0	95	301	stimuli\Videos_short_600ms_vertflip\38.double_slap_with_pencil_short_vertflip_short_600ms.mp4	38.double_slap_with_pencil_short_vertflip_short_600ms.mp4	379.5320487950928	380.1403699073662	0.6083211122734156	n/a	n/a	n/a	n/a
337.568359375	0.2	691340	282	20	2	0	0	96	224	stimuli\Videos_short_600ms_horvertflip\5.repeated_tap_with_finger_moving_from_top_to_bottom_short_horvertflip_short_600ms.mp4	5.repeated_tap_with_finger_moving_from_top_to_bottom_short_horvertflip_short_600ms.mp4	380.33221078461975	380.9403588812868	0.608148096667037	n/a	n/a	n/a	n/a
338.3681640625	0.2	692978	283	20	2	0	0	97	101	stimuli\Videos_short_600ms_horflip\2.single_touch_with_finger_short_horflip_short_600ms.mp4	2.single_touch_with_finger_short_horflip_short_600ms.mp4	381.13203554033794	381.7403452159865	0.6083096756485702	8.0	8.0	2.5582492228224964	1.0
375.90869140625	0.2	769861	284	20	3	0	0	0	342	stimuli\Videos_short_600ms_vertflip\75.(long)stroke_with_fingers_all_over_the_hand_short_vertflip_short_600ms.mp4	75.(long)stroke_with_fingers_all_over_the_hand_short_vertflip_short_600ms.mp4	418.67308906462176	419.2814324636513	0.6083433990295362	n/a	n/a	n/a	n/a
376.70849609375	0.2	771499	285	20	3	0	0	1	302	stimuli\Videos_short_600ms_vertflip\39.single_stab_with_scissors_short_vertflip_short_600ms.mp4	39.single_stab_with_scissors_short_vertflip_short_600ms.mp4	419.473122025561	420.0814179186104	0.6082958930494442	n/a	n/a	n/a	n/a
377.50830078125	0.2	773137	286	20	3	0	0	2	300	stimuli\Videos_short_600ms_vertflip\37.single_stab_with_nail_file_short_vertflip_short_600ms.mp4	37.single_stab_with_nail_file_short_vertflip_short_600ms.mp4	420.27306261376134	420.8814068925312	0.6083442787698914	n/a	n/a	n/a	n/a
378.30859375	0.2	774776	287	20	3	0	0	3	351	stimuli\Videos_short_600ms_vertflip\83.single_stroke_top_to_bottom_with_cotton_bud_short_vertflip_short_600ms.mp4	83.single_stroke_top_to_bottom_with_cotton_bud_short_vertflip_short_600ms.mp4	421.073029300926	421.6813958664518	0.6083665655257846	n/a	n/a	n/a	n/a
379.1083984375	0.2	776414	288	20	3	0	0	4	87	stimuli\Videos_short_600ms\89.single_touch_with_plastic_brush_short_short_600ms.mp4	89.single_touch_with_plastic_brush_short_short_600ms.mp4	421.8730147558851	422.4813816146577	0.6083668587725697	n/a	n/a	n/a	n/a
379.90869140625	0.2	778053	289	20	3	0	0	5	142	stimuli\Videos_short_600ms_horflip\57.single_touch_with_nail_file_short_horflip_short_600ms.mp4	57.single_touch_with_nail_file_short_horflip_short_600ms.mp4	422.67302543006826	423.2813444896142	0.60831905954592	n/a	n/a	n/a	n/a
380.70849609375	0.2	779691	290	20	3	0	0	6	314	stimuli\Videos_short_600ms_vertflip\5.repeated_tap_with_finger_moving_from_top_to_bottom_short_vertflip_short_600ms.mp4	5.repeated_tap_with_finger_moving_from_top_to_bottom_short_vertflip_short_600ms.mp4	423.47301616346977	424.08131880119527	0.608302637725501	n/a	n/a	n/a	n/a
381.50830078125	0.2	781329	291	20	3	0	0	7	161	stimuli\Videos_short_600ms_horflip\74.fingers_walking_from_top_to_bottom_short_horflip_short_600ms.mp4	74.fingers_walking_from_top_to_bottom_short_horflip_short_600ms.mp4	424.2730145212877	424.8812989777123	0.6082844564245988	n/a	n/a	n/a	n/a
382.30859375	0.2	782968	292	20	3	0	0	8	242	stimuli\Videos_short_600ms_horvertflip\66.stroke_top_to_bottom_with_sponge_short_horvertflip_short_600ms.mp4	66.stroke_top_to_bottom_with_sponge_short_horvertflip_short_600ms.mp4	425.0730788596336	425.6812867786457	0.6082079190121021	n/a	n/a	n/a	n/a
383.1083984375	0.2	784606	293	20	3	0	0	9	6	stimuli\Videos_short_600ms\15.single_stroke_top_to_bottom_with_a_plastic_whisk_short_short_600ms.mp4	15.single_stroke_top_to_bottom_with_a_plastic_whisk_short_short_600ms.mp4	425.8730379223816	426.4812760458133	0.6082381234316472	n/a	n/a	n/a	n/a
383.908203125	0.2	786244	294	20	3	0	1	10	382	stimuli\Targets_short_600ms_vertflip\hand-pinch_short_horvertflip_short_600ms.mp4	hand-pinch_short_horvertflip_short_600ms.mp4	426.6729858417516	427.2812972768809	0.6083114351292807	n/a	n/a	n/a	n/a
384.70849609375	0.2	787883	295	20	3	0	0	11	335	stimuli\Videos_short_600ms_vertflip\69.stroke_with_soft_sock_short_vertflip_short_600ms.mp4	69.stroke_with_soft_sock_short_vertflip_short_600ms.mp4	427.4729516491759	428.0812833183336	0.6083316691576783	n/a	n/a	n/a	n/a
385.50830078125	0.2	789521	296	20	3	0	1	12	368	stimuli\Targets_short_600ms_horflip\chopstickwood-tap_short_horflip_short_600ms.mp4	chopstickwood-tap_short_horflip_short_600ms.mp4	428.2729890088169	428.88128871407457	0.6082997052576502	n/a	n/a	n/a	n/a
386.30810546875	0.2	791159	297	20	3	0	0	13	141	stimuli\Videos_short_600ms_horflip\56.repeated_touch_with_nail_file_short_horflip_short_600ms.mp4	56.repeated_touch_with_nail_file_short_horflip_short_600ms.mp4	429.0729468985778	429.6812773947486	0.6083304961707654	n/a	n/a	n/a	n/a
387.1083984375	0.2	792798	298	20	3	0	0	14	252	stimuli\Videos_short_600ms_horvertflip\75.(long)stroke_with_fingers_all_over_the_hand_short_horvertflip_short_600ms.mp4	75.(long)stroke_with_fingers_all_over_the_hand_short_horvertflip_short_600ms.mp4	429.87331269462425	430.4812572780188	0.6079445833945556	n/a	n/a	n/a	n/a
387.908203125	0.2	794436	299	20	3	0	0	15	317	stimuli\Videos_short_600ms_vertflip\52.touch_top_to_bottom_with_hammer_short_vertflip_short_600ms.mp4	52.touch_top_to_bottom_with_hammer_short_vertflip_short_600ms.mp4	430.6730406789013	431.2812441992118	0.6082035203105534	n/a	n/a	n/a	n/a
388.7080078125	0.2	796074	300	20	3	0	0	16	229	stimuli\Videos_short_600ms_horvertflip\54.repeated_touch_with_knife_short_horvertflip_short_600ms.mp4	54.repeated_touch_with_knife_short_horvertflip_short_600ms.mp4	431.47292642995194	432.0812331731324	0.608306743180492	n/a	n/a	n/a	n/a
389.50830078125	0.2	797713	301	20	3	0	0	17	282	stimuli\Videos_short_600ms_vertflip\20.single_touch_with_screwdriver_short_vertflip_short_600ms.mp4	20.single_touch_with_screwdriver_short_vertflip_short_600ms.mp4	432.27289839555874	432.88121804159823	0.6083196460394902	n/a	n/a	n/a	n/a
390.30810546875	0.2	799351	302	20	3	0	0	18	235	stimuli\Videos_short_600ms_horvertflip\6.single_touch_with_flat_hand_short_horvertflip_short_600ms.mp4	6.single_touch_with_flat_hand_short_horvertflip_short_600ms.mp4	433.0728853167518	433.6812064290252	0.6083211122734156	n/a	n/a	n/a	n/a
391.10791015625	0.2	800989	303	20	3	0	0	19	168	stimuli\Videos_short_600ms_horflip\80.stroke_with_sharp_stick_all_over_the_hand_short_horflip_short_600ms.mp4	80.stroke_with_sharp_stick_all_over_the_hand_short_horflip_short_600ms.mp4	433.8728616810606	434.4811936434653	0.6083319624046908	n/a	n/a	n/a	n/a
391.908203125	0.2	802628	304	20	3	0	0	20	328	stimuli\Videos_short_600ms_vertflip\62.touch_top_to_bottom_with_scissors_short_vertflip_short_600ms.mp4	62.touch_top_to_bottom_with_scissors_short_vertflip_short_600ms.mp4	434.67324800438223	435.2811840836198	0.607936079237561	n/a	n/a	n/a	n/a
392.7080078125	0.2	804266	305	20	3	0	1	21	371	stimuli\Targets_short_600ms_horflip\hand-stroke_short_horflip_short_600ms.mp4	hand-stroke_short_horflip_short_600ms.mp4	435.4728859618949	436.0811712980598	0.6082853361649541	n/a	n/a	n/a	n/a
393.5078125	0.2	805904	306	20	3	0	0	22	77	stimuli\Videos_short_600ms\8.single_touch_with_hairbrush_short_short_600ms.mp4	8.single_touch_with_hairbrush_short_short_600ms.mp4	436.2727910672336	436.88115792600615	0.6083668587725697	n/a	n/a	n/a	n/a
394.30810546875	0.2	807543	307	20	3	0	0	23	125	stimuli\Videos_short_600ms_horflip\41.injection_with_blunt_syringe_short_horflip_short_600ms.mp4	41.injection_with_blunt_syringe_short_horflip_short_600ms.mp4	437.0728002751828	437.68114396745887	0.6083436922760939	n/a	n/a	n/a	n/a
395.10791015625	0.2	809181	308	20	3	0	0	24	46	stimuli\Videos_short_600ms\51.repeated_touch_with_hammer_short_short_600ms.mp4	51.repeated_touch_with_hammer_short_short_600ms.mp4	437.8728370483302	438.48110625592176	0.6082692075915475	n/a	n/a	n/a	n/a
395.90771484375	0.2	810819	309	20	3	0	0	25	197	stimuli\Videos_short_600ms_horvertflip\25.single_touch_with_stanley_knife_short_horvertflip_short_600ms.mp4	25.single_touch_with_stanley_knife_short_horvertflip_short_600ms.mp4	438.67283130069313	439.28110109477825	0.6082697940851176	n/a	n/a	n/a	n/a
396.7080078125	0.2	812458	310	20	3	0	0	26	65	stimuli\Videos_short_600ms\69.stroke_with_soft_sock_short_short_600ms.mp4	69.stroke_with_soft_sock_short_short_600ms.mp4	439.47279094993473	440.08106103726664	0.6082700873319027	n/a	n/a	n/a	n/a
397.5078125	0.2	814096	311	20	3	0	0	27	107	stimuli\Videos_short_600ms_horflip\25.single_touch_with_stanley_knife_short_horflip_short_600ms.mp4	25.single_touch_with_stanley_knife_short_horflip_short_600ms.mp4	440.272773472426	440.881074057424	0.6083005849980054	n/a	n/a	n/a	n/a
398.3076171875	0.2	815734	312	20	3	0	1	28	363	stimuli\Targets_short_600ms\finger-tap_short_short_600ms.mp4	finger-tap_short_short_600ms.mp4	441.0727744694652	441.6810383986144	0.6082639291491887	n/a	n/a	n/a	n/a
399.10791015625	0.2	817373	313	20	3	0	0	29	53	stimuli\Videos_short_600ms\58.single_slap_with_pencil_short_short_600ms.mp4	58.single_slap_with_pencil_short_short_600ms.mp4	441.8733258907298	442.481072239294	0.6077463485642056	n/a	n/a	n/a	n/a
399.90771484375	0.2	819011	314	20	3	0	0	30	284	stimuli\Videos_short_600ms_vertflip\22.single_touch_with_metal_chopstick_short_vertflip_short_600ms.mp4	22.single_touch_with_metal_chopstick_short_vertflip_short_600ms.mp4	442.6732022578829	443.2810588672403	0.6078566093574409	n/a	n/a	n/a	n/a
400.7080078125	0.2	820650	315	20	3	0	0	31	137	stimuli\Videos_short_600ms_horflip\52.touch_top_to_bottom_with_hammer_short_horflip_short_600ms.mp4	52.touch_top_to_bottom_with_hammer_short_horflip_short_600ms.mp4	443.47274960213736	444.0810478411611	0.6082982390237248	n/a	n/a	n/a	n/a
401.5078125	0.2	822288	316	20	3	0	0	32	41	stimuli\Videos_short_600ms\47.(long)scratching_with_finger_nails_short_short_600ms.mp4	47.(long)scratching_with_finger_nails_short_short_600ms.mp4	444.2727118906	444.8810397475497	0.6083278569496997	n/a	n/a	n/a	n/a
402.3076171875	0.2	823926	317	20	3	0	0	33	316	stimuli\Videos_short_600ms_vertflip\51.repeated_touch_with_hammer_short_vertflip_short_600ms.mp4	51.repeated_touch_with_hammer_short_vertflip_short_600ms.mp4	445.0728944074024	445.6810210970536	0.6081266896512716	n/a	n/a	n/a	n/a
403.10791015625	0.2	825565	318	20	3	0	1	34	374	stimuli\Targets_short_600ms_horvertflip\chopstickwood-tap_short_vertflip_short_600ms.mp4	chopstickwood-tap_short_vertflip_short_600ms.mp4	445.8727830909209	446.4810100709744	0.6082269800535869	n/a	n/a	n/a	n/a
403.90771484375	0.2	827203	319	20	3	0	0	35	200	stimuli\Videos_short_600ms_horvertflip\28.single_injection_with_sharp_needle_short_horvertflip_short_600ms.mp4	28.single_injection_with_sharp_needle_short_horvertflip_short_600ms.mp4	446.6726591648271	447.2809952326868	0.6083360678596819	n/a	n/a	n/a	n/a
404.70751953125	0.2	828841	320	20	3	0	0	36	129	stimuli\Videos_short_600ms_horflip\45.scratching_with_finger_nails_short_horflip_short_600ms.mp4	45.scratching_with_finger_nails_short_horflip_short_600ms.mp4	447.47266338758095	448.08098244712687	0.60831905954592	n/a	n/a	n/a	n/a
405.5078125	0.2	830480	321	20	3	0	0	37	134	stimuli\Videos_short_600ms_horflip\5.repeated_tap_with_finger_moving_from_top_to_bottom_short_horflip_short_600ms.mp4	5.repeated_tap_with_finger_moving_from_top_to_bottom_short_horflip_short_600ms.mp4	448.27268432540177	448.8809696615667	0.6082853361649541	n/a	n/a	n/a	n/a
406.3076171875	0.2	832118	322	20	3	0	0	38	248	stimuli\Videos_short_600ms_horvertflip\71.single_stroke_with_finger_top_to_bottom_short_horvertflip_short_600ms.mp4	71.single_stroke_with_finger_top_to_bottom_short_horvertflip_short_600ms.mp4	449.07260526606706	449.6809586354875	0.6083533694204561	n/a	n/a	n/a	n/a
407.107421875	0.2	833756	323	20	3	0	0	39	60	stimuli\Videos_short_600ms\64.repeated_touch_with_screwdriver_short_short_600ms.mp4	64.repeated_touch_with_screwdriver_short_short_600ms.mp4	449.87257752492087	450.4809435039531	0.6083659790322145	n/a	n/a	n/a	n/a
407.90771484375	0.2	835395	324	20	3	0	0	40	0	stimuli\Videos_short_600ms\1.repeated_touch_with_finger_fast_short_short_600ms.mp4	1.repeated_touch_with_finger_fast_short_short_600ms.mp4	450.6726351185903	451.2809330643672	0.6082979457769397	n/a	n/a	n/a	n/a
408.70751953125	0.2	837033	325	20	3	0	0	41	9	stimuli\Videos_short_600ms\18.single_stroke_from_top_to_bottom_with_rolling_pin_short_short_600ms.mp4	18.single_stroke_from_top_to_bottom_with_rolling_pin_short_short_600ms.mp4	451.4726023922485	452.0809185193266	0.6083161270780693	n/a	n/a	n/a	n/a
409.50732421875	0.2	838671	326	20	3	0	1	42	375	stimuli\Targets_short_600ms_horvertflip\finger-tap_short_vertflip_short_600ms.mp4	finger-tap_short_vertflip_short_600ms.mp4	452.2725599887626	452.88088696597174	0.6083269772091171	n/a	n/a	n/a	n/a
410.3076171875	0.2	840310	327	20	3	0	0	43	277	stimuli\Videos_short_600ms_vertflip\16.repeated_touch_with_plastic_brush_short_vertflip_short_600ms.mp4	16.repeated_touch_with_plastic_brush_short_vertflip_short_600ms.mp4	453.07256039930826	453.68090027937615	0.6083398800678879	n/a	n/a	n/a	n/a
411.107421875	0.2	841948	328	20	3	0	0	44	206	stimuli\Videos_short_600ms_horvertflip\33.scratch_top_to_bottom_with_scissors_short_horvertflip_short_600ms.mp4	33.scratch_top_to_bottom_with_scissors_short_horvertflip_short_600ms.mp4	453.872574299206	454.4808854410885	0.6083111418824956	n/a	n/a	n/a	n/a
411.9072265625	0.2	843586	329	20	3	0	0	45	32	stimuli\Videos_short_600ms\39.single_stab_with_scissors_short_short_600ms.mp4	39.single_stab_with_scissors_short_short_600ms.mp4	454.67254333234496	455.2808245630549	0.608281230709963	n/a	n/a	n/a	n/a
412.70751953125	0.2	845225	330	20	3	0	0	46	164	stimuli\Videos_short_600ms_horflip\77.tapping_with_all_fingers_short_horflip_short_600ms.mp4	77.tapping_with_all_fingers_short_horflip_short_600ms.mp4	455.4725026883398	456.08082233437926	0.6083196460394902	n/a	n/a	n/a	n/a
413.50732421875	0.2	846863	331	20	3	0	0	47	241	stimuli\Videos_short_600ms_horvertflip\65.stroke_top_to_bottom_with_stanley_knife_short_horvertflip_short_600ms.mp4	65.stroke_top_to_bottom_with_stanley_knife_short_horvertflip_short_600ms.mp4	456.27252538564153	456.880820985444	0.6082955998024318	n/a	n/a	n/a	n/a
414.30712890625	0.2	848501	332	20	3	0	0	48	330	stimuli\Videos_short_600ms_vertflip\64.repeated_touch_with_screwdriver_short_vertflip_short_600ms.mp4	64.repeated_touch_with_screwdriver_short_vertflip_short_600ms.mp4	457.0724630413738	457.68083664482265	0.6083736034488538	n/a	n/a	n/a	n/a
415.107421875	0.2	850140	333	20	3	0	0	49	287	stimuli\Videos_short_600ms_vertflip\25.single_touch_with_stanley_knife_short_vertflip_short_600ms.mp4	25.single_touch_with_stanley_knife_short_vertflip_short_600ms.mp4	457.8724857386753	458.4808018657534	0.6083161270780693	n/a	n/a	n/a	n/a
415.9072265625	0.2	851778	334	20	3	0	0	50	307	stimuli\Videos_short_600ms_vertflip\43.touch_top_to_bottom_with_sharp_wooden_stick_short_vertflip_short_600ms.mp4	43.touch_top_to_bottom_with_sharp_wooden_stick_short_vertflip_short_600ms.mp4	458.6724823370125	459.2808166453915	0.6083343083789714	n/a	n/a	n/a	n/a
416.70703125	0.2	853416	335	20	3	0	0	51	327	stimuli\Videos_short_600ms_vertflip\61.single_hit_with_rolling_pin_short_vertflip_short_600ms.mp4	61.single_hit_with_rolling_pin_short_vertflip_short_600ms.mp4	459.47251383171783	460.08080620580586	0.6082923740880233	n/a	n/a	n/a	n/a
417.50732421875	0.2	855055	336	20	3	0	1	52	370	stimuli\Targets_short_600ms_horflip\hand-pinch_short_horflip_short_600ms.mp4	hand-pinch_short_horflip_short_600ms.mp4	460.272499579924	460.880783156608	0.6082835766840162	n/a	n/a	n/a	n/a
418.30712890625	0.2	856693	337	20	3	0	0	53	186	stimuli\Videos_short_600ms_horvertflip\15.single_stroke_top_to_bottom_with_a_plastic_whisk_short_horvertflip_short_600ms.mp4	15.single_stroke_top_to_bottom_with_a_plastic_whisk_short_horvertflip_short_600ms.mp4	461.0725126000814	461.6807697845545	0.6082571844731319	n/a	n/a	n/a	n/a
419.107421875	0.2	858332	338	20	3	0	0	54	7	stimuli\Videos_short_600ms\16.repeated_touch_with_plastic_brush_short_short_600ms.mp4	16.repeated_touch_with_plastic_brush_short_short_600ms.mp4	461.8724130134715	462.48076139769614	0.6083483842246551	n/a	n/a	n/a	n/a
419.9072265625	0.2	859970	339	20	3	0	0	55	97	stimuli\Videos_short_600ms_horflip\16.repeated_touch_with_plastic_brush_short_horflip_short_600ms.mp4	16.repeated_touch_with_plastic_brush_short_horflip_short_600ms.mp4	462.67242867284995	463.2807486121362	0.6083199392862753	n/a	n/a	n/a	n/a
420.70703125	0.2	861608	340	20	3	0	0	56	311	stimuli\Videos_short_600ms_vertflip\47.(long)scratching_with_finger_nails_short_vertflip_short_600ms.mp4	47.(long)scratching_with_finger_nails_short_vertflip_short_600ms.mp4	463.4723801111816	464.0807311346275	0.6083510234459482	n/a	n/a	n/a	n/a
421.50732421875	0.2	863247	341	20	3	0	1	57	376	stimuli\Targets_short_600ms_horvertflip\hand-pinch_short_vertflip_short_600ms.mp4	hand-pinch_short_vertflip_short_600ms.mp4	464.27238081497376	464.8807212815352	0.608340466561458	n/a	n/a	n/a	n/a
422.30712890625	0.2	864885	342	20	3	0	0	58	83	stimuli\Videos_short_600ms\85.touch_top_to_bottom_with_fabric_short_short_600ms.mp4	85.touch_top_to_bottom_with_fabric_short_short_600ms.mp4	465.07240673799015	465.6807099622092	0.6083032242190711	n/a	n/a	n/a	n/a
423.10693359375	0.2	866523	343	20	3	0	0	59	15	stimuli\Videos_short_600ms\23.single_push_with_a_spoon_short_short_600ms.mp4	23.single_push_with_a_spoon_short_short_600ms.mp4	465.8724097877566	466.48069571041515	0.6082859226585242	n/a	n/a	n/a	n/a
423.9072265625	0.2	868162	344	20	3	0	0	60	283	stimuli\Videos_short_600ms_vertflip\21.repeated_touch_with_metal_chopstick_short_vertflip_short_600ms.mp4	21.repeated_touch_with_metal_chopstick_short_vertflip_short_600ms.mp4	466.6723187053035	467.2806820451149	0.6083633398113761	n/a	n/a	n/a	n/a
424.70703125	0.2	869800	345	20	3	0	0	61	208	stimuli\Videos_short_600ms_horvertflip\35.single_punch_with_hand_short_horvertflip_short_600ms.mp4	35.single_punch_with_hand_short_horvertflip_short_600ms.mp4	467.4723059197436	468.0806713122822	0.6083653925386443	n/a	n/a	n/a	n/a
425.5068359375	0.2	871438	346	20	3	0	0	62	348	stimuli\Videos_short_600ms_vertflip\80.stroke_with_sharp_stick_all_over_the_hand_short_vertflip_short_600ms.mp4	80.stroke_with_sharp_stick_all_over_the_hand_short_vertflip_short_600ms.mp4	468.2723224588626	468.880655887501	0.6083334286383888	n/a	n/a	n/a	n/a
426.30712890625	0.2	873077	347	20	3	0	0	63	20	stimuli\Videos_short_600ms\28.single_injection_with_sharp_needle_short_short_600ms.mp4	28.single_injection_with_sharp_needle_short_short_600ms.mp4	469.0723023421326	469.6806480871364	0.6083457450038168	n/a	n/a	n/a	n/a
427.10693359375	0.2	874715	348	20	3	0	0	64	104	stimuli\Videos_short_600ms_horflip\22.single_touch_with_metal_chopstick_short_horflip_short_600ms.mp4	22.single_touch_with_metal_chopstick_short_horflip_short_600ms.mp4	469.8723121365756	470.48061213508	0.6082999985044353	n/a	n/a	n/a	n/a
427.90673828125	0.2	876353	349	20	3	0	0	65	226	stimuli\Videos_short_600ms_horvertflip\51.repeated_touch_with_hammer_short_horvertflip_short_600ms.mp4	51.repeated_touch_with_hammer_short_horvertflip_short_600ms.mp4	470.67227882374	471.280596417052	0.6083175933119946	n/a	n/a	n/a	n/a
428.70703125	0.2	877992	350	20	3	0	0	66	343	stimuli\Videos_short_600ms_vertflip\76.tickle_with_fingers_from_top_to_bottom_short_vertflip_short_600ms.mp4	76.tickle_with_fingers_from_top_to_bottom_short_vertflip_short_600ms.mp4	471.4722739558433	472.08056193122934	0.6082879753860198	n/a	n/a	n/a	n/a
429.5068359375	0.2	879630	351	20	3	0	1	67	369	stimuli\Targets_short_600ms_horflip\finger-tap_short_horflip_short_600ms.mp4	finger-tap_short_horflip_short_600ms.mp4	472.27227260690825	472.8806013435981	0.6083287366898276	n/a	n/a	n/a	n/a
430.306640625	0.2	881268	352	20	3	0	0	68	166	stimuli\Videos_short_600ms_horflip\79.long_with_soft_brush_all_over_the_hand_short_horflip_short_600ms.mp4	79.long_with_soft_brush_all_over_the_hand_short_horflip_short_600ms.mp4	473.0723964743525	473.68056363206074	0.6081671577082943	n/a	n/a	n/a	n/a
431.10693359375	0.2	882907	353	20	3	0	0	69	85	stimuli\Videos_short_600ms\87.single_stroke_top_to_bottom_with_plastic_brush_short_short_600ms.mp4	87.single_stroke_top_to_bottom_with_plastic_brush_short_short_600ms.mp4	473.872268149557	474.4805831036476	0.6083149540907016	n/a	n/a	n/a	n/a
431.90673828125	0.2	884545	354	20	3	0	0	70	249	stimuli\Videos_short_600ms_horvertflip\72.(short)stroke_with_finger_all_over_the_hand_short_horvertflip_short_600ms.mp4	72.(short)stroke_with_finger_all_over_the_hand_short_horvertflip_short_600ms.mp4	474.67221313645905	475.28056914510057	0.6083560086415218	n/a	n/a	n/a	n/a
432.70654296875	0.2	886183	355	20	3	0	0	71	152	stimuli\Videos_short_600ms_horflip\66.stroke_top_to_bottom_with_sponge_short_horflip_short_600ms.mp4	66.stroke_top_to_bottom_with_sponge_short_horflip_short_600ms.mp4	475.47222410388895	476.0805463891495	0.6083222852605559	n/a	n/a	n/a	n/a
433.5068359375	0.2	887822	356	20	3	0	0	72	281	stimuli\Videos_short_600ms_vertflip\2.single_touch_with_finger_short_vertflip_short_600ms.mp4	2.single_touch_with_finger_short_vertflip_short_600ms.mp4	476.2721869788454	476.8805350698235	0.6083480909780974	n/a	n/a	n/a	n/a
434.306640625	0.2	889460	357	20	3	0	0	73	237	stimuli\Videos_short_600ms_horvertflip\61.single_hit_with_rolling_pin_short_horvertflip_short_600ms.mp4	61.single_hit_with_rolling_pin_short_horvertflip_short_600ms.mp4	477.0721756595192	477.68052023153587	0.6083445720166765	n/a	n/a	n/a	n/a
435.1064453125	0.2	891098	358	20	3	0	0	74	203	stimuli\Videos_short_600ms_horvertflip\30.finger_pulling_back_another_finger_short_horvertflip_short_600ms.mp4	30.finger_pulling_back_another_finger_short_horvertflip_short_600ms.mp4	477.8721666861675	478.4805089122096	0.6083422260421685	n/a	n/a	n/a	n/a
