onset	duration	onsetsample	eventnumber	subjectnr	sequencenumber	blocksequencenumber	istarget	presentationnumber	stimnumber	stim	stimname	time_stimon	time_stimoff	stimdur	cresp	resp	rt	correct
75.14501953125	0.2	153897	0	75	0	0	0	0	181	stimuli\Videos_short_600ms_horvertflip\10.single_touch_with_knife_short_horvertflip_short_600ms.mp4	10.single_touch_with_knife_short_horvertflip_short_600ms.mp4	46.84761402614822	47.455885237955954	0.6082712118077325				
75.9453125	0.2	155536	1	75	0	0	0	1	304	stimuli\Videos_short_600ms_vertflip\40.repeated_push_with_finger_short_vertflip_short_600ms.mp4	40.repeated_push_with_finger_short_vertflip_short_600ms.mp4	47.64761648940839	48.25586512134396	0.6082486319355667				
76.7451171875	0.2	157174	2	75	0	0	0	2	33	stimuli\Videos_short_600ms\4.repeated_tap_with_finger_slow_short_short_600ms.mp4	4.repeated_tap_with_finger_slow_short_short_600ms.mp4	48.44759373358829	49.05584559122508	0.6082518576367875				
77.544921875	0.2	158812	3	75	0	0	0	3	295	stimuli\Videos_short_600ms_vertflip\32.single_(long)pinch_with_fingers_short_vertflip_short_600ms.mp4	32.single_(long)pinch_with_fingers_short_vertflip_short_600ms.mp4	49.247579775124905	49.85584717474558	0.6082673996206722				
78.34521484375	0.2	160451	4	75	0	0	0	4	273	stimuli\Videos_short_600ms_vertflip\12.repeated_touch_with_nail_file_short_vertflip_short_600ms.mp4	12.repeated_touch_with_nail_file_short_vertflip_short_600ms.mp4	50.0475617112279	50.65582881760565	0.6082671063777525				
79.14501953125	0.2	162089	5	75	0	0	0	5	323	stimuli\Videos_short_600ms_vertflip\58.single_slap_with_pencil_short_vertflip_short_600ms.mp4	58.single_slap_with_pencil_short_vertflip_short_600ms.mp4	50.84752957156888	51.45581251318072	0.6082829416118329				
79.94482421875	0.2	163727	6	75	0	0	1	6	380	stimuli\Targets_short_600ms_vertflip\chopstickwood-tap_short_horvertflip_short_600ms.mp4	chopstickwood-tap_short_horvertflip_short_600ms.mp4	51.64753144833594	52.25579562226267	0.6082641739267274				
80.7451171875	0.2	165366	7	75	0	0	0	7	135	stimuli\Videos_short_600ms_horflip\50.single_(long)hard_push_with_thumb_short_horflip_short_600ms.mp4	50.single_(long)hard_push_with_thumb_short_horflip_short_600ms.mp4	52.44747262337478	53.05578019757377	0.6083075741989887				
81.544921875	0.2	167004	8	75	0	0	0	8	324	stimuli\Videos_short_600ms_vertflip\59.single_push_with_long_side_pencil_short_vertflip_short_600ms.mp4	59.single_push_with_long_side_pencil_short_vertflip_short_600ms.mp4	53.24744869457572	53.85576272016624	0.6083140255905164				
82.3447265625	0.2	168642	9	75	0	0	0	9	43	stimuli\Videos_short_600ms\49.repeated_slap_with_hand_short_short_600ms.mp4	49.repeated_slap_with_hand_short_short_600ms.mp4	54.04746787280601	54.65574758872026	0.6082797159142501				
83.14501953125	0.2	170281	10	75	0	0	0	10	187	stimuli\Videos_short_600ms_horvertflip\16.repeated_touch_with_plastic_brush_short_horvertflip_short_600ms.mp4	16.repeated_touch_with_plastic_brush_short_horvertflip_short_600ms.mp4	54.84740083698125	55.455729231580335	0.6083283945990843				
83.94482421875	0.2	171919	11	75	0	0	0	11	223	stimuli\Videos_short_600ms_horvertflip\49.repeated_slap_with_hand_short_horvertflip_short_600ms.mp4	49.repeated_slap_with_hand_short_horvertflip_short_600ms.mp4	55.64742441388444	56.25571468662383	0.6082902727393957				
84.74462890625	0.2	173557	12	75	0	0	0	12	356	stimuli\Videos_short_600ms_vertflip\88.repeated_stroke_with_plastic_brush_short_vertflip_short_600ms.mp4	88.repeated_stroke_with_plastic_brush_short_vertflip_short_600ms.mp4	56.44742042575308	57.05571333769694	0.6082929119438631				
85.544921875	0.2	175196	13	75	0	0	0	13	178	stimuli\Videos_short_600ms_horflip\9.single_touch_with_hammer_short_horflip_short_600ms.mp4	9.single_touch_with_hammer_short_horflip_short_600ms.mp4	57.24741673086464	57.85565685869733	0.608240127832687				
86.3447265625	0.2	176834	14	75	0	0	0	14	316	stimuli\Videos_short_600ms_vertflip\51.repeated_touch_with_hammer_short_vertflip_short_600ms.mp4	51.repeated_touch_with_hammer_short_vertflip_short_600ms.mp4	58.04737051543998	58.65563996777928	0.6082694523393002				
87.14453125	0.2	178472	15	75	0	0	0	15	114	stimuli\Videos_short_600ms_horflip\31.hand_grabbing_wrist_short_horflip_short_600ms.mp4	31.hand_grabbing_wrist_short_horflip_short_600ms.mp4	58.84737561790462	59.45562337010779	0.6082477522031695				
87.94482421875	0.2	180111	16	75	0	0	1	16	382	stimuli\Targets_short_600ms_vertflip\hand-pinch_short_horvertflip_short_600ms.mp4	hand-pinch_short_horvertflip_short_600ms.mp4	59.64736048645864	60.25560559945734	0.6082451129987021				
88.74462890625	0.2	181749	17	75	0	0	0	17	307	stimuli\Videos_short_600ms_vertflip\43.touch_top_to_bottom_with_sharp_wooden_stick_short_vertflip_short_600ms.mp4	43.touch_top_to_bottom_with_sharp_wooden_stick_short_vertflip_short_600ms.mp4	60.44734007660372	61.05559105450084	0.6082509778971144				
89.54443359375	0.2	183387	18	75	0	0	0	18	32	stimuli\Videos_short_600ms\39.single_stab_with_scissors_short_short_600ms.mp4	39.single_stab_with_scissors_short_short_600ms.mp4	61.247328464098246	61.85560348809304	0.6082750239947927				
90.3447265625	0.2	185026	19	75	0	0	0	19	52	stimuli\Videos_short_600ms\57.single_touch_with_nail_file_short_short_600ms.mp4	57.single_touch_with_nail_file_short_short_600ms.mp4	62.04730981371176	62.65558483770656	0.6082750239947927				
91.14453125	0.2	186664	20	75	0	0	0	20	12	stimuli\Videos_short_600ms\20.single_touch_with_screwdriver_short_short_600ms.mp4	20.single_touch_with_screwdriver_short_short_600ms.mp4	62.84728940385321	63.45555064533255	0.6082612414793402				
91.9443359375	0.2	188302	21	75	0	0	0	21	38	stimuli\Videos_short_600ms\44.pushing_top_to_bottom_with_finger_short_short_600ms.mp4	44.pushing_top_to_bottom_with_finger_short_short_600ms.mp4	63.64726576830071	64.25554372474653	0.6082779564458178				
92.74462890625	0.2	189941	22	75	0	0	0	22	300	stimuli\Videos_short_600ms_vertflip\37.single_stab_with_nail_file_short_vertflip_short_600ms.mp4	37.single_stab_with_nail_file_short_vertflip_short_600ms.mp4	64.44725767473938	65.05552830005763	0.608270625318255				
93.54443359375	0.2	191579	23	75	0	0	0	23	168	stimuli\Videos_short_600ms_horflip\80.stroke_with_sharp_stick_all_over_the_hand_short_horflip_short_600ms.mp4	80.stroke_with_sharp_stick_all_over_the_hand_short_horflip_short_600ms.mp4	65.24724166355736	65.85550994291407	0.6082682793567074				
94.34423828125	0.2	193217	24	75	0	0	0	24	16	stimuli\Videos_short_600ms\24.single_stroke_top_to_bottom_with_a_spoon_short_short_600ms.mp4	24.single_stroke_top_to_bottom_with_a_spoon_short_short_600ms.mp4	66.04720101979183	66.65549305199966	0.608292032207828				
95.14453125	0.2	194856	25	75	0	0	0	25	312	stimuli\Videos_short_600ms_vertflip\48.single_slap_with_hand_short_vertflip_short_600ms.mp4	48.single_slap_with_hand_short_vertflip_short_600ms.mp4	66.84721902503952	67.45547528134921	0.6082562563096872				
95.9443359375	0.2	196494	26	75	0	0	0	26	262	stimuli\Videos_short_600ms_horvertflip\84.single_touch_with_cotton_bud_short_horvertflip_short_600ms.mp4	84.single_touch_with_cotton_bud_short_horvertflip_short_600ms.mp4	67.6471716366359	68.25546249586478	0.6082908592288732				
96.74462890625	0.2	198133	27	75	0	0	0	27	88	stimuli\Videos_short_600ms\9.single_touch_with_hammer_short_short_600ms.mp4	9.single_touch_with_hammer_short_short_600ms.mp4	68.44712688743675	69.05549311064897	0.6083662232122151				
97.54443359375	0.2	199771	28	75	0	0	0	28	163	stimuli\Videos_short_600ms_horflip\76.tickle_with_fingers_from_top_to_bottom_short_horflip_short_600ms.mp4	76.tickle_with_fingers_from_top_to_bottom_short_horflip_short_600ms.mp4	69.24711263572681	69.855475926488	0.60836329076119				
98.34423828125	0.2	201409	29	75	0	0	0	29	141	stimuli\Videos_short_600ms_horflip\56.repeated_touch_with_nail_file_short_horflip_short_600ms.mp4	56.repeated_touch_with_nail_file_short_horflip_short_600ms.mp4	70.04709750428083	70.65545698285496	0.6083594785741298				
99.14453125	0.2	203048	30	75	0	0	1	30	371	stimuli\Targets_short_600ms_horflip\hand-stroke_short_horflip_short_600ms.mp4	hand-stroke_short_horflip_short_600ms.mp4	70.8471034864815	71.45544067843002	0.6083371919485216				
99.9443359375	0.2	204686	31	75	0	0	0	31	72	stimuli\Videos_short_600ms\75.(long)stroke_with_fingers_all_over_the_hand_short_short_600ms.mp4	75.(long)stroke_with_fingers_all_over_the_hand_short_short_600ms.mp4	71.64708982126103	72.25542202804354	0.6083322067825065				
100.744140625	0.2	206324	32	75	0	0	1	32	365	stimuli\Targets_short_600ms\hand-stroke_short_short_600ms.mp4	hand-stroke_short_short_600ms.mp4	72.4470743965685	73.05541803991218	0.6083436433436873				
101.54443359375	0.2	207963	33	75	0	0	0	33	278	stimuli\Videos_short_600ms_vertflip\17.repeated_touch_with_rolling_pin_short_vertflip_short_600ms.mp4	17.repeated_touch_with_rolling_pin_short_vertflip_short_600ms.mp4	73.2471299371864	73.85536625283203	0.6082363156456267				
102.34423828125	0.2	209601	34	75	0	0	0	34	179	stimuli\Videos_short_600ms_horflip\90.repeated_touch_with_sponge_short_horflip_short_600ms.mp4	90.repeated_touch_with_sponge_short_horflip_short_600ms.mp4	74.04705908917822	74.65530449541984	0.6082454062416218				
103.14404296875	0.2	211239	35	75	0	0	0	35	230	stimuli\Videos_short_600ms_horvertflip\55.touch_top_to_bottom_with_nail_file_short_horvertflip_short_600ms.mp4	55.touch_top_to_bottom_with_nail_file_short_horvertflip_short_600ms.mp4	74.84704835640878	75.45531106410999	0.6082627077012148				
103.9443359375	0.2	212878	36	75	0	0	0	36	288	stimuli\Videos_short_600ms_vertflip\26.single_touch_with_a_blunt_syringe_short_vertflip_short_600ms.mp4	26.single_touch_with_a_blunt_syringe_short_vertflip_short_600ms.mp4	75.64700653966065	76.2553188057791	0.6083122661184461				
104.744140625	0.2	214516	37	75	0	0	0	37	113	stimuli\Videos_short_600ms_horflip\30.finger_pulling_back_another_finger_short_horflip_short_600ms.mp4	30.finger_pulling_back_another_finger_short_horflip_short_600ms.mp4	76.44700665695927	77.05530836625258	0.6083017092933005				
105.5439453125	0.2	216154	38	75	0	0	0	38	0	stimuli\Videos_short_600ms\1.repeated_touch_with_finger_fast_short_short_600ms.mp4	1.repeated_touch_with_finger_fast_short_short_600ms.mp4	77.24699064577726	77.8553014456702	0.6083107998929336				
106.34423828125	0.2	217793	39	75	0	0	0	39	71	stimuli\Videos_short_600ms\74.fingers_walking_from_top_to_bottom_short_short_600ms.mp4	74.fingers_walking_from_top_to_bottom_short_short_600ms.mp4	78.04694970876517	78.65529217912626	0.6083424703610945				
107.14404296875	0.2	219431	40	75	0	0	0	40	330	stimuli\Videos_short_600ms_vertflip\64.repeated_touch_with_screwdriver_short_vertflip_short_600ms.mp4	64.repeated_touch_with_screwdriver_short_vertflip_short_600ms.mp4	78.84695627745532	79.4552749949653	0.6083187175099738				
107.94384765625	0.2	221069	41	75	0	0	0	41	352	stimuli\Videos_short_600ms_vertflip\84.single_touch_with_cotton_bud_short_vertflip_short_600ms.mp4	84.single_touch_with_cotton_bud_short_vertflip_short_600ms.mp4	79.64694466494984	80.25525810405088	0.608313439101039				
108.744140625	0.2	222708	42	75	0	0	1	42	381	stimuli\Targets_short_600ms_vertflip\finger-tap_short_horvertflip_short_600ms.mp4	finger-tap_short_horvertflip_short_600ms.mp4	80.4469257213168	81.05524267935834	0.6083169580415415				
109.5439453125	0.2	224346	43	75	0	0	0	43	119	stimuli\Videos_short_600ms_horflip\36.single_slap_with_full_hand_short_horflip_short_600ms.mp4	36.single_slap_with_full_hand_short_horflip_short_600ms.mp4	81.24690824391291	81.85522784115892	0.6083195972460089				
110.34375	0.2	225984	44	75	0	0	0	44	290	stimuli\Videos_short_600ms_vertflip\28.single_injection_with_sharp_needle_short_vertflip_short_600ms.mp4	28.single_injection_with_sharp_needle_short_vertflip_short_600ms.mp4	82.04688490160333	82.65520948401536	0.608324582412024				
111.14404296875	0.2	227623	45	75	0	0	0	45	94	stimuli\Videos_short_600ms_horflip\13.single_touch_with_pen_short_horflip_short_600ms.mp4	13.single_touch_with_pen_short_horflip_short_600ms.mp4	82.84686683770997	83.4551937660799	0.6083269283699337				
111.94384765625	0.2	229261	46	75	0	0	0	46	329	stimuli\Videos_short_600ms_vertflip\63.stroke_top_to_bottom_with_screwdriver_short_vertflip_short_600ms.mp4	63.stroke_top_to_bottom_with_screwdriver_short_vertflip_short_600ms.mp4	83.64681622360877	84.25518244682098	0.6083662232122151				
112.74365234375	0.2	230899	47	75	0	0	0	47	139	stimuli\Videos_short_600ms_horflip\54.repeated_touch_with_knife_short_horflip_short_600ms.mp4	54.repeated_touch_with_knife_short_horflip_short_600ms.mp4	84.44681399494584	85.055160277494	0.6083462825481547				
113.5439453125	0.2	232538	48	75	0	0	0	48	193	stimuli\Videos_short_600ms_horvertflip\21.repeated_touch_with_metal_chopstick_short_horvertflip_short_600ms.mp4	21.repeated_touch_with_metal_chopstick_short_horvertflip_short_600ms.mp4	85.24677628363133	85.85514807849904	0.6083717948677076				
114.34375	0.2	234176	49	75	0	0	0	49	9	stimuli\Videos_short_600ms\18.single_stroke_from_top_to_bottom_with_rolling_pin_short_short_600ms.mp4	18.single_stroke_from_top_to_bottom_with_rolling_pin_short_short_600ms.mp4	86.04679546185798	86.65512678890809	0.6083313270501094				
115.1435546875	0.2	235814	50	75	0	0	0	50	75	stimuli\Videos_short_600ms\78.single_stroke_top_to_bottom_with_soft_brush_short_short_600ms.mp4	78.single_stroke_top_to_bottom_with_soft_brush_short_short_600ms.mp4	86.84677182630548	87.45510637904954	0.6083345527440542				
115.94384765625	0.2	237453	51	75	0	0	0	51	217	stimuli\Videos_short_600ms_horvertflip\43.touch_top_to_bottom_with_sharp_wooden_stick_short_horvertflip_short_600ms.mp4	43.touch_top_to_bottom_with_sharp_wooden_stick_short_horvertflip_short_600ms.mp4	87.646746138038	88.25502145527571	0.6082753172377124				
116.74365234375	0.2	239091	52	75	0	0	0	52	142	stimuli\Videos_short_600ms_horflip\57.single_touch_with_nail_file_short_horflip_short_600ms.mp4	57.single_touch_with_nail_file_short_horflip_short_600ms.mp4	88.44676736897964	89.05503036992741	0.6082630009477725				
117.5439453125	0.2	240730	53	75	0	0	0	53	177	stimuli\Videos_short_600ms_horflip\89.single_touch_with_plastic_brush_short_horflip_short_600ms.mp4	89.single_touch_with_plastic_brush_short_horflip_short_600ms.mp4	89.24674138746559	89.8550331264305	0.6082917389649083				
118.34375	0.2	242368	54	75	0	0	0	54	39	stimuli\Videos_short_600ms\45.scratching_with_finger_nails_short_short_600ms.mp4	45.scratching_with_finger_nails_short_short_600ms.mp4	90.0469388586971	90.65502063419262	0.6080817754955206				
119.1435546875	0.2	244006	55	75	0	0	0	55	156	stimuli\Videos_short_600ms_horflip\7.repeated_touch_with_hairbrush_short_horflip_short_600ms.mp4	7.repeated_touch_with_hairbrush_short_horflip_short_600ms.mp4	90.84668355953907	91.45499435943202	0.6083107998929336				
119.94384765625	0.2	245645	56	75	0	0	0	56	353	stimuli\Videos_short_600ms_vertflip\85.touch_top_to_bottom_with_fabric_short_vertflip_short_600ms.mp4	85.touch_top_to_bottom_with_fabric_short_vertflip_short_600ms.mp4	91.64668660928874	92.25498831858567	0.6083017092969385				
120.74365234375	0.2	247283	57	75	0	0	0	57	95	stimuli\Videos_short_600ms_horflip\14.repeated_touch_with_pencil_short_horflip_short_600ms.mp4	14.repeated_touch_with_pencil_short_horflip_short_600ms.mp4	92.4466711845962	93.05499371429325	0.608322529697034				
121.54345703125	0.2	248921	58	75	0	0	0	58	227	stimuli\Videos_short_600ms_horvertflip\52.touch_top_to_bottom_with_hammer_short_horvertflip_short_600ms.mp4	52.touch_top_to_bottom_with_hammer_short_horvertflip_short_600ms.mp4	93.2466648505033	93.8549809288088	0.6083160783055064				
122.34375	0.2	250560	59	75	0	0	0	59	118	stimuli\Videos_short_600ms_horflip\35.single_punch_with_hand_short_horflip_short_600ms.mp4	35.single_punch_with_hand_short_horflip_short_600ms.mp4	94.0466376960103	94.65495846623526	0.6083207702249638				
123.1435546875	0.2	252198	60	75	0	0	0	60	265	stimuli\Videos_short_600ms_horvertflip\87.single_stroke_top_to_bottom_with_plastic_brush_short_horvertflip_short_600ms.mp4	87.single_stroke_top_to_bottom_with_plastic_brush_short_horvertflip_short_600ms.mp4	94.84659851847027	95.45494333478928	0.6083448163190042				
123.943359375	0.2	253836	61	75	0	0	0	61	147	stimuli\Videos_short_600ms_horflip\61.single_hit_with_rolling_pin_short_horflip_short_600ms.mp4	61.single_hit_with_rolling_pin_short_horflip_short_600ms.mp4	95.64660391417785	96.2549273236109	0.6083234094330692				
124.74365234375	0.2	255475	62	75	0	0	0	62	218	stimuli\Videos_short_600ms_horvertflip\44.pushing_top_to_bottom_with_finger_short_horvertflip_short_600ms.mp4	44.pushing_top_to_bottom_with_finger_short_horvertflip_short_600ms.mp4	96.44659582061286	97.05491043269284	0.6083146120799938				
125.54345703125	0.2	257113	63	75	0	0	0	63	259	stimuli\Videos_short_600ms_horvertflip\81.single_stroke_top_to_bottom_with_cotton_pad_short_horvertflip_short_600ms.mp4	81.single_stroke_top_to_bottom_with_cotton_pad_short_horvertflip_short_600ms.mp4	97.2465334767112	97.85489354177844	0.6083600650672452				
126.34326171875	0.2	258751	64	75	0	0	0	64	1	stimuli\Videos_short_600ms\10.single_touch_with_knife_short_short_600ms.mp4	10.single_touch_with_knife_short_short_600ms.mp4	98.04653154129484	98.65487753059642	0.608345989301597				
127.1435546875	0.2	260390	65	75	0	0	0	65	162	stimuli\Videos_short_600ms_horflip\75.(long)stroke_with_fingers_all_over_the_hand_short_horflip_short_600ms.mp4	75.(long)stroke_with_fingers_all_over_the_hand_short_horflip_short_600ms.mp4	98.84658004402807	99.4548615194144	0.6082814753863204				
127.943359375	0.2	262028	66	75	0	0	0	66	146	stimuli\Videos_short_600ms_horflip\60.single_push_with_tip_of_pencil_short_horflip_short_600ms.mp4	60.single_push_with_tip_of_pencil_short_horflip_short_600ms.mp4	99.64648192422828	100.25484345552104	0.6083615312927577				
128.7431640625	0.2	263666	67	75	0	0	0	67	248	stimuli\Videos_short_600ms_horvertflip\71.single_stroke_with_finger_top_to_bottom_short_horvertflip_short_600ms.mp4	71.single_stroke_with_finger_top_to_bottom_short_horvertflip_short_600ms.mp4	100.44683364236698	101.0548001725474	0.6079665301804198				
129.54345703125	0.2	265305	68	75	0	0	0	68	302	stimuli\Videos_short_600ms_vertflip\39.single_stab_with_scissors_short_vertflip_short_600ms.mp4	39.single_stab_with_scissors_short_vertflip_short_600ms.mp4	101.2464443302124	101.85481026017806	0.6083659299656574				
130.34326171875	0.2	266943	69	75	0	0	0	69	299	stimuli\Videos_short_600ms_vertflip\36.single_slap_with_full_hand_short_vertflip_short_600ms.mp4	36.single_slap_with_full_hand_short_vertflip_short_600ms.mp4	102.04645735029044	102.65479190303448	0.6083345527440542				
131.14306640625	0.2	268581	70	75	0	0	0	70	86	stimuli\Videos_short_600ms\88.repeated_stroke_with_plastic_brush_short_short_600ms.mp4	88.repeated_stroke_with_plastic_brush_short_short_600ms.mp4	102.84645600136356	103.454752139005	0.608296137641446				
131.943359375	0.2	270220	71	75	0	0	0	71	195	stimuli\Videos_short_600ms_horvertflip\23.single_push_with_a_spoon_short_horvertflip_short_600ms.mp4	23.single_push_with_a_spoon_short_horvertflip_short_600ms.mp4	103.6464452685941	104.25471149523946	0.6082662266453553				
132.7431640625	0.2	271858	72	75	0	0	0	72	74	stimuli\Videos_short_600ms\77.tapping_with_all_fingers_short_short_600ms.mp4	77.tapping_with_all_fingers_short_short_600ms.mp4	104.4464216330416	105.05469519081088	0.6082735577692802				
133.54296875	0.2	273496	73	75	0	0	0	73	25	stimuli\Videos_short_600ms\32.single_(long)pinch_with_fingers_short_short_600ms.mp4	32.single_(long)pinch_with_fingers_short_short_600ms.mp4	105.2464047421272	105.85468064585802	0.6082759037308278				
134.34326171875	0.2	275135	74	75	0	0	0	74	67	stimuli\Videos_short_600ms\70.(long)stroke_with_finger_all_over_the_hand_short_short_600ms.mp4	70.(long)stroke_with_finger_all_over_the_hand_short_short_600ms.mp4	106.0463901971707	106.6546910267316	0.6083008295609034				
135.14306640625	0.2	276773	75	75	0	0	0	75	23	stimuli\Videos_short_600ms\30.finger_pulling_back_another_finger_short_short_600ms.mp4	30.finger_pulling_back_another_finger_short_short_600ms.mp4	106.84637653195024	107.45467765475767	0.6083011228074611				
135.94287109375	0.2	278411	76	75	0	0	0	76	62	stimuli\Videos_short_600ms\66.stroke_top_to_bottom_with_sponge_short_short_600ms.mp4	66.stroke_top_to_bottom_with_sponge_short_short_600ms.mp4	107.64637195732575	108.2546771855632	0.608305228237441				
136.7431640625	0.2	280050	77	75	0	0	0	77	2	stimuli\Videos_short_600ms\11.single_touch_with_lighter_short_short_600ms.mp4	11.single_touch_with_lighter_short_short_600ms.mp4	108.44633776495176	109.0546702649808	0.6083325000290642				
137.54296875	0.2	281688	78	75	0	0	0	78	210	stimuli\Videos_short_600ms_horvertflip\37.single_stab_with_nail_file_short_horvertflip_short_600ms.mp4	37.single_stab_with_nail_file_short_horvertflip_short_600ms.mp4	109.24632820516126	109.85464457671333	0.6083163715520641				
138.34326171875	0.2	283327	79	75	0	0	0	79	260	stimuli\Videos_short_600ms_horvertflip\82.repeated_touch_with_cotton_bud_short_horvertflip_short_600ms.mp4	82.repeated_touch_with_cotton_bud_short_horvertflip_short_600ms.mp4	110.0462872681528	110.6546291520208	0.608341883867979				
139.14306640625	0.2	284965	80	75	0	0	0	80	22	stimuli\Videos_short_600ms\3.single_push_with_finger_short_short_600ms.mp4	3.single_push_with_finger_short_short_600ms.mp4	110.8462923706138	111.45460962190192	0.6083172512880992				
139.94287109375	0.2	286603	81	75	0	0	0	81	266	stimuli\Videos_short_600ms_horvertflip\88.repeated_stroke_with_plastic_brush_short_horvertflip_short_600ms.mp4	88.repeated_stroke_with_plastic_brush_short_horvertflip_short_600ms.mp4	111.64627372022731	112.25459302423042	0.6083193040030892				
140.7431640625	0.2	288242	82	75	0	0	0	82	100	stimuli\Videos_short_600ms_horflip\19.single_touch_with_rolling_pin_short_horflip_short_600ms.mp4	19.single_touch_with_rolling_pin_short_horflip_short_600ms.mp4	112.4462574158024	113.05457759953788	0.6083201837354864				
141.54296875	0.2	289880	83	75	0	0	0	83	6	stimuli\Videos_short_600ms\15.single_stroke_top_to_bottom_with_a_plastic_whisk_short_short_600ms.mp4	15.single_stroke_top_to_bottom_with_a_plastic_whisk_short_short_600ms.mp4	113.2461988840878	113.854560122134	0.6083612380462				
142.3427734375	0.2	291518	84	75	0	0	0	84	125	stimuli\Videos_short_600ms_horflip\41.injection_with_blunt_syringe_short_horflip_short_600ms.mp4	41.injection_with_blunt_syringe_short_horflip_short_600ms.mp4	114.04617495528872	114.65454205823698	0.6083671029482502				
143.14306640625	0.2	293157	85	75	0	0	0	85	204	stimuli\Videos_short_600ms_horvertflip\31.hand_grabbing_wrist_short_horvertflip_short_600ms.mp4	31.hand_grabbing_wrist_short_horvertflip_short_600ms.mp4	114.84616099682536	115.454526926791	0.6083659299656574				
143.94287109375	0.2	294795	86	75	0	0	0	86	42	stimuli\Videos_short_600ms\48.single_slap_with_hand_short_short_600ms.mp4	48.single_slap_with_hand_short_short_600ms.mp4	115.64616815200498	116.25451032911953	0.6083421771145368				
144.74267578125	0.2	296433	87	75	0	0	0	87	55	stimuli\Videos_short_600ms\6.single_touch_with_flat_hand_short_short_600ms.mp4	6.single_touch_with_flat_hand_short_short_600ms.mp4	116.4461518475764	117.05449285171198	0.6083410041355819				
145.54296875	0.2	298072	88	75	0	0	0	88	96	stimuli\Videos_short_600ms_horflip\15.single_stroke_top_to_bottom_with_a_plastic_whisk_short_horflip_short_600ms.mp4	15.single_stroke_top_to_bottom_with_a_plastic_whisk_short_horflip_short_600ms.mp4	117.24614316752196	117.8544788932486	0.6083357257266471				
146.3427734375	0.2	299710	89	75	0	0	0	89	320	stimuli\Videos_short_600ms_vertflip\55.touch_top_to_bottom_with_nail_file_short_vertflip_short_600ms.mp4	55.touch_top_to_bottom_with_nail_file_short_vertflip_short_600ms.mp4	118.0462136636379	118.65444235491304	0.6082286912751442				
147.142578125	0.2	301348	90	75	0	0	0	90	107	stimuli\Videos_short_600ms_horflip\25.single_touch_with_stanley_knife_short_horflip_short_600ms.mp4	25.single_touch_with_stanley_knife_short_horflip_short_600ms.mp4	118.84613049933614	119.45442575724157	0.6082952579054108				
147.94287109375	0.2	302987	91	75	0	0	0	91	256	stimuli\Videos_short_600ms_horvertflip\79.long_with_soft_brush_all_over_the_hand_short_horvertflip_short_600ms.mp4	79.long_with_soft_brush_all_over_the_hand_short_horvertflip_short_600ms.mp4	119.64611800709464	120.25438071479948	0.6082627077048528				
148.74267578125	0.2	304625	92	75	0	0	0	92	84	stimuli\Videos_short_600ms\86.touch_top_to_bottom_with_hair_brush_short_short_600ms.mp4	86.touch_top_to_bottom_with_hair_brush_short_short_600ms.mp4	120.44609906346524	121.05436323739195	0.6082641739267274				
149.54248046875	0.2	306263	93	75	0	0	0	93	251	stimuli\Videos_short_600ms_horvertflip\74.fingers_walking_from_top_to_bottom_short_horvertflip_short_600ms.mp4	74.fingers_walking_from_top_to_bottom_short_horvertflip_short_600ms.mp4	121.24607513466616	121.85434663972046	0.6082715050542902				
150.3427734375	0.2	307902	94	75	0	0	0	94	247	stimuli\Videos_short_600ms_horvertflip\70.(long)stroke_with_finger_all_over_the_hand_short_horvertflip_short_600ms.mp4	70.(long)stroke_with_finger_all_over_the_hand_short_horvertflip_short_600ms.mp4	122.04613741991852	122.65435848682318	0.6082210669046617	5.0	5.0	2.958395269135508	1.0
186.11669921875	0.2	381167	95	75	1	0	0	0	87	stimuli\Videos_short_600ms\89.single_touch_with_plastic_brush_short_short_600ms.mp4	89.single_touch_with_plastic_brush_short_short_600ms.mp4	157.82065805953607	158.42863397355904	0.6079759140229726				
186.91650390625	0.2	382805	96	75	1	0	0	1	108	stimuli\Videos_short_600ms_horflip\26.single_touch_with_a_blunt_syringe_short_horflip_short_600ms.mp4	26.single_touch_with_a_blunt_syringe_short_horflip_short_600ms.mp4	158.62030071109257	159.22861796237703	0.6083172512844612				
187.71630859375	0.2	384443	97	75	1	0	1	2	366	stimuli\Targets_short_600ms_horflip\brush-stroke_short_horflip_short_600ms.mp4	brush-stroke_short_horflip_short_600ms.mp4	159.42028118097005	160.02860136470554	0.6083201837354864				
188.5166015625	0.2	386082	98	75	1	0	0	3	53	stimuli\Videos_short_600ms\58.single_slap_with_pencil_short_short_600ms.mp4	58.single_slap_with_pencil_short_short_600ms.mp4	160.2202425899195	160.82858828597455	0.6083456960550393				
189.31640625	0.2	387720	99	75	1	0	0	4	124	stimuli\Videos_short_600ms_horflip\40.repeated_push_with_finger_short_horflip_short_600ms.mp4	40.repeated_push_with_finger_short_horflip_short_600ms.mp4	161.0202022393969	161.62856640989412	0.6083641704972251				
190.1162109375	0.2	389358	100	75	1	0	0	5	102	stimuli\Videos_short_600ms_horflip\20.single_touch_with_screwdriver_short_horflip_short_600ms.mp4	20.single_touch_with_screwdriver_short_horflip_short_600ms.mp4	161.82019766477242	162.42855303791657	0.6083553731441498				
190.91650390625	0.2	390997	101	75	1	0	0	6	348	stimuli\Videos_short_600ms_vertflip\80.stroke_with_sharp_stick_all_over_the_hand_short_vertflip_short_600ms.mp4	80.stroke_with_sharp_stick_all_over_the_hand_short_vertflip_short_600ms.mp4	162.62019074419004	163.22853761322767	0.6083468690376321				
191.71630859375	0.2	392635	102	75	1	0	0	7	59	stimuli\Videos_short_600ms\63.stroke_top_to_bottom_with_screwdriver_short_short_600ms.mp4	63.stroke_top_to_bottom_with_screwdriver_short_short_600ms.mp4	163.42018059791008	164.02852101555618	0.6083404176461045				
192.51611328125	0.2	394273	103	75	1	0	0	8	56	stimuli\Videos_short_600ms\60.single_push_with_tip_of_pencil_short_short_600ms.mp4	60.single_push_with_tip_of_pencil_short_short_600ms.mp4	164.22024171018347	164.82848946238664	0.6082477522031695				
193.31640625	0.2	395912	104	75	1	0	0	9	346	stimuli\Videos_short_600ms_vertflip\79.long_with_soft_brush_all_over_the_hand_short_vertflip_short_600ms.mp4	79.long_with_soft_brush_all_over_the_hand_short_vertflip_short_600ms.mp4	165.02017291489028	165.6284869404808	0.6083140255905164				
194.1162109375	0.2	397550	105	75	1	0	0	10	128	stimuli\Videos_short_600ms_horflip\44.pushing_top_to_bottom_with_finger_short_horflip_short_600ms.mp4	44.pushing_top_to_bottom_with_finger_short_horflip_short_600ms.mp4	165.82015749019774	166.42844395075008	0.6082864605523355				
194.916015625	0.2	399188	106	75	1	0	1	11	370	stimuli\Targets_short_600ms_horflip\hand-pinch_short_horflip_short_600ms.mp4	hand-pinch_short_horflip_short_600ms.mp4	166.62013326815577	167.22840799890764	0.608274730751873				
195.71630859375	0.2	400827	107	75	1	0	0	12	66	stimuli\Videos_short_600ms\7.repeated_touch_with_hairbrush_short_short_600ms.mp4	7.repeated_touch_with_hairbrush_short_short_600ms.mp4	167.42013103949284	168.0284321623003	0.6083011228074611				
196.51611328125	0.2	402465	108	75	1	0	0	13	249	stimuli\Videos_short_600ms_horvertflip\72.(short)stroke_with_finger_all_over_the_hand_short_horvertflip_short_600ms.mp4	72.(short)stroke_with_finger_all_over_the_hand_short_horvertflip_short_600ms.mp4	168.2200991930804	168.8284085267478	0.608309333667421				
197.31591796875	0.2	404103	109	75	1	0	0	14	322	stimuli\Videos_short_600ms_vertflip\57.single_touch_with_nail_file_short_vertflip_short_600ms.mp4	57.single_touch_with_nail_file_short_vertflip_short_600ms.mp4	169.02008171567286	169.62838577093137	0.6083040552584862				
198.1162109375	0.2	405742	110	75	1	0	0	15	257	stimuli\Videos_short_600ms_horvertflip\8.single_touch_with_hairbrush_short_horvertflip_short_600ms.mp4	8.single_touch_with_hairbrush_short_horvertflip_short_600ms.mp4	169.82006541124792	170.42839058014945	0.6083251689015015				
198.916015625	0.2	407380	111	75	1	0	1	16	360	stimuli\Targets_short_600ms\brush-stroke_short_short_600ms.mp4	brush-stroke_short_short_600ms.mp4	170.6200499865554	171.228382779831	0.608332793275622				
199.7158203125	0.2	409018	112	75	1	0	0	17	244	stimuli\Videos_short_600ms_horvertflip\68.stroke_top_to_bottom_with_shawl_short_horvertflip_short_600ms.mp4	68.stroke_top_to_bottom_with_shawl_short_horvertflip_short_600ms.mp4	171.4200345618665	172.028355625338	0.6083210634715215				
200.51611328125	0.2	410657	113	75	1	0	0	18	357	stimuli\Videos_short_600ms_vertflip\89.single_touch_with_plastic_brush_short_vertflip_short_600ms.mp4	89.single_touch_with_plastic_brush_short_vertflip_short_600ms.mp4	172.22002089664602	172.82833785468392	0.6083169580379035				
201.31591796875	0.2	412295	114	75	1	0	0	19	110	stimuli\Videos_short_600ms_horflip\28.single_injection_with_sharp_needle_short_horflip_short_600ms.mp4	28.single_injection_with_sharp_needle_short_horflip_short_600ms.mp4	173.01999960705507	173.62832037728003	0.6083207702249638				
202.11572265625	0.2	413933	115	75	1	0	0	20	349	stimuli\Videos_short_600ms_vertflip\81.single_stroke_top_to_bottom_with_cotton_pad_short_vertflip_short_600ms.mp4	81.single_stroke_top_to_bottom_with_cotton_pad_short_vertflip_short_600ms.mp4	173.81999122024354	174.42830348636198	0.6083122661184461				
202.916015625	0.2	415572	116	75	1	0	0	21	92	stimuli\Videos_short_600ms_horflip\11.single_touch_with_lighter_short_horflip_short_600ms.mp4	11.single_touch_with_lighter_short_horflip_short_600ms.mp4	174.61996905091655	175.22828718193705	0.6083181310204964				
203.7158203125	0.2	417210	117	75	1	0	0	22	255	stimuli\Videos_short_600ms_horvertflip\78.single_stroke_top_to_bottom_with_soft_brush_short_horvertflip_short_600ms.mp4	78.single_stroke_top_to_bottom_with_soft_brush_short_horvertflip_short_600ms.mp4	175.41992664767895	176.02827205049107	0.6083454028121196				
204.515625	0.2	418848	118	75	1	0	1	23	368	stimuli\Targets_short_600ms_horflip\chopstickwood-tap_short_horflip_short_600ms.mp4	chopstickwood-tap_short_horflip_short_600ms.mp4	176.2199170878921	176.82825545281958	0.6083383649274765				
205.31591796875	0.2	420487	119	75	1	0	0	24	160	stimuli\Videos_short_600ms_horflip\73.single_stroke_with_flat_hand_short_horflip_short_600ms.mp4	73.single_stroke_with_flat_hand_short_horflip_short_600ms.mp4	177.01987233869295	177.6282379754157	0.6083656367227377				
206.11572265625	0.2	422125	120	75	1	0	0	25	351	stimuli\Videos_short_600ms_vertflip\83.single_stroke_top_to_bottom_with_cotton_bud_short_vertflip_short_600ms.mp4	83.single_stroke_top_to_bottom_with_cotton_bud_short_vertflip_short_600ms.mp4	177.81993081175824	178.42822049800816	0.6082896862499183				
206.916015625	0.2	423764	121	75	1	0	0	26	14	stimuli\Videos_short_600ms\22.single_touch_with_metal_chopstick_short_short_600ms.mp4	22.single_touch_with_metal_chopstick_short_short_600ms.mp4	178.61985585832008	179.22820947199216	0.6083536136720795				
207.7158203125	0.2	425402	122	75	1	0	1	27	362	stimuli\Targets_short_600ms\chopstickwood-tap_short_short_600ms.mp4	chopstickwood-tap_short_short_600ms.mp4	179.41986887840176	180.02816560252904	0.6082967241272854				
208.515625	0.2	427040	123	75	1	0	0	28	209	stimuli\Videos_short_600ms_horvertflip\36.single_slap_with_full_hand_short_horvertflip_short_600ms.mp4	36.single_slap_with_full_hand_short_horvertflip_short_600ms.mp4	180.21984084417272	180.828127597968	0.6082867537952552				
209.31591796875	0.2	428679	124	75	1	0	0	29	82	stimuli\Videos_short_600ms\84.single_touch_with_cotton_bud_short_short_600ms.mp4	84.single_touch_with_cotton_bud_short_short_600ms.mp4	181.0198257127267	181.62810924082805	0.6082835281013104				
210.11572265625	0.2	430317	125	75	1	0	0	30	186	stimuli\Videos_short_600ms_horvertflip\15.single_stroke_top_to_bottom_with_a_plastic_whisk_short_horvertflip_short_600ms.mp4	15.single_stroke_top_to_bottom_with_a_plastic_whisk_short_horvertflip_short_600ms.mp4	181.81981732591885	182.42809293640312	0.6082756104842701				
210.91552734375	0.2	431955	126	75	1	0	1	31	379	stimuli\Targets_short_600ms_vertflip\chopstick-silver-tap_short_horvertflip_short_600ms.mp4	chopstick-silver-tap_short_horvertflip_short_600ms.mp4	182.6198101120899	183.22807663197815	0.6082665198882751				
211.7158203125	0.2	433594	127	75	1	0	0	32	81	stimuli\Videos_short_600ms\83.single_stroke_top_to_bottom_with_cotton_bud_short_short_600ms.mp4	83.single_stroke_top_to_bottom_with_cotton_bud_short_short_600ms.mp4	183.41978559680135	184.02809434397932	0.6083087471779436				
212.515625	0.2	435232	128	75	1	0	0	33	327	stimuli\Videos_short_600ms_vertflip\61.single_hit_with_rolling_pin_short_vertflip_short_600ms.mp4	61.single_hit_with_rolling_pin_short_vertflip_short_600ms.mp4	184.21976929237644	184.8280733476313	0.6083040552548482				
213.3154296875	0.2	436870	129	75	1	0	0	34	180	stimuli\Videos_short_600ms_horvertflip\1.repeated_touch_with_finger_fast_short_horvertflip_short_600ms.mp4	1.repeated_touch_with_finger_fast_short_horvertflip_short_600ms.mp4	185.019776740799	185.62806202837237	0.6082852875733806				
214.11572265625	0.2	438509	130	75	1	0	0	35	200	stimuli\Videos_short_600ms_horvertflip\28.single_injection_with_sharp_needle_short_horvertflip_short_600ms.mp4	28.single_injection_with_sharp_needle_short_horvertflip_short_600ms.mp4	185.8197358037869	186.4280624389139	0.608326635127014				
214.91552734375	0.2	440147	131	75	1	0	0	36	73	stimuli\Videos_short_600ms\76.tickle_with_fingers_from_top_to_bottom_short_short_600ms.mp4	76.tickle_with_fingers_from_top_to_bottom_short_short_600ms.mp4	186.61971861962593	187.22803968309745	0.6083210634715215				
215.71533203125	0.2	441785	132	75	1	0	0	37	103	stimuli\Videos_short_600ms_horflip\21.repeated_touch_with_metal_chopstick_short_horflip_short_600ms.mp4	21.repeated_touch_with_metal_chopstick_short_horflip_short_600ms.mp4	187.41970172871152	188.02802425840855	0.608322529697034				
216.515625	0.2	443424	133	75	1	0	0	38	354	stimuli\Videos_short_600ms_vertflip\86.touch_top_to_bottom_with_hair_brush_short_vertflip_short_600ms.mp4	86.touch_top_to_bottom_with_hair_brush_short_vertflip_short_600ms.mp4	188.21968689050848	188.82800502152895	0.6083181310204964				
217.3154296875	0.2	445062	134	75	1	0	0	39	297	stimuli\Videos_short_600ms_vertflip\34.repeated_punch_with_hand_short_vertflip_short_600ms.mp4	34.repeated_punch_with_hand_short_vertflip_short_600ms.mp4	189.01966706714305	189.62799106306556	0.6083239959225466				
218.115234375	0.2	446700	135	75	1	0	0	40	17	stimuli\Videos_short_600ms\25.single_touch_with_stanley_knife_short_short_600ms.mp4	25.single_touch_with_stanley_knife_short_short_600ms.mp4	189.81965164245412	190.427972705922	0.6083210634678835				
218.91552734375	0.2	448339	136	75	1	0	0	41	4	stimuli\Videos_short_600ms\13.single_touch_with_pen_short_short_600ms.mp4	13.single_touch_with_pen_short_short_600ms.mp4	190.61961070544203	191.22793528785405	0.608324582412024				
219.71533203125	0.2	449977	137	75	1	0	0	42	36	stimuli\Videos_short_600ms\42.single_slap_with_plastic_whisk_short_short_600ms.mp4	42.single_slap_with_plastic_whisk_short_short_600ms.mp4	191.42013455843335	192.02794009707213	0.607805538638786				
220.51513671875	0.2	451615	138	75	1	0	0	43	336	stimuli\Videos_short_600ms_vertflip\7.repeated_touch_with_hairbrush_short_vertflip_short_600ms.mp4	7.repeated_touch_with_hairbrush_short_vertflip_short_600ms.mp4	192.21955756943495	192.82788244508993	0.6083248756549438				
221.3154296875	0.2	453254	139	75	1	0	0	44	148	stimuli\Videos_short_600ms_horflip\62.touch_top_to_bottom_with_scissors_short_horflip_short_600ms.mp4	62.touch_top_to_bottom_with_scissors_short_horflip_short_600ms.mp4	193.019540385274	193.62790660848623	0.6083662232122151				
222.115234375	0.2	454892	140	75	1	0	0	45	190	stimuli\Videos_short_600ms_horvertflip\19.single_touch_with_rolling_pin_short_horvertflip_short_600ms.mp4	19.single_touch_with_rolling_pin_short_horvertflip_short_600ms.mp4	193.8195275997896	194.4278876648532	0.6083600650636072				
222.9150390625	0.2	456530	141	75	1	0	0	46	77	stimuli\Videos_short_600ms\8.single_touch_with_hairbrush_short_short_600ms.mp4	8.single_touch_with_hairbrush_short_short_600ms.mp4	194.6195356347016	195.2278675482412	0.6083319135395868				
223.71533203125	0.2	458169	142	75	1	0	0	47	294	stimuli\Videos_short_600ms_vertflip\31.hand_grabbing_wrist_short_vertflip_short_600ms.mp4	31.hand_grabbing_wrist_short_vertflip_short_600ms.mp4	195.41952079650216	196.02784156672715	0.6083207702249638				
224.51513671875	0.2	459807	143	75	1	0	0	48	189	stimuli\Videos_short_600ms_horvertflip\18.single_stroke_from_top_to_bottom_with_rolling_pin_short_horvertflip_short_600ms.mp4	18.single_stroke_from_top_to_bottom_with_rolling_pin_short_horvertflip_short_600ms.mp4	196.2195349895628	196.82779535130612	0.6082603617433051				
225.31494140625	0.2	461445	144	75	1	0	0	49	18	stimuli\Videos_short_600ms\26.single_touch_with_a_blunt_syringe_short_short_600ms.mp4	26.single_touch_with_a_blunt_syringe_short_short_600ms.mp4	197.01950226341432	197.6277834455541	0.6082811821397627				
226.115234375	0.2	463084	145	75	1	0	0	50	11	stimuli\Videos_short_600ms\2.single_touch_with_finger_short_short_600ms.mp4	2.single_touch_with_finger_short_short_600ms.mp4	197.81949387660643	198.4277615694737	0.6082676928672299				
226.9150390625	0.2	464722	146	75	1	0	0	51	8	stimuli\Videos_short_600ms\17.repeated_touch_with_rolling_pin_short_short_600ms.mp4	17.repeated_touch_with_rolling_pin_short_short_600ms.mp4	198.61946906807137	199.22777634902377	0.608307280952431				
227.71533203125	0.2	466361	147	75	1	0	0	52	277	stimuli\Videos_short_600ms_vertflip\16.repeated_touch_with_plastic_brush_short_vertflip_short_600ms.mp4	16.repeated_touch_with_plastic_brush_short_vertflip_short_600ms.mp4	199.41945657583344	200.02775300671783	0.6082964308843657				
228.51513671875	0.2	467999	148	75	1	0	0	53	121	stimuli\Videos_short_600ms_horflip\38.double_slap_with_pencil_short_horflip_short_600ms.mp4	38.double_slap_with_pencil_short_horflip_short_600ms.mp4	200.21943557948543	200.8277460861318	0.6083105066463759				
229.31494140625	0.2	469637	149	75	1	0	0	54	123	stimuli\Videos_short_600ms_horflip\4.repeated_tap_with_finger_slow_short_horflip_short_600ms.mp4	4.repeated_tap_with_finger_slow_short_horflip_short_600ms.mp4	201.0194201547929	201.627751481843	0.6083313270501094				
230.115234375	0.2	471276	150	75	1	0	1	55	369	stimuli\Targets_short_600ms_horflip\finger-tap_short_horflip_short_600ms.mp4	finger-tap_short_horflip_short_600ms.mp4	201.81940443685744	202.42772227463504	0.6083178377775766				
230.9150390625	0.2	472914	151	75	1	0	0	56	245	stimuli\Videos_short_600ms_horvertflip\69.stroke_with_soft_sock_short_horvertflip_short_600ms.mp4	69.stroke_with_soft_sock_short_horvertflip_short_600ms.mp4	202.61938783918595	203.22771770001057	0.6083298608245968				
231.71484375	0.2	474552	152	75	1	0	0	57	60	stimuli\Videos_short_600ms\64.repeated_touch_with_screwdriver_short_short_600ms.mp4	64.repeated_touch_with_screwdriver_short_short_600ms.mp4	203.4193700685355	204.0276914252536	0.6083213567180792				
232.51513671875	0.2	476191	153	75	1	0	0	58	264	stimuli\Videos_short_600ms_horvertflip\86.touch_top_to_bottom_with_hair_brush_short_horvertflip_short_600ms.mp4	86.touch_top_to_bottom_with_hair_brush_short_horvertflip_short_600ms.mp4	204.2193566965616	204.82767248162057	0.6083157850589487				
233.31494140625	0.2	477829	154	75	1	0	0	59	340	stimuli\Videos_short_600ms_vertflip\73.single_stroke_with_flat_hand_short_vertflip_short_600ms.mp4	73.single_stroke_with_flat_hand_short_vertflip_short_600ms.mp4	205.0193406853796	205.6276602826256	0.6083195972460089				
234.11474609375	0.2	479467	155	75	1	0	0	60	138	stimuli\Videos_short_600ms_horflip\53.touch_top_to_bottom_with_knife_short_horflip_short_600ms.mp4	53.touch_top_to_bottom_with_knife_short_horflip_short_600ms.mp4	205.8193273134057	206.42763987276703	0.6083125593613659				
234.9150390625	0.2	481106	156	75	1	0	0	61	122	stimuli\Videos_short_600ms_horflip\39.single_stab_with_scissors_short_horflip_short_600ms.mp4	39.single_stab_with_scissors_short_horflip_short_600ms.mp4	206.619264969504	207.2276232750992	0.6083583055951749				
235.71484375	0.2	482744	157	75	1	0	0	62	10	stimuli\Videos_short_600ms\19.single_touch_with_rolling_pin_short_short_600ms.mp4	19.single_touch_with_rolling_pin_short_short_600ms.mp4	207.419246905607	208.02760755716008	0.6083606515530846				
236.5146484375	0.2	484382	158	75	1	0	0	63	212	stimuli\Videos_short_600ms_horvertflip\39.single_stab_with_scissors_short_horvertflip_short_600ms.mp4	39.single_stab_with_scissors_short_horvertflip_short_600ms.mp4	208.21922502952293	208.8275900797562	0.6083650502332603				
237.31494140625	0.2	486021	159	75	1	0	0	64	182	stimuli\Videos_short_600ms_horvertflip\11.single_touch_with_lighter_short_horvertflip_short_600ms.mp4	11.single_touch_with_lighter_short_horvertflip_short_600ms.mp4	209.01920813860852	209.62757641453572	0.6083682759272051				
238.11474609375	0.2	487659	160	75	1	0	0	65	335	stimuli\Videos_short_600ms_vertflip\69.stroke_with_soft_sock_short_vertflip_short_600ms.mp4	69.stroke_with_soft_sock_short_vertflip_short_600ms.mp4	209.81921324107316	210.42755571143425	0.6083424703610945				
238.91455078125	0.2	489297	161	75	1	0	0	66	192	stimuli\Videos_short_600ms_horvertflip\20.single_touch_with_screwdriver_short_horvertflip_short_600ms.mp4	20.single_touch_with_screwdriver_short_horvertflip_short_600ms.mp4	210.61920954618472	211.22752650422265	0.6083169580379035				
239.71484375	0.2	490936	162	75	1	0	0	67	157	stimuli\Videos_short_600ms_horflip\70.(long)stroke_with_finger_all_over_the_hand_short_horflip_short_600ms.mp4	70.(long)stroke_with_finger_all_over_the_hand_short_horflip_short_600ms.mp4	211.41921347566677	212.02747911582264	0.6082656401558779				
240.5146484375	0.2	492574	163	75	1	0	0	68	31	stimuli\Videos_short_600ms\38.double_slap_with_pencil_short_short_600ms.mp4	38.double_slap_with_pencil_short_short_600ms.mp4	212.2191942387908	212.82746163841512	0.6082673996243102				
241.314453125	0.2	494212	164	75	1	0	0	69	202	stimuli\Videos_short_600ms_horvertflip\3.single_push_with_finger_short_horvertflip_short_600ms.mp4	3.single_push_with_finger_short_horvertflip_short_600ms.mp4	213.0191738289359	213.6274676206158	0.6082937916798983				
242.11474609375	0.2	495851	165	75	1	0	1	70	383	stimuli\Targets_short_600ms_vertflip\hand-stroke_short_horvertflip_short_600ms.mp4	hand-stroke_short_horvertflip_short_600ms.mp4	213.81915547179233	214.4274565945998	0.6083011228074611				
242.91455078125	0.2	497489	166	75	1	0	0	71	267	stimuli\Videos_short_600ms_horvertflip\89.single_touch_with_plastic_brush_short_horvertflip_short_600ms.mp4	89.single_touch_with_plastic_brush_short_horvertflip_short_600ms.mp4	214.61913740789532	215.2274399969283	0.6083025890329736				
243.71435546875	0.2	499127	167	75	1	0	0	72	64	stimuli\Videos_short_600ms\68.stroke_top_to_bottom_with_shawl_short_short_600ms.mp4	68.stroke_top_to_bottom_with_shawl_short_short_600ms.mp4	215.4191190507554	216.0274022856138	0.6082832348583906				
244.5146484375	0.2	500766	168	75	1	0	0	73	58	stimuli\Videos_short_600ms\62.touch_top_to_bottom_with_scissors_short_short_600ms.mp4	62.touch_top_to_bottom_with_scissors_short_short_600ms.mp4	216.219104212556	216.82742996794696	0.6083257553909789				
245.314453125	0.2	502404	169	75	1	0	0	74	155	stimuli\Videos_short_600ms_horflip\69.stroke_with_soft_sock_short_horflip_short_600ms.mp4	69.stroke_with_soft_sock_short_horflip_short_600ms.mp4	217.01906562150543	217.6274063323945	0.6083407108890242				
246.1142578125	0.2	504042	170	75	1	0	0	75	68	stimuli\Videos_short_600ms\71.single_stroke_with_finger_top_to_bottom_short_short_600ms.mp4	71.single_stroke_with_finger_top_to_bottom_short_short_600ms.mp4	217.81907219019195	218.4273944266461	0.6083222364541143				
246.91455078125	0.2	505681	171	75	1	0	0	76	258	stimuli\Videos_short_600ms_horvertflip\80.stroke_with_sharp_stick_all_over_the_hand_short_horvertflip_short_600ms.mp4	80.stroke_with_sharp_stick_all_over_the_hand_short_horvertflip_short_600ms.mp4	218.61905412629855	219.22737460327696	0.6083204769784061				
247.71435546875	0.2	507319	172	75	1	0	0	77	152	stimuli\Videos_short_600ms_horflip\66.stroke_top_to_bottom_with_sponge_short_horflip_short_600ms.mp4	66.stroke_top_to_bottom_with_sponge_short_horflip_short_600ms.mp4	219.4190410475676	220.0273585920986	0.6083175445310189				
248.5146484375	0.2	508958	173	75	1	0	1	78	377	stimuli\Targets_short_600ms_horvertflip\hand-stroke_short_vertflip_short_600ms.mp4	hand-stroke_short_vertflip_short_600ms.mp4	220.21902210393455	220.8273405282016	0.6083184242670541				
249.314453125	0.2	510596	174	75	1	0	0	79	314	stimuli\Videos_short_600ms_vertflip\5.repeated_tap_with_finger_moving_from_top_to_bottom_short_vertflip_short_600ms.mp4	5.repeated_tap_with_finger_moving_from_top_to_bottom_short_vertflip_short_600ms.mp4	221.0190113711651	221.62732363728355	0.6083122661184461				
250.1142578125	0.2	512234	175	75	1	0	0	80	165	stimuli\Videos_short_600ms_horflip\78.single_stroke_top_to_bottom_with_soft_brush_short_horflip_short_600ms.mp4	78.single_stroke_top_to_bottom_with_soft_brush_short_horflip_short_600ms.mp4	221.8189874423697	222.4273067463691	0.6083193039994512				
250.91455078125	0.2	513873	176	75	1	0	0	81	279	stimuli\Videos_short_600ms_vertflip\18.single_stroke_from_top_to_bottom_with_rolling_pin_short_vertflip_short_600ms.mp4	18.single_stroke_from_top_to_bottom_with_rolling_pin_short_vertflip_short_600ms.mp4	222.6189277376725	223.22729366763815	0.6083659299656574				
251.71435546875	0.2	515511	177	75	1	0	0	82	167	stimuli\Videos_short_600ms_horflip\8.single_touch_with_hairbrush_short_horflip_short_600ms.mp4	8.single_touch_with_hairbrush_short_horflip_short_600ms.mp4	223.41891847112856	224.0272738442727	0.6083553731441498				
252.51416015625	0.2	517149	178	75	1	0	0	83	83	stimuli\Videos_short_600ms\85.touch_top_to_bottom_with_fabric_short_short_600ms.mp4	85.touch_top_to_bottom_with_fabric_short_short_600ms.mp4	224.21891917491664	224.82725959256277	0.6083404176461045				
253.314453125	0.2	518788	179	75	1	0	0	84	175	stimuli\Videos_short_600ms_horflip\87.single_stroke_top_to_bottom_with_plastic_brush_short_horflip_short_600ms.mp4	87.single_stroke_top_to_bottom_with_plastic_brush_short_horflip_short_600ms.mp4	225.01892398413472	225.62724211515524	0.6083181310204964				
254.1142578125	0.2	520426	180	75	1	0	0	85	337	stimuli\Videos_short_600ms_vertflip\70.(long)stroke_with_finger_all_over_the_hand_short_vertflip_short_600ms.mp4	70.(long)stroke_with_finger_all_over_the_hand_short_vertflip_short_600ms.mp4	225.8188974161312	226.4272161336412	0.6083187175099738				
254.9140625	0.2	522064	181	75	1	0	0	86	131	stimuli\Videos_short_600ms_horflip\47.(long)scratching_with_finger_nails_short_horflip_short_600ms.mp4	47.(long)scratching_with_finger_nails_short_horflip_short_600ms.mp4	226.61889841316588	227.22717431689307	0.6082759037271899				
255.71435546875	0.2	523703	182	75	1	0	0	87	268	stimuli\Videos_short_600ms_horvertflip\9.single_touch_with_hammer_short_horvertflip_short_600ms.mp4	9.single_touch_with_hammer_short_horvertflip_short_600ms.mp4	227.4188832817199	228.02717208823375	0.6082888065138832				
256.51416015625	0.2	525341	183	75	1	0	0	88	89	stimuli\Videos_short_600ms\90.repeated_touch_with_sponge_short_short_600ms.mp4	90.repeated_touch_with_sponge_short_short_600ms.mp4	228.21885436775483	228.8271302714857	0.6082759037308278				
257.31396484375	0.2	526979	184	75	1	0	0	89	27	stimuli\Videos_short_600ms\34.repeated_punch_with_hand_short_short_600ms.mp4	34.repeated_punch_with_hand_short_short_600ms.mp4	229.01884803366193	229.6271125008352	0.6082644671732851				
258.1142578125	0.2	528618	185	75	1	0	0	90	334	stimuli\Videos_short_600ms_vertflip\68.stroke_top_to_bottom_with_shawl_short_vertflip_short_600ms.mp4	68.stroke_top_to_bottom_with_shawl_short_vertflip_short_600ms.mp4	229.8188255710884	230.42712816012136	0.6083025890329736				
258.9140625	0.2	530256	186	75	1	0	0	91	252	stimuli\Videos_short_600ms_horvertflip\75.(long)stroke_with_fingers_all_over_the_hand_short_horvertflip_short_600ms.mp4	75.(long)stroke_with_fingers_all_over_the_hand_short_horvertflip_short_600ms.mp4	230.61881278560395	231.227131209871	0.6083184242670541				
259.7138671875	0.2	531894	187	75	1	0	0	92	129	stimuli\Videos_short_600ms_horflip\45.scratching_with_finger_nails_short_horflip_short_600ms.mp4	45.scratching_with_finger_nails_short_horflip_short_600ms.mp4	231.41878739057935	232.02711754465057	0.6083301540711545				
260.51416015625	0.2	533533	188	75	1	0	0	93	331	stimuli\Videos_short_600ms_vertflip\65.stroke_top_to_bottom_with_stanley_knife_short_vertflip_short_600ms.mp4	65.stroke_top_to_bottom_with_stanley_knife_short_vertflip_short_600ms.mp4	232.21877108615445	232.82710124022196	0.6083301540675166				
261.31396484375	0.2	535171	189	75	1	0	0	94	313	stimuli\Videos_short_600ms_vertflip\49.repeated_slap_with_hand_short_vertflip_short_600ms.mp4	49.repeated_slap_with_hand_short_vertflip_short_600ms.mp4	233.018757420934	233.62707467221844	0.6083172512844612				
262.11376953125	0.2	536809	190	75	1	0	0	95	229	stimuli\Videos_short_600ms_horvertflip\54.repeated_touch_with_knife_short_horvertflip_short_600ms.mp4	54.repeated_touch_with_knife_short_horvertflip_short_600ms.mp4	233.818738184058	234.4270595407725	0.6083213567144412				
262.9140625	0.2	538448	191	75	1	0	0	96	234	stimuli\Videos_short_600ms_horvertflip\59.single_push_with_long_side_pencil_short_horvertflip_short_600ms.mp4	59.single_push_with_long_side_pencil_short_horvertflip_short_600ms.mp4	234.61869929976092	235.22704352959408	0.6083442298331647				
263.7138671875	0.2	540086	192	75	1	0	0	97	333	stimuli\Videos_short_600ms_vertflip\67.single_touch_with_sponge_short_vertflip_short_600ms.mp4	67.single_touch_with_sponge_short_vertflip_short_600ms.mp4	235.41870968063813	236.02702605218656	0.6083163715484261				
264.513671875	0.2	541724	193	75	1	0	0	98	85	stimuli\Videos_short_600ms\87.single_stroke_top_to_bottom_with_plastic_brush_short_short_600ms.mp4	87.single_stroke_top_to_bottom_with_plastic_brush_short_short_600ms.mp4	236.2186992411116	236.82700622882112	0.6083069877095113	9.0	9.0	2.9363189004943706	1.0
300.09619140625	0.2	614597	194	75	2	0	0	0	40	stimuli\Videos_short_600ms\46.scratching_top_to_bottom_with_finger_nails_short_short_600ms.mp4	46.scratching_top_to_bottom_with_finger_nails_short_short_600ms.mp4	271.8012777860713	272.4095988495428	0.6083210634715215				
300.89599609375	0.2	616235	195	75	2	0	0	1	111	stimuli\Videos_short_600ms_horflip\29.single_pinch_with_tweezers_short_horflip_short_600ms.mp4	29.single_pinch_with_tweezers_short_horflip_short_600ms.mp4	272.6012661735658	273.2095825451179	0.6083163715520641				
301.69580078125	0.2	617873	196	75	2	0	0	2	286	stimuli\Videos_short_600ms_vertflip\24.single_stroke_top_to_bottom_with_a_spoon_short_vertflip_short_600ms.mp4	24.single_stroke_top_to_bottom_with_a_spoon_short_vertflip_short_600ms.mp4	273.40124752317934	274.0095659474464	0.6083184242670541				
302.49609375	0.2	619512	197	75	2	0	0	3	134	stimuli\Videos_short_600ms_horflip\5.repeated_tap_with_finger_moving_from_top_to_bottom_short_horflip_short_600ms.mp4	5.repeated_tap_with_finger_moving_from_top_to_bottom_short_horflip_short_600ms.mp4	274.20221828166177	274.80954905652834	0.6073307748665684				
303.2958984375	0.2	621150	198	75	2	0	0	4	101	stimuli\Videos_short_600ms_horflip\2.single_touch_with_finger_short_horflip_short_600ms.mp4	2.single_touch_with_finger_short_horflip_short_600ms.mp4	275.001341009709	275.60953304534996	0.6081920356409682				
304.095703125	0.2	622788	199	75	2	0	0	5	185	stimuli\Videos_short_600ms_horvertflip\14.repeated_touch_with_pencil_short_horvertflip_short_600ms.mp4	14.repeated_touch_with_pencil_short_horvertflip_short_600ms.mp4	275.80115374340676	276.40951498145296	0.6083612380462				
304.89599609375	0.2	624427	200	75	2	0	0	6	211	stimuli\Videos_short_600ms_horvertflip\38.double_slap_with_pencil_short_horvertflip_short_600ms.mp4	38.double_slap_with_pencil_short_horvertflip_short_600ms.mp4	276.6011608985864	277.2094995567604	0.6083386581740342				
305.69580078125	0.2	626065	201	75	2	0	0	7	253	stimuli\Videos_short_600ms_horvertflip\76.tickle_with_fingers_from_top_to_bottom_short_horvertflip_short_600ms.mp4	76.tickle_with_fingers_from_top_to_bottom_short_horvertflip_short_600ms.mp4	277.40115163204246	278.0094791469055	0.6083275148630491				
306.49609375	0.2	627704	202	75	2	0	0	8	133	stimuli\Videos_short_600ms_horflip\49.repeated_slap_with_hand_short_horflip_short_600ms.mp4	49.repeated_slap_with_hand_short_horflip_short_600ms.mp4	278.20115380205607	278.8094018475058	0.6082480454497272				
307.2958984375	0.2	629342	203	75	2	0	0	9	63	stimuli\Videos_short_600ms\67.single_touch_with_sponge_short_short_600ms.mp4	67.single_touch_with_sponge_short_short_600ms.mp4	279.0011366178951	279.60939609990237	0.60825948200727				
308.095703125	0.2	630980	204	75	2	0	0	10	283	stimuli\Videos_short_600ms_vertflip\21.repeated_touch_with_metal_chopstick_short_vertflip_short_600ms.mp4	21.repeated_touch_with_metal_chopstick_short_vertflip_short_600ms.mp4	279.8011123958531	280.40940794700145	0.6082955511483306				
308.89599609375	0.2	632619	205	75	2	0	0	11	289	stimuli\Videos_short_600ms_vertflip\27.single_push_with_a_plastic_whisk_short_vertflip_short_600ms.mp4	27.single_push_with_a_plastic_whisk_short_vertflip_short_600ms.mp4	280.60109667791767	281.20941480893816	0.6083181310204964				
309.69580078125	0.2	634257	206	75	2	0	0	12	269	stimuli\Videos_short_600ms_horvertflip\90.repeated_touch_with_sponge_short_horvertflip_short_600ms.mp4	90.repeated_touch_with_sponge_short_horvertflip_short_600ms.mp4	281.4010789072636	282.0093826692755	0.6083037620119285				
310.49560546875	0.2	635895	207	75	2	0	1	13	375	stimuli\Targets_short_600ms_horvertflip\finger-tap_short_vertflip_short_600ms.mp4	finger-tap_short_vertflip_short_600ms.mp4	282.20106260283865	282.8093678310761	0.608305228237441				
311.2958984375	0.2	637534	208	75	2	0	0	14	281	stimuli\Videos_short_600ms_vertflip\2.single_touch_with_finger_short_vertflip_short_600ms.mp4	2.single_touch_with_finger_short_vertflip_short_600ms.mp4	283.00105069709025	283.60937791870674	0.6083272216164914				
312.095703125	0.2	639172	209	75	2	0	0	15	203	stimuli\Videos_short_600ms_horvertflip\30.finger_pulling_back_another_finger_short_horvertflip_short_600ms.mp4	30.finger_pulling_back_another_finger_short_horvertflip_short_600ms.mp4	283.80102706153775	284.40934871149875	0.6083216499609989				
312.8955078125	0.2	640810	210	75	2	0	0	16	28	stimuli\Videos_short_600ms\35.single_punch_with_hand_short_short_600ms.mp4	35.single_punch_with_hand_short_short_600ms.mp4	284.6010107571092	285.2093379787293	0.6083272216201294				
313.69580078125	0.2	642449	211	75	2	0	0	17	215	stimuli\Videos_short_600ms_horvertflip\41.injection_with_blunt_syringe_short_horvertflip_short_600ms.mp4	41.injection_with_blunt_syringe_short_horvertflip_short_600ms.mp4	285.40099738513527	286.00931551615577	0.6083181310204964				
314.49560546875	0.2	644087	212	75	2	0	0	18	93	stimuli\Videos_short_600ms_horflip\12.repeated_touch_with_nail_file_short_horflip_short_600ms.mp4	12.repeated_touch_with_nail_file_short_horflip_short_600ms.mp4	286.20098284017877	286.8092986252377	0.6083157850589487				
315.29541015625	0.2	645725	213	75	2	0	0	19	132	stimuli\Videos_short_600ms_horflip\48.single_slap_with_hand_short_horflip_short_600ms.mp4	48.single_slap_with_hand_short_horflip_short_600ms.mp4	287.0009615505878	287.6092796816083	0.6083181310204964				
316.095703125	0.2	647364	214	75	2	0	0	20	271	stimuli\Videos_short_600ms_vertflip\10.single_touch_with_knife_short_vertflip_short_600ms.mp4	10.single_touch_with_knife_short_vertflip_short_600ms.mp4	287.8009522840439	288.40926542989837	0.6083131458544813				
316.8955078125	0.2	649002	215	75	2	0	0	21	172	stimuli\Videos_short_600ms_horflip\84.single_touch_with_cotton_bud_short_horflip_short_600ms.mp4	84.single_touch_with_cotton_bud_short_horflip_short_600ms.mp4	288.6009280620019	289.20925000520583	0.6083219432039186				
317.6953125	0.2	650640	216	75	2	0	0	22	115	stimuli\Videos_short_600ms_horflip\32.single_(long)pinch_with_fingers_short_horflip_short_600ms.mp4	32.single_(long)pinch_with_fingers_short_horflip_short_600ms.mp4	289.4008944561174	290.0092319413088	0.6083374851914414				
318.49560546875	0.2	652279	217	75	2	0	0	23	308	stimuli\Videos_short_600ms_vertflip\44.pushing_top_to_bottom_with_finger_short_vertflip_short_600ms.mp4	44.pushing_top_to_bottom_with_finger_short_vertflip_short_600ms.mp4	290.20085117314375	290.80921475714786	0.6083635840041097				
319.29541015625	0.2	653917	218	75	2	0	0	24	169	stimuli\Videos_short_600ms_horflip\81.single_stroke_top_to_bottom_with_cotton_pad_short_horflip_short_600ms.mp4	81.single_stroke_top_to_bottom_with_cotton_pad_short_horflip_short_600ms.mp4	291.0008577418339	291.6091984527229	0.6083407108890242				
320.09521484375	0.2	655555	219	75	2	0	1	25	378	stimuli\Targets_short_600ms_vertflip\brush-stroke_short_horvertflip_short_600ms.mp4	brush-stroke_short_horvertflip_short_600ms.mp4	291.80119538420695	292.4091774563749	0.6079820721679425				
320.8955078125	0.2	657194	220	75	2	0	0	26	226	stimuli\Videos_short_600ms_horvertflip\51.repeated_touch_with_hammer_short_horvertflip_short_600ms.mp4	51.repeated_touch_with_hammer_short_horvertflip_short_600ms.mp4	292.60090196318924	293.2091429707543	0.6082410075650841				
321.6953125	0.2	658832	221	75	2	0	0	27	120	stimuli\Videos_short_600ms_horflip\37.single_stab_with_nail_file_short_horflip_short_600ms.mp4	37.single_stab_with_nail_file_short_horflip_short_600ms.mp4	293.4007929933214	294.00911317705686	0.6083201837354864				
322.4951171875	0.2	660470	222	75	2	0	0	28	44	stimuli\Videos_short_600ms\5.repeated_tap_with_finger_moving_from_top_to_bottom_short_short_600ms.mp4	5.repeated_tap_with_finger_moving_from_top_to_bottom_short_short_600ms.mp4	294.20082008916506	294.80910566998136	0.6082855808163004				
323.29541015625	0.2	662109	223	75	2	0	0	29	21	stimuli\Videos_short_600ms\29.single_pinch_with_tweezers_short_short_600ms.mp4	29.single_pinch_with_tweezers_short_short_600ms.mp4	295.00079616036965	295.60910080211397	0.6083046417443256				
324.09521484375	0.2	663747	224	75	2	0	0	30	184	stimuli\Videos_short_600ms_horvertflip\13.single_touch_with_pen_short_horvertflip_short_600ms.mp4	13.single_touch_with_pen_short_horvertflip_short_600ms.mp4	295.8007757505111	296.40907218139546	0.6082964308843657				
324.89501953125	0.2	665385	225	75	2	0	0	31	24	stimuli\Videos_short_600ms\31.hand_grabbing_wrist_short_short_600ms.mp4	31.hand_grabbing_wrist_short_short_600ms.mp4	296.6007588595967	297.209070539222	0.6083116796253307				
325.6953125	0.2	667024	226	75	2	0	0	32	282	stimuli\Videos_short_600ms_vertflip\20.single_touch_with_screwdriver_short_vertflip_short_600ms.mp4	20.single_touch_with_screwdriver_short_vertflip_short_600ms.mp4	297.4007437281507	298.0090469036695	0.6083031755188131				
326.4951171875	0.2	668662	227	75	2	0	0	33	69	stimuli\Videos_short_600ms\72.(short)stroke_with_finger_all_over_the_hand_short_short_600ms.mp4	72.(short)stroke_with_finger_all_over_the_hand_short_short_600ms.mp4	298.2007277169687	298.80906226971274	0.6083345527440542				
327.29541015625	0.2	670301	228	75	2	0	0	34	301	stimuli\Videos_short_600ms_vertflip\38.double_slap_with_pencil_short_vertflip_short_600ms.mp4	38.double_slap_with_pencil_short_vertflip_short_600ms.mp4	299.0007084800927	299.608991128458	0.6082826483652752				
328.09521484375	0.2	671939	229	75	2	0	0	35	149	stimuli\Videos_short_600ms_horflip\63.stroke_top_to_bottom_with_screwdriver_short_horflip_short_600ms.mp4	63.stroke_top_to_bottom_with_screwdriver_short_horflip_short_600ms.mp4	299.8006930554002	300.4090147053612	0.6083216499609989				
328.89501953125	0.2	673577	230	75	2	0	0	36	194	stimuli\Videos_short_600ms_horvertflip\22.single_touch_with_metal_chopstick_short_horvertflip_short_600ms.mp4	22.single_touch_with_metal_chopstick_short_horvertflip_short_600ms.mp4	300.60114242414784	301.2089986941828	0.6078562700349721				
329.70361328125	0.2	675233	231	75	2	0	0	37	270	stimuli\Videos_short_600ms_vertflip\1.repeated_touch_with_finger_fast_short_vertflip_short_600ms.mp4	1.repeated_touch_with_finger_fast_short_vertflip_short_600ms.mp4	301.4089924187356	302.01729706048354	0.6083046417479636				
330.50341796875	0.2	676871	232	75	2	0	0	38	191	stimuli\Videos_short_600ms_horvertflip\2.single_touch_with_finger_short_horvertflip_short_600ms.mp4	2.single_touch_with_finger_short_horvertflip_short_600ms.mp4	302.20897758053616	302.8172772371181	0.6082996565819485				
331.30322265625	0.2	678509	233	75	2	0	0	39	196	stimuli\Videos_short_600ms_horvertflip\24.single_stroke_top_to_bottom_with_a_spoon_short_horvertflip_short_600ms.mp4	24.single_stroke_top_to_bottom_with_a_spoon_short_horvertflip_short_600ms.mp4	303.0089583436602	303.6172647448766	0.6083064012163959				
332.103515625	0.2	680148	234	75	2	0	0	40	79	stimuli\Videos_short_600ms\81.single_stroke_top_to_bottom_with_cotton_pad_short_short_600ms.mp4	81.single_stroke_top_to_bottom_with_cotton_pad_short_short_600ms.mp4	303.8089291364522	304.41727424601777	0.6083451095655619				
332.9033203125	0.2	681786	235	75	2	0	0	41	280	stimuli\Videos_short_600ms_vertflip\19.single_touch_with_rolling_pin_short_vertflip_short_600ms.mp4	19.single_touch_with_rolling_pin_short_vertflip_short_600ms.mp4	304.6089266145427	305.2172453320527	0.6083187175099738				
333.703125	0.2	683424	236	75	2	0	1	42	373	stimuli\Targets_short_600ms_horvertflip\chopstick-silver-tap_short_vertflip_short_600ms.mp4	chopstick-silver-tap_short_vertflip_short_600ms.mp4	305.4089091371352	306.01722961411724	0.6083204769820441				
334.50341796875	0.2	685063	237	75	2	0	0	43	158	stimuli\Videos_short_600ms_horflip\71.single_stroke_with_finger_top_to_bottom_short_horflip_short_600ms.mp4	71.single_stroke_with_finger_top_to_bottom_short_horflip_short_600ms.mp4	306.20889253946734	306.8172159488968	0.6083234094294312				
335.30322265625	0.2	686701	238	75	2	0	0	44	246	stimuli\Videos_short_600ms_horvertflip\7.repeated_touch_with_hairbrush_short_horvertflip_short_600ms.mp4	7.repeated_touch_with_hairbrush_short_horvertflip_short_600ms.mp4	307.0088771147748	307.61719553904186	0.6083184242670541				
336.10302734375	0.2	688339	239	75	2	0	0	45	15	stimuli\Videos_short_600ms\23.single_push_with_a_spoon_short_short_600ms.mp4	23.single_push_with_a_spoon_short_short_600ms.mp4	307.80886814147743	308.4171783548809	0.6083102134034561				
336.9033203125	0.2	689978	240	75	2	0	0	46	236	stimuli\Videos_short_600ms_horvertflip\60.single_push_with_tip_of_pencil_short_horvertflip_short_600ms.mp4	60.single_push_with_tip_of_pencil_short_horvertflip_short_600ms.mp4	308.60886004791246	309.2171620504523	0.6083020025398582				
337.703125	0.2	691616	241	75	2	0	0	47	285	stimuli\Videos_short_600ms_vertflip\23.single_push_with_a_spoon_short_vertflip_short_600ms.mp4	23.single_push_with_a_spoon_short_vertflip_short_600ms.mp4	309.4087909593727	310.0171457460274	0.6083547866546724				
338.5029296875	0.2	693254	242	75	2	0	1	48	364	stimuli\Targets_short_600ms\hand-pinch_short_short_600ms.mp4	hand-pinch_short_short_600ms.mp4	310.2087916631608	310.81712944160245	0.6083377784416371				
339.30322265625	0.2	694893	243	75	2	0	0	49	298	stimuli\Videos_short_600ms_vertflip\35.single_punch_with_hand_short_vertflip_short_600ms.mp4	35.single_punch_with_hand_short_vertflip_short_600ms.mp4	311.0087542450892	311.6171122574415	0.6083580123522552				
340.10302734375	0.2	696531	244	75	2	0	0	50	176	stimuli\Videos_short_600ms_horflip\88.repeated_stroke_with_plastic_brush_short_horflip_short_600ms.mp4	88.repeated_stroke_with_plastic_brush_short_horflip_short_600ms.mp4	311.8087514299368	312.4170921408295	0.6083407108926622				
340.90283203125	0.2	698169	245	75	2	0	0	51	318	stimuli\Videos_short_600ms_vertflip\53.touch_top_to_bottom_with_knife_short_vertflip_short_600ms.mp4	53.touch_top_to_bottom_with_knife_short_vertflip_short_600ms.mp4	312.6087442161079	313.21708375401795	0.6083395379100693				
341.703125	0.2	699808	246	75	2	0	0	52	345	stimuli\Videos_short_600ms_vertflip\78.single_stroke_top_to_bottom_with_soft_brush_short_vertflip_short_600ms.mp4	78.single_stroke_top_to_bottom_with_soft_brush_short_vertflip_short_600ms.mp4	313.40872439274244	314.0170102668053	0.6082858740628581				
342.5029296875	0.2	701446	247	75	2	0	0	53	20	stimuli\Videos_short_600ms\28.single_injection_with_sharp_needle_short_short_600ms.mp4	28.single_injection_with_sharp_needle_short_short_600ms.mp4	314.20873711957756	314.8169810595973	0.6082439400197472				
343.302734375	0.2	703084	248	75	2	0	1	54	363	stimuli\Targets_short_600ms\finger-tap_short_short_600ms.mp4	finger-tap_short_short_600ms.mp4	315.0087073258801	315.61702252444957	0.6083151985694712				
344.10302734375	0.2	704723	249	75	2	0	0	55	49	stimuli\Videos_short_600ms\54.repeated_touch_with_knife_short_short_600ms.mp4	54.repeated_touch_with_knife_short_short_600ms.mp4	315.8086913146981	316.4169657522034	0.6082744375053153				
344.90283203125	0.2	706361	250	75	2	0	0	56	104	stimuli\Videos_short_600ms_horflip\22.single_touch_with_metal_chopstick_short_horflip_short_600ms.mp4	22.single_touch_with_metal_chopstick_short_horflip_short_600ms.mp4	316.60867442378367	317.2169705614215	0.608296137637808				
345.703125	0.2	708000	251	75	2	0	0	57	214	stimuli\Videos_short_600ms_horvertflip\40.repeated_push_with_finger_short_horvertflip_short_600ms.mp4	40.repeated_push_with_finger_short_horvertflip_short_600ms.mp4	317.40863964491655	318.01695777593704	0.6083181310204964				
346.5029296875	0.2	709638	252	75	2	0	0	58	48	stimuli\Videos_short_600ms\53.touch_top_to_bottom_with_knife_short_short_600ms.mp4	53.touch_top_to_bottom_with_knife_short_short_600ms.mp4	318.20863976221517	318.81695173508706	0.6083119728718884				
347.302734375	0.2	711276	253	75	2	0	0	59	358	stimuli\Videos_short_600ms_vertflip\9.single_touch_with_hammer_short_vertflip_short_600ms.mp4	9.single_touch_with_hammer_short_vertflip_short_600ms.mp4	319.0086225780542	319.6169559578193	0.6083333797650994				
348.10302734375	0.2	712915	254	75	2	0	0	60	315	stimuli\Videos_short_600ms_vertflip\50.single_(long)hard_push_with_thumb_short_vertflip_short_600ms.mp4	50.single_(long)hard_push_with_thumb_short_vertflip_short_600ms.mp4	319.80860715336166	320.41692851007974	0.6083213567180792				
348.90283203125	0.2	714553	255	75	2	0	0	61	91	stimuli\Videos_short_600ms_horflip\10.single_touch_with_knife_short_horflip_short_600ms.mp4	10.single_touch_with_knife_short_horflip_short_600ms.mp4	320.60859026244725	321.2169212962508	0.6083310338035517				
349.70263671875	0.2	716191	256	75	2	0	0	62	350	stimuli\Videos_short_600ms_vertflip\82.repeated_touch_with_cotton_bud_short_vertflip_short_600ms.mp4	82.repeated_touch_with_cotton_bud_short_vertflip_short_600ms.mp4	321.4085848080904	322.0168912093068	0.6083064012163959				
350.5029296875	0.2	717830	257	75	2	0	0	63	242	stimuli\Videos_short_600ms_horvertflip\66.stroke_top_to_bottom_with_sponge_short_horvertflip_short_600ms.mp4	66.stroke_top_to_bottom_with_sponge_short_horvertflip_short_600ms.mp4	322.20856527796786	322.8168754913713	0.6083102134034561				
351.302734375	0.2	719468	258	75	2	0	0	64	137	stimuli\Videos_short_600ms_horflip\52.touch_top_to_bottom_with_hammer_short_horflip_short_600ms.mp4	52.touch_top_to_bottom_with_hammer_short_horflip_short_600ms.mp4	323.0085378302283	323.61686035992534	0.608322529697034				
352.1025390625	0.2	721106	259	75	2	0	0	65	241	stimuli\Videos_short_600ms_horvertflip\65.stroke_top_to_bottom_with_stanley_knife_short_horvertflip_short_600ms.mp4	65.stroke_top_to_bottom_with_stanley_knife_short_horvertflip_short_600ms.mp4	323.8085282704378	324.4168464014583	0.6083181310204964				
352.90283203125	0.2	722745	260	75	2	0	0	66	228	stimuli\Videos_short_600ms_horvertflip\53.touch_top_to_bottom_with_knife_short_horvertflip_short_600ms.mp4	53.touch_top_to_bottom_with_knife_short_horvertflip_short_600ms.mp4	324.6085181241615	325.21682511186737	0.6083069877058733				
353.70263671875	0.2	724383	261	75	2	0	0	67	220	stimuli\Videos_short_600ms_horvertflip\46.scratching_top_to_bottom_with_finger_nails_short_horvertflip_short_600ms.mp4	46.scratching_top_to_bottom_with_finger_nails_short_horvertflip_short_600ms.mp4	325.4084446369452	326.0168093939319	0.6083647569867026				
354.50244140625	0.2	726021	262	75	2	0	0	68	80	stimuli\Videos_short_600ms\82.repeated_touch_with_cotton_bud_short_short_600ms.mp4	82.repeated_touch_with_cotton_bud_short_short_600ms.mp4	326.2084556043119	326.8167954354649	0.6083398311529891				
355.302734375	0.2	727660	263	75	2	0	0	69	238	stimuli\Videos_short_600ms_horvertflip\62.touch_top_to_bottom_with_scissors_short_horvertflip_short_600ms.mp4	62.touch_top_to_bottom_with_scissors_short_horvertflip_short_600ms.mp4	327.0084111483593	327.6167753188529	0.6083641704935872				
356.1025390625	0.2	729298	264	75	2	0	0	70	341	stimuli\Videos_short_600ms_vertflip\74.fingers_walking_from_top_to_bottom_short_vertflip_short_600ms.mp4	74.fingers_walking_from_top_to_bottom_short_vertflip_short_600ms.mp4	327.8084238751944	328.4167584279385	0.6083345527440542				
356.90234375	0.2	730936	265	75	2	0	0	71	98	stimuli\Videos_short_600ms_horflip\17.repeated_touch_with_rolling_pin_short_horflip_short_600ms.mp4	17.repeated_touch_with_rolling_pin_short_horflip_short_600ms.mp4	328.6084084505019	329.2167195436414	0.6083110931394913				
357.70263671875	0.2	732575	266	75	2	0	0	72	105	stimuli\Videos_short_600ms_horflip\23.single_push_with_a_spoon_short_horflip_short_600ms.mp4	23.single_push_with_a_spoon_short_horflip_short_600ms.mp4	329.4084138462131	330.0166932688844	0.6082794226713304				
358.50244140625	0.2	734213	267	75	2	0	0	73	61	stimuli\Videos_short_600ms\65.stroke_top_to_bottom_with_stanley_knife_short_short_600ms.mp4	65.stroke_top_to_bottom_with_stanley_knife_short_short_600ms.mp4	330.20839695529503	330.81666230220435	0.6082653469093202				
359.30224609375	0.2	735851	268	75	2	0	0	74	237	stimuli\Videos_short_600ms_horvertflip\61.single_hit_with_rolling_pin_short_horvertflip_short_600ms.mp4	61.single_hit_with_rolling_pin_short_horvertflip_short_600ms.mp4	331.0083700940486	331.6166483437373	0.6082782496887376				
360.1025390625	0.2	737490	269	75	2	0	1	75	374	stimuli\Targets_short_600ms_horvertflip\chopstickwood-tap_short_vertflip_short_600ms.mp4	chopstickwood-tap_short_vertflip_short_600ms.mp4	331.80835466935605	332.41665256646957	0.6082978971135162				
360.90234375	0.2	739128	270	75	2	0	0	76	140	stimuli\Videos_short_600ms_horflip\55.touch_top_to_bottom_with_nail_file_short_horflip_short_600ms.mp4	55.touch_top_to_bottom_with_nail_file_short_horflip_short_600ms.mp4	332.6083366054627	333.2166397809815	0.6083031755188131				
361.7021484375	0.2	740766	271	75	2	0	0	77	188	stimuli\Videos_short_600ms_horvertflip\17.repeated_touch_with_rolling_pin_short_horvertflip_short_600ms.mp4	17.repeated_touch_with_rolling_pin_short_horvertflip_short_600ms.mp4	333.4083208875272	334.01662201033105	0.6083011228038231				
362.50244140625	0.2	742405	272	75	2	0	1	78	367	stimuli\Targets_short_600ms_horflip\chopstick-silver-tap_short_horflip_short_600ms.mp4	chopstick-silver-tap_short_horflip_short_600ms.mp4	334.2083083952857	334.81663385743377	0.6083254621480592				
363.30224609375	0.2	744043	273	75	2	0	0	79	173	stimuli\Videos_short_600ms_horflip\85.touch_top_to_bottom_with_fabric_short_horflip_short_600ms.mp4	85.touch_top_to_bottom_with_fabric_short_horflip_short_600ms.mp4	335.0082677515202	335.6166155002902	0.6083477487700293				
364.10205078125	0.2	745681	274	75	2	0	0	80	213	stimuli\Videos_short_600ms_horvertflip\4.repeated_tap_with_finger_slow_short_horvertflip_short_600ms.mp4	4.repeated_tap_with_finger_slow_short_horvertflip_short_600ms.mp4	335.8082722674917	336.4165959701677	0.6083237026759889				
364.90234375	0.2	747320	275	75	2	0	0	81	197	stimuli\Videos_short_600ms_horvertflip\25.single_touch_with_stanley_knife_short_horvertflip_short_600ms.mp4	25.single_touch_with_stanley_knife_short_horvertflip_short_600ms.mp4	336.60826358743725	337.21657409408726	0.6083105066500138				
365.7021484375	0.2	748958	276	75	2	0	0	82	143	stimuli\Videos_short_600ms_horflip\58.single_slap_with_pencil_short_horflip_short_600ms.mp4	58.single_slap_with_pencil_short_horflip_short_600ms.mp4	337.4082352599653	338.0165569099263	0.6083216499609989				
366.50244140625	0.2	750597	277	75	2	0	0	83	78	stimuli\Videos_short_600ms\80.stroke_with_sharp_stick_all_over_the_hand_short_short_600ms.mp4	80.stroke_with_sharp_stick_all_over_the_hand_short_short_600ms.mp4	338.20821778255777	338.81653708656086	0.6083193040030892				
367.30224609375	0.2	752235	278	75	2	0	0	84	150	stimuli\Videos_short_600ms_horflip\64.repeated_touch_with_screwdriver_short_horflip_short_600ms.mp4	64.repeated_touch_with_screwdriver_short_horflip_short_600ms.mp4	339.0082061700523	339.6165219551149	0.6083157850625867				
368.10205078125	0.2	753873	279	75	2	0	1	85	361	stimuli\Targets_short_600ms\chopstick-silver-tap_short_short_600ms.mp4	chopstick-silver-tap_short_short_600ms.mp4	339.8081540897292	340.4165035979713	0.6083495082420995				
368.90234375	0.2	755512	280	75	2	0	0	86	26	stimuli\Videos_short_600ms\33.scratch_top_to_bottom_with_scissors_short_short_600ms.mp4	33.scratch_top_to_bottom_with_scissors_short_short_600ms.mp4	340.6081688692793	341.2164905192403	0.6083216499609989				
369.7021484375	0.2	757150	281	75	2	0	0	87	90	stimuli\Videos_short_600ms_horflip\1.repeated_touch_with_finger_fast_short_horflip_short_600ms.mp4	1.repeated_touch_with_finger_fast_short_horflip_short_600ms.mp4	341.4081399553179	342.01647392157247	0.6083339662545768				
370.501953125	0.2	758788	282	75	2	0	1	88	376	stimuli\Targets_short_600ms_horvertflip\hand-pinch_short_vertflip_short_600ms.mp4	hand-pinch_short_vertflip_short_600ms.mp4	342.2081113345994	342.8164567374115	0.6083454028121196				
371.30224609375	0.2	760427	283	75	2	0	0	89	99	stimuli\Videos_short_600ms_horflip\18.single_stroke_from_top_to_bottom_with_rolling_pin_short_horflip_short_600ms.mp4	18.single_stroke_from_top_to_bottom_with_rolling_pin_short_horflip_short_600ms.mp4	343.0080891652724	343.6164366207995	0.6083474555271096				
372.10205078125	0.2	762065	284	75	2	0	0	90	151	stimuli\Videos_short_600ms_horflip\65.stroke_top_to_bottom_with_stanley_knife_short_horflip_short_600ms.mp4	65.stroke_top_to_bottom_with_stanley_knife_short_horflip_short_600ms.mp4	343.8080851771374	344.41640448113685	0.6083193039994512				
372.90185546875	0.2	763703	285	75	2	0	0	91	161	stimuli\Videos_short_600ms_horflip\74.fingers_walking_from_top_to_bottom_short_horflip_short_600ms.mp4	74.fingers_walking_from_top_to_bottom_short_horflip_short_600ms.mp4	344.60887588314654	345.21640371869944	0.6075278355529008				
373.7021484375	0.2	765342	286	75	2	0	0	92	306	stimuli\Videos_short_600ms_vertflip\42.single_slap_with_plastic_whisk_short_vertflip_short_600ms.mp4	42.single_slap_with_plastic_whisk_short_vertflip_short_600ms.mp4	345.4080728021945	346.01636395466994	0.6082911524754309				
374.501953125	0.2	766980	287	75	2	0	0	93	239	stimuli\Videos_short_600ms_horvertflip\63.stroke_top_to_bottom_with_screwdriver_short_horvertflip_short_600ms.mp4	63.stroke_top_to_bottom_with_screwdriver_short_horvertflip_short_600ms.mp4	346.2080564977696	346.81632800282387	0.6082715050542902				
375.3017578125	0.2	768618	288	75	2	0	0	94	326	stimuli\Videos_short_600ms_vertflip\60.single_push_with_tip_of_pencil_short_vertflip_short_600ms.mp4	60.single_push_with_tip_of_pencil_short_vertflip_short_600ms.mp4	347.0080337419531	347.61633574449297	0.6083020025398582				
376.10205078125	0.2	770257	289	75	2	0	0	95	117	stimuli\Videos_short_600ms_horflip\34.repeated_punch_with_hand_short_horflip_short_600ms.mp4	34.repeated_punch_with_hand_short_horflip_short_600ms.mp4	347.80801802401766	348.416325598213	0.6083075741953508				
376.90185546875	0.2	771895	290	75	2	0	0	96	240	stimuli\Videos_short_600ms_horvertflip\64.repeated_touch_with_screwdriver_short_horvertflip_short_600ms.mp4	64.repeated_touch_with_screwdriver_short_horvertflip_short_600ms.mp4	348.60801110343164	349.2163019626605	0.6082908592288732				
377.70166015625	0.2	773533	291	75	2	0	0	97	325	stimuli\Videos_short_600ms_vertflip\6.single_touch_with_flat_hand_short_vertflip_short_600ms.mp4	6.single_touch_with_flat_hand_short_vertflip_short_600ms.mp4	349.4079816029807	350.0163135165167	0.6083319135359488				
378.501953125	0.2	775172	292	75	2	0	0	98	303	stimuli\Videos_short_600ms_vertflip\4.repeated_tap_with_finger_slow_short_vertflip_short_600ms.mp4	4.repeated_tap_with_finger_slow_short_vertflip_short_600ms.mp4	350.2079691107392	350.8162928134152	0.6083237026759889	9.0	9.0	2.193732062565686	1.0
413.333984375	0.2	846508	293	75	3	0	0	0	166	stimuli\Videos_short_600ms_horflip\79.long_with_soft_brush_all_over_the_hand_short_horflip_short_600ms.mp4	79.long_with_soft_brush_all_over_the_hand_short_horflip_short_600ms.mp4	385.0405654703354	385.6488844810919	0.6083190107565315				
414.1337890625	0.2	848146	294	75	3	0	0	1	347	stimuli\Videos_short_600ms_vertflip\8.single_touch_with_hairbrush_short_vertflip_short_600ms.mp4	8.single_touch_with_hairbrush_short_vertflip_short_600ms.mp4	385.8405494591534	386.4488725753399	0.6083231161865115				
414.93408203125	0.2	849785	295	75	3	0	1	2	372	stimuli\Targets_short_600ms_horvertflip\brush-stroke_short_vertflip_short_600ms.mp4	brush-stroke_short_vertflip_short_600ms.mp4	386.64053726015845	387.2488506992595	0.608313439101039				
415.73388671875	0.2	851423	296	75	3	0	0	3	13	stimuli\Videos_short_600ms\21.repeated_touch_with_metal_chopstick_short_short_600ms.mp4	21.repeated_touch_with_metal_chopstick_short_short_600ms.mp4	387.4404930974524	388.048832048873	0.6083389514205919				
416.53369140625	0.2	853061	297	75	3	0	0	4	205	stimuli\Videos_short_600ms_horvertflip\32.single_(long)pinch_with_fingers_short_horvertflip_short_600ms.mp4	32.single_(long)pinch_with_fingers_short_horvertflip_short_600ms.mp4	388.24049673369154	388.848813984976	0.6083172512844612				
417.333984375	0.2	854700	298	75	3	0	0	5	216	stimuli\Videos_short_600ms_horvertflip\42.single_slap_with_plastic_whisk_short_horvertflip_short_600ms.mp4	42.single_slap_with_plastic_whisk_short_horvertflip_short_600ms.mp4	389.040479256284	389.6488035454531	0.6083242891691043				
418.1337890625	0.2	856338	299	75	3	0	1	6	362	stimuli\Targets_short_600ms\chopstickwood-tap_short_short_600ms.mp4	chopstickwood-tap_short_short_600ms.mp4	389.84046060589753	390.44878020314354	0.6083195972460089				
418.93359375	0.2	857976	300	75	3	0	0	7	106	stimuli\Videos_short_600ms_horflip\24.single_stroke_top_to_bottom_with_a_spoon_short_horflip_short_600ms.mp4	24.single_stroke_top_to_bottom_with_a_spoon_short_horflip_short_600ms.mp4	390.64042436080854	391.2487638987186	0.6083395379100693				
419.73388671875	0.2	859615	301	75	3	0	0	8	243	stimuli\Videos_short_600ms_horvertflip\67.single_touch_with_sponge_short_horvertflip_short_600ms.mp4	67.single_touch_with_sponge_short_horvertflip_short_600ms.mp4	391.44038137108146	392.04874847402607	0.6083671029446123				
420.53369140625	0.2	861253	302	75	3	0	0	9	130	stimuli\Videos_short_600ms_horflip\46.scratching_top_to_bottom_with_finger_nails_short_horflip_short_600ms.mp4	46.scratching_top_to_bottom_with_finger_nails_short_horflip_short_600ms.mp4	392.24036389367393	392.8487312898651	0.60836739619117				
421.333984375	0.2	862892	303	75	3	0	0	10	50	stimuli\Videos_short_600ms\55.touch_top_to_bottom_with_nail_file_short_short_600ms.mp4	55.touch_top_to_bottom_with_nail_file_short_short_600ms.mp4	393.04035022845346	393.6487152786867	0.6083650502332603				
422.1337890625	0.2	864530	304	75	3	0	0	11	34	stimuli\Videos_short_600ms\40.repeated_push_with_finger_short_short_600ms.mp4	40.repeated_push_with_finger_short_short_600ms.mp4	393.840346533565	394.44869662830024	0.608350094735215				
422.93359375	0.2	866168	305	75	3	0	0	12	292	stimuli\Videos_short_600ms_vertflip\3.single_push_with_finger_short_vertflip_short_600ms.mp4	3.single_push_with_finger_short_vertflip_short_600ms.mp4	394.64034313192315	395.24867797791376	0.6083348459906119				
423.73388671875	0.2	867807	306	75	3	0	0	13	232	stimuli\Videos_short_600ms_horvertflip\57.single_touch_with_nail_file_short_horvertflip_short_600ms.mp4	57.single_touch_with_nail_file_short_horvertflip_short_600ms.mp4	395.4403233085577	396.04863557467615	0.6083122661184461				
424.53369140625	0.2	869445	307	75	3	0	0	14	231	stimuli\Videos_short_600ms_horvertflip\56.repeated_touch_with_nail_file_short_horvertflip_short_600ms.mp4	56.repeated_touch_with_nail_file_short_horvertflip_short_600ms.mp4	396.2403143352567	396.8486480082647	0.6083336730080191				
425.33349609375	0.2	871083	308	75	3	0	0	15	261	stimuli\Videos_short_600ms_horvertflip\83.single_stroke_top_to_bottom_with_cotton_bud_short_horvertflip_short_600ms.mp4	83.single_stroke_top_to_bottom_with_cotton_bud_short_horvertflip_short_600ms.mp4	397.04030712142776	397.6485815589331	0.6082744375053153				
426.1337890625	0.2	872722	309	75	3	0	0	16	305	stimuli\Videos_short_600ms_vertflip\41.injection_with_blunt_syringe_short_vertflip_short_600ms.mp4	41.injection_with_blunt_syringe_short_vertflip_short_600ms.mp4	397.8403016670709	398.44856672073365	0.6082650536627625				
426.93359375	0.2	874360	310	75	3	0	0	17	153	stimuli\Videos_short_600ms_horflip\67.single_touch_with_sponge_short_horflip_short_600ms.mp4	67.single_touch_with_sponge_short_horflip_short_600ms.mp4	398.6402745125779	399.24857798134326	0.6083034687653708				
427.7333984375	0.2	875998	311	75	3	0	0	18	45	stimuli\Videos_short_600ms\50.single_(long)hard_push_with_thumb_short_short_600ms.mp4	50.single_(long)hard_push_with_thumb_short_short_600ms.mp4	399.44025762165984	400.0485607971823	0.6083031755224511				
428.53369140625	0.2	877637	312	75	3	0	0	19	344	stimuli\Videos_short_600ms_vertflip\77.tapping_with_all_fingers_short_vertflip_short_600ms.mp4	77.tapping_with_all_fingers_short_vertflip_short_600ms.mp4	400.24024366319645	400.84856765911536	0.6083239959189086				
429.33349609375	0.2	879275	313	75	3	0	0	20	183	stimuli\Videos_short_600ms_horvertflip\12.repeated_touch_with_nail_file_short_horvertflip_short_600ms.mp4	12.repeated_touch_with_nail_file_short_horvertflip_short_600ms.mp4	401.04022559929945	401.648552527673	0.6083269283735717				
430.13330078125	0.2	880913	314	75	3	0	0	21	310	stimuli\Videos_short_600ms_vertflip\46.scratching_top_to_bottom_with_finger_nails_short_vertflip_short_600ms.mp4	46.scratching_top_to_bottom_with_finger_nails_short_vertflip_short_600ms.mp4	401.8402084151385	402.4485262529124	0.6083178377739387				
430.93359375	0.2	882552	315	75	3	0	1	22	366	stimuli\Targets_short_600ms_horflip\brush-stroke_short_horflip_short_600ms.mp4	brush-stroke_short_horflip_short_600ms.mp4	402.6401915242204	403.2485102417341	0.6083187175136118				
431.7333984375	0.2	884190	316	75	3	0	0	23	275	stimuli\Videos_short_600ms_vertflip\14.repeated_touch_with_pencil_short_vertflip_short_600ms.mp4	14.repeated_touch_with_pencil_short_vertflip_short_600ms.mp4	403.4401731670805	404.048491298101	0.6083181310204964				
432.533203125	0.2	885828	317	75	3	0	0	24	97	stimuli\Videos_short_600ms_horflip\16.repeated_touch_with_plastic_brush_short_horflip_short_600ms.mp4	16.repeated_touch_with_plastic_brush_short_horflip_short_600ms.mp4	404.240154516694	404.84847851261657	0.6083239959225466				
433.33349609375	0.2	887467	318	75	3	0	0	25	198	stimuli\Videos_short_600ms_horvertflip\26.single_touch_with_a_blunt_syringe_short_horvertflip_short_600ms.mp4	26.single_touch_with_a_blunt_syringe_short_horvertflip_short_600ms.mp4	405.0401220837885	405.6484566365325	0.6083345527440542				
434.13330078125	0.2	889105	319	75	3	0	0	26	116	stimuli\Videos_short_600ms_horflip\33.scratch_top_to_bottom_with_scissors_short_horflip_short_600ms.mp4	33.scratch_top_to_bottom_with_scissors_short_horflip_short_600ms.mp4	405.84010548611695	406.4484417983331	0.6083363122161245				
434.93310546875	0.2	890743	320	75	3	0	0	27	319	stimuli\Videos_short_600ms_vertflip\54.repeated_touch_with_knife_short_vertflip_short_600ms.mp4	54.repeated_touch_with_knife_short_vertflip_short_600ms.mp4	406.6400405030108	407.2484246141721	0.6083841111612855				
435.7333984375	0.2	892382	321	75	3	0	0	28	54	stimuli\Videos_short_600ms\59.single_push_with_long_side_pencil_short_short_600ms.mp4	59.single_push_with_long_side_pencil_short_short_600ms.mp4	407.44000103222425	408.0484086029901	0.6084075707658485				
436.533203125	0.2	894020	322	75	3	0	0	29	41	stimuli\Videos_short_600ms\47.(long)scratching_with_finger_nails_short_short_600ms.mp4	47.(long)scratching_with_finger_nails_short_short_600ms.mp4	408.2400442565486	408.84839024585017	0.608345989301597				
437.3330078125	0.2	895658	323	75	3	0	0	30	221	stimuli\Videos_short_600ms_horvertflip\47.(long)scratching_with_finger_nails_short_horvertflip_short_600ms.mp4	47.(long)scratching_with_finger_nails_short_horvertflip_short_600ms.mp4	409.040010650664	409.6483522412891	0.6083415906250593				
438.13330078125	0.2	897297	324	75	3	0	0	31	339	stimuli\Videos_short_600ms_vertflip\72.(short)stroke_with_finger_all_over_the_hand_short_vertflip_short_600ms.mp4	72.(short)stroke_with_finger_all_over_the_hand_short_vertflip_short_600ms.mp4	409.84001985855866	410.4483379895792	0.6083181310204964				
438.93310546875	0.2	898935	325	75	3	0	0	32	65	stimuli\Videos_short_600ms\69.stroke_with_soft_sock_short_short_600ms.mp4	69.stroke_with_soft_sock_short_short_600ms.mp4	410.6400000351896	411.2483008647505	0.6083008295609034				
439.73291015625	0.2	900573	326	75	3	0	0	33	235	stimuli\Videos_short_600ms_horvertflip\6.single_touch_with_flat_hand_short_horvertflip_short_600ms.mp4	6.single_touch_with_flat_hand_short_horvertflip_short_600ms.mp4	411.4399860767262	412.04827605621904	0.608289979492838				
440.533203125	0.2	902212	327	75	3	0	0	34	208	stimuli\Videos_short_600ms_horvertflip\35.single_punch_with_hand_short_horvertflip_short_600ms.mp4	35.single_punch_with_hand_short_horvertflip_short_600ms.mp4	412.23999000620825	412.84825887205807	0.6082688658498228				
441.3330078125	0.2	903850	328	75	3	0	0	35	126	stimuli\Videos_short_600ms_horflip\42.single_slap_with_plastic_whisk_short_horflip_short_600ms.mp4	42.single_slap_with_plastic_whisk_short_horflip_short_600ms.mp4	413.03997810045985	413.64824256763313	0.6082644671732851				
442.1328125	0.2	905488	329	75	3	0	0	36	7	stimuli\Videos_short_600ms\16.repeated_touch_with_plastic_brush_short_short_600ms.mp4	16.repeated_touch_with_plastic_brush_short_short_600ms.mp4	413.8399521189458	414.44826086612375	0.6083087471779436				
442.93310546875	0.2	907127	330	75	3	0	0	37	287	stimuli\Videos_short_600ms_vertflip\25.single_touch_with_stanley_knife_short_vertflip_short_600ms.mp4	25.single_touch_with_stanley_knife_short_vertflip_short_600ms.mp4	414.6399346415419	415.2482372305713	0.6083025890293356				
443.73291015625	0.2	908765	331	75	3	0	0	38	19	stimuli\Videos_short_600ms\27.single_push_with_a_plastic_whisk_short_short_600ms.mp4	27.single_push_with_a_plastic_whisk_short_short_600ms.mp4	415.4399162843983	416.0482426262824	0.6083263418840943				
444.533203125	0.2	910404	332	75	3	0	0	39	35	stimuli\Videos_short_600ms\41.injection_with_blunt_syringe_short_short_600ms.mp4	41.injection_with_blunt_syringe_short_short_600ms.mp4	416.2398847312288	416.8482292543049	0.6083445230760844				
445.3330078125	0.2	912042	333	75	3	0	0	40	30	stimuli\Videos_short_600ms\37.single_stab_with_nail_file_short_short_600ms.mp4	37.single_stab_with_nail_file_short_short_600ms.mp4	417.0398857282634	417.6482056187524	0.6083198904889286				
446.1328125	0.2	913680	334	75	3	0	0	41	171	stimuli\Videos_short_600ms_horflip\83.single_stroke_top_to_bottom_with_cotton_bud_short_horflip_short_600ms.mp4	83.single_stroke_top_to_bottom_with_cotton_bud_short_horflip_short_600ms.mp4	417.83986766436647	418.4481855021404	0.6083178377739387				
446.93310546875	0.2	915319	335	75	3	0	0	42	145	stimuli\Videos_short_600ms_horflip\6.single_touch_with_flat_hand_short_horflip_short_600ms.mp4	6.single_touch_with_flat_hand_short_horflip_short_600ms.mp4	418.63984960046946	419.2481700774515	0.6083204769820441				
447.73291015625	0.2	916957	336	75	3	0	0	43	233	stimuli\Videos_short_600ms_horvertflip\58.single_slap_with_pencil_short_horvertflip_short_600ms.mp4	58.single_slap_with_pencil_short_horvertflip_short_600ms.mp4	419.4398435596231	420.04815113381846	0.6083075741953508				
448.53271484375	0.2	918595	337	75	3	0	0	44	343	stimuli\Videos_short_600ms_vertflip\76.tickle_with_fingers_from_top_to_bottom_short_vertflip_short_600ms.mp4	76.tickle_with_fingers_from_top_to_bottom_short_vertflip_short_600ms.mp4	420.2398161118835	420.8481339496575	0.6083178377739387				
449.3330078125	0.2	920234	338	75	3	0	0	45	170	stimuli\Videos_short_600ms_horflip\82.repeated_touch_with_cotton_bud_short_horflip_short_600ms.mp4	82.repeated_touch_with_cotton_bud_short_horflip_short_600ms.mp4	421.039782505999	421.6481067951645	0.6083242891654663				
450.1328125	0.2	921872	339	75	3	0	0	46	309	stimuli\Videos_short_600ms_vertflip\45.scratching_with_finger_nails_short_vertflip_short_600ms.mp4	45.scratching_with_finger_nails_short_vertflip_short_600ms.mp4	421.83979523283415	422.44810368676553	0.6083084539313859				
450.9326171875	0.2	923510	340	75	3	0	0	47	296	stimuli\Videos_short_600ms_vertflip\33.scratch_top_to_bottom_with_scissors_short_vertflip_short_600ms.mp4	33.scratch_top_to_bottom_with_scissors_short_vertflip_short_600ms.mp4	422.6397173469413	423.24808474313613	0.608367396194808				
451.73291015625	0.2	925149	341	75	3	0	0	48	206	stimuli\Videos_short_600ms_horvertflip\33.scratch_top_to_bottom_with_scissors_short_horvertflip_short_600ms.mp4	33.scratch_top_to_bottom_with_scissors_short_horvertflip_short_600ms.mp4	423.43970280198846	424.04806638599257	0.6083635840041097				
452.53271484375	0.2	926787	342	75	3	0	0	49	136	stimuli\Videos_short_600ms_horflip\51.repeated_touch_with_hammer_short_horflip_short_600ms.mp4	51.repeated_touch_with_hammer_short_horflip_short_600ms.mp4	424.239691189483	424.8480492018316	0.6083580123486172				
453.33251953125	0.2	928425	343	75	3	0	0	50	338	stimuli\Videos_short_600ms_vertflip\71.single_stroke_with_finger_top_to_bottom_short_vertflip_short_600ms.mp4	71.single_stroke_with_finger_top_to_bottom_short_vertflip_short_600ms.mp4	425.03969570545814	425.6480155959471	0.6083198904889286				
454.1328125	0.2	930064	344	75	3	0	0	51	332	stimuli\Videos_short_600ms_vertflip\66.stroke_top_to_bottom_with_sponge_short_vertflip_short_600ms.mp4	66.stroke_top_to_bottom_with_sponge_short_vertflip_short_600ms.mp4	425.8396858524211	426.44799665231767	0.6083107998965716				
454.9326171875	0.2	931702	345	75	3	0	1	52	370	stimuli\Targets_short_600ms_horflip\hand-pinch_short_horflip_short_600ms.mp4	hand-pinch_short_horflip_short_600ms.mp4	426.6396956468088	427.2480087926633	0.6083131458544813				
455.732421875	0.2	933340	346	75	3	0	0	53	293	stimuli\Videos_short_600ms_vertflip\30.finger_pulling_back_another_finger_short_vertflip_short_600ms.mp4	30.finger_pulling_back_another_finger_short_vertflip_short_600ms.mp4	427.4396658531077	428.0479596447876	0.6082937916798983				
456.53271484375	0.2	934979	347	75	3	0	0	54	250	stimuli\Videos_short_600ms_horvertflip\73.single_stroke_with_flat_hand_short_horvertflip_short_600ms.mp4	73.single_stroke_with_flat_hand_short_horvertflip_short_600ms.mp4	428.23964515000625	428.8479184145326	0.6082732645263604				
457.33251953125	0.2	936617	348	75	3	0	0	55	291	stimuli\Videos_short_600ms_vertflip\29.single_pinch_with_tweezers_short_vertflip_short_600ms.mp4	29.single_pinch_with_tweezers_short_vertflip_short_600ms.mp4	429.03963324425786	429.64793114136774	0.6082978971098782				
458.13232421875	0.2	938255	349	75	3	0	0	56	5	stimuli\Videos_short_600ms\14.repeated_touch_with_pencil_short_short_600ms.mp4	14.repeated_touch_with_pencil_short_short_600ms.mp4	429.8396113681738	430.4479259802538	0.6083146120799938				
458.9326171875	0.2	939894	350	75	3	0	0	57	274	stimuli\Videos_short_600ms_vertflip\13.single_touch_with_pen_short_vertflip_short_600ms.mp4	13.single_touch_with_pen_short_vertflip_short_600ms.mp4	430.63959301103387	431.2479126082799	0.6083195972460089				
459.732421875	0.2	941532	351	75	3	0	0	58	51	stimuli\Videos_short_600ms\56.repeated_touch_with_nail_file_short_short_600ms.mp4	56.repeated_touch_with_nail_file_short_short_600ms.mp4	431.4395781728344	432.0479045147149	0.6083263418804563				
460.5322265625	0.2	943170	352	75	3	0	0	59	207	stimuli\Videos_short_600ms_horvertflip\34.repeated_punch_with_hand_short_horvertflip_short_600ms.mp4	34.repeated_punch_with_hand_short_horvertflip_short_600ms.mp4	432.23956656032897	432.8478814656519	0.6083149053229135				
461.33251953125	0.2	944809	353	75	3	0	0	60	284	stimuli\Videos_short_600ms_vertflip\22.single_touch_with_metal_chopstick_short_vertflip_short_600ms.mp4	22.single_touch_with_metal_chopstick_short_vertflip_short_600ms.mp4	433.03954233828335	433.647876011295	0.6083336730116571				
462.13232421875	0.2	946447	354	75	3	0	0	61	359	stimuli\Videos_short_600ms_vertflip\90.repeated_touch_with_sponge_short_vertflip_short_600ms.mp4	90.repeated_touch_with_sponge_short_vertflip_short_600ms.mp4	433.8395251541224	434.4478444581255	0.6083193040030892				
462.93212890625	0.2	948085	355	75	3	0	0	62	342	stimuli\Videos_short_600ms_vertflip\75.(long)stroke_with_fingers_all_over_the_hand_short_vertflip_short_600ms.mp4	75.(long)stroke_with_fingers_all_over_the_hand_short_vertflip_short_600ms.mp4	434.63951002268	435.247827860454	0.6083178377739387				
463.732421875	0.2	949724	356	75	3	0	0	63	321	stimuli\Videos_short_600ms_vertflip\56.repeated_touch_with_nail_file_short_vertflip_short_600ms.mp4	56.repeated_touch_with_nail_file_short_vertflip_short_600ms.mp4	435.439496064213	436.04781096953593	0.6083149053229135				
464.5322265625	0.2	951362	357	75	3	0	0	64	70	stimuli\Videos_short_600ms\73.single_stroke_with_flat_hand_short_short_600ms.mp4	73.single_stroke_with_flat_hand_short_short_600ms.mp4	436.2394604056135	436.8477940786215	0.6083336730080191				
465.33251953125	0.2	953001	358	75	3	0	1	65	381	stimuli\Targets_short_600ms_vertflip\finger-tap_short_horvertflip_short_600ms.mp4	finger-tap_short_horvertflip_short_600ms.mp4	437.0394127239633	437.64777836068606	0.6083656367227377				
466.13232421875	0.2	954639	359	75	3	0	0	66	254	stimuli\Videos_short_600ms_horvertflip\77.tapping_with_all_fingers_short_horvertflip_short_600ms.mp4	77.tapping_with_all_fingers_short_horvertflip_short_600ms.mp4	437.8394005249684	438.4477576575846	0.60835713261622				
466.93212890625	0.2	956277	360	75	3	0	1	67	368	stimuli\Targets_short_600ms_horflip\chopstickwood-tap_short_horflip_short_600ms.mp4	chopstickwood-tap_short_horflip_short_600ms.mp4	438.6393783556414	439.2477425261386	0.6083641704972251				
467.732421875	0.2	957916	361	75	3	0	0	68	29	stimuli\Videos_short_600ms\36.single_slap_with_full_hand_short_short_600ms.mp4	36.single_slap_with_full_hand_short_short_600ms.mp4	439.4393916689696	440.0477244622416	0.608332793271984				
468.5322265625	0.2	959554	362	75	3	0	0	69	276	stimuli\Videos_short_600ms_vertflip\15.single_stroke_top_to_bottom_with_a_plastic_whisk_short_vertflip_short_600ms.mp4	15.single_stroke_top_to_bottom_with_a_plastic_whisk_short_vertflip_short_600ms.mp4	440.23938240242205	440.84770903754907	0.608326635127014				
469.33203125	0.2	961192	363	75	3	0	0	70	159	stimuli\Videos_short_600ms_horflip\72.(short)stroke_with_finger_all_over_the_hand_short_horflip_short_600ms.mp4	72.(short)stroke_with_finger_all_over_the_hand_short_horflip_short_600ms.mp4	441.0393487965375	441.6476329111319	0.6082841145944258				
470.13232421875	0.2	962831	364	75	3	0	0	71	224	stimuli\Videos_short_600ms_horvertflip\5.repeated_tap_with_finger_moving_from_top_to_bottom_short_horvertflip_short_600ms.mp4	5.repeated_tap_with_finger_moving_from_top_to_bottom_short_horvertflip_short_600ms.mp4	441.8393421692017	442.44761689994994	0.608274730748235				
470.93212890625	0.2	964469	365	75	3	0	1	72	383	stimuli\Targets_short_600ms_vertflip\hand-stroke_short_horvertflip_short_600ms.mp4	hand-stroke_short_horvertflip_short_600ms.mp4	442.63933847431326	443.24756569935926	0.6082272250459937				
471.73193359375	0.2	966107	366	75	3	0	0	73	272	stimuli\Videos_short_600ms_vertflip\11.single_touch_with_lighter_short_vertflip_short_600ms.mp4	11.single_touch_with_lighter_short_vertflip_short_600ms.mp4	443.4393224631313	444.0476077507046	0.6082852875733806				
472.5322265625	0.2	967746	367	75	3	0	0	74	219	stimuli\Videos_short_600ms_horvertflip\45.scratching_with_finger_nails_short_horvertflip_short_600ms.mp4	45.scratching_with_finger_nails_short_horvertflip_short_600ms.mp4	444.2393064519492	444.8476058152846	0.6082993633353908				
473.33203125	0.2	969384	368	75	3	0	0	75	76	stimuli\Videos_short_600ms\79.long_with_soft_brush_all_over_the_hand_short_short_600ms.mp4	79.long_with_soft_brush_all_over_the_hand_short_short_600ms.mp4	445.0392848691117	445.64759889470224	0.6083140255905164				
474.1318359375	0.2	971022	369	75	3	0	0	76	355	stimuli\Videos_short_600ms_vertflip\87.single_stroke_top_to_bottom_with_plastic_brush_short_vertflip_short_600ms.mp4	87.single_stroke_top_to_bottom_with_plastic_brush_short_vertflip_short_600ms.mp4	445.8392682714438	446.4475817105413	0.608313439097401				
474.93212890625	0.2	972661	370	75	3	0	0	77	112	stimuli\Videos_short_600ms_horflip\3.single_push_with_finger_short_horflip_short_600ms.mp4	3.single_push_with_finger_short_horflip_short_600ms.mp4	446.6392531399979	447.2475762561844	0.6083231161865115				
475.73193359375	0.2	974299	371	75	3	0	0	78	144	stimuli\Videos_short_600ms_horflip\59.single_push_with_long_side_pencil_short_horflip_short_600ms.mp4	59.single_push_with_long_side_pencil_short_horflip_short_600ms.mp4	447.4392385950414	448.0475546733469	0.6083160783055064				
476.53173828125	0.2	975937	372	75	3	0	0	79	57	stimuli\Videos_short_600ms\61.single_hit_with_rolling_pin_short_short_600ms.mp4	61.single_hit_with_rolling_pin_short_short_600ms.mp4	448.2392219973699	448.84754951223294	0.6083275148630491				
477.33203125	0.2	977576	373	75	3	0	0	80	37	stimuli\Videos_short_600ms\43.touch_top_to_bottom_with_sharp_wooden_stick_short_short_600ms.mp4	43.touch_top_to_bottom_with_sharp_wooden_stick_short_short_600ms.mp4	449.0392004145324	449.6475200117784	0.6083195972460089				
478.1318359375	0.2	979214	374	75	3	0	0	81	109	stimuli\Videos_short_600ms_horflip\27.single_push_with_a_plastic_whisk_short_horflip_short_600ms.mp4	27.single_push_with_a_plastic_whisk_short_horflip_short_600ms.mp4	449.839184696597	450.4475054668219	0.6083207702249638				
478.931640625	0.2	980852	375	75	3	0	0	82	328	stimuli\Videos_short_600ms_vertflip\62.touch_top_to_bottom_with_scissors_short_vertflip_short_600ms.mp4	62.touch_top_to_bottom_with_scissors_short_vertflip_short_600ms.mp4	450.6391449325638	451.24748564345646	0.6083407108926622				
