onset	duration	onsetsample	eventnumber	subjectnr	sequencenumber	blocksequencenumber	istarget	presentationnumber	stimnumber	stim	stimname	time_stimon	time_stimoff	stimdur	cresp	resp	rt	correct
17.42529296875	0.2	35687	0	64	0	0	1	0	360	stimuli\Targets_short_600ms\brush-stroke_short_short_600ms.mp4	brush-stroke_short_short_600ms.mp4	59.06621896082424	59.67452991473056	0.6083109539063116	n/a	n/a	n/a	n/a
18.22509765625	0.2	37325	1	64	0	0	0	1	207	stimuli\Videos_short_600ms_horvertflip\34.repeated_punch_with_hand_short_horvertflip_short_600ms.mp4	34.repeated_punch_with_hand_short_horvertflip_short_600ms.mp4	59.86616183683509	60.47450240841545	0.6083405715803565	n/a	n/a	n/a	n/a
19.025390625	0.2	38964	2	64	0	0	0	2	236	stimuli\Videos_short_600ms_horvertflip\60.single_push_with_tip_of_pencil_short_horvertflip_short_600ms.mp4	60.single_push_with_tip_of_pencil_short_horvertflip_short_600ms.mp4	60.6661654144159	61.27449542920112	0.6083300147852242	n/a	n/a	n/a	n/a
19.8251953125	0.2	40602	3	64	0	0	0	3	18	stimuli\Videos_short_600ms\26.single_touch_with_a_blunt_syringe_short_short_600ms.mp4	26.single_touch_with_a_blunt_syringe_short_short_600ms.mp4	61.46614846489547	62.07446968235172	0.6083212174562505	n/a	n/a	n/a	n/a
20.625	0.2	42240	4	64	0	0	0	4	183	stimuli\Videos_short_600ms_horvertflip\12.repeated_touch_with_nail_file_short_horvertflip_short_600ms.mp4	12.repeated_touch_with_nail_file_short_horvertflip_short_600ms.mp4	62.266248813093625	62.87445771798457	0.6082089048909438	n/a	n/a	n/a	n/a
21.42529296875	0.2	43879	5	64	0	0	0	5	261	stimuli\Videos_short_600ms_horvertflip\83.single_stroke_top_to_bottom_with_cotton_bud_short_horvertflip_short_600ms.mp4	83.single_stroke_top_to_bottom_with_cotton_bud_short_horvertflip_short_600ms.mp4	63.066121603717875	63.67442786571519	0.6083062619973134	n/a	n/a	n/a	n/a
22.22509765625	0.2	45517	6	64	0	0	0	6	48	stimuli\Videos_short_600ms\53.touch_top_to_bottom_with_knife_short_short_600ms.mp4	53.touch_top_to_bottom_with_knife_short_short_600ms.mp4	63.8661090528617	64.47441296890474	0.6083039160430417	n/a	n/a	n/a	n/a
23.02490234375	0.2	47155	7	64	0	0	0	7	112	stimuli\Videos_short_600ms_horflip\3.single_push_with_finger_short_horflip_short_600ms.mp4	3.single_push_with_finger_short_horflip_short_600ms.mp4	64.66606805730908	65.27439308694147	0.6083250296323968	n/a	n/a	n/a	n/a
23.8251953125	0.2	48794	8	64	0	0	0	8	152	stimuli\Videos_short_600ms_horflip\66.stroke_top_to_bottom_with_sponge_short_horflip_short_600ms.mp4	66.stroke_top_to_bottom_with_sponge_short_horflip_short_600ms.mp4	65.46605140103338	66.07437379146677	0.6083223904333863	n/a	n/a	n/a	n/a
24.625	0.2	50432	9	64	0	0	0	9	0	stimuli\Videos_short_600ms\1.repeated_touch_with_finger_fast_short_short_600ms.mp4	1.repeated_touch_with_finger_fast_short_short_600ms.mp4	66.2660271204054	66.87435039057209	0.608323270166693	n/a	n/a	n/a	n/a
25.42529296875	0.2	52071	10	64	0	0	0	10	158	stimuli\Videos_short_600ms_horflip\71.single_stroke_with_finger_top_to_bottom_short_horflip_short_600ms.mp4	71.single_stroke_with_finger_top_to_bottom_short_horflip_short_600ms.mp4	67.06601574252682	67.67433226807452	0.608316525547707	n/a	n/a	n/a	n/a
26.22509765625	0.2	53709	11	64	0	0	0	11	254	stimuli\Videos_short_600ms_horvertflip\77.tapping_with_all_fingers_short_horvertflip_short_600ms.mp4	77.tapping_with_all_fingers_short_horvertflip_short_600ms.mp4	67.8660474715598	68.47431385233267	0.608266380772875	n/a	n/a	n/a	n/a
27.02490234375	0.2	55347	12	64	0	0	0	12	148	stimuli\Videos_short_600ms_horflip\62.touch_top_to_bottom_with_scissors_short_horflip_short_600ms.mp4	62.touch_top_to_bottom_with_scissors_short_horflip_short_600ms.mp4	68.66601058142714	69.27429602307939	0.6082854416522423	n/a	n/a	n/a	n/a
27.8251953125	0.2	56986	13	64	0	0	1	13	372	stimuli\Targets_short_600ms_horvertflip\brush-stroke_short_vertflip_short_600ms.mp4	brush-stroke_short_vertflip_short_600ms.mp4	69.46594641957518	70.07427526138326	0.6083288418080883	n/a	n/a	n/a	n/a
28.625	0.2	58624	14	64	0	0	0	14	46	stimuli\Videos_short_600ms\51.repeated_touch_with_hammer_short_short_600ms.mp4	51.repeated_touch_with_hammer_short_short_600ms.mp4	70.26599369055566	70.87425860510712	0.6082649145514551	n/a	n/a	n/a	n/a
29.4248046875	0.2	60262	15	64	0	0	0	15	266	stimuli\Videos_short_600ms_horvertflip\88.repeated_stroke_with_plastic_brush_short_horvertflip_short_600ms.mp4	88.repeated_stroke_with_plastic_brush_short_horvertflip_short_600ms.mp4	71.06592688950468	71.67424106909812	0.6083141795934353	n/a	n/a	n/a	n/a
30.22509765625	0.2	61901	16	64	0	0	0	16	78	stimuli\Videos_short_600ms\80.stroke_with_sharp_stick_all_over_the_hand_short_short_600ms.mp4	80.stroke_with_sharp_stick_all_over_the_hand_short_short_600ms.mp4	71.86591199269469	72.47422148037913	0.608309487684437	n/a	n/a	n/a	n/a
31.02490234375	0.2	63539	17	64	0	0	1	17	379	stimuli\Targets_short_600ms_vertflip\chopstick-silver-tap_short_horvertflip_short_600ms.mp4	chopstick-silver-tap_short_horvertflip_short_600ms.mp4	72.66590413374752	73.27419456055304	0.6082904268055245	n/a	n/a	n/a	n/a
31.82470703125	0.2	65177	18	64	0	0	0	18	20	stimuli\Videos_short_600ms\28.single_injection_with_sharp_needle_short_short_600ms.mp4	28.single_injection_with_sharp_needle_short_short_600ms.mp4	73.46586020575205	74.07418054347545	0.6083203377233986	n/a	n/a	n/a	n/a
32.625	0.2	66816	19	64	0	0	0	19	325	stimuli\Videos_short_600ms_vertflip\6.single_touch_with_flat_hand_short_vertflip_short_600ms.mp4	6.single_touch_with_flat_hand_short_vertflip_short_600ms.mp4	74.26581891695514	74.87416330071073	0.6083443837555933	n/a	n/a	n/a	n/a
33.4248046875	0.2	68454	20	64	0	0	0	20	51	stimuli\Videos_short_600ms\56.repeated_touch_with_nail_file_short_short_600ms.mp4	56.repeated_touch_with_nail_file_short_short_600ms.mp4	75.06584184865869	75.674117026761	0.6082751781023035	n/a	n/a	n/a	n/a
34.224609375	0.2	70092	21	64	0	0	0	21	269	stimuli\Videos_short_600ms_horvertflip\90.repeated_touch_with_sponge_short_horvertflip_short_600ms.mp4	90.repeated_touch_with_sponge_short_horvertflip_short_600ms.mp4	75.86577827329529	76.47412734895988	0.6083490756645915	n/a	n/a	n/a	n/a
35.02490234375	0.2	71731	22	64	0	0	1	22	367	stimuli\Targets_short_600ms_horflip\chopstick-silver-tap_short_horflip_short_600ms.mp4	chopstick-silver-tap_short_horflip_short_600ms.mp4	76.6657836103418	77.27411333188275	0.6083297215409402	n/a	n/a	n/a	n/a
35.82470703125	0.2	73369	23	64	0	0	0	23	24	stimuli\Videos_short_600ms\31.hand_grabbing_wrist_short_short_600ms.mp4	31.hand_grabbing_wrist_short_short_600ms.mp4	77.46588454502853	78.07409696885088	0.6082124238223514	n/a	n/a	n/a	n/a
36.62451171875	0.2	75007	24	64	0	0	0	24	11	stimuli\Videos_short_600ms\2.single_touch_with_finger_short_short_600ms.mp4	2.single_touch_with_finger_short_short_600ms.mp4	78.26574707210239	78.8740718084905	0.6083247363881128	n/a	n/a	n/a	n/a
37.4248046875	0.2	76646	25	64	0	0	0	25	19	stimuli\Videos_short_600ms\27.single_push_with_a_plastic_whisk_short_short_600ms.mp4	27.single_push_with_a_plastic_whisk_short_short_600ms.mp4	79.06572865636053	79.67406189683288	0.6083332404723478	n/a	n/a	n/a	n/a
38.224609375	0.2	78284	26	64	0	0	0	26	277	stimuli\Videos_short_600ms_vertflip\16.repeated_touch_with_plastic_brush_short_vertflip_short_600ms.mp4	16.repeated_touch_with_plastic_brush_short_vertflip_short_600ms.mp4	79.86568414187605	80.4740320445635	0.6083479026874556	n/a	n/a	n/a	n/a
39.0244140625	0.2	79922	27	64	0	0	0	27	116	stimuli\Videos_short_600ms_horflip\33.scratch_top_to_bottom_with_scissors_short_horflip_short_600ms.mp4	33.scratch_top_to_bottom_with_scissors_short_horflip_short_600ms.mp4	80.66572613445942	81.27401216260023	0.6082860281408102	n/a	n/a	n/a	n/a
39.82470703125	0.2	81561	28	64	0	0	0	28	174	stimuli\Videos_short_600ms_horflip\86.touch_top_to_bottom_with_hair_brush_short_horflip_short_600ms.mp4	86.touch_top_to_bottom_with_hair_brush_short_horflip_short_600ms.mp4	81.46567282264641	82.07398934819412	0.608316525547707	n/a	n/a	n/a	n/a
40.62451171875	0.2	83199	29	64	0	0	0	29	139	stimuli\Videos_short_600ms_horflip\54.repeated_touch_with_knife_short_horflip_short_600ms.mp4	54.repeated_touch_with_knife_short_horflip_short_600ms.mp4	82.26564854201843	82.87397327840654	0.6083247363881128	n/a	n/a	n/a	n/a
41.42431640625	0.2	84837	30	64	0	0	0	30	45	stimuli\Videos_short_600ms\50.single_(long)hard_push_with_thumb_short_short_600ms.mp4	50.single_(long)hard_push_with_thumb_short_short_600ms.mp4	83.06561370459622	83.67395574239754	0.6083420378013216	n/a	n/a	n/a	n/a
42.224609375	0.2	86476	31	64	0	0	0	31	126	stimuli\Videos_short_600ms_horflip\42.single_slap_with_plastic_whisk_short_horflip_short_600ms.mp4	42.single_slap_with_plastic_whisk_short_horflip_short_600ms.mp4	83.86559939427434	84.47393351448	0.6083341202056545	n/a	n/a	n/a	n/a
43.0244140625	0.2	88114	32	64	0	0	0	32	301	stimuli\Videos_short_600ms_vertflip\38.double_slap_with_pencil_short_vertflip_short_600ms.mp4	38.double_slap_with_pencil_short_vertflip_short_600ms.mp4	84.66557364742539	85.27391568522671	0.6083420378013216	n/a	n/a	n/a	n/a
43.82421875	0.2	89752	33	64	0	0	0	33	309	stimuli\Videos_short_600ms_vertflip\45.scratching_with_finger_nails_short_vertflip_short_600ms.mp4	45.scratching_with_finger_nails_short_vertflip_short_600ms.mp4	85.46557927771573	86.07389785597343	0.6083185782576948	n/a	n/a	n/a	n/a
44.62451171875	0.2	91391	34	64	0	0	0	34	280	stimuli\Videos_short_600ms_vertflip\19.single_touch_with_rolling_pin_short_vertflip_short_600ms.mp4	19.single_touch_with_rolling_pin_short_vertflip_short_600ms.mp4	86.26555294437776	86.87387592130017	0.608322976922409	n/a	n/a	n/a	n/a
45.42431640625	0.2	93029	35	64	0	0	0	35	124	stimuli\Videos_short_600ms_horflip\40.repeated_push_with_finger_short_horflip_short_600ms.mp4	40.repeated_push_with_finger_short_horflip_short_600ms.mp4	87.06552367859695	87.67386190422303	0.6083382256260847	n/a	n/a	n/a	n/a
46.224609375	0.2	94668	36	64	0	0	0	36	132	stimuli\Videos_short_600ms_horflip\48.single_slap_with_hand_short_horflip_short_600ms.mp4	48.single_slap_with_hand_short_horflip_short_600ms.mp4	87.86550907503124	88.47383938306075	0.6083303080295082	n/a	n/a	n/a	n/a
47.0244140625	0.2	96306	37	64	0	0	0	37	327	stimuli\Videos_short_600ms_vertflip\61.single_hit_with_rolling_pin_short_vertflip_short_600ms.mp4	61.single_hit_with_rolling_pin_short_vertflip_short_600ms.mp4	88.66557276769254	89.27379633479813	0.6082235671055969	n/a	n/a	n/a	n/a
47.82421875	0.2	97944	38	64	0	0	0	38	44	stimuli\Videos_short_600ms\5.repeated_tap_with_finger_moving_from_top_to_bottom_short_short_600ms.mp4	5.repeated_tap_with_finger_moving_from_top_to_bottom_short_short_600ms.mp4	89.46548983820549	90.0737811447434	0.6082913065379216	n/a	n/a	n/a	n/a
48.62451171875	0.2	99583	39	64	0	0	0	39	17	stimuli\Videos_short_600ms\25.single_touch_with_stanley_knife_short_short_600ms.mp4	25.single_touch_with_stanley_knife_short_short_600ms.mp4	90.26544297776672	90.87378178988092	0.6083388121141979	n/a	n/a	n/a	n/a
49.42431640625	0.2	101221	40	64	0	0	0	40	102	stimuli\Videos_short_600ms_horflip\20.single_touch_with_screwdriver_short_horflip_short_600ms.mp4	20.single_touch_with_screwdriver_short_horflip_short_600ms.mp4	91.06544450263708	91.67376659982664	0.6083220971895571	n/a	n/a	n/a	n/a
50.22412109375	0.2	102859	41	64	0	0	0	41	352	stimuli\Videos_short_600ms_vertflip\84.single_touch_with_cotton_bud_short_vertflip_short_600ms.mp4	84.single_touch_with_cotton_bud_short_vertflip_short_600ms.mp4	91.8654184625434	92.47374642461864	0.6083279620752364	n/a	n/a	n/a	n/a
51.0244140625	0.2	104498	42	64	0	0	0	42	341	stimuli\Videos_short_600ms_vertflip\74.fingers_walking_from_top_to_bottom_short_vertflip_short_600ms.mp4	74.fingers_walking_from_top_to_bottom_short_vertflip_short_600ms.mp4	92.66538098592264	93.27374032513762	0.6083593392149851	n/a	n/a	n/a	n/a
51.82421875	0.2	106136	43	64	0	0	0	43	97	stimuli\Videos_short_600ms_horflip\16.repeated_touch_with_plastic_brush_short_horflip_short_600ms.mp4	16.repeated_touch_with_plastic_brush_short_horflip_short_600ms.mp4	93.46538690945728	94.07371399179964	0.6083270823423845	n/a	n/a	n/a	n/a
52.6240234375	0.2	107774	44	64	0	0	0	44	156	stimuli\Videos_short_600ms_horflip\7.repeated_touch_with_hairbrush_short_horflip_short_600ms.mp4	7.repeated_touch_with_hairbrush_short_horflip_short_600ms.mp4	94.2653705464254	94.87368941792784	0.6083188715024335	n/a	n/a	n/a	n/a
53.42431640625	0.2	109413	45	64	0	0	0	45	180	stimuli\Videos_short_600ms_horvertflip\1.repeated_touch_with_finger_fast_short_horvertflip_short_600ms.mp4	1.repeated_touch_with_finger_fast_short_horvertflip_short_600ms.mp4	95.06542485526916	95.67367041569742	0.6082455604282586	n/a	n/a	n/a	n/a
54.22412109375	0.2	111051	46	64	0	0	0	46	326	stimuli\Videos_short_600ms_vertflip\60.single_push_with_tip_of_pencil_short_vertflip_short_600ms.mp4	60.single_push_with_tip_of_pencil_short_vertflip_short_600ms.mp4	95.8653759421204	96.47365112022226	0.6082751781018487	n/a	n/a	n/a	n/a
55.02392578125	0.2	112689	47	64	0	0	1	47	373	stimuli\Targets_short_600ms_horvertflip\chopstick-silver-tap_short_vertflip_short_600ms.mp4	chopstick-silver-tap_short_vertflip_short_600ms.mp4	96.66549476470936	97.273633877458	0.6081391127486313	n/a	n/a	n/a	n/a
55.82421875	0.2	114328	48	64	0	0	0	48	208	stimuli\Videos_short_600ms_horvertflip\35.single_punch_with_hand_short_horvertflip_short_600ms.mp4	35.single_punch_with_hand_short_horvertflip_short_600ms.mp4	97.46530831998598	98.07361487522758	0.6083065552415974	n/a	n/a	n/a	n/a
56.6240234375	0.2	115966	49	64	0	0	0	49	27	stimuli\Videos_short_600ms\34.repeated_punch_with_hand_short_short_600ms.mp4	34.repeated_punch_with_hand_short_short_600ms.mp4	98.26528931775556	98.87359675273	0.6083074349744493	n/a	n/a	n/a	n/a
57.423828125	0.2	117604	50	64	0	0	0	50	55	stimuli\Videos_short_600ms\6.single_touch_with_flat_hand_short_short_600ms.mp4	6.single_touch_with_flat_hand_short_short_600ms.mp4	99.06525858575289	99.6735774572553	0.6083188715024335	n/a	n/a	n/a	n/a
58.22412109375	0.2	119243	51	64	0	0	0	51	82	stimuli\Videos_short_600ms\84.single_touch_with_cotton_bud_short_short_600ms.mp4	84.single_touch_with_cotton_bud_short_short_600ms.mp4	99.86527418634978	100.4735581617806	0.6082839754308225	n/a	n/a	n/a	n/a
59.02392578125	0.2	120881	52	64	0	0	0	52	204	stimuli\Videos_short_600ms_horvertflip\31.hand_grabbing_wrist_short_horvertflip_short_600ms.mp4	31.hand_grabbing_wrist_short_horvertflip_short_600ms.mp4	100.66524198812569	101.2735371068402	0.6082951187145227	n/a	n/a	n/a	n/a
59.82373046875	0.2	122519	53	64	0	0	0	53	256	stimuli\Videos_short_600ms_horvertflip\79.long_with_soft_brush_all_over_the_hand_short_horvertflip_short_600ms.mp4	79.long_with_soft_brush_all_over_the_hand_short_horvertflip_short_600ms.mp4	101.46521066963489	102.07352045056405	0.6083097809291758	n/a	n/a	n/a	n/a
60.6240234375	0.2	124158	54	64	0	0	0	54	287	stimuli\Videos_short_600ms_vertflip\25.single_touch_with_stanley_knife_short_vertflip_short_600ms.mp4	25.single_touch_with_stanley_knife_short_vertflip_short_600ms.mp4	102.26518814847304	102.8735020348222	0.6083138863491513	n/a	n/a	n/a	n/a
61.423828125	0.2	125796	55	64	0	0	0	55	260	stimuli\Videos_short_600ms_horvertflip\82.repeated_touch_with_cotton_bud_short_horvertflip_short_600ms.mp4	82.repeated_touch_with_cotton_bud_short_horvertflip_short_600ms.mp4	103.06519583147384	103.67346426495668	0.6082684334828627	n/a	n/a	n/a	n/a
62.2236328125	0.2	127434	56	64	0	0	0	56	138	stimuli\Videos_short_600ms_horflip\53.touch_top_to_bottom_with_knife_short_horflip_short_600ms.mp4	53.touch_top_to_bottom_with_knife_short_horflip_short_600ms.mp4	103.86516920489156	104.47346725604848	0.6082980511569076	n/a	n/a	n/a	n/a
63.02392578125	0.2	129073	57	64	0	0	0	57	149	stimuli\Videos_short_600ms_horflip\63.stroke_top_to_bottom_with_screwdriver_short_horflip_short_600ms.mp4	63.stroke_top_to_bottom_with_screwdriver_short_horflip_short_600ms.mp4	104.66538831702974	105.27342156858732	0.6080332515575719	n/a	n/a	n/a	n/a
63.82373046875	0.2	130711	58	64	0	0	0	58	239	stimuli\Videos_short_600ms_horvertflip\63.stroke_top_to_bottom_with_screwdriver_short_horvertflip_short_600ms.mp4	63.stroke_top_to_bottom_with_screwdriver_short_horvertflip_short_600ms.mp4	105.4650810556559	106.07340197986832	0.6083209242124212	n/a	n/a	n/a	n/a
64.6240234375	0.2	132350	59	64	0	0	0	59	37	stimuli\Videos_short_600ms\43.touch_top_to_bottom_with_sharp_wooden_stick_short_short_600ms.mp4	43.touch_top_to_bottom_with_sharp_wooden_stick_short_short_600ms.mp4	106.26506146693691	106.87341112909009	0.6083496621531594	n/a	n/a	n/a	n/a
65.423828125	0.2	133988	60	64	0	0	1	60	370	stimuli\Targets_short_600ms_horflip\hand-pinch_short_horflip_short_600ms.mp4	hand-pinch_short_horflip_short_600ms.mp4	107.06517940979302	107.6733912471268	0.6082118373337835	n/a	n/a	n/a	n/a
66.2236328125	0.2	135626	61	64	0	0	0	61	162	stimuli\Videos_short_600ms_horflip\75.(long)stroke_with_fingers_all_over_the_hand_short_horflip_short_600ms.mp4	75.(long)stroke_with_fingers_all_over_the_hand_short_horflip_short_600ms.mp4	107.86513753450754	108.47337781653825	0.6082402820306925	n/a	n/a	n/a	n/a
67.02392578125	0.2	137265	62	64	0	0	0	62	128	stimuli\Videos_short_600ms_horflip\44.pushing_top_to_bottom_with_finger_short_horflip_short_600ms.mp4	44.pushing_top_to_bottom_with_finger_short_horflip_short_600ms.mp4	108.66503055898828	109.27334972373455	0.6083191647462627	n/a	n/a	n/a	n/a
67.82373046875	0.2	138903	63	64	0	0	1	63	377	stimuli\Targets_short_600ms_horvertflip\hand-stroke_short_vertflip_short_600ms.mp4	hand-stroke_short_vertflip_short_600ms.mp4	109.4651417572254	110.07333482692412	0.6081930696987001	n/a	n/a	n/a	n/a
68.62353515625	0.2	140541	64	64	0	0	0	64	135	stimuli\Videos_short_600ms_horflip\50.single_(long)hard_push_with_thumb_short_horflip_short_600ms.mp4	50.single_(long)hard_push_with_thumb_short_horflip_short_600ms.mp4	110.26499167479416	110.87331347873942	0.6083218039452731	n/a	n/a	n/a	n/a
69.423828125	0.2	142180	65	64	0	0	1	65	378	stimuli\Targets_short_600ms_vertflip\brush-stroke_short_horvertflip_short_600ms.mp4	brush-stroke_short_horvertflip_short_600ms.mp4	111.06497824420558	111.67329330353186	0.6083150593262872	n/a	n/a	n/a	n/a
70.2236328125	0.2	143818	66	64	0	0	0	66	101	stimuli\Videos_short_600ms_horflip\2.single_touch_with_finger_short_horflip_short_600ms.mp4	2.single_touch_with_finger_short_horflip_short_600ms.mp4	111.86495630953232	112.47327664725572	0.6083203377233986	n/a	n/a	n/a	n/a
71.0234375	0.2	145456	67	64	0	0	0	67	265	stimuli\Videos_short_600ms_horvertflip\87.single_stroke_top_to_bottom_with_plastic_brush_short_horvertflip_short_600ms.mp4	87.single_stroke_top_to_bottom_with_plastic_brush_short_horvertflip_short_600ms.mp4	112.66493642756905	113.27325881800245	0.6083223904333863	n/a	n/a	n/a	n/a
71.82373046875	0.2	147095	68	64	0	0	0	68	347	stimuli\Videos_short_600ms_vertflip\8.single_touch_with_hairbrush_short_vertflip_short_600ms.mp4	8.single_touch_with_hairbrush_short_vertflip_short_600ms.mp4	113.4649112672082	114.073239815772	0.6083285485638044	n/a	n/a	n/a	n/a
72.62353515625	0.2	148733	69	64	0	0	0	69	238	stimuli\Videos_short_600ms_horvertflip\62.touch_top_to_bottom_with_scissors_short_horvertflip_short_600ms.mp4	62.touch_top_to_bottom_with_scissors_short_horvertflip_short_600ms.mp4	114.26489754337535	114.8732187608316	0.6083212174562505	n/a	n/a	n/a	n/a
73.42333984375	0.2	150371	70	64	0	0	0	70	123	stimuli\Videos_short_600ms_horflip\4.repeated_tap_with_finger_slow_short_horflip_short_600ms.mp4	4.repeated_tap_with_finger_slow_short_horflip_short_600ms.mp4	115.06499877130636	115.67320503699877	0.6082062656923881	n/a	n/a	n/a	n/a
74.2236328125	0.2	152010	71	64	0	0	0	71	164	stimuli\Videos_short_600ms_horflip\77.tapping_with_all_fingers_short_horflip_short_600ms.mp4	77.tapping_with_all_fingers_short_horflip_short_600ms.mp4	115.86486129838022	116.4731836888136	0.6083223904333863	n/a	n/a	n/a	n/a
75.0234375	0.2	153648	72	64	0	0	0	72	99	stimuli\Videos_short_600ms_horflip\18.single_stroke_from_top_to_bottom_with_rolling_pin_short_horflip_short_600ms.mp4	18.single_stroke_from_top_to_bottom_with_rolling_pin_short_horflip_short_600ms.mp4	116.6648422961498	117.27316351360604	0.6083212174562505	n/a	n/a	n/a	n/a
75.8232421875	0.2	155286	73	64	0	0	0	73	21	stimuli\Videos_short_600ms\29.single_pinch_with_tweezers_short_short_600ms.mp4	29.single_pinch_with_tweezers_short_short_600ms.mp4	117.46482769258364	118.07314568435277	0.6083179917691268	n/a	n/a	n/a	n/a
76.62353515625	0.2	156925	74	64	0	0	0	74	346	stimuli\Videos_short_600ms_vertflip\79.long_with_soft_brush_all_over_the_hand_short_vertflip_short_600ms.mp4	79.long_with_soft_brush_all_over_the_hand_short_vertflip_short_600ms.mp4	118.26484036073724	118.8731219902138	0.6082816294765507	n/a	n/a	n/a	n/a
77.42333984375	0.2	158563	75	64	0	0	0	75	7	stimuli\Videos_short_600ms\16.repeated_touch_with_plastic_brush_short_short_600ms.mp4	16.repeated_touch_with_plastic_brush_short_short_600ms.mp4	119.06487355599164	119.67310562718194	0.6082320711902867	n/a	n/a	n/a	n/a
78.22314453125	0.2	160201	76	64	0	0	0	76	232	stimuli\Videos_short_600ms_horvertflip\57.single_touch_with_nail_file_short_horvertflip_short_600ms.mp4	57.single_touch_with_nail_file_short_horvertflip_short_600ms.mp4	119.86478593459606	120.47308310602013	0.6082971714240557	n/a	n/a	n/a	n/a
79.0234375	0.2	161840	77	64	0	0	0	77	79	stimuli\Videos_short_600ms\81.single_stroke_top_to_bottom_with_cotton_pad_short_short_600ms.mp4	81.single_stroke_top_to_bottom_with_cotton_pad_short_short_600ms.mp4	120.66472323896552	121.27305442672788	0.6083311877623601	n/a	n/a	n/a	n/a
79.8232421875	0.2	163478	78	64	0	0	0	78	298	stimuli\Videos_short_600ms_vertflip\35.single_punch_with_hand_short_vertflip_short_600ms.mp4	35.single_punch_with_hand_short_vertflip_short_600ms.mp4	121.46472857601157	122.07304715426926	0.6083185782576948	n/a	n/a	n/a	n/a
80.623046875	0.2	165116	79	64	0	0	0	79	291	stimuli\Videos_short_600ms_vertflip\29.single_pinch_with_tweezers_short_vertflip_short_600ms.mp4	29.single_pinch_with_tweezers_short_vertflip_short_600ms.mp4	122.26473508603476	122.87303460341354	0.6082995173787822	n/a	n/a	n/a	n/a
81.42333984375	0.2	166755	80	64	0	0	0	80	131	stimuli\Videos_short_600ms_horflip\47.(long)scratching_with_finger_nails_short_horflip_short_600ms.mp4	47.(long)scratching_with_finger_nails_short_horflip_short_600ms.mp4	123.0646946769707	123.67301677416026	0.6083220971895571	n/a	n/a	n/a	n/a
82.22314453125	0.2	168393	81	64	0	0	0	81	337	stimuli\Videos_short_600ms_vertflip\70.(long)stroke_with_finger_all_over_the_hand_short_vertflip_short_600ms.mp4	70.(long)stroke_with_finger_all_over_the_hand_short_vertflip_short_600ms.mp4	123.8646736220303	124.47300422330407	0.6083306012737921	n/a	n/a	n/a	n/a
83.02294921875	0.2	170031	82	64	0	0	0	82	120	stimuli\Videos_short_600ms_horflip\37.single_stab_with_nail_file_short_horflip_short_600ms.mp4	37.single_stab_with_nail_file_short_horflip_short_600ms.mp4	124.66465549953271	125.27297788996655	0.6083223904338411	n/a	n/a	n/a	n/a
83.8232421875	0.2	171670	83	64	0	0	0	83	91	stimuli\Videos_short_600ms_horflip\10.single_touch_with_knife_short_horflip_short_600ms.mp4	10.single_touch_with_knife_short_horflip_short_600ms.mp4	125.4646347378366	126.0729580080033	0.608323270166693	n/a	n/a	n/a	n/a
84.623046875	0.2	173308	84	64	0	0	0	84	4	stimuli\Videos_short_600ms\13.single_touch_with_pen_short_short_600ms.mp4	13.single_touch_with_pen_short_short_600ms.mp4	126.2646172018276	126.87293900577288	0.6083218039452731	n/a	n/a	n/a	n/a
85.42333984375	0.2	174947	85	64	0	0	0	85	147	stimuli\Videos_short_600ms_horflip\61.single_hit_with_rolling_pin_short_horflip_short_600ms.mp4	61.single_hit_with_rolling_pin_short_horflip_short_600ms.mp4	127.06466652551852	127.6729176575882	0.608251132069654	n/a	n/a	n/a	n/a
86.22314453125	0.2	176585	86	64	0	0	0	86	317	stimuli\Videos_short_600ms_vertflip\52.touch_top_to_bottom_with_hammer_short_vertflip_short_600ms.mp4	52.touch_top_to_bottom_with_hammer_short_vertflip_short_600ms.mp4	127.86459972446757	128.47290041482347	0.608300690355918	n/a	n/a	n/a	n/a
87.02294921875	0.2	178223	87	64	0	0	0	87	87	stimuli\Videos_short_600ms\89.single_touch_with_plastic_brush_short_short_600ms.mp4	89.single_touch_with_plastic_brush_short_short_600ms.mp4	128.66458042899285	129.27288111934877	0.608300690355918	n/a	n/a	n/a	n/a
87.8232421875	0.2	179862	88	64	0	0	0	88	130	stimuli\Videos_short_600ms_horflip\46.scratching_top_to_bottom_with_finger_nails_short_horflip_short_600ms.mp4	46.scratching_top_to_bottom_with_finger_nails_short_horflip_short_600ms.mp4	129.46452213202656	130.07286563604976	0.6083435040231961	n/a	n/a	n/a	n/a
88.623046875	0.2	181500	89	64	0	0	1	89	365	stimuli\Targets_short_600ms\hand-stroke_short_short_600ms.mp4	hand-stroke_short_short_600ms.mp4	130.26449873113188	130.87284575408648	0.6083470229546037	n/a	n/a	n/a	n/a
89.4228515625	0.2	183138	90	64	0	0	0	90	296	stimuli\Videos_short_600ms_vertflip\33.scratch_top_to_bottom_with_scissors_short_vertflip_short_600ms.mp4	33.scratch_top_to_bottom_with_scissors_short_vertflip_short_600ms.mp4	131.0644826613443	131.67282733834463	0.608344677000332	n/a	n/a	n/a	n/a
90.22314453125	0.2	184777	91	64	0	0	0	91	129	stimuli\Videos_short_600ms_horflip\45.scratching_with_finger_nails_short_horflip_short_600ms.mp4	45.scratching_with_finger_nails_short_horflip_short_600ms.mp4	131.86456336217498	132.4728068698928	0.6082435077178161	n/a	n/a	n/a	n/a
91.02294921875	0.2	186415	92	64	0	0	0	92	344	stimuli\Videos_short_600ms_vertflip\77.tapping_with_all_fingers_short_vertflip_short_600ms.mp4	77.tapping_with_all_fingers_short_vertflip_short_600ms.mp4	132.66451650173622	133.27278669468524	0.6082701929490213	n/a	n/a	n/a	n/a
91.82275390625	0.2	188053	93	64	0	0	0	93	68	stimuli\Videos_short_600ms\71.single_stroke_with_finger_top_to_bottom_short_short_600ms.mp4	71.single_stroke_with_finger_top_to_bottom_short_short_600ms.mp4	133.46450717656762	134.0727632937901	0.6082561172224814	n/a	n/a	n/a	n/a
92.623046875	0.2	189692	94	64	0	0	0	94	108	stimuli\Videos_short_600ms_horflip\26.single_touch_with_a_blunt_syringe_short_horflip_short_600ms.mp4	26.single_touch_with_a_blunt_syringe_short_horflip_short_600ms.mp4	134.26446031612886	134.8727504496901	0.6082901335612405	n/a	n/a	n/a	n/a
93.4228515625	0.2	191330	95	64	0	0	0	95	314	stimuli\Videos_short_600ms_vertflip\5.repeated_tap_with_finger_moving_from_top_to_bottom_short_vertflip_short_600ms.mp4	5.repeated_tap_with_finger_moving_from_top_to_bottom_short_vertflip_short_600ms.mp4	135.06450025600225	135.6727346731468	0.6082344171445584	n/a	n/a	n/a	n/a
94.22265625	0.2	192968	96	64	0	0	0	96	36	stimuli\Videos_short_600ms\42.single_slap_with_plastic_whisk_short_short_600ms.mp4	42.single_slap_with_plastic_whisk_short_short_600ms.mp4	135.86440266430054	136.47271655064924	0.6083138863486965	n/a	n/a	n/a	n/a
95.02294921875	0.2	194607	97	64	0	0	0	97	353	stimuli\Videos_short_600ms_vertflip\85.touch_top_to_bottom_with_fabric_short_vertflip_short_600ms.mp4	85.touch_top_to_bottom_with_fabric_short_vertflip_short_600ms.mp4	136.6643775039397	137.27269490922026	0.6083174052805589	n/a	n/a	n/a	n/a
95.82275390625	0.2	196245	98	64	0	0	0	98	233	stimuli\Videos_short_600ms_horvertflip\58.single_slap_with_pencil_short_horvertflip_short_600ms.mp4	58.single_slap_with_pencil_short_horvertflip_short_600ms.mp4	137.46435498277788	138.0726811853874	0.6083262026095326	9.0	9.0	1.9675525185871263	1.0
129.2216796875	0.2	264646	99	64	1	0	0	0	340	stimuli\Videos_short_600ms_vertflip\73.single_stroke_with_flat_hand_short_vertflip_short_600ms.mp4	73.single_stroke_with_flat_hand_short_vertflip_short_600ms.mp4	170.86357630187285	171.47189605310768	0.6083197512348306	n/a	n/a	n/a	n/a
130.021484375	0.2	266284	100	64	1	0	0	1	30	stimuli\Videos_short_600ms\37.single_stab_with_nail_file_short_short_600ms.mp4	37.single_stab_with_nail_file_short_short_600ms.mp4	171.66355612666484	172.27187675763298	0.6083206309681373	n/a	n/a	n/a	n/a
130.82177734375	0.2	267923	101	64	1	0	0	2	303	stimuli\Videos_short_600ms_vertflip\4.repeated_tap_with_finger_slow_short_vertflip_short_600ms.mp4	4.repeated_tap_with_finger_slow_short_vertflip_short_600ms.mp4	172.46364239913692	173.07186098108969	0.6082185819527695	n/a	n/a	n/a	n/a
131.62158203125	0.2	269561	102	64	1	0	0	3	213	stimuli\Videos_short_600ms_horvertflip\4.repeated_tap_with_finger_slow_short_horvertflip_short_600ms.mp4	4.repeated_tap_with_finger_slow_short_horvertflip_short_600ms.mp4	173.26352017491445	173.8718393396607	0.6083191647462627	n/a	n/a	n/a	n/a
132.42138671875	0.2	271199	103	64	1	0	0	4	243	stimuli\Videos_short_600ms_horvertflip\67.single_touch_with_sponge_short_horvertflip_short_600ms.mp4	67.single_touch_with_sponge_short_horvertflip_short_600ms.mp4	174.063545745817	174.67182239014028	0.6082766443232686	n/a	n/a	n/a	n/a
133.2216796875	0.2	272838	104	64	1	0	0	5	54	stimuli\Videos_short_600ms\59.single_push_with_long_side_pencil_short_short_600ms.mp4	59.single_push_with_long_side_pencil_short_short_600ms.mp4	174.86348920831642	175.4718028014213	0.6083135931048673	n/a	n/a	n/a	n/a
134.021484375	0.2	274476	105	64	1	0	0	6	178	stimuli\Videos_short_600ms_horflip\9.single_touch_with_hammer_short_horflip_short_600ms.mp4	9.single_touch_with_hammer_short_horflip_short_600ms.mp4	175.66348721425538	176.2717835059466	0.6082962916912038	n/a	n/a	n/a	n/a
134.8212890625	0.2	276114	106	64	1	0	0	7	215	stimuli\Videos_short_600ms_horvertflip\41.injection_with_blunt_syringe_short_horvertflip_short_600ms.mp4	41.injection_with_blunt_syringe_short_horvertflip_short_600ms.mp4	176.46346645255926	177.07176538344902	0.6082989308897595	n/a	n/a	n/a	n/a
135.62158203125	0.2	277753	107	64	1	0	0	8	2	stimuli\Videos_short_600ms\11.single_touch_with_lighter_short_short_600ms.mp4	11.single_touch_with_lighter_short_short_600ms.mp4	177.26347530853673	177.8717446217529	0.6082693132161694	n/a	n/a	n/a	n/a
136.42138671875	0.2	279391	108	64	1	0	0	9	227	stimuli\Videos_short_600ms_horvertflip\52.touch_top_to_bottom_with_hammer_short_horvertflip_short_600ms.mp4	52.touch_top_to_bottom_with_hammer_short_horvertflip_short_600ms.mp4	178.06344311031307	178.67172737898818	0.6082842686751064	n/a	n/a	n/a	n/a
137.22119140625	0.2	281029	109	64	1	0	0	10	247	stimuli\Videos_short_600ms_horvertflip\70.(long)stroke_with_finger_all_over_the_hand_short_horvertflip_short_600ms.mp4	70.(long)stroke_with_finger_all_over_the_hand_short_horvertflip_short_600ms.mp4	178.86339800934047	179.47170896324633	0.6083109539058569	n/a	n/a	n/a	n/a
138.021484375	0.2	282668	110	64	1	0	0	11	35	stimuli\Videos_short_600ms\41.injection_with_blunt_syringe_short_short_600ms.mp4	41.injection_with_blunt_syringe_short_short_600ms.mp4	179.66335026916886	180.27168790830592	0.6083376391370621	n/a	n/a	n/a	n/a
138.8212890625	0.2	284306	111	64	1	0	0	12	70	stimuli\Videos_short_600ms\73.single_stroke_with_flat_hand_short_short_600ms.mp4	73.single_stroke_with_flat_hand_short_short_600ms.mp4	180.46341777400585	181.07166773309837	0.6082499590925181	n/a	n/a	n/a	n/a
139.62158203125	0.2	285945	112	64	1	0	0	13	252	stimuli\Videos_short_600ms_horvertflip\75.(long)stroke_with_fingers_all_over_the_hand_short_horvertflip_short_600ms.mp4	75.(long)stroke_with_fingers_all_over_the_hand_short_horvertflip_short_600ms.mp4	181.26332897963312	181.87165840792977	0.6083294282966563	n/a	n/a	n/a	n/a
140.42138671875	0.2	287583	113	64	1	0	0	14	57	stimuli\Videos_short_600ms\61.single_hit_with_rolling_pin_short_short_600ms.mp4	61.single_hit_with_rolling_pin_short_short_600ms.mp4	182.06331936122024	182.67163148810323	0.6083121268829927	n/a	n/a	n/a	n/a
141.22119140625	0.2	289221	114	64	1	0	1	15	383	stimuli\Targets_short_600ms_vertflip\hand-stroke_short_horvertflip_short_600ms.mp4	hand-stroke_short_horvertflip_short_600ms.mp4	182.86329449410368	183.47160838045284	0.6083138863491513	n/a	n/a	n/a	n/a
142.021484375	0.2	290860	115	64	1	0	0	16	217	stimuli\Videos_short_600ms_horvertflip\43.touch_top_to_bottom_with_sharp_wooden_stick_short_horvertflip_short_600ms.mp4	43.touch_top_to_bottom_with_sharp_wooden_stick_short_horvertflip_short_600ms.mp4	183.66328223649225	184.27159700257425	0.6083147660820032	n/a	n/a	n/a	n/a
142.8212890625	0.2	292498	116	64	1	0	0	17	143	stimuli\Videos_short_600ms_horflip\58.single_slap_with_pencil_short_horflip_short_600ms.mp4	58.single_slap_with_pencil_short_horflip_short_600ms.mp4	184.46323449632064	185.07157946656525	0.608344970244616	n/a	n/a	n/a	n/a
143.62109375	0.2	294136	117	64	1	0	0	18	257	stimuli\Videos_short_600ms_horvertflip\8.single_touch_with_hairbrush_short_horvertflip_short_600ms.mp4	8.single_touch_with_hairbrush_short_horvertflip_short_600ms.mp4	185.26387177482593	185.87156750219765	0.6076957273717198	n/a	n/a	n/a	n/a
144.42138671875	0.2	295775	118	64	1	0	0	19	28	stimuli\Videos_short_600ms\35.single_punch_with_hand_short_short_600ms.mp4	35.single_punch_with_hand_short_short_600ms.mp4	186.06319678510408	186.671539995883	0.6083432107789122	n/a	n/a	n/a	n/a
145.22119140625	0.2	297413	119	64	1	0	0	20	95	stimuli\Videos_short_600ms_horflip\14.repeated_touch_with_pencil_short_horflip_short_600ms.mp4	14.repeated_touch_with_pencil_short_horflip_short_600ms.mp4	186.86319889646305	187.4715344828901	0.6083355864270743	n/a	n/a	n/a	n/a
146.02099609375	0.2	299051	120	64	1	0	0	21	170	stimuli\Videos_short_600ms_horflip\82.repeated_touch_with_cotton_bud_short_horflip_short_600ms.mp4	82.repeated_touch_with_cotton_bud_short_horflip_short_600ms.mp4	187.66315731442185	188.27150521710928	0.6083479026874556	n/a	n/a	n/a	n/a
146.8212890625	0.2	300690	121	64	1	0	0	22	230	stimuli\Videos_short_600ms_horvertflip\55.touch_top_to_bottom_with_nail_file_short_horvertflip_short_600ms.mp4	55.touch_top_to_bottom_with_nail_file_short_horvertflip_short_600ms.mp4	188.46328698704977	189.071483282436	0.6081962953862785	n/a	n/a	n/a	n/a
147.62109375	0.2	302328	122	64	1	0	0	23	267	stimuli\Videos_short_600ms_horvertflip\89.single_touch_with_plastic_brush_short_horvertflip_short_600ms.mp4	89.single_touch_with_plastic_brush_short_horvertflip_short_600ms.mp4	189.2631668155368	189.8714642802056	0.6082974646687944	n/a	n/a	n/a	n/a
148.4208984375	0.2	303966	123	64	1	0	0	24	172	stimuli\Videos_short_600ms_horflip\84.single_touch_with_cotton_bud_short_horflip_short_600ms.mp4	84.single_touch_with_cotton_bud_short_horflip_short_600ms.mp4	190.06314810655067	190.6714438117533	0.6082957052026359	n/a	n/a	n/a	n/a
149.22119140625	0.2	305605	124	64	1	0	0	25	184	stimuli\Videos_short_600ms_horvertflip\13.single_touch_with_pen_short_horvertflip_short_600ms.mp4	13.single_touch_with_pen_short_horvertflip_short_600ms.mp4	190.86313526245067	191.47142950143189	0.608294238981216	n/a	n/a	n/a	n/a
150.02099609375	0.2	307243	125	64	1	0	0	26	224	stimuli\Videos_short_600ms_horvertflip\5.repeated_tap_with_finger_moving_from_top_to_bottom_short_horvertflip_short_600ms.mp4	5.repeated_tap_with_finger_moving_from_top_to_bottom_short_horvertflip_short_600ms.mp4	191.66309778582945	192.27141079244575	0.6083130066162994	n/a	n/a	n/a	n/a
150.82080078125	0.2	308881	126	64	1	0	0	27	315	stimuli\Videos_short_600ms_vertflip\50.single_(long)hard_push_with_thumb_short_vertflip_short_600ms.mp4	50.single_(long)hard_push_with_thumb_short_vertflip_short_600ms.mp4	192.46306822680435	193.0713906172382	0.6083223904338411	n/a	n/a	n/a	n/a
151.62109375	0.2	310520	127	64	1	0	0	28	155	stimuli\Videos_short_600ms_horflip\69.stroke_with_soft_sock_short_horflip_short_600ms.mp4	69.stroke_with_soft_sock_short_horflip_short_600ms.mp4	193.2633735527661	193.8713745474506	0.6080009946845166	n/a	n/a	n/a	n/a
152.4208984375	0.2	312158	128	64	1	0	0	29	32	stimuli\Videos_short_600ms\39.single_stab_with_scissors_short_short_600ms.mp4	39.single_stab_with_scissors_short_short_600ms.mp4	194.06331818824265	194.67135437224303	0.6080361840004116	n/a	n/a	n/a	n/a
153.220703125	0.2	313796	129	64	1	0	0	30	271	stimuli\Videos_short_600ms_vertflip\10.single_touch_with_knife_short_vertflip_short_600ms.mp4	10.single_touch_with_knife_short_vertflip_short_600ms.mp4	194.8630053552274	195.47133507676836	0.6083297215409402	n/a	n/a	n/a	n/a
154.02099609375	0.2	315435	130	64	1	0	0	31	274	stimuli\Videos_short_600ms_vertflip\13.single_touch_with_pen_short_vertflip_short_600ms.mp4	13.single_touch_with_pen_short_vertflip_short_600ms.mp4	195.66297345024805	196.2713137285837	0.6083402783356178	n/a	n/a	n/a	n/a
154.82080078125	0.2	317073	131	64	1	0	1	32	362	stimuli\Targets_short_600ms\chopstickwood-tap_short_short_600ms.mp4	chopstickwood-tap_short_short_600ms.mp4	196.4630567902768	197.07130352368225	0.6082467334053945	n/a	n/a	n/a	n/a
155.62060546875	0.2	318711	132	64	1	0	0	33	146	stimuli\Videos_short_600ms_horflip\60.single_push_with_tip_of_pencil_short_horflip_short_600ms.mp4	60.single_push_with_tip_of_pencil_short_horflip_short_600ms.mp4	197.2630058244181	197.87127543087857	0.6082696064604534	n/a	n/a	n/a	n/a
156.4208984375	0.2	320350	133	64	1	0	0	34	188	stimuli\Videos_short_600ms_horvertflip\17.repeated_touch_with_rolling_pin_short_horvertflip_short_600ms.mp4	17.repeated_touch_with_rolling_pin_short_horvertflip_short_600ms.mp4	198.062980957302	198.67125994757953	0.6082789902775403	n/a	n/a	n/a	n/a
157.220703125	0.2	321988	134	64	1	0	0	35	297	stimuli\Videos_short_600ms_vertflip\34.repeated_punch_with_hand_short_vertflip_short_600ms.mp4	34.repeated_punch_with_hand_short_vertflip_short_600ms.mp4	198.86292500628997	199.47124534401385	0.6083203377238533	n/a	n/a	n/a	n/a
158.02099609375	0.2	323627	135	64	1	0	0	36	237	stimuli\Videos_short_600ms_horvertflip\61.single_hit_with_rolling_pin_short_horvertflip_short_600ms.mp4	61.single_hit_with_rolling_pin_short_horvertflip_short_600ms.mp4	199.66292213249608	200.27123162018052	0.608309487684437	n/a	n/a	n/a	n/a
158.82080078125	0.2	325265	136	64	1	0	0	37	134	stimuli\Videos_short_600ms_horflip\5.repeated_tap_with_finger_moving_from_top_to_bottom_short_horflip_short_600ms.mp4	5.repeated_tap_with_finger_moving_from_top_to_bottom_short_horflip_short_600ms.mp4	200.46288084369917	201.07121408417152	0.6083332404723478	n/a	n/a	n/a	n/a
159.62060546875	0.2	326903	137	64	1	0	0	38	122	stimuli\Videos_short_600ms_horflip\39.single_stab_with_scissors_short_horflip_short_600ms.mp4	39.single_stab_with_scissors_short_horflip_short_600ms.mp4	201.26283720894753	201.87118393865785	0.6083467297103198	n/a	n/a	n/a	n/a
160.4208984375	0.2	328542	138	64	1	0	0	39	140	stimuli\Videos_short_600ms_horflip\55.touch_top_to_bottom_with_nail_file_short_horflip_short_600ms.mp4	55.touch_top_to_bottom_with_nail_file_short_horflip_short_600ms.mp4	202.062853396033	202.67117226753496	0.6083188715019787	n/a	n/a	n/a	n/a
161.220703125	0.2	330180	139	64	1	0	0	40	333	stimuli\Videos_short_600ms_vertflip\67.single_touch_with_sponge_short_vertflip_short_600ms.mp4	67.single_touch_with_sponge_short_vertflip_short_600ms.mp4	202.86284260464257	203.47114769366272	0.6083050890201775	n/a	n/a	n/a	n/a
162.0205078125	0.2	331818	140	64	1	0	0	41	80	stimuli\Videos_short_600ms\82.repeated_touch_with_cotton_bud_short_short_600ms.mp4	82.repeated_touch_with_cotton_bud_short_short_600ms.mp4	203.6627872401195	204.2711292779209	0.6083420378013216	n/a	n/a	n/a	n/a
162.82080078125	0.2	333457	141	64	1	0	0	42	38	stimuli\Videos_short_600ms\44.pushing_top_to_bottom_with_finger_short_short_600ms.mp4	44.pushing_top_to_bottom_with_finger_short_short_600ms.mp4	204.46278847174565	205.071110862179	0.6083223904333863	n/a	n/a	n/a	n/a
163.62060546875	0.2	335095	142	64	1	0	0	43	53	stimuli\Videos_short_600ms\58.single_slap_with_pencil_short_short_600ms.mp4	58.single_slap_with_pencil_short_short_600ms.mp4	205.2628504049412	205.87109127346	0.6082408685188057	n/a	n/a	n/a	n/a
164.42041015625	0.2	336733	143	64	1	0	0	44	151	stimuli\Videos_short_600ms_horflip\65.stroke_top_to_bottom_with_stanley_knife_short_horflip_short_600ms.mp4	65.stroke_top_to_bottom_with_stanley_knife_short_horflip_short_600ms.mp4	206.0628070634339	206.6710725644739	0.6082655010400231	n/a	n/a	n/a	n/a
165.220703125	0.2	338372	144	64	1	0	0	45	98	stimuli\Videos_short_600ms_horflip\17.repeated_touch_with_rolling_pin_short_horflip_short_600ms.mp4	17.repeated_touch_with_rolling_pin_short_horflip_short_600ms.mp4	206.86272120150397	207.4710529757549	0.608331774250928	n/a	n/a	n/a	n/a
166.0205078125	0.2	340010	145	64	1	0	0	46	192	stimuli\Videos_short_600ms_horvertflip\20.single_touch_with_screwdriver_short_horvertflip_short_600ms.mp4	20.single_touch_with_screwdriver_short_horvertflip_short_600ms.mp4	207.662744133208	208.2710363194792	0.6082921862712283	n/a	n/a	n/a	n/a
166.8203125	0.2	341648	146	64	1	0	0	47	76	stimuli\Videos_short_600ms\79.long_with_soft_brush_all_over_the_hand_short_short_600ms.mp4	79.long_with_soft_brush_all_over_the_hand_short_short_600ms.mp4	208.46269609979208	209.0710143848055	0.6083182850134108	n/a	n/a	n/a	n/a
167.62060546875	0.2	343287	147	64	1	0	0	48	248	stimuli\Videos_short_600ms_horvertflip\71.single_stroke_with_finger_top_to_bottom_short_horvertflip_short_600ms.mp4	71.single_stroke_with_finger_top_to_bottom_short_horvertflip_short_600ms.mp4	209.26272137745036	209.87099684879695	0.6082754713465874	n/a	n/a	n/a	n/a
168.42041015625	0.2	344925	148	64	1	0	0	49	69	stimuli\Videos_short_600ms\72.(short)stroke_with_finger_all_over_the_hand_short_short_600ms.mp4	72.(short)stroke_with_finger_all_over_the_hand_short_short_600ms.mp4	210.06268243460772	210.67097960603223	0.6082971714245105	n/a	n/a	n/a	n/a
169.22021484375	0.2	346563	149	64	1	0	0	50	190	stimuli\Videos_short_600ms_horvertflip\19.single_touch_with_rolling_pin_short_horvertflip_short_600ms.mp4	19.single_touch_with_rolling_pin_short_horvertflip_short_600ms.mp4	210.8626420255437	211.47094183616673	0.6082998106230662	n/a	n/a	n/a	n/a
170.0205078125	0.2	348202	150	64	1	0	0	51	242	stimuli\Videos_short_600ms_horvertflip\66.stroke_top_to_bottom_with_sponge_short_horvertflip_short_600ms.mp4	66.stroke_top_to_bottom_with_sponge_short_horvertflip_short_600ms.mp4	211.66263533957408	212.27094482725852	0.608309487684437	n/a	n/a	n/a	n/a
170.8203125	0.2	349840	151	64	1	0	0	52	334	stimuli\Videos_short_600ms_vertflip\68.stroke_top_to_bottom_with_shawl_short_vertflip_short_600ms.mp4	68.stroke_top_to_bottom_with_shawl_short_vertflip_short_600ms.mp4	212.46258114802777	213.0709020722402	0.6083209242124212	n/a	n/a	n/a	n/a
171.6201171875	0.2	351478	152	64	1	0	0	53	47	stimuli\Videos_short_600ms\52.touch_top_to_bottom_with_hammer_short_short_600ms.mp4	52.touch_top_to_bottom_with_hammer_short_short_600ms.mp4	213.26310640721204	213.8708792578336	0.6077728506215863	n/a	n/a	n/a	n/a
172.42041015625	0.2	353117	153	64	1	0	0	54	114	stimuli\Videos_short_600ms_horflip\31.hand_grabbing_wrist_short_horflip_short_600ms.mp4	31.hand_grabbing_wrist_short_horflip_short_600ms.mp4	214.06291908275537	214.670883421903	0.6079643391476566	n/a	n/a	n/a	n/a
173.22021484375	0.2	354755	154	64	1	0	1	55	374	stimuli\Targets_short_600ms_horvertflip\chopstickwood-tap_short_vertflip_short_600ms.mp4	chopstickwood-tap_short_vertflip_short_600ms.mp4	214.8625473076363	215.4708714575354	0.6083241498990901	n/a	n/a	n/a	n/a
174.02001953125	0.2	356393	155	64	1	0	0	56	81	stimuli\Videos_short_600ms\83.single_stroke_top_to_bottom_with_cotton_bud_short_short_600ms.mp4	83.single_stroke_top_to_bottom_with_cotton_bud_short_short_600ms.mp4	215.66258050289025	216.27084922961785	0.6082687267276015	n/a	n/a	n/a	n/a
174.8203125	0.2	358032	156	64	1	0	1	57	375	stimuli\Targets_short_600ms_horvertflip\finger-tap_short_vertflip_short_600ms.mp4	finger-tap_short_vertflip_short_600ms.mp4	216.4625104761526	217.0708372652507	0.6083267890981006	n/a	n/a	n/a	n/a
175.6201171875	0.2	359670	157	64	1	0	0	58	253	stimuli\Videos_short_600ms_horvertflip\76.tickle_with_fingers_from_top_to_bottom_short_horvertflip_short_600ms.mp4	76.tickle_with_fingers_from_top_to_bottom_short_horvertflip_short_600ms.mp4	217.26255716064452	217.87081063866844	0.6082534780239257	n/a	n/a	n/a	n/a
176.42041015625	0.2	361309	158	64	1	0	0	59	329	stimuli\Videos_short_600ms_vertflip\63.stroke_top_to_bottom_with_screwdriver_short_vertflip_short_600ms.mp4	63.stroke_top_to_bottom_with_screwdriver_short_vertflip_short_600ms.mp4	218.0625296543294	218.67079104994943	0.6082613956200476	n/a	n/a	n/a	n/a
177.22021484375	0.2	362947	159	64	1	0	0	60	110	stimuli\Videos_short_600ms_horflip\28.single_injection_with_sharp_needle_short_horflip_short_600ms.mp4	28.single_injection_with_sharp_needle_short_horflip_short_600ms.mp4	218.86245317621703	219.4707743936733	0.6083212174562505	n/a	n/a	n/a	n/a
178.02001953125	0.2	364585	160	64	1	0	0	61	270	stimuli\Videos_short_600ms_vertflip\1.repeated_touch_with_finger_fast_short_vertflip_short_600ms.mp4	1.repeated_touch_with_finger_fast_short_vertflip_short_600ms.mp4	219.6624142333744	220.2707536319772	0.6083393986027659	n/a	n/a	n/a	n/a
178.8203125	0.2	366224	161	64	1	0	0	62	218	stimuli\Videos_short_600ms_horvertflip\44.pushing_top_to_bottom_with_finger_short_horvertflip_short_600ms.mp4	44.pushing_top_to_bottom_with_finger_short_horvertflip_short_600ms.mp4	220.4623908324793	221.0707358027239	0.608344970244616	n/a	n/a	n/a	n/a
179.6201171875	0.2	367862	162	64	1	0	0	63	60	stimuli\Videos_short_600ms\64.repeated_touch_with_screwdriver_short_short_600ms.mp4	64.repeated_touch_with_screwdriver_short_short_600ms.mp4	221.26245335216345	221.87071680049348	0.6082634483300353	n/a	n/a	n/a	n/a
180.419921875	0.2	369500	163	64	1	0	1	64	366	stimuli\Targets_short_600ms_horflip\brush-stroke_short_horflip_short_600ms.mp4	brush-stroke_short_horflip_short_600ms.mp4	222.06236074561457	222.67069809150735	0.6083373458927781	n/a	n/a	n/a	n/a
181.22021484375	0.2	371139	164	64	1	0	0	65	167	stimuli\Videos_short_600ms_horflip\8.single_touch_with_hairbrush_short_horflip_short_600ms.mp4	8.single_touch_with_hairbrush_short_horflip_short_600ms.mp4	222.86233646498704	223.47068055549835	0.6083440905113093	n/a	n/a	n/a	n/a
182.02001953125	0.2	372777	165	64	1	0	0	66	202	stimuli\Videos_short_600ms_horvertflip\3.single_push_with_finger_short_horvertflip_short_600ms.mp4	3.single_push_with_finger_short_horvertflip_short_600ms.mp4	223.66233769661312	224.2706624330008	0.608324736387658	n/a	n/a	n/a	n/a
182.81982421875	0.2	374415	166	64	1	0	0	67	136	stimuli\Videos_short_600ms_horflip\51.repeated_touch_with_hammer_short_horflip_short_600ms.mp4	51.repeated_touch_with_hammer_short_horflip_short_600ms.mp4	224.46230139296904	225.0706428442818	0.6083414513127536	n/a	n/a	n/a	n/a
183.6201171875	0.2	376054	167	64	1	0	0	68	358	stimuli\Videos_short_600ms_vertflip\9.single_touch_with_hammer_short_vertflip_short_600ms.mp4	9.single_touch_with_hammer_short_vertflip_short_600ms.mp4	225.26233194902488	225.87062296231852	0.6082910132936377	n/a	n/a	n/a	n/a
184.419921875	0.2	377692	168	64	1	0	0	69	255	stimuli\Videos_short_600ms_horvertflip\78.single_stroke_top_to_bottom_with_soft_brush_short_horvertflip_short_600ms.mp4	78.single_stroke_top_to_bottom_with_soft_brush_short_horvertflip_short_600ms.mp4	226.06228479534184	226.6706004411567	0.6083156458148551	n/a	n/a	n/a	n/a
185.2197265625	0.2	379330	169	64	1	0	0	70	175	stimuli\Videos_short_600ms_horflip\87.single_stroke_top_to_bottom_with_plastic_brush_short_horflip_short_600ms.mp4	87.single_stroke_top_to_bottom_with_plastic_brush_short_horflip_short_600ms.mp4	226.862553172522	227.4705647240012	0.6080115514791942	n/a	n/a	n/a	n/a
186.02001953125	0.2	380969	170	64	1	0	0	71	75	stimuli\Videos_short_600ms\78.single_stroke_top_to_bottom_with_soft_brush_short_short_600ms.mp4	78.single_stroke_top_to_bottom_with_soft_brush_short_short_600ms.mp4	227.66236350211105	228.2705718205134	0.6082083184023759	n/a	n/a	n/a	n/a
186.81982421875	0.2	382607	171	64	1	0	0	72	305	stimuli\Videos_short_600ms_vertflip\41.injection_with_blunt_syringe_short_vertflip_short_600ms.mp4	41.injection_with_blunt_syringe_short_vertflip_short_600ms.mp4	228.4622884902201	229.07055281828295	0.6082643280628872	n/a	n/a	n/a	n/a
187.61962890625	0.2	384245	172	64	1	0	0	73	286	stimuli\Videos_short_600ms_vertflip\24.single_stroke_top_to_bottom_with_a_spoon_short_vertflip_short_600ms.mp4	24.single_stroke_top_to_bottom_with_a_spoon_short_vertflip_short_600ms.mp4	229.2621897255408	229.87052619170072	0.6083364661599262	n/a	n/a	n/a	n/a
188.419921875	0.2	385884	173	64	1	0	0	74	66	stimuli\Videos_short_600ms\7.repeated_touch_with_hairbrush_short_short_600ms.mp4	7.repeated_touch_with_hairbrush_short_short_600ms.mp4	230.06219330312115	230.6705124678679	0.6083191647467174	n/a	n/a	n/a	n/a
189.2197265625	0.2	387522	174	64	1	0	1	75	381	stimuli\Targets_short_600ms_vertflip\finger-tap_short_horvertflip_short_600ms.mp4	finger-tap_short_horvertflip_short_600ms.mp4	230.86259979836495	231.47049317239316	0.6078933740282082	n/a	n/a	n/a	n/a
190.01953125	0.2	389160	175	64	1	0	0	76	133	stimuli\Videos_short_600ms_horflip\49.repeated_slap_with_hand_short_horflip_short_600ms.mp4	49.repeated_slap_with_hand_short_horflip_short_600ms.mp4	231.66243769291805	232.27048326073557	0.6080455678174985	n/a	n/a	n/a	n/a
190.81982421875	0.2	390799	176	64	1	0	0	77	231	stimuli\Videos_short_600ms_horvertflip\56.repeated_touch_with_nail_file_short_horvertflip_short_600ms.mp4	56.repeated_touch_with_nail_file_short_horvertflip_short_600ms.mp4	232.46217617765433	233.07045692739803	0.6082807497436988	n/a	n/a	n/a	n/a
191.61962890625	0.2	392437	177	64	1	0	0	78	182	stimuli\Videos_short_600ms_horvertflip\11.single_touch_with_lighter_short_horvertflip_short_600ms.mp4	11.single_touch_with_lighter_short_horvertflip_short_600ms.mp4	233.26209178194583	233.8704361657019	0.608344383756048	n/a	n/a	n/a	n/a
192.41943359375	0.2	394075	178	64	1	0	1	79	371	stimuli\Targets_short_600ms_horflip\hand-stroke_short_horflip_short_600ms.mp4	hand-stroke_short_horflip_short_600ms.mp4	234.06222585323803	234.67041628373863	0.6081904305005992	n/a	n/a	n/a	n/a
193.2197265625	0.2	395714	179	64	1	0	0	80	89	stimuli\Videos_short_600ms\90.repeated_touch_with_sponge_short_short_600ms.mp4	90.repeated_touch_with_sponge_short_short_600ms.mp4	234.8621446832171	235.47039669501964	0.6082520118025059	n/a	n/a	n/a	n/a
194.01953125	0.2	397352	180	64	1	0	1	81	368	stimuli\Targets_short_600ms_horflip\chopstickwood-tap_short_horflip_short_600ms.mp4	chopstickwood-tap_short_horflip_short_600ms.mp4	235.66203741445315	236.2703800387435	0.6083426242903442	n/a	n/a	n/a	n/a
194.8193359375	0.2	398990	181	64	1	0	0	82	67	stimuli\Videos_short_600ms\70.(long)stroke_with_finger_all_over_the_hand_short_short_600ms.mp4	70.(long)stroke_with_finger_all_over_the_hand_short_short_600ms.mp4	236.46252748432153	237.0703607432688	0.6078332589472666	n/a	n/a	n/a	n/a
195.61962890625	0.2	400629	182	64	1	0	0	83	29	stimuli\Videos_short_600ms\36.single_slap_with_full_hand_short_short_600ms.mp4	36.single_slap_with_full_hand_short_short_600ms.mp4	237.2626052527089	237.87034408699265	0.6077388342837367	n/a	n/a	n/a	n/a
196.41943359375	0.2	402267	183	64	1	0	0	84	173	stimuli\Videos_short_600ms_horflip\85.touch_top_to_bottom_with_fabric_short_horflip_short_600ms.mp4	85.touch_top_to_bottom_with_fabric_short_horflip_short_600ms.mp4	238.06211676635985	238.67032273880795	0.6082059724481041	n/a	n/a	n/a	n/a
197.2197265625	0.2	403906	184	64	1	0	0	85	137	stimuli\Videos_short_600ms_horflip\52.touch_top_to_bottom_with_hammer_short_horflip_short_600ms.mp4	52.touch_top_to_bottom_with_hammer_short_horflip_short_600ms.mp4	238.86204937882076	239.4703043230661	0.6082549442453455	n/a	n/a	n/a	n/a
198.01953125	0.2	405544	185	64	1	0	0	86	8	stimuli\Videos_short_600ms\17.repeated_touch_with_rolling_pin_short_short_600ms.mp4	17.repeated_touch_with_rolling_pin_short_short_600ms.mp4	239.6619450425001	240.2702850275914	0.6083399850913338	n/a	n/a	n/a	n/a
198.8193359375	0.2	407182	186	64	1	0	0	87	193	stimuli\Videos_short_600ms_horvertflip\21.repeated_touch_with_metal_chopstick_short_horvertflip_short_600ms.mp4	21.repeated_touch_with_metal_chopstick_short_horvertflip_short_600ms.mp4	240.46202134466603	241.07026514562813	0.6082438009621001	n/a	n/a	n/a	n/a
199.61962890625	0.2	408821	187	64	1	0	0	88	49	stimuli\Videos_short_600ms\54.repeated_touch_with_knife_short_short_600ms.mp4	54.repeated_touch_with_knife_short_short_600ms.mp4	241.2622249148567	241.87024936908483	0.6080244542281434	n/a	n/a	n/a	n/a
200.41943359375	0.2	410459	188	64	1	0	0	89	351	stimuli\Videos_short_600ms_vertflip\83.single_stroke_top_to_bottom_with_cotton_bud_short_vertflip_short_600ms.mp4	83.single_stroke_top_to_bottom_with_cotton_bud_short_vertflip_short_600ms.mp4	242.06204521475135	242.67022626143444	0.6081810466830575	n/a	n/a	n/a	n/a
201.21923828125	0.2	412097	189	64	1	0	0	90	295	stimuli\Videos_short_600ms_vertflip\32.single_(long)pinch_with_fingers_short_vertflip_short_600ms.mp4	32.single_(long)pinch_with_fingers_short_vertflip_short_600ms.mp4	242.86186727411223	243.4701852658818	0.6083179917695816	n/a	n/a	n/a	n/a
202.01953125	0.2	413736	190	64	1	0	0	91	165	stimuli\Videos_short_600ms_horflip\78.single_stroke_top_to_bottom_with_soft_brush_short_horflip_short_600ms.mp4	78.single_stroke_top_to_bottom_with_soft_brush_short_horflip_short_600ms.mp4	243.66187466386873	244.2701870839965	0.6083124201277315	n/a	n/a	n/a	n/a
202.8193359375	0.2	415374	191	64	1	0	0	92	166	stimuli\Videos_short_600ms_horflip\79.long_with_soft_brush_all_over_the_hand_short_horflip_short_600ms.mp4	79.long_with_soft_brush_all_over_the_hand_short_horflip_short_600ms.mp4	244.4618286831628	245.07017365340744	0.608344970244616	n/a	n/a	n/a	n/a
203.619140625	0.2	417012	192	64	1	0	0	93	121	stimuli\Videos_short_600ms_horflip\38.double_slap_with_pencil_short_horflip_short_600ms.mp4	38.double_slap_with_pencil_short_horflip_short_600ms.mp4	245.26183138101032	245.87015904984173	0.6083276688314072	n/a	n/a	n/a	n/a
204.41943359375	0.2	418651	193	64	1	0	0	94	169	stimuli\Videos_short_600ms_horflip\81.single_stroke_top_to_bottom_with_cotton_pad_short_horflip_short_600ms.mp4	81.single_stroke_top_to_bottom_with_cotton_pad_short_horflip_short_600ms.mp4	246.06181501797892	246.6701403408556	0.6083253228766807	n/a	n/a	n/a	n/a
205.21923828125	0.2	420289	194	64	1	0	0	95	228	stimuli\Videos_short_600ms_horvertflip\53.touch_top_to_bottom_with_knife_short_horvertflip_short_600ms.mp4	53.touch_top_to_bottom_with_knife_short_horvertflip_short_600ms.mp4	246.86177519540345	247.4701169399605	0.6083417445570376	n/a	n/a	n/a	n/a
206.01904296875	0.2	421927	195	64	1	0	0	96	322	stimuli\Videos_short_600ms_vertflip\57.single_touch_with_nail_file_short_vertflip_short_600ms.mp4	57.single_touch_with_nail_file_short_vertflip_short_600ms.mp4	247.66175589992872	248.2701035093719	0.6083476094431717	n/a	n/a	n/a	n/a
206.8193359375	0.2	423566	196	64	1	0	0	97	94	stimuli\Videos_short_600ms_horflip\13.single_touch_with_pen_short_horflip_short_600ms.mp4	13.single_touch_with_pen_short_horflip_short_600ms.mp4	248.46176182346335	249.07009095851572	0.6083291350523723	8.0	8.0	2.2325664799482183	1.0
240.6845703125	0.2	492922	197	64	2	0	0	0	39	stimuli\Videos_short_600ms\45.scratching_with_finger_nails_short_short_600ms.mp4	45.scratching_with_finger_nails_short_short_600ms.mp4	282.3276403863083	282.9359536861689	0.6083132998605834	n/a	n/a	n/a	n/a
241.48486328125	0.2	494561	198	64	2	0	0	1	127	stimuli\Videos_short_600ms_horflip\43.touch_top_to_bottom_with_sharp_wooden_stick_short_horflip_short_600ms.mp4	43.touch_top_to_bottom_with_sharp_wooden_stick_short_horflip_short_600ms.mp4	283.1276589193476	283.73593233798374	0.6082734186361449	n/a	n/a	n/a	n/a
242.28466796875	0.2	496199	199	64	2	0	0	2	349	stimuli\Videos_short_600ms_vertflip\81.single_stroke_top_to_bottom_with_cotton_pad_short_vertflip_short_600ms.mp4	81.single_stroke_top_to_bottom_with_cotton_pad_short_vertflip_short_600ms.mp4	283.927569245242	284.53590717762336	0.608337932381346	n/a	n/a	n/a	n/a
243.08447265625	0.2	497837	200	64	2	0	0	3	342	stimuli\Videos_short_600ms_vertflip\75.(long)stroke_with_fingers_all_over_the_hand_short_vertflip_short_600ms.mp4	75.(long)stroke_with_fingers_all_over_the_hand_short_vertflip_short_600ms.mp4	284.7275757552652	285.33588788214865	0.6083121268834475	n/a	n/a	n/a	n/a
243.884765625	0.2	499476	201	64	2	0	0	4	203	stimuli\Videos_short_600ms_horvertflip\30.finger_pulling_back_another_finger_short_horvertflip_short_600ms.mp4	30.finger_pulling_back_another_finger_short_horvertflip_short_600ms.mp4	285.5276884197242	286.1358691731625	0.6081807534383188	n/a	n/a	n/a	n/a
244.6845703125	0.2	501114	202	64	2	0	0	5	111	stimuli\Videos_short_600ms_horflip\29.single_pinch_with_tweezers_short_horflip_short_600ms.mp4	29.single_pinch_with_tweezers_short_horflip_short_600ms.mp4	286.32752631427684	286.9358844805147	0.6083581662378492	n/a	n/a	n/a	n/a
245.484375	0.2	502752	203	64	2	0	0	6	61	stimuli\Videos_short_600ms\65.stroke_top_to_bottom_with_stanley_knife_short_short_600ms.mp4	65.stroke_top_to_bottom_with_stanley_knife_short_short_600ms.mp4	287.1275199215511	287.7358411390078	0.6083212174567052	n/a	n/a	n/a	n/a
246.28466796875	0.2	504391	204	64	2	0	0	7	71	stimuli\Videos_short_600ms\74.fingers_walking_from_top_to_bottom_short_short_600ms.mp4	74.fingers_walking_from_top_to_bottom_short_short_600ms.mp4	287.92749564092355	288.5358230165102	0.6083273755866685	n/a	n/a	n/a	n/a
247.08447265625	0.2	506029	205	64	2	0	0	8	263	stimuli\Videos_short_600ms_horvertflip\85.touch_top_to_bottom_with_fabric_short_horvertflip_short_600ms.mp4	85.touch_top_to_bottom_with_fabric_short_horvertflip_short_600ms.mp4	288.7274830900674	289.33579463046226	0.6083115403948796	n/a	n/a	n/a	n/a
247.884765625	0.2	507668	206	64	2	0	0	9	284	stimuli\Videos_short_600ms_vertflip\22.single_touch_with_metal_chopstick_short_vertflip_short_600ms.mp4	22.single_touch_with_metal_chopstick_short_vertflip_short_600ms.mp4	289.52743476340765	290.13577709445326	0.6083423310456055	n/a	n/a	n/a	n/a
248.6845703125	0.2	509306	207	64	2	0	0	10	142	stimuli\Videos_short_600ms_horflip\57.single_touch_with_nail_file_short_horflip_short_600ms.mp4	57.single_touch_with_nail_file_short_horflip_short_600ms.mp4	290.32741693415437	290.9357589719557	0.6083420378013216	n/a	n/a	n/a	n/a
249.484375	0.2	510944	208	64	2	0	0	11	307	stimuli\Videos_short_600ms_vertflip\43.touch_top_to_bottom_with_sharp_wooden_stick_short_vertflip_short_600ms.mp4	43.touch_top_to_bottom_with_sharp_wooden_stick_short_vertflip_short_600ms.mp4	291.1273988116568	291.73574319541285	0.608344383756048	n/a	n/a	n/a	n/a
250.28466796875	0.2	512583	209	64	2	0	0	12	345	stimuli\Videos_short_600ms_vertflip\78.single_stroke_top_to_bottom_with_soft_brush_short_vertflip_short_600ms.mp4	78.single_stroke_top_to_bottom_with_soft_brush_short_vertflip_short_600ms.mp4	291.9274018027486	292.5356978011955	0.6082959984469198	n/a	n/a	n/a	n/a
251.08447265625	0.2	514221	210	64	2	0	0	13	153	stimuli\Videos_short_600ms_horflip\67.single_touch_with_sponge_short_horflip_short_600ms.mp4	67.single_touch_with_sponge_short_horflip_short_600ms.mp4	292.72778190600593	293.3357007922873	0.607918886281368	n/a	n/a	n/a	n/a
251.88427734375	0.2	515859	211	64	2	0	0	14	216	stimuli\Videos_short_600ms_horvertflip\42.single_slap_with_plastic_whisk_short_horvertflip_short_600ms.mp4	42.single_slap_with_plastic_whisk_short_horvertflip_short_600ms.mp4	293.5274822689835	294.13568266978973	0.608200400806254	n/a	n/a	n/a	n/a
252.6845703125	0.2	517498	212	64	2	0	0	15	159	stimuli\Videos_short_600ms_horflip\72.(short)stroke_with_finger_all_over_the_hand_short_horflip_short_600ms.mp4	72.(short)stroke_with_finger_all_over_the_hand_short_horflip_short_600ms.mp4	294.3273365852169	294.9356663067583	0.608329721541395	n/a	n/a	n/a	n/a
253.484375	0.2	519136	213	64	2	0	0	16	251	stimuli\Videos_short_600ms_horvertflip\74.fingers_walking_from_top_to_bottom_short_horvertflip_short_600ms.mp4	74.fingers_walking_from_top_to_bottom_short_horvertflip_short_600ms.mp4	295.12738942783926	295.7356669518954	0.6082775240561205	n/a	n/a	n/a	n/a
254.2841796875	0.2	520774	214	64	2	0	0	17	285	stimuli\Videos_short_600ms_vertflip\23.single_push_with_a_spoon_short_vertflip_short_600ms.mp4	23.single_push_with_a_spoon_short_vertflip_short_600ms.mp4	295.92740444194715	296.5356236103885	0.6082191684413374	n/a	n/a	n/a	n/a
255.08447265625	0.2	522413	215	64	2	0	0	18	278	stimuli\Videos_short_600ms_vertflip\17.repeated_touch_with_rolling_pin_short_vertflip_short_600ms.mp4	17.repeated_touch_with_rolling_pin_short_vertflip_short_600ms.mp4	296.7280387880096	297.33560490140235	0.6075661133927497	n/a	n/a	n/a	n/a
255.88427734375	0.2	524051	216	64	2	0	1	19	376	stimuli\Targets_short_600ms_horvertflip\hand-pinch_short_vertflip_short_600ms.mp4	hand-pinch_short_vertflip_short_600ms.mp4	297.52744004180477	298.1355861924162	0.6081461506114465	n/a	n/a	n/a	n/a
256.68408203125	0.2	525689	217	64	2	0	0	20	185	stimuli\Videos_short_600ms_horvertflip\14.repeated_touch_with_pencil_short_horvertflip_short_600ms.mp4	14.repeated_touch_with_pencil_short_horvertflip_short_600ms.mp4	298.3273336527741	298.93555399419256	0.6082203414184733	n/a	n/a	n/a	n/a
257.484375	0.2	527328	218	64	2	0	0	21	350	stimuli\Videos_short_600ms_vertflip\82.repeated_touch_with_cotton_bud_short_vertflip_short_600ms.mp4	82.repeated_touch_with_cotton_bud_short_vertflip_short_600ms.mp4	299.1272407529809	299.7355273676103	0.6082866146293782	n/a	n/a	n/a	n/a
258.2841796875	0.2	528966	219	64	2	0	0	22	10	stimuli\Videos_short_600ms\19.single_touch_with_rolling_pin_short_short_600ms.mp4	19.single_touch_with_rolling_pin_short_short_600ms.mp4	299.92774167288826	300.5355186289303	0.6077769560420165	n/a	n/a	n/a	n/a
259.083984375	0.2	530604	220	64	2	0	0	23	241	stimuli\Videos_short_600ms_horvertflip\65.stroke_top_to_bottom_with_stanley_knife_short_horvertflip_short_600ms.mp4	65.stroke_top_to_bottom_with_stanley_knife_short_horvertflip_short_600ms.mp4	300.7271716646246	301.33548965639375	0.6083179917691268	n/a	n/a	n/a	n/a
259.88427734375	0.2	532243	221	64	2	0	0	24	229	stimuli\Videos_short_600ms_horvertflip\54.repeated_touch_with_knife_short_horvertflip_short_600ms.mp4	54.repeated_touch_with_knife_short_horvertflip_short_600ms.mp4	301.5273388725227	302.13549206099697	0.6081531884742617	n/a	n/a	n/a	n/a
260.68408203125	0.2	533881	222	64	2	0	0	25	41	stimuli\Videos_short_600ms\47.(long)scratching_with_finger_nails_short_short_600ms.mp4	47.(long)scratching_with_finger_nails_short_short_600ms.mp4	302.32739552732073	302.93547335201083	0.6080778246900991	n/a	n/a	n/a	n/a
261.48388671875	0.2	535519	223	64	2	0	0	26	331	stimuli\Videos_short_600ms_vertflip\65.stroke_top_to_bottom_with_stanley_knife_short_vertflip_short_600ms.mp4	65.stroke_top_to_bottom_with_stanley_knife_short_vertflip_short_600ms.mp4	303.12711143224624	303.73546168088797	0.6083502486417274	n/a	n/a	n/a	n/a
262.2841796875	0.2	537158	224	64	2	0	0	27	299	stimuli\Videos_short_600ms_vertflip\36.single_slap_with_full_hand_short_vertflip_short_600ms.mp4	36.single_slap_with_full_hand_short_vertflip_short_600ms.mp4	303.92718186952607	304.53543857323757	0.6082567037115041	n/a	n/a	n/a	n/a
263.083984375	0.2	538796	225	64	2	0	0	28	92	stimuli\Videos_short_600ms_horflip\11.single_touch_with_lighter_short_horflip_short_600ms.mp4	11.single_touch_with_lighter_short_horflip_short_600ms.mp4	304.7271397009963	305.3354277818471	0.608288080850798	n/a	n/a	n/a	n/a
263.8837890625	0.2	540434	226	64	2	0	0	29	83	stimuli\Videos_short_600ms\85.touch_top_to_bottom_with_fabric_short_short_600ms.mp4	85.touch_top_to_bottom_with_fabric_short_short_600ms.mp4	305.5270775918543	306.13539704984487	0.6083194579905467	n/a	n/a	n/a	n/a
264.68408203125	0.2	542073	227	64	2	0	0	30	321	stimuli\Videos_short_600ms_vertflip\56.repeated_touch_with_nail_file_short_vertflip_short_600ms.mp4	56.repeated_touch_with_nail_file_short_vertflip_short_600ms.mp4	306.3270609355782	306.9353792205916	0.6083182850134108	n/a	n/a	n/a	n/a
265.48388671875	0.2	543711	228	64	2	0	0	31	199	stimuli\Videos_short_600ms_horvertflip\27.single_push_with_a_plastic_whisk_short_horvertflip_short_600ms.mp4	27.single_push_with_a_plastic_whisk_short_horvertflip_short_600ms.mp4	307.12701964678126	307.7353608048502	0.6083411580689244	n/a	n/a	n/a	n/a
266.28369140625	0.2	545349	229	64	2	0	0	32	40	stimuli\Videos_short_600ms\46.scratching_top_to_bottom_with_finger_nails_short_short_600ms.mp4	46.scratching_top_to_bottom_with_finger_nails_short_short_600ms.mp4	307.92702938249204	308.5353426823526	0.6083132998605834	n/a	n/a	n/a	n/a
267.083984375	0.2	546988	230	64	2	0	0	33	197	stimuli\Videos_short_600ms_horvertflip\25.single_touch_with_stanley_knife_short_horvertflip_short_600ms.mp4	25.single_touch_with_stanley_knife_short_horvertflip_short_600ms.mp4	308.7270062748412	309.3353204544346	0.6083141795934353	n/a	n/a	n/a	n/a
267.8837890625	0.2	548626	231	64	2	0	0	34	343	stimuli\Videos_short_600ms_vertflip\76.tickle_with_fingers_from_top_to_bottom_short_vertflip_short_600ms.mp4	76.tickle_with_fingers_from_top_to_bottom_short_vertflip_short_600ms.mp4	309.5271948895729	310.13530203869277	0.60810714911986	n/a	n/a	n/a	n/a
268.68408203125	0.2	550265	232	64	2	0	0	35	12	stimuli\Videos_short_600ms\20.single_touch_with_screwdriver_short_short_600ms.mp4	20.single_touch_with_screwdriver_short_short_600ms.mp4	310.3269714960679	310.93529124730276	0.6083197512348306	n/a	n/a	n/a	n/a
269.48388671875	0.2	551903	233	64	2	0	0	36	186	stimuli\Videos_short_600ms_horvertflip\15.single_stroke_top_to_bottom_with_a_plastic_whisk_short_horvertflip_short_600ms.mp4	15.single_stroke_top_to_bottom_with_a_plastic_whisk_short_horvertflip_short_600ms.mp4	311.1270680320904	311.73533675881754	0.6082687267271467	n/a	n/a	n/a	n/a
270.28369140625	0.2	553541	234	64	2	0	0	37	42	stimuli\Videos_short_600ms\48.single_slap_with_hand_short_short_600ms.mp4	48.single_slap_with_hand_short_short_600ms.mp4	311.9271349504388	312.53524444551294	0.6081094950741317	n/a	n/a	n/a	n/a
271.083984375	0.2	555180	235	64	2	0	0	38	275	stimuli\Videos_short_600ms_vertflip\14.repeated_touch_with_pencil_short_vertflip_short_600ms.mp4	14.repeated_touch_with_pencil_short_vertflip_short_600ms.mp4	312.72697137877003	313.3352107810679	0.6082394022978406	n/a	n/a	n/a	n/a
271.8837890625	0.2	556818	236	64	2	0	0	39	220	stimuli\Videos_short_600ms_horvertflip\46.scratching_top_to_bottom_with_finger_nails_short_horvertflip_short_600ms.mp4	46.scratching_top_to_bottom_with_finger_nails_short_horvertflip_short_600ms.mp4	313.52696000089145	314.13520732078496	0.6082473198935077	n/a	n/a	n/a	n/a
272.68359375	0.2	558456	237	64	2	0	0	40	357	stimuli\Videos_short_600ms_vertflip\89.single_touch_with_plastic_brush_short_vertflip_short_600ms.mp4	89.single_touch_with_plastic_brush_short_vertflip_short_600ms.mp4	314.3269175391174	314.9351959429064	0.6082784037889724	n/a	n/a	n/a	n/a
273.48388671875	0.2	560095	238	64	2	0	0	41	26	stimuli\Videos_short_600ms\33.scratch_top_to_bottom_with_scissors_short_short_600ms.mp4	33.scratch_top_to_bottom_with_scissors_short_short_600ms.mp4	315.1269058679941	315.73516872983555	0.6082628618414674	n/a	n/a	n/a	n/a
274.28369140625	0.2	561733	239	64	2	0	0	42	74	stimuli\Videos_short_600ms\77.tapping_with_all_fingers_short_short_600ms.mp4	77.tapping_with_all_fingers_short_short_600ms.mp4	315.9268129682009	316.53514972760513	0.6083367594042102	n/a	n/a	n/a	n/a
275.08349609375	0.2	563371	240	64	2	0	0	43	356	stimuli\Videos_short_600ms_vertflip\88.repeated_stroke_with_plastic_brush_short_vertflip_short_600ms.mp4	88.repeated_stroke_with_plastic_brush_short_vertflip_short_600ms.mp4	316.72681595929316	317.335131018619	0.6083150593258324	n/a	n/a	n/a	n/a
275.8837890625	0.2	565010	241	64	2	0	0	44	235	stimuli\Videos_short_600ms_horvertflip\6.single_touch_with_flat_hand_short_horvertflip_short_600ms.mp4	6.single_touch_with_flat_hand_short_horvertflip_short_600ms.mp4	317.52687173435834	318.13511876100756	0.6082470266492237	n/a	n/a	n/a	n/a
276.68359375	0.2	566648	242	64	2	0	0	45	320	stimuli\Videos_short_600ms_vertflip\55.touch_top_to_bottom_with_nail_file_short_vertflip_short_600ms.mp4	55.touch_top_to_bottom_with_nail_file_short_vertflip_short_600ms.mp4	318.3268058130402	318.93510298446427	0.6082971714240557	n/a	n/a	n/a	n/a
277.4833984375	0.2	568286	243	64	2	0	0	46	25	stimuli\Videos_short_600ms\32.single_(long)pinch_with_fingers_short_short_600ms.mp4	32.single_(long)pinch_with_fingers_short_short_600ms.mp4	319.12707682941937	319.73507401192774	0.6079971825083703	n/a	n/a	n/a	n/a
278.28369140625	0.2	569925	244	64	2	0	0	47	144	stimuli\Videos_short_600ms_horflip\59.single_push_with_long_side_pencil_short_horflip_short_600ms.mp4	59.single_push_with_long_side_pencil_short_horflip_short_600ms.mp4	319.92686545893	320.53505940836203	0.6081939494320068	n/a	n/a	n/a	n/a
279.08349609375	0.2	571563	245	64	2	0	0	48	104	stimuli\Videos_short_600ms_horflip\22.single_touch_with_metal_chopstick_short_horflip_short_600ms.mp4	22.single_touch_with_metal_chopstick_short_horflip_short_600ms.mp4	320.7270816386258	321.3350368872002	0.6079552485743989	n/a	n/a	n/a	n/a
279.88330078125	0.2	573201	246	64	2	0	1	49	364	stimuli\Targets_short_600ms\hand-pinch_short_short_600ms.mp4	hand-pinch_short_short_600ms.mp4	321.52690545745236	322.1350193511912	0.608113893738846	n/a	n/a	n/a	n/a
280.68359375	0.2	574840	247	64	2	0	0	50	72	stimuli\Videos_short_600ms\75.(long)stroke_with_fingers_all_over_the_hand_short_short_600ms.mp4	75.(long)stroke_with_fingers_all_over_the_hand_short_short_600ms.mp4	322.3266829436802	322.93497776915	0.608294825469784	n/a	n/a	n/a	n/a
281.4833984375	0.2	576478	248	64	2	0	0	51	13	stimuli\Videos_short_600ms\21.repeated_touch_with_metal_chopstick_short_short_600ms.mp4	21.repeated_touch_with_metal_chopstick_short_short_600ms.mp4	323.1266680468698	323.7349804669975	0.6083124201277315	n/a	n/a	n/a	n/a
282.283203125	0.2	578116	249	64	2	0	0	52	250	stimuli\Videos_short_600ms_horvertflip\73.single_stroke_with_flat_hand_short_horvertflip_short_600ms.mp4	73.single_stroke_with_flat_hand_short_horvertflip_short_600ms.mp4	323.92665960143404	324.5349632242328	0.6083036227987577	n/a	n/a	n/a	n/a
283.08349609375	0.2	579755	250	64	2	0	0	53	276	stimuli\Videos_short_600ms_vertflip\15.single_stroke_top_to_bottom_with_a_plastic_whisk_short_vertflip_short_600ms.mp4	15.single_stroke_top_to_bottom_with_a_plastic_whisk_short_vertflip_short_600ms.mp4	324.72663326809607	325.33492281516874	0.6082895470726726	n/a	n/a	n/a	n/a
283.88330078125	0.2	581393	251	64	2	0	0	54	59	stimuli\Videos_short_600ms\63.stroke_top_to_bottom_with_screwdriver_short_short_600ms.mp4	63.stroke_top_to_bottom_with_screwdriver_short_short_600ms.mp4	325.5266755539237	326.13499501191427	0.6083194579905467	n/a	n/a	n/a	n/a
284.68310546875	0.2	583031	252	64	2	0	0	55	279	stimuli\Videos_short_600ms_vertflip\18.single_stroke_from_top_to_bottom_with_rolling_pin_short_vertflip_short_600ms.mp4	18.single_stroke_from_top_to_bottom_with_rolling_pin_short_vertflip_short_600ms.mp4	326.32669789913916	326.93493671494844	0.6082388158092726	n/a	n/a	n/a	n/a
285.4833984375	0.2	584670	253	64	2	0	0	56	273	stimuli\Videos_short_600ms_vertflip\12.repeated_touch_with_nail_file_short_vertflip_short_600ms.mp4	12.repeated_touch_with_nail_file_short_vertflip_short_600ms.mp4	327.1266331507986	327.734886042334	0.6082528915353578	n/a	n/a	n/a	n/a
286.283203125	0.2	586308	254	64	2	0	0	57	93	stimuli\Videos_short_600ms_horflip\12.repeated_touch_with_nail_file_short_horflip_short_600ms.mp4	12.repeated_touch_with_nail_file_short_horflip_short_600ms.mp4	327.9266138553239	328.53486909281355	0.6082552374896295	n/a	n/a	n/a	n/a
287.08349609375	0.2	587947	255	64	2	0	0	58	264	stimuli\Videos_short_600ms_horvertflip\86.touch_top_to_bottom_with_hair_brush_short_horvertflip_short_600ms.mp4	86.touch_top_to_bottom_with_hair_brush_short_horvertflip_short_600ms.mp4	328.7265394299211	329.33484950409456	0.6083100741734597	n/a	n/a	n/a	n/a
287.88330078125	0.2	589585	256	64	2	0	0	59	221	stimuli\Videos_short_600ms_horvertflip\47.(long)scratching_with_finger_nails_short_horvertflip_short_600ms.mp4	47.(long)scratching_with_finger_nails_short_horvertflip_short_600ms.mp4	329.5266010698724	330.13480674907623	0.6082056792038202	n/a	n/a	n/a	n/a
288.68310546875	0.2	591223	257	64	2	0	0	60	100	stimuli\Videos_short_600ms_horflip\19.single_touch_with_rolling_pin_short_horflip_short_600ms.mp4	19.single_touch_with_rolling_pin_short_horflip_short_600ms.mp4	330.32649409435317	330.9347877468458	0.6082936524926481	n/a	n/a	n/a	n/a
289.4833984375	0.2	592862	258	64	2	0	0	61	125	stimuli\Videos_short_600ms_horflip\41.injection_with_blunt_syringe_short_horflip_short_600ms.mp4	41.injection_with_blunt_syringe_short_horflip_short_600ms.mp4	331.12644987311296	331.7347681581268	0.6083182850138655	n/a	n/a	n/a	n/a
290.283203125	0.2	594500	259	64	2	0	0	62	316	stimuli\Videos_short_600ms_vertflip\51.repeated_touch_with_hammer_short_vertflip_short_600ms.mp4	51.repeated_touch_with_hammer_short_vertflip_short_600ms.mp4	331.9265534469987	332.53477232219575	0.6082188751970534	n/a	n/a	n/a	n/a
291.0830078125	0.2	596138	260	64	2	0	0	63	201	stimuli\Videos_short_600ms_horvertflip\29.single_pinch_with_tweezers_short_horvertflip_short_600ms.mp4	29.single_pinch_with_tweezers_short_horvertflip_short_600ms.mp4	332.7264866459477	333.3347556659196	0.6082690199718854	n/a	n/a	n/a	n/a
291.88330078125	0.2	597777	261	64	2	0	1	64	382	stimuli\Targets_short_600ms_vertflip\hand-pinch_short_horvertflip_short_600ms.mp4	hand-pinch_short_horvertflip_short_600ms.mp4	333.526395798865	334.13473519746776	0.6083393986027659	n/a	n/a	n/a	n/a
292.68310546875	0.2	599415	262	64	2	0	0	65	150	stimuli\Videos_short_600ms_horflip\64.repeated_touch_with_screwdriver_short_horflip_short_600ms.mp4	64.repeated_touch_with_screwdriver_short_horflip_short_600ms.mp4	334.32640494808675	334.93472264661204	0.6083176985252976	n/a	n/a	n/a	n/a
293.48291015625	0.2	601053	263	64	2	0	0	66	50	stimuli\Videos_short_600ms\55.touch_top_to_bottom_with_nail_file_short_short_600ms.mp4	55.touch_top_to_bottom_with_nail_file_short_short_600ms.mp4	335.1264539785334	335.73469689976264	0.6082429212292482	n/a	n/a	n/a	n/a
294.283203125	0.2	602692	264	64	2	0	0	67	43	stimuli\Videos_short_600ms\49.repeated_slap_with_hand_short_short_600ms.mp4	49.repeated_slap_with_hand_short_short_600ms.mp4	335.92650154275816	336.53467760428794	0.6081760615297753	n/a	n/a	n/a	n/a
295.0830078125	0.2	604330	265	64	2	0	0	68	240	stimuli\Videos_short_600ms_horvertflip\64.repeated_touch_with_screwdriver_short_horvertflip_short_600ms.mp4	64.repeated_touch_with_screwdriver_short_horvertflip_short_600ms.mp4	336.72645644178556	337.3346588953018	0.6082024535162418	n/a	n/a	n/a	n/a
295.8828125	0.2	605968	266	64	2	0	0	69	214	stimuli\Videos_short_600ms_horvertflip\40.repeated_push_with_finger_short_horvertflip_short_600ms.mp4	40.repeated_push_with_finger_short_horvertflip_short_600ms.mp4	337.5263893474903	338.1346416525371	0.6082523050467898	n/a	n/a	n/a	n/a
296.68310546875	0.2	607607	267	64	2	0	0	70	219	stimuli\Videos_short_600ms_horvertflip\45.scratching_with_finger_nails_short_horvertflip_short_600ms.mp4	45.scratching_with_finger_nails_short_horvertflip_short_600ms.mp4	338.3262782665506	338.9346203043524	0.6083420378017763	n/a	n/a	n/a	n/a
297.48291015625	0.2	609245	268	64	2	0	0	71	308	stimuli\Videos_short_600ms_vertflip\44.pushing_top_to_bottom_with_finger_short_vertflip_short_600ms.mp4	44.pushing_top_to_bottom_with_finger_short_vertflip_short_600ms.mp4	339.1262616102749	339.7345819479983	0.6083203377233986	n/a	n/a	n/a	n/a
298.28271484375	0.2	610883	269	64	2	0	0	72	210	stimuli\Videos_short_600ms_horvertflip\37.single_stab_with_nail_file_short_horvertflip_short_600ms.mp4	37.single_stab_with_nail_file_short_horvertflip_short_600ms.mp4	339.9262467134645	340.5346122108099	0.6083654973454031	n/a	n/a	n/a	n/a
299.09130859375	0.2	612539	270	64	2	0	0	73	189	stimuli\Videos_short_600ms_horvertflip\18.single_stroke_from_top_to_bottom_with_rolling_pin_short_horvertflip_short_600ms.mp4	18.single_stroke_from_top_to_bottom_with_rolling_pin_short_horvertflip_short_600ms.mp4	340.7345910385716	341.34291225602783	0.6083212174562505	n/a	n/a	n/a	n/a
299.89111328125	0.2	614177	271	64	2	0	0	74	293	stimuli\Videos_short_600ms_vertflip\30.finger_pulling_back_another_finger_short_vertflip_short_600ms.mp4	30.finger_pulling_back_another_finger_short_vertflip_short_600ms.mp4	341.53462042164983	342.1428800578042	0.6082596361543438	n/a	n/a	n/a	n/a
300.69091796875	0.2	615815	272	64	2	0	0	75	359	stimuli\Videos_short_600ms_vertflip\90.repeated_touch_with_sponge_short_vertflip_short_600ms.mp4	90.repeated_touch_with_sponge_short_vertflip_short_600ms.mp4	342.3345439435375	342.9428622285509	0.6083182850134108	n/a	n/a	n/a	n/a
301.4912109375	0.2	617454	273	64	2	0	0	76	33	stimuli\Videos_short_600ms\4.repeated_tap_with_finger_slow_short_short_600ms.mp4	4.repeated_tap_with_finger_slow_short_short_600ms.mp4	343.1346451714685	343.7428426398319	0.6081974683634144	n/a	n/a	n/a	n/a
302.291015625	0.2	619092	274	64	2	0	0	77	336	stimuli\Videos_short_600ms_vertflip\7.repeated_touch_with_hairbrush_short_vertflip_short_600ms.mp4	7.repeated_touch_with_hairbrush_short_vertflip_short_600ms.mp4	343.93450916476377	344.54282393084577	0.6083147660820032	n/a	n/a	n/a	n/a
303.09130859375	0.2	620731	275	64	2	0	0	78	187	stimuli\Videos_short_600ms_horvertflip\16.repeated_touch_with_plastic_brush_short_horvertflip_short_600ms.mp4	16.repeated_touch_with_plastic_brush_short_horvertflip_short_600ms.mp4	344.7344919219995	345.34280698132534	0.6083150593258324	n/a	n/a	n/a	n/a
303.89111328125	0.2	622369	276	64	2	0	0	79	6	stimuli\Videos_short_600ms\15.single_stroke_top_to_bottom_with_a_plastic_whisk_short_short_600ms.mp4	15.single_stroke_top_to_bottom_with_a_plastic_whisk_short_short_600ms.mp4	345.5344720400358	346.1427862196292	0.6083141795934353	n/a	n/a	n/a	n/a
304.69091796875	0.2	624007	277	64	2	0	0	80	141	stimuli\Videos_short_600ms_horflip\56.repeated_touch_with_nail_file_short_horflip_short_600ms.mp4	56.repeated_touch_with_nail_file_short_horflip_short_600ms.mp4	346.33442195391035	346.9427675106431	0.6083455567327292	n/a	n/a	n/a	n/a
305.4912109375	0.2	625646	278	64	2	0	0	81	31	stimuli\Videos_short_600ms\38.double_slap_with_pencil_short_short_600ms.mp4	38.double_slap_with_pencil_short_short_600ms.mp4	347.13446277351613	347.7427490949012	0.6082863213850942	n/a	n/a	n/a	n/a
306.291015625	0.2	627284	279	64	2	0	0	82	355	stimuli\Videos_short_600ms_vertflip\87.single_stroke_top_to_bottom_with_plastic_brush_short_vertflip_short_600ms.mp4	87.single_stroke_top_to_bottom_with_plastic_brush_short_vertflip_short_600ms.mp4	347.9345590162943	348.5427268669837	0.6081678506893695	n/a	n/a	n/a	n/a
307.0908203125	0.2	628922	280	64	2	0	0	83	105	stimuli\Videos_short_600ms_horflip\23.single_push_with_a_spoon_short_horflip_short_600ms.mp4	23.single_push_with_a_spoon_short_horflip_short_600ms.mp4	348.73437609050234	349.3427154891051	0.6083393986027659	n/a	n/a	n/a	n/a
307.89111328125	0.2	630561	281	64	2	0	0	84	354	stimuli\Videos_short_600ms_vertflip\86.touch_top_to_bottom_with_hair_brush_short_vertflip_short_600ms.mp4	86.touch_top_to_bottom_with_hair_brush_short_vertflip_short_600ms.mp4	349.5344781981662	350.1426677489335	0.6081895507672925	n/a	n/a	n/a	n/a
308.69091796875	0.2	632199	282	64	2	0	0	85	209	stimuli\Videos_short_600ms_horvertflip\36.single_slap_with_full_hand_short_horvertflip_short_600ms.mp4	36.single_slap_with_full_hand_short_horvertflip_short_600ms.mp4	350.33432694275825	350.94267513869	0.6083481959317396	n/a	n/a	n/a	n/a
309.49072265625	0.2	633837	283	64	2	0	0	86	294	stimuli\Videos_short_600ms_vertflip\31.hand_grabbing_wrist_short_vertflip_short_600ms.mp4	31.hand_grabbing_wrist_short_vertflip_short_600ms.mp4	351.13433345278145	351.7426394215345	0.6083059687530294	n/a	n/a	n/a	n/a
310.291015625	0.2	635476	284	64	2	0	0	87	249	stimuli\Videos_short_600ms_horvertflip\72.(short)stroke_with_finger_all_over_the_hand_short_horvertflip_short_600ms.mp4	72.(short)stroke_with_finger_all_over_the_hand_short_horvertflip_short_600ms.mp4	351.9342877653203	352.5426298031216	0.6083420378013216	n/a	n/a	n/a	n/a
311.0908203125	0.2	637114	285	64	2	0	0	88	34	stimuli\Videos_short_600ms\40.repeated_push_with_finger_short_short_600ms.mp4	40.repeated_push_with_finger_short_short_600ms.mp4	352.73429456858776	353.3426172522659	0.608322683678125	n/a	n/a	n/a	n/a
311.890625	0.2	638752	286	64	2	0	0	89	88	stimuli\Videos_short_600ms\9.single_touch_with_hammer_short_short_600ms.mp4	9.single_touch_with_hammer_short_short_600ms.mp4	353.5342626636084	354.1425976635469	0.6083349999385064	n/a	n/a	n/a	n/a
312.69091796875	0.2	640391	287	64	2	0	0	90	330	stimuli\Videos_short_600ms_vertflip\64.repeated_touch_with_screwdriver_short_vertflip_short_600ms.mp4	64.repeated_touch_with_screwdriver_short_vertflip_short_600ms.mp4	354.3343615455851	354.9425868721564	0.6082253265713007	n/a	n/a	n/a	n/a
313.49072265625	0.2	642029	288	64	2	0	0	91	272	stimuli\Videos_short_600ms_vertflip\11.single_touch_with_lighter_short_vertflip_short_600ms.mp4	11.single_touch_with_lighter_short_vertflip_short_600ms.mp4	355.1344492842786	355.74255936584177	0.6081100815631544	n/a	n/a	n/a	n/a
314.29052734375	0.2	643667	289	64	2	0	0	92	77	stimuli\Videos_short_600ms\8.single_touch_with_hairbrush_short_short_600ms.mp4	8.single_touch_with_hairbrush_short_short_600ms.mp4	355.93443790640003	356.54254974742844	0.6081118410284034	3.0	3.0	2.1024319922489667	1.0
347.93115234375	0.2	712563	290	64	3	0	0	0	339	stimuli\Videos_short_600ms_vertflip\72.(short)stroke_with_finger_all_over_the_hand_short_vertflip_short_600ms.mp4	72.(short)stroke_with_finger_all_over_the_hand_short_vertflip_short_600ms.mp4	389.5750916535048	390.1834014344336	0.608309780928721	n/a	n/a	n/a	n/a
348.7314453125	0.2	714202	291	64	3	0	0	1	225	stimuli\Videos_short_600ms_horvertflip\50.single_(long)hard_push_with_thumb_short_horvertflip_short_600ms.mp4	50.single_(long)hard_push_with_thumb_short_horvertflip_short_600ms.mp4	390.3751242622707	390.983385951135	0.6082616888643315	n/a	n/a	n/a	n/a
349.53125	0.2	715840	292	64	3	0	0	2	246	stimuli\Videos_short_600ms_horvertflip\7.repeated_touch_with_hairbrush_short_horvertflip_short_600ms.mp4	7.repeated_touch_with_hairbrush_short_horvertflip_short_600ms.mp4	391.1750457314479	391.78336782863744	0.6083220971895571	n/a	n/a	n/a	n/a
350.3310546875	0.2	717478	293	64	3	0	0	3	306	stimuli\Videos_short_600ms_vertflip\42.single_slap_with_plastic_whisk_short_vertflip_short_600ms.mp4	42.single_slap_with_plastic_whisk_short_vertflip_short_600ms.mp4	391.975152824265	392.5833321114819	0.608179287216899	n/a	n/a	n/a	n/a
351.13134765625	0.2	719117	294	64	3	0	0	4	332	stimuli\Videos_short_600ms_vertflip\66.stroke_top_to_bottom_with_sponge_short_vertflip_short_600ms.mp4	66.stroke_top_to_bottom_with_sponge_short_vertflip_short_600ms.mp4	392.7751402734093	393.38332454577903	0.6081842723697264	n/a	n/a	n/a	n/a
351.93115234375	0.2	720755	295	64	3	0	0	5	107	stimuli\Videos_short_600ms_horflip\25.single_touch_with_stanley_knife_short_horflip_short_600ms.mp4	25.single_touch_with_stanley_knife_short_horflip_short_600ms.mp4	393.5750271397597	394.18330700977	0.6082798700103922	n/a	n/a	n/a	n/a
352.73095703125	0.2	722393	296	64	3	0	0	6	288	stimuli\Videos_short_600ms_vertflip\26.single_touch_with_a_blunt_syringe_short_vertflip_short_600ms.mp4	26.single_touch_with_a_blunt_syringe_short_vertflip_short_600ms.mp4	394.3749908361155	394.9832891805172	0.6082983444016463	n/a	n/a	n/a	n/a
353.53125	0.2	724032	297	64	3	0	0	7	200	stimuli\Videos_short_600ms_horvertflip\28.single_injection_with_sharp_needle_short_horvertflip_short_600ms.mp4	28.single_injection_with_sharp_needle_short_horvertflip_short_600ms.mp4	395.17492902021786	395.7832757499282	0.6083467297103198	n/a	n/a	n/a	n/a
354.3310546875	0.2	725670	298	64	3	0	0	8	9	stimuli\Videos_short_600ms\18.single_stroke_from_top_to_bottom_with_rolling_pin_short_short_600ms.mp4	18.single_stroke_from_top_to_bottom_with_rolling_pin_short_short_600ms.mp4	395.9750100142928	396.5832494165902	0.6082394022973858	n/a	n/a	n/a	n/a
355.130859375	0.2	727308	299	64	3	0	0	9	282	stimuli\Videos_short_600ms_vertflip\20.single_touch_with_screwdriver_short_vertflip_short_600ms.mp4	20.single_touch_with_screwdriver_short_vertflip_short_600ms.mp4	396.7750203364917	397.3832406779102	0.6082203414184733	n/a	n/a	n/a	n/a
355.93115234375	0.2	728947	300	64	3	0	0	10	73	stimuli\Videos_short_600ms\76.tickle_with_fingers_from_top_to_bottom_short_short_600ms.mp4	76.tickle_with_fingers_from_top_to_bottom_short_short_600ms.mp4	397.5748937136045	398.1832108256408	0.6083171120362749	n/a	n/a	n/a	n/a
356.73095703125	0.2	730585	301	64	3	0	0	11	1	stimuli\Videos_short_600ms\10.single_touch_with_knife_short_short_600ms.mp4	10.single_touch_with_knife_short_short_600ms.mp4	398.37487383164125	398.98319240989895	0.6083185782576948	n/a	n/a	n/a	n/a
357.53076171875	0.2	732223	302	64	3	0	0	12	181	stimuli\Videos_short_600ms_horvertflip\10.single_touch_with_knife_short_horvertflip_short_600ms.mp4	10.single_touch_with_knife_short_horvertflip_short_600ms.mp4	399.17490878636136	399.7831719414471	0.6082631550857514	n/a	n/a	n/a	n/a
358.3310546875	0.2	733862	303	64	3	0	0	13	119	stimuli\Videos_short_600ms_horflip\36.single_slap_with_full_hand_short_horflip_short_600ms.mp4	36.single_slap_with_full_hand_short_horflip_short_600ms.mp4	399.97493230455393	400.58315352570526	0.6082212211513252	n/a	n/a	n/a	n/a
359.130859375	0.2	735500	304	64	3	0	0	14	23	stimuli\Videos_short_600ms\30.finger_pulling_back_another_finger_short_short_600ms.mp4	30.finger_pulling_back_another_finger_short_short_600ms.mp4	400.7749317767143	401.38313276400913	0.608200987294822	n/a	n/a	n/a	n/a
359.9306640625	0.2	737138	305	64	3	0	0	15	222	stimuli\Videos_short_600ms_horvertflip\48.single_slap_with_hand_short_horvertflip_short_600ms.mp4	48.single_slap_with_hand_short_horvertflip_short_600ms.mp4	401.5747819875278	402.18311522800013	0.6083332404723478	n/a	n/a	n/a	n/a
360.73095703125	0.2	738777	306	64	3	0	0	16	300	stimuli\Videos_short_600ms_vertflip\37.single_stab_with_nail_file_short_vertflip_short_600ms.mp4	37.single_stab_with_nail_file_short_vertflip_short_600ms.mp4	402.374777647512	402.98309710550257	0.6083194579905467	n/a	n/a	n/a	n/a
361.53076171875	0.2	740415	307	64	3	0	0	17	14	stimuli\Videos_short_600ms\22.single_touch_with_metal_chopstick_short_short_600ms.mp4	22.single_touch_with_metal_chopstick_short_short_600ms.mp4	403.1747381181808	403.7830751708293	0.6083370526484941	n/a	n/a	n/a	n/a
362.33056640625	0.2	742053	308	64	3	0	0	18	117	stimuli\Videos_short_600ms_horflip\34.repeated_punch_with_hand_short_horflip_short_600ms.mp4	34.repeated_punch_with_hand_short_horflip_short_600ms.mp4	403.9747211686604	404.58305998077503	0.6083388121146527	n/a	n/a	n/a	n/a
363.130859375	0.2	743692	309	64	3	0	0	19	85	stimuli\Videos_short_600ms\87.single_stroke_top_to_bottom_with_plastic_brush_short_short_600ms.mp4	87.single_stroke_top_to_bottom_with_plastic_brush_short_short_600ms.mp4	404.77487664678665	405.3830245568638	0.6081479100771503	n/a	n/a	n/a	n/a
363.9306640625	0.2	745330	310	64	3	0	0	20	258	stimuli\Videos_short_600ms_horvertflip\80.stroke_with_sharp_stick_all_over_the_hand_short_horvertflip_short_600ms.mp4	80.stroke_with_sharp_stick_all_over_the_hand_short_horvertflip_short_600ms.mp4	405.5752637879068	406.1830052613891	0.6077414734822923	n/a	n/a	n/a	n/a
364.73095703125	0.2	746969	311	64	3	0	0	21	113	stimuli\Videos_short_600ms_horflip\30.finger_pulling_back_another_finger_short_horflip_short_600ms.mp4	30.finger_pulling_back_another_finger_short_horflip_short_600ms.mp4	406.37472075811866	406.98297687534114	0.6082561172224814	n/a	n/a	n/a	n/a
365.53076171875	0.2	748607	312	64	3	0	0	22	22	stimuli\Videos_short_600ms\3.single_push_with_finger_short_short_600ms.mp4	3.single_push_with_finger_short_short_600ms.mp4	407.17473166680657	407.78295904608785	0.6082273792812884	n/a	n/a	n/a	n/a
366.33056640625	0.2	750245	313	64	3	0	0	23	313	stimuli\Videos_short_600ms_vertflip\49.repeated_slap_with_hand_short_vertflip_short_600ms.mp4	49.repeated_slap_with_hand_short_vertflip_short_600ms.mp4	407.9746965361396	408.58294121683457	0.608244680694952	n/a	n/a	n/a	n/a
367.130859375	0.2	751884	314	64	3	0	0	24	310	stimuli\Videos_short_600ms_vertflip\46.scratching_top_to_bottom_with_finger_nails_short_vertflip_short_600ms.mp4	46.scratching_top_to_bottom_with_finger_nails_short_vertflip_short_600ms.mp4	408.7746203512715	409.3829494863239	0.6083291350523723	n/a	n/a	n/a	n/a
367.9306640625	0.2	753522	315	64	3	0	0	25	318	stimuli\Videos_short_600ms_vertflip\53.touch_top_to_bottom_with_knife_short_vertflip_short_600ms.mp4	53.touch_top_to_bottom_with_knife_short_vertflip_short_600ms.mp4	409.5747242184011	410.1829272584064	0.6082030400052645	n/a	n/a	n/a	n/a
368.73046875	0.2	755160	316	64	3	0	0	26	145	stimuli\Videos_short_600ms_horflip\6.single_touch_with_flat_hand_short_horflip_short_600ms.mp4	6.single_touch_with_flat_hand_short_horflip_short_600ms.mp4	410.3745911441397	410.9829132413288	0.6083220971891024	n/a	n/a	n/a	n/a
369.53076171875	0.2	756799	317	64	3	0	0	27	198	stimuli\Videos_short_600ms_horvertflip\26.single_touch_with_a_blunt_syringe_short_horvertflip_short_600ms.mp4	26.single_touch_with_a_blunt_syringe_short_horvertflip_short_600ms.mp4	411.1745659837789	411.7828830958151	0.6083171120362749	n/a	n/a	n/a	n/a
370.33056640625	0.2	758437	318	64	3	0	0	28	84	stimuli\Videos_short_600ms\86.touch_top_to_bottom_with_hair_brush_short_short_600ms.mp4	86.touch_top_to_bottom_with_hair_brush_short_short_600ms.mp4	411.9745531396789	412.5828764098451	0.6083232701662382	n/a	n/a	n/a	n/a
371.13037109375	0.2	760075	319	64	3	0	1	29	369	stimuli\Targets_short_600ms_horflip\finger-tap_short_horflip_short_600ms.mp4	finger-tap_short_horflip_short_600ms.mp4	412.77456815378673	413.3828450913543	0.6082769375675525	n/a	n/a	n/a	n/a
371.9306640625	0.2	761714	320	64	3	0	0	30	179	stimuli\Videos_short_600ms_horflip\90.repeated_touch_with_sponge_short_horflip_short_600ms.mp4	90.repeated_touch_with_sponge_short_horflip_short_600ms.mp4	413.57450956357616	414.182827262101	0.6083176985248429	n/a	n/a	n/a	n/a
372.73046875	0.2	763352	321	64	3	0	0	31	205	stimuli\Videos_short_600ms_horvertflip\32.single_(long)pinch_with_fingers_short_horvertflip_short_600ms.mp4	32.single_(long)pinch_with_fingers_short_horvertflip_short_600ms.mp4	414.37446651531354	414.9828111923139	0.608344677000332	n/a	n/a	n/a	n/a
373.5302734375	0.2	764990	322	64	3	0	0	32	161	stimuli\Videos_short_600ms_horflip\74.fingers_walking_from_top_to_bottom_short_horflip_short_600ms.mp4	74.fingers_walking_from_top_to_bottom_short_horflip_short_600ms.mp4	415.17448270239856	415.78278749817446	0.6083047957758936	n/a	n/a	n/a	n/a
374.33056640625	0.2	766629	323	64	3	0	0	33	244	stimuli\Videos_short_600ms_horvertflip\68.stroke_top_to_bottom_with_shawl_short_horvertflip_short_600ms.mp4	68.stroke_top_to_bottom_with_shawl_short_horvertflip_short_600ms.mp4	415.97446545963385	416.5827690824326	0.6083036227987577	n/a	n/a	n/a	n/a
375.13037109375	0.2	768267	324	64	3	0	1	34	380	stimuli\Targets_short_600ms_vertflip\chopstickwood-tap_short_horvertflip_short_600ms.mp4	chopstickwood-tap_short_horvertflip_short_600ms.mp4	416.77441830595126	417.3827483207365	0.6083300147852242	n/a	n/a	n/a	n/a
375.93017578125	0.2	769905	325	64	3	0	0	35	338	stimuli\Videos_short_600ms_vertflip\71.single_stroke_with_finger_top_to_bottom_short_vertflip_short_600ms.mp4	71.single_stroke_with_finger_top_to_bottom_short_vertflip_short_600ms.mp4	417.5744171916226	418.1827301982389	0.6083130066162994	n/a	n/a	n/a	n/a
376.73046875	0.2	771544	326	64	3	0	0	36	194	stimuli\Videos_short_600ms_horvertflip\22.single_touch_with_metal_chopstick_short_horvertflip_short_600ms.mp4	22.single_touch_with_metal_chopstick_short_horvertflip_short_600ms.mp4	418.3744140245845	418.9827114892528	0.6082974646683397	n/a	n/a	n/a	n/a
377.5302734375	0.2	773182	327	64	3	0	0	37	234	stimuli\Videos_short_600ms_horvertflip\59.single_push_with_long_side_pencil_short_horvertflip_short_600ms.mp4	59.single_push_with_long_side_pencil_short_horvertflip_short_600ms.mp4	419.17438945071217	419.7826936599995	0.6083042092873256	n/a	n/a	n/a	n/a
378.330078125	0.2	774820	328	64	3	0	0	38	106	stimuli\Videos_short_600ms_horflip\24.single_stroke_top_to_bottom_with_a_spoon_short_horflip_short_600ms.mp4	24.single_stroke_top_to_bottom_with_a_spoon_short_horflip_short_600ms.mp4	419.97456692216065	420.5826728983034	0.6081059761427241	n/a	n/a	n/a	n/a
379.13037109375	0.2	776459	329	64	3	0	0	39	211	stimuli\Videos_short_600ms_horvertflip\38.double_slap_with_pencil_short_horvertflip_short_600ms.mp4	38.double_slap_with_pencil_short_horvertflip_short_600ms.mp4	420.77434734083135	421.38266064069194	0.6083132998605834	n/a	n/a	n/a	n/a
379.93017578125	0.2	778097	330	64	3	0	0	40	56	stimuli\Videos_short_600ms\60.single_push_with_tip_of_pencil_short_short_600ms.mp4	60.single_push_with_tip_of_pencil_short_short_600ms.mp4	421.57443097410487	422.1826413452172	0.6082103711123636	n/a	n/a	n/a	n/a
380.72998046875	0.2	779735	331	64	3	0	0	41	154	stimuli\Videos_short_600ms_horflip\68.stroke_top_to_bottom_with_shawl_short_horflip_short_600ms.mp4	68.stroke_top_to_bottom_with_shawl_short_horflip_short_600ms.mp4	422.374304644462	422.9826158916121	0.6083112471501408	n/a	n/a	n/a	n/a
381.5302734375	0.2	781374	332	64	3	0	0	42	212	stimuli\Videos_short_600ms_horvertflip\39.single_stab_with_scissors_short_horvertflip_short_600ms.mp4	39.single_stab_with_scissors_short_horvertflip_short_600ms.mp4	423.1743621789929	423.7825760690366	0.6082138900437712	n/a	n/a	n/a	n/a
382.330078125	0.2	783012	333	64	3	0	0	43	177	stimuli\Videos_short_600ms_horflip\89.single_touch_with_plastic_brush_short_horflip_short_600ms.mp4	89.single_touch_with_plastic_brush_short_horflip_short_600ms.mp4	423.97425960213786	424.58257642092985	0.608316818791991	n/a	n/a	n/a	n/a
383.13037109375	0.2	784651	334	64	3	0	0	44	64	stimuli\Videos_short_600ms\68.stroke_top_to_bottom_with_shawl_short_short_600ms.mp4	68.stroke_top_to_bottom_with_shawl_short_short_600ms.mp4	424.7744309154559	425.3825571254551	0.6081262099992273	n/a	n/a	n/a	n/a
383.93017578125	0.2	786289	335	64	3	0	0	45	262	stimuli\Videos_short_600ms_horvertflip\84.single_touch_with_cotton_bud_short_horvertflip_short_600ms.mp4	84.single_touch_with_cotton_bud_short_horvertflip_short_600ms.mp4	425.5742224774099	426.1825387097133	0.608316232303423	n/a	n/a	n/a	n/a
384.72998046875	0.2	787927	336	64	3	0	0	46	268	stimuli\Videos_short_600ms_horvertflip\9.single_touch_with_hammer_short_horvertflip_short_600ms.mp4	9.single_touch_with_hammer_short_horvertflip_short_600ms.mp4	426.3742383712506	426.9825214669486	0.6082830956979706	n/a	n/a	n/a	n/a
385.5302734375	0.2	789566	337	64	3	0	0	47	191	stimuli\Videos_short_600ms_horvertflip\2.single_touch_with_finger_short_horvertflip_short_600ms.mp4	2.single_touch_with_finger_short_horvertflip_short_600ms.mp4	427.1742281663492	427.7825039309396	0.6082757645904167	n/a	n/a	n/a	n/a
386.330078125	0.2	791204	338	64	3	0	0	48	281	stimuli\Videos_short_600ms_vertflip\2.single_touch_with_finger_short_vertflip_short_600ms.mp4	2.single_touch_with_finger_short_vertflip_short_600ms.mp4	427.9742220668677	428.58247994355634	0.60825787668864	n/a	n/a	n/a	n/a
387.1298828125	0.2	792842	339	64	3	0	0	49	5	stimuli\Videos_short_600ms\14.repeated_touch_with_pencil_short_short_600ms.mp4	14.repeated_touch_with_pencil_short_short_600ms.mp4	428.77414940093104	429.38246416701304	0.6083147660820032	n/a	n/a	n/a	n/a
387.93017578125	0.2	794481	340	64	3	0	0	50	16	stimuli\Videos_short_600ms\24.single_stroke_top_to_bottom_with_a_spoon_short_short_600ms.mp4	24.single_stroke_top_to_bottom_with_a_spoon_short_short_600ms.mp4	429.57412775950206	430.1824439918055	0.608316232303423	n/a	n/a	n/a	n/a
388.72998046875	0.2	796119	341	64	3	0	0	51	348	stimuli\Videos_short_600ms_vertflip\80.stroke_with_sharp_stick_all_over_the_hand_short_vertflip_short_600ms.mp4	80.stroke_with_sharp_stick_all_over_the_hand_short_vertflip_short_600ms.mp4	430.3742266414788	430.9824244030865	0.6081977616076983	n/a	n/a	n/a	n/a
389.52978515625	0.2	797757	342	64	3	0	0	52	206	stimuli\Videos_short_600ms_horvertflip\33.scratch_top_to_bottom_with_scissors_short_horvertflip_short_600ms.mp4	33.scratch_top_to_bottom_with_scissors_short_horvertflip_short_600ms.mp4	431.1741126280963	431.7824054008561	0.6082927727597962	n/a	n/a	n/a	n/a
390.330078125	0.2	799396	343	64	3	0	0	53	176	stimuli\Videos_short_600ms_horflip\88.repeated_stroke_with_plastic_brush_short_horflip_short_600ms.mp4	88.repeated_stroke_with_plastic_brush_short_horflip_short_600ms.mp4	431.97408013662834	432.5823855188928	0.6083053822644615	n/a	n/a	n/a	n/a
391.1298828125	0.2	801034	344	64	3	0	0	54	223	stimuli\Videos_short_600ms_horvertflip\49.repeated_slap_with_hand_short_horvertflip_short_600ms.mp4	49.repeated_slap_with_hand_short_horvertflip_short_600ms.mp4	432.7740282910368	433.3823717950595	0.6083435040227414	n/a	n/a	n/a	n/a
391.9296875	0.2	802672	345	64	3	0	0	55	118	stimuli\Videos_short_600ms_horflip\35.single_punch_with_hand_short_horflip_short_600ms.mp4	35.single_punch_with_hand_short_horflip_short_600ms.mp4	433.574011048272	434.1823533793181	0.6083423310460603	n/a	n/a	n/a	n/a
392.72998046875	0.2	804311	346	64	3	0	0	56	115	stimuli\Videos_short_600ms_horflip\32.single_(long)pinch_with_fingers_short_horflip_short_600ms.mp4	32.single_(long)pinch_with_fingers_short_horflip_short_600ms.mp4	434.3740166785624	434.9823329108658	0.608316232303423	n/a	n/a	n/a	n/a
393.52978515625	0.2	805949	347	64	3	0	0	57	195	stimuli\Videos_short_600ms_horvertflip\23.single_push_with_a_spoon_short_horvertflip_short_600ms.mp4	23.single_push_with_a_spoon_short_horvertflip_short_600ms.mp4	435.1740237750746	435.782310389704	0.6082866146293782	n/a	n/a	n/a	n/a
394.32958984375	0.2	807587	348	64	3	0	0	58	63	stimuli\Videos_short_600ms\67.single_touch_with_sponge_short_short_600ms.mp4	67.single_touch_with_sponge_short_short_600ms.mp4	435.9739654781083	436.5822905077407	0.6083250296323968	n/a	n/a	n/a	n/a
395.1298828125	0.2	809226	349	64	3	0	0	59	96	stimuli\Videos_short_600ms_horflip\15.single_stroke_top_to_bottom_with_a_plastic_whisk_short_horflip_short_600ms.mp4	15.single_stroke_top_to_bottom_with_a_plastic_whisk_short_horflip_short_600ms.mp4	436.77394940832073	437.3822782501293	0.6083288418085431	n/a	n/a	n/a	n/a
395.9296875	0.2	810864	350	64	3	0	0	60	335	stimuli\Videos_short_600ms_vertflip\69.stroke_with_soft_sock_short_vertflip_short_600ms.mp4	69.stroke_with_soft_sock_short_vertflip_short_600ms.mp4	437.5741779042769	438.1822530897685	0.6080751854915434	n/a	n/a	n/a	n/a
396.7294921875	0.2	812502	351	64	3	0	0	61	15	stimuli\Videos_short_600ms\23.single_push_with_a_spoon_short_short_600ms.mp4	23.single_push_with_a_spoon_short_short_600ms.mp4	438.37404776245785	438.9822308618509	0.6081830993930453	n/a	n/a	n/a	n/a
397.52978515625	0.2	814141	352	64	3	0	0	62	283	stimuli\Videos_short_600ms_vertflip\21.repeated_touch_with_metal_chopstick_short_vertflip_short_600ms.mp4	21.repeated_touch_with_metal_chopstick_short_vertflip_short_600ms.mp4	439.1740897550412	439.78221244610904	0.6081226910678197	n/a	n/a	n/a	n/a
398.32958984375	0.2	815779	353	64	3	0	0	63	311	stimuli\Videos_short_600ms_vertflip\47.(long)scratching_with_finger_nails_short_vertflip_short_600ms.mp4	47.(long)scratching_with_finger_nails_short_vertflip_short_600ms.mp4	439.9738986184088	440.5822004817419	0.6083018633330539	n/a	n/a	n/a	n/a
399.12939453125	0.2	817417	354	64	3	0	1	64	361	stimuli\Targets_short_600ms\chopstick-silver-tap_short_short_600ms.mp4	chopstick-silver-tap_short_short_600ms.mp4	440.77392712175424	441.3821808930225	0.6082537712682097	n/a	n/a	n/a	n/a
399.9296875	0.2	819056	355	64	3	0	0	65	324	stimuli\Videos_short_600ms_vertflip\59.single_push_with_long_side_pencil_short_vertflip_short_600ms.mp4	59.single_push_with_long_side_pencil_short_vertflip_short_600ms.mp4	441.5739518129239	442.18215426644065	0.6082024535166966	n/a	n/a	n/a	n/a
400.7294921875	0.2	820694	356	64	3	0	0	66	328	stimuli\Videos_short_600ms_vertflip\62.touch_top_to_bottom_with_scissors_short_vertflip_short_600ms.mp4	62.touch_top_to_bottom_with_scissors_short_vertflip_short_600ms.mp4	442.3739600824133	442.98213702367593	0.6081769412626272	n/a	n/a	n/a	n/a
401.529296875	0.2	822332	357	64	3	0	0	67	163	stimuli\Videos_short_600ms_horflip\76.tickle_with_fingers_from_top_to_bottom_short_horflip_short_600ms.mp4	76.tickle_with_fingers_from_top_to_bottom_short_horflip_short_600ms.mp4	443.1737795025756	443.78211743495694	0.608337932381346	n/a	n/a	n/a	n/a
402.32958984375	0.2	823971	358	64	3	0	0	68	312	stimuli\Videos_short_600ms_vertflip\48.single_slap_with_hand_short_vertflip_short_600ms.mp4	48.single_slap_with_hand_short_vertflip_short_600ms.mp4	443.9738176829828	444.5820972597494	0.608279576766563	n/a	n/a	n/a	n/a
