onset	duration	onsetsample	eventnumber	subjectnr	sequencenumber	blocksequencenumber	istarget	presentationnumber	stimnumber	stim	stimname	time_stimon	time_stimoff	stimdur	cresp	resp	rt	correct
94.3388671875	0.2	193206	0	30	0	0	0	0	292	stimuli\Videos_short_600ms_vertflip\3.single_push_with_finger_short_vertflip_short_600ms.mp4	3.single_push_with_finger_short_vertflip_short_600ms.mp4	130.3647066344447	130.97457960873248	0.6098729742877822				
95.138671875	0.2	194844	1	30	0	0	0	1	46	stimuli\Videos_short_600ms\51.repeated_touch_with_hammer_short_short_600ms.mp4	51.repeated_touch_with_hammer_short_short_600ms.mp4	131.1662468838863	131.77457738005683	0.608330496170538				
95.9384765625	0.2	196482	2	30	0	0	0	2	170	stimuli\Videos_short_600ms_horflip\82.repeated_touch_with_cotton_bud_short_horflip_short_600ms.mp4	82.repeated_touch_with_cotton_bud_short_horflip_short_600ms.mp4	131.9662308726115	132.5745581430674	0.6083272704559022				
96.73876953125	0.2	198121	3	30	0	0	0	3	187	stimuli\Videos_short_600ms_horvertflip\16.repeated_touch_with_plastic_brush_short_horvertflip_short_600ms.mp4	16.repeated_touch_with_plastic_brush_short_horvertflip_short_600ms.mp4	132.766221312766	133.3745491697157	0.6083278569496997				
97.53857421875	0.2	199759	4	30	0	0	0	4	55	stimuli\Videos_short_600ms\6.single_touch_with_flat_hand_short_short_600ms.mp4	6.single_touch_with_flat_hand_short_short_600ms.mp4	133.56620852720607	134.17453257194734	0.6083240447412663				
98.33837890625	0.2	201397	5	30	0	0	1	5	372	stimuli\Targets_short_600ms_horvertflip\brush-stroke_short_vertflip_short_600ms.mp4	brush-stroke_short_vertflip_short_600ms.mp4	134.36619691463306	134.97453151625882	0.6083346016257565				
99.138671875	0.2	203036	6	30	0	0	0	6	320	stimuli\Videos_short_600ms_vertflip\55.touch_top_to_bottom_with_nail_file_short_vertflip_short_600ms.mp4	55.touch_top_to_bottom_with_nail_file_short_vertflip_short_600ms.mp4	135.16618442231993	135.77450788056765	0.6083234582476962				
99.9384765625	0.2	204674	7	30	0	0	1	7	380	stimuli\Targets_short_600ms_vertflip\chopstickwood-tap_short_horvertflip_short_600ms.mp4	chopstickwood-tap_short_horvertflip_short_600ms.mp4	135.9661733962405	136.57449890721568	0.6083255109751917				
100.73828125	0.2	206312	8	30	0	0	0	8	257	stimuli\Videos_short_600ms_horvertflip\8.single_touch_with_hairbrush_short_horvertflip_short_600ms.mp4	8.single_touch_with_hairbrush_short_horvertflip_short_600ms.mp4	136.7661603174338	137.37448436217505	0.6083240447412663				
101.53857421875	0.2	207951	9	30	0	0	0	9	64	stimuli\Videos_short_600ms\68.stroke_top_to_bottom_with_shawl_short_short_600ms.mp4	68.stroke_top_to_bottom_with_shawl_short_short_600ms.mp4	137.56614929135435	138.17447245635526	0.6083231650009111				
102.33837890625	0.2	209589	10	30	0	0	0	10	88	stimuli\Videos_short_600ms\9.single_touch_with_hammer_short_short_600ms.mp4	9.single_touch_with_hammer_short_short_600ms.mp4	138.36613591930063	138.97446055053547	0.6083246312348365				
103.13818359375	0.2	211227	11	30	0	0	0	11	164	stimuli\Videos_short_600ms_horflip\77.tapping_with_all_fingers_short_horflip_short_600ms.mp4	77.tapping_with_all_fingers_short_horflip_short_600ms.mp4	139.16612078776643	139.77444776497555	0.6083269772091171				
103.9384765625	0.2	212866	12	30	0	0	0	12	22	stimuli\Videos_short_600ms\3.single_push_with_finger_short_short_600ms.mp4	3.single_push_with_finger_short_short_600ms.mp4	139.96608454246302	140.57443849837682	0.6083539559137989				
104.73828125	0.2	214504	13	30	0	0	0	13	302	stimuli\Videos_short_600ms_vertflip\39.single_stab_with_scissors_short_vertflip_short_600ms.mp4	39.single_stab_with_scissors_short_vertflip_short_600ms.mp4	140.76610460054349	141.37442483307655	0.6083202325330603				
105.5380859375	0.2	216142	14	30	0	0	0	14	51	stimuli\Videos_short_600ms\56.repeated_touch_with_nail_file_short_short_600ms.mp4	56.repeated_touch_with_nail_file_short_short_600ms.mp4	141.5660844838137	142.1744138069971	0.6083293231833977				
106.33837890625	0.2	217781	15	30	0	0	0	15	33	stimuli\Videos_short_600ms\4.repeated_tap_with_finger_slow_short_short_600ms.mp4	4.repeated_tap_with_finger_slow_short_short_600ms.mp4	142.3660834281252	142.97440629987932	0.608322871754126				
107.13818359375	0.2	219419	16	30	0	0	0	16	66	stimuli\Videos_short_600ms\7.repeated_touch_with_hairbrush_short_short_600ms.mp4	7.repeated_touch_with_hairbrush_short_short_600ms.mp4	143.16603955840537	143.77438970211097	0.6083501437055929				
107.93798828125	0.2	221057	17	30	0	0	0	17	131	stimuli\Videos_short_600ms_horflip\47.(long)scratching_with_finger_nails_short_horflip_short_600ms.mp4	47.(long)scratching_with_finger_nails_short_horflip_short_600ms.mp4	143.9660622557069	144.5743795557721	0.6083173000652096				
108.74658203125	0.2	222713	18	30	0	0	0	18	13	stimuli\Videos_short_600ms\21.repeated_touch_with_metal_chopstick_short_short_600ms.mp4	21.repeated_touch_with_metal_chopstick_short_short_600ms.mp4	144.76603920650928	145.37434096449442	0.6083017579851457				
109.54638671875	0.2	224351	19	30	0	0	0	19	165	stimuli\Videos_short_600ms_horflip\78.single_stroke_top_to_bottom_with_soft_brush_short_horflip_short_600ms.mp4	78.single_stroke_top_to_bottom_with_soft_brush_short_horflip_short_600ms.mp4	145.5743757435639	146.18268277999118	0.6083070364272771				
110.3466796875	0.2	225990	20	30	0	0	0	20	250	stimuli\Videos_short_600ms_horvertflip\73.single_stroke_with_flat_hand_short_horvertflip_short_600ms.mp4	73.single_stroke_with_flat_hand_short_horvertflip_short_600ms.mp4	146.37432952786958	146.98267175391197	0.6083422260423959				
111.146484375	0.2	227628	21	30	0	0	0	21	307	stimuli\Videos_short_600ms_vertflip\43.touch_top_to_bottom_with_sharp_wooden_stick_short_vertflip_short_600ms.mp4	43.touch_top_to_bottom_with_sharp_wooden_stick_short_vertflip_short_600ms.mp4	147.1743340438702	147.78265896835185	0.6083249244816216				
111.9462890625	0.2	229266	22	30	0	0	0	22	211	stimuli\Videos_short_600ms_horvertflip\38.double_slap_with_pencil_short_horvertflip_short_600ms.mp4	38.double_slap_with_pencil_short_horvertflip_short_600ms.mp4	147.97432829623313	148.5826543937019	0.6083260974687619				
112.74658203125	0.2	230905	23	30	0	0	0	23	325	stimuli\Videos_short_600ms_vertflip\6.single_touch_with_flat_hand_short_vertflip_short_600ms.mp4	6.single_touch_with_flat_hand_short_vertflip_short_600ms.mp4	148.77431639041333	149.38268530191365	0.6083689115002926				
113.54638671875	0.2	232543	24	30	0	0	0	24	60	stimuli\Videos_short_600ms\64.repeated_touch_with_screwdriver_short_short_600ms.mp4	64.repeated_touch_with_screwdriver_short_short_600ms.mp4	149.57430301835984	150.1826003776432	0.6082973592833696				
114.34619140625	0.2	234181	25	30	0	0	0	25	24	stimuli\Videos_short_600ms\31.hand_grabbing_wrist_short_short_600ms.mp4	31.hand_grabbing_wrist_short_short_600ms.mp4	150.37428964630612	150.98261281130704	0.6083231650009111				
115.146484375	0.2	235820	26	30	0	0	0	26	251	stimuli\Videos_short_600ms_horvertflip\74.fingers_walking_from_top_to_bottom_short_horvertflip_short_600ms.mp4	74.fingers_walking_from_top_to_bottom_short_horvertflip_short_600ms.mp4	151.17427744723977	151.7825753930165	0.6082979457767124				
115.9462890625	0.2	237458	27	30	0	0	0	27	138	stimuli\Videos_short_600ms_horflip\53.touch_top_to_bottom_with_knife_short_horflip_short_600ms.mp4	53.touch_top_to_bottom_with_knife_short_horflip_short_600ms.mp4	151.97426466167963	152.5825942781098	0.6083296164301828				
116.74609375	0.2	239096	28	30	0	0	0	28	205	stimuli\Videos_short_600ms_horvertflip\32.single_(long)pinch_with_fingers_short_horvertflip_short_600ms.mp4	32.single_(long)pinch_with_fingers_short_horvertflip_short_600ms.mp4	152.7742556883279	153.38263163775105	0.6083759494231344				
117.54638671875	0.2	240735	29	30	0	0	0	29	300	stimuli\Videos_short_600ms_vertflip\37.single_stab_with_nail_file_short_vertflip_short_600ms.mp4	37.single_stab_with_nail_file_short_vertflip_short_600ms.mp4	153.57424143653384	154.18257545166605	0.6083340151321863				
118.34619140625	0.2	242373	30	30	0	0	0	30	157	stimuli\Videos_short_600ms_horflip\70.(long)stroke_with_finger_all_over_the_hand_short_horflip_short_600ms.mp4	70.(long)stroke_with_finger_all_over_the_hand_short_horflip_short_600ms.mp4	154.37422923746726	154.9825538687021	0.6083246312348365				
119.14599609375	0.2	244011	31	30	0	0	0	31	203	stimuli\Videos_short_600ms_horvertflip\30.finger_pulling_back_another_finger_short_horvertflip_short_600ms.mp4	30.finger_pulling_back_another_finger_short_horvertflip_short_600ms.mp4	155.1742152789202	155.7825404966486	0.6083252177284066				
119.9462890625	0.2	245650	32	30	0	0	0	32	172	stimuli\Videos_short_600ms_horflip\84.single_touch_with_cotton_bud_short_horflip_short_600ms.mp4	84.single_touch_with_cotton_bud_short_horflip_short_600ms.mp4	155.97417844712322	156.5825291773224	0.6083507301991631				
120.74609375	0.2	247288	33	30	0	0	0	33	191	stimuli\Videos_short_600ms_horvertflip\2.single_touch_with_finger_short_horvertflip_short_600ms.mp4	2.single_touch_with_finger_short_horvertflip_short_600ms.mp4	156.77419381325512	157.38251903098353	0.6083252177284066				
121.5458984375	0.2	248926	34	30	0	0	0	34	104	stimuli\Videos_short_600ms_horflip\22.single_touch_with_metal_chopstick_short_horflip_short_600ms.mp4	22.single_touch_with_metal_chopstick_short_horflip_short_600ms.mp4	157.57418220068212	158.18250624542338	0.6083240447412663				
122.34619140625	0.2	250565	35	30	0	0	1	35	360	stimuli\Targets_short_600ms\brush-stroke_short_short_600ms.mp4	brush-stroke_short_short_600ms.mp4	158.37418818291667	158.98249316661668	0.608304983700009				
123.14599609375	0.2	252203	36	30	0	0	0	36	344	stimuli\Videos_short_600ms_vertflip\77.tapping_with_all_fingers_short_vertflip_short_600ms.mp4	77.tapping_with_all_fingers_short_vertflip_short_600ms.mp4	159.17415135111992	159.78248243378405	0.6083310826641082				
123.9462890625	0.2	253842	37	30	0	0	0	37	347	stimuli\Videos_short_600ms_vertflip\8.single_touch_with_hairbrush_short_vertflip_short_600ms.mp4	8.single_touch_with_hairbrush_short_vertflip_short_600ms.mp4	159.97412097075244	160.58247258069196	0.6083516099395183				
124.74609375	0.2	255480	38	30	0	0	1	38	362	stimuli\Targets_short_600ms\chopstickwood-tap_short_short_600ms.mp4	chopstickwood-tap_short_short_600ms.mp4	160.7741923470212	161.3824580356511	0.6082656886298992				
125.5458984375	0.2	257118	39	30	0	0	0	39	70	stimuli\Videos_short_600ms\73.single_stroke_with_flat_hand_short_short_600ms.mp4	73.single_stroke_with_flat_hand_short_short_600ms.mp4	161.57413674742975	162.18244554333774	0.6083087959079876				
126.34619140625	0.2	258757	40	30	0	0	0	40	288	stimuli\Videos_short_600ms_vertflip\26.single_touch_with_a_blunt_syringe_short_vertflip_short_600ms.mp4	26.single_touch_with_a_blunt_syringe_short_vertflip_short_600ms.mp4	162.3741031413474	162.98243393076496	0.6083307894175505				
127.14599609375	0.2	260395	41	30	0	0	0	41	223	stimuli\Videos_short_600ms_horvertflip\49.repeated_slap_with_hand_short_horvertflip_short_600ms.mp4	49.repeated_slap_with_hand_short_horvertflip_short_600ms.mp4	163.1741003261784	163.7824012044232	0.6083008782447905				
127.94580078125	0.2	262033	42	30	0	0	1	42	377	stimuli\Targets_short_600ms_horvertflip\hand-stroke_short_vertflip_short_600ms.mp4	hand-stroke_short_vertflip_short_600ms.mp4	163.97408988659254	164.5824080663981	0.6083181798055648				
128.74609375	0.2	263672	43	30	0	0	0	43	334	stimuli\Videos_short_600ms_vertflip\68.stroke_top_to_bottom_with_shawl_short_vertflip_short_600ms.mp4	68.stroke_top_to_bottom_with_shawl_short_vertflip_short_600ms.mp4	164.77407827401976	165.3823718210947	0.6082935470749362				
129.5458984375	0.2	265310	44	30	0	0	0	44	236	stimuli\Videos_short_600ms_horvertflip\60.single_push_with_tip_of_pencil_short_horvertflip_short_600ms.mp4	60.single_push_with_tip_of_pencil_short_horvertflip_short_600ms.mp4	165.57406284923854	166.18238161553745	0.6083187662989076				
130.345703125	0.2	266948	45	30	0	0	0	45	335	stimuli\Videos_short_600ms_vertflip\69.stroke_with_soft_sock_short_vertflip_short_600ms.mp4	69.stroke_with_soft_sock_short_vertflip_short_600ms.mp4	166.37405065017197	166.9823711759518	0.6083205257798454				
131.14599609375	0.2	268587	46	30	0	0	0	46	214	stimuli\Videos_short_600ms_horvertflip\40.repeated_push_with_finger_short_horvertflip_short_600ms.mp4	40.repeated_push_with_finger_short_horvertflip_short_600ms.mp4	167.17403845110562	167.78236513506795	0.608326683962332				
131.94580078125	0.2	270225	47	30	0	0	0	47	317	stimuli\Videos_short_600ms_vertflip\52.touch_top_to_bottom_with_hammer_short_vertflip_short_600ms.mp4	52.touch_top_to_bottom_with_hammer_short_vertflip_short_600ms.mp4	167.97402801151975	168.58235352249494	0.6083255109751917				
132.74560546875	0.2	271863	48	30	0	0	0	48	95	stimuli\Videos_short_600ms_horflip\14.repeated_touch_with_pencil_short_horflip_short_600ms.mp4	14.repeated_touch_with_pencil_short_horflip_short_600ms.mp4	168.77401522595983	169.3823471883643	0.6083319624044634				
133.5458984375	0.2	273502	49	30	0	0	0	49	260	stimuli\Videos_short_600ms_horvertflip\82.repeated_touch_with_cotton_bud_short_horvertflip_short_600ms.mp4	82.repeated_touch_with_cotton_bud_short_horvertflip_short_600ms.mp4	169.57400537286753	170.18232648514095	0.6083211122734156				
134.345703125	0.2	275140	50	30	0	0	0	50	285	stimuli\Videos_short_600ms_vertflip\23.single_push_with_a_spoon_short_vertflip_short_600ms.mp4	23.single_push_with_a_spoon_short_vertflip_short_600ms.mp4	170.37399170756726	170.98232513620565	0.6083334286383888				
135.1455078125	0.2	276778	51	30	0	0	0	51	204	stimuli\Videos_short_600ms_horvertflip\31.hand_grabbing_wrist_short_horvertflip_short_600ms.mp4	31.hand_grabbing_wrist_short_horvertflip_short_600ms.mp4	171.17397745577318	171.78230296674838	0.6083255109751917				
135.94580078125	0.2	278417	52	30	0	0	0	52	29	stimuli\Videos_short_600ms\36.single_slap_with_full_hand_short_short_600ms.mp4	36.single_slap_with_full_hand_short_short_600ms.mp4	171.97396672294053	172.58228988794144	0.6083231650009111				
136.74560546875	0.2	280055	53	30	0	0	0	53	226	stimuli\Videos_short_600ms_horvertflip\51.repeated_touch_with_hammer_short_horvertflip_short_600ms.mp4	51.repeated_touch_with_hammer_short_horvertflip_short_600ms.mp4	172.77395540361454	173.38227798212188	0.608322578507341				
137.54541015625	0.2	281693	54	30	0	0	0	54	201	stimuli\Videos_short_600ms_horvertflip\29.single_pinch_with_tweezers_short_horvertflip_short_600ms.mp4	29.single_pinch_with_tweezers_short_horvertflip_short_600ms.mp4	173.5739449640289	174.18226666279566	0.6083216987667583				
138.345703125	0.2	283332	55	30	0	0	0	55	227	stimuli\Videos_short_600ms_horvertflip\52.touch_top_to_bottom_with_hammer_short_horvertflip_short_600ms.mp4	52.touch_top_to_bottom_with_hammer_short_horvertflip_short_600ms.mp4	174.37391077145298	174.9822568097036	0.6083460382506019				
139.1455078125	0.2	284970	56	30	0	0	0	56	7	stimuli\Videos_short_600ms\16.repeated_touch_with_plastic_brush_short_short_600ms.mp4	16.repeated_touch_with_plastic_brush_short_short_600ms.mp4	175.17389827913985	175.7822428511563	0.6083445720164491				
139.9453125	0.2	286608	57	30	0	0	0	57	11	stimuli\Videos_short_600ms\2.single_touch_with_finger_short_short_600ms.mp4	2.single_touch_with_finger_short_short_600ms.mp4	175.97390953981653	176.5822315318303	0.6083219920137708				
140.74560546875	0.2	288247	58	30	0	0	0	58	127	stimuli\Videos_short_600ms_horflip\43.touch_top_to_bottom_with_sharp_wooden_stick_short_horflip_short_600ms.mp4	43.touch_top_to_bottom_with_sharp_wooden_stick_short_horflip_short_600ms.mp4	176.77387212152598	177.3822196260105	0.6083475044845272				
141.54541015625	0.2	289885	59	30	0	0	0	59	343	stimuli\Videos_short_600ms_vertflip\76.tickle_with_fingers_from_top_to_bottom_short_vertflip_short_600ms.mp4	76.tickle_with_fingers_from_top_to_bottom_short_vertflip_short_600ms.mp4	177.57388015648803	178.18221006616525	0.6083299096771952				
142.34521484375	0.2	291523	60	30	0	0	0	60	85	stimuli\Videos_short_600ms\87.single_stroke_top_to_bottom_with_plastic_brush_short_short_600ms.mp4	87.single_stroke_top_to_bottom_with_plastic_brush_short_short_600ms.mp4	178.37388056703367	178.982194641384	0.6083140743503463				
143.1455078125	0.2	293162	61	30	0	0	0	61	354	stimuli\Videos_short_600ms_vertflip\86.touch_top_to_bottom_with_hair_brush_short_vertflip_short_600ms.mp4	86.touch_top_to_bottom_with_hair_brush_short_vertflip_short_600ms.mp4	179.17386133004425	179.78216338127618	0.6083020512319308				
143.9453125	0.2	294800	62	30	0	0	0	62	158	stimuli\Videos_short_600ms_horflip\71.single_stroke_with_finger_top_to_bottom_short_horflip_short_600ms.mp4	71.single_stroke_with_finger_top_to_bottom_short_horflip_short_600ms.mp4	179.97399399489225	180.58217640143357	0.6081824065413457				
144.74560546875	0.2	296439	63	30	0	0	1	63	373	stimuli\Targets_short_600ms_horvertflip\chopstick-silver-tap_short_vertflip_short_600ms.mp4	chopstick-silver-tap_short_vertflip_short_600ms.mp4	180.7738348791836	181.3821351709348	0.6083002917512204				
145.54541015625	0.2	298077	64	30	0	0	0	64	121	stimuli\Videos_short_600ms_horflip\38.double_slap_with_pencil_short_horflip_short_600ms.mp4	38.double_slap_with_pencil_short_horflip_short_600ms.mp4	181.5738247328447	182.182152883041	0.6083281501962574				
146.34521484375	0.2	299715	65	30	0	0	0	65	67	stimuli\Videos_short_600ms\70.(long)stroke_with_finger_all_over_the_hand_short_short_600ms.mp4	70.(long)stroke_with_finger_all_over_the_hand_short_short_600ms.mp4	182.3737943524773	182.98214068397465	0.6083463314973869				
147.1455078125	0.2	301354	66	30	0	0	0	66	193	stimuli\Videos_short_600ms_horvertflip\21.repeated_touch_with_metal_chopstick_short_horvertflip_short_600ms.mp4	21.repeated_touch_with_metal_chopstick_short_horvertflip_short_600ms.mp4	183.1737988684779	183.7821302443888	0.6083313759108933				
147.9453125	0.2	302992	67	30	0	0	0	67	314	stimuli\Videos_short_600ms_vertflip\5.repeated_tap_with_finger_moving_from_top_to_bottom_short_vertflip_short_600ms.mp4	5.repeated_tap_with_finger_moving_from_top_to_bottom_short_vertflip_short_600ms.mp4	183.9737893086324	184.58212156428385	0.6083322556514759				
148.7451171875	0.2	304630	68	30	0	0	0	68	266	stimuli\Videos_short_600ms_horvertflip\88.repeated_stroke_with_plastic_brush_short_horvertflip_short_600ms.mp4	88.repeated_stroke_with_plastic_brush_short_horvertflip_short_600ms.mp4	184.77377652307248	185.38210056781372	0.6083240447412663				
149.54541015625	0.2	306269	69	30	0	0	0	69	263	stimuli\Videos_short_600ms_horvertflip\85.touch_top_to_bottom_with_fabric_short_horvertflip_short_600ms.mp4	85.touch_top_to_bottom_with_fabric_short_horvertflip_short_600ms.mp4	185.57375699283625	186.18209042147464	0.6083334286383888				
150.34521484375	0.2	307907	70	30	0	0	0	70	293	stimuli\Videos_short_600ms_vertflip\30.finger_pulling_back_another_finger_short_vertflip_short_600ms.mp4	30.finger_pulling_back_another_finger_short_vertflip_short_600ms.mp4	186.37375212493953	186.98207910214865	0.6083269772091171				
151.14501953125	0.2	309545	71	30	0	0	0	71	152	stimuli\Videos_short_600ms_horflip\66.stroke_top_to_bottom_with_sponge_short_horflip_short_600ms.mp4	66.stroke_top_to_bottom_with_sponge_short_horflip_short_600ms.mp4	187.17374197860045	187.782064263861	0.6083222852605559				
151.9453125	0.2	311184	72	30	0	0	0	72	163	stimuli\Videos_short_600ms_horflip\76.tickle_with_fingers_from_top_to_bottom_short_horflip_short_600ms.mp4	76.tickle_with_fingers_from_top_to_bottom_short_horflip_short_600ms.mp4	187.97373095252124	188.58205382427536	0.608322871754126				
152.7451171875	0.2	312822	73	30	0	0	1	73	379	stimuli\Targets_short_600ms_vertflip\chopstick-silver-tap_short_horvertflip_short_600ms.mp4	chopstick-silver-tap_short_horvertflip_short_600ms.mp4	188.77371523449324	189.3820416252088	0.608326390715547				
153.544921875	0.2	314460	74	30	0	0	0	74	32	stimuli\Videos_short_600ms\39.single_stab_with_scissors_short_short_600ms.mp4	39.single_stab_with_scissors_short_short_600ms.mp4	189.5737003962056	190.18202795990828	0.6083275637026873				
154.34521484375	0.2	316099	75	30	0	0	0	75	272	stimuli\Videos_short_600ms_vertflip\11.single_touch_with_lighter_short_vertflip_short_600ms.mp4	11.single_touch_with_lighter_short_vertflip_short_600ms.mp4	190.37368849038603	190.98201752032264	0.6083290299366126				
155.14501953125	0.2	317737	76	30	0	0	0	76	44	stimuli\Videos_short_600ms\5.repeated_tap_with_finger_moving_from_top_to_bottom_short_short_600ms.mp4	5.repeated_tap_with_finger_moving_from_top_to_bottom_short_short_600ms.mp4	191.1736836224893	191.78200590774964	0.6083222852603285				
155.94482421875	0.2	319375	77	30	0	0	0	77	332	stimuli\Videos_short_600ms_vertflip\66.stroke_top_to_bottom_with_sponge_short_vertflip_short_600ms.mp4	66.stroke_top_to_bottom_with_sponge_short_vertflip_short_600ms.mp4	191.9736450312116	192.58199488167045	0.6083498504588079				
156.7451171875	0.2	321014	78	30	0	0	0	78	144	stimuli\Videos_short_600ms_horflip\59.single_push_with_long_side_pencil_short_horflip_short_600ms.mp4	59.single_push_with_long_side_pencil_short_horflip_short_600ms.mp4	192.7736548256544	193.38198238935703	0.6083275637026873				
157.544921875	0.2	322652	79	30	0	0	1	79	364	stimuli\Targets_short_600ms\hand-pinch_short_short_600ms.mp4	hand-pinch_short_short_600ms.mp4	193.57368368113865	194.1819543549641	0.6082706738254728				
158.3447265625	0.2	324290	80	30	0	0	0	80	219	stimuli\Videos_short_600ms_horvertflip\45.scratching_with_finger_nails_short_horvertflip_short_600ms.mp4	45.scratching_with_finger_nails_short_horvertflip_short_600ms.mp4	194.37364069115915	194.9819386369361	0.6082979457769397				
159.14501953125	0.2	325929	81	30	0	0	0	81	239	stimuli\Videos_short_600ms_horvertflip\63.stroke_top_to_bottom_with_screwdriver_short_horvertflip_short_600ms.mp4	63.stroke_top_to_bottom_with_screwdriver_short_horvertflip_short_600ms.mp4	195.17364432741945	195.78191939994667	0.608275072527249				
159.94482421875	0.2	327567	82	30	0	0	0	82	185	stimuli\Videos_short_600ms_horvertflip\14.repeated_touch_with_pencil_short_horvertflip_short_600ms.mp4	14.repeated_touch_with_pencil_short_horvertflip_short_600ms.mp4	195.97360896185637	196.58191893075173	0.6083099688953553				
160.75341796875	0.2	329223	83	30	0	0	0	83	92	stimuli\Videos_short_600ms_horflip\11.single_touch_with_lighter_short_horflip_short_600ms.mp4	11.single_touch_with_lighter_short_horflip_short_600ms.mp4	196.77360878590844	197.38189676129448	0.6082879753860198				
161.55322265625	0.2	330861	84	30	0	0	0	84	83	stimuli\Videos_short_600ms\85.touch_top_to_bottom_with_fabric_short_short_600ms.mp4	85.touch_top_to_bottom_with_fabric_short_short_600ms.mp4	197.5818966439956	198.190242975493	0.6083463314973869				
162.35302734375	0.2	332499	85	30	0	0	0	85	63	stimuli\Videos_short_600ms\67.single_touch_with_sponge_short_short_600ms.mp4	67.single_touch_with_sponge_short_short_600ms.mp4	198.381905558698	198.99023253590735	0.6083269772093445				
163.1533203125	0.2	334138	86	30	0	0	0	86	215	stimuli\Videos_short_600ms_horvertflip\41.injection_with_blunt_syringe_short_horvertflip_short_600ms.mp4	41.injection_with_blunt_syringe_short_horvertflip_short_600ms.mp4	199.18190626249043	199.7902053812545	0.60829911876408				
163.953125	0.2	335776	87	30	0	0	1	87	382	stimuli\Targets_short_600ms_vertflip\hand-pinch_short_horvertflip_short_600ms.mp4	hand-pinch_short_horvertflip_short_600ms.mp4	199.98186943069345	200.59021341621656	0.6083439855231063				
164.7529296875	0.2	337414	88	30	0	0	0	88	277	stimuli\Videos_short_600ms_vertflip\16.repeated_touch_with_plastic_brush_short_vertflip_short_600ms.mp4	16.repeated_touch_with_plastic_brush_short_vertflip_short_600ms.mp4	200.78187101422623	201.39019212649964	0.6083211122734156				
165.55322265625	0.2	339053	89	30	0	0	0	89	30	stimuli\Videos_short_600ms\37.single_stab_with_nail_file_short_short_600ms.mp4	37.single_stab_with_nail_file_short_short_600ms.mp4	201.5818596949	202.19015734743016	0.6082976525301547				
166.35302734375	0.2	340691	90	30	0	0	0	90	303	stimuli\Videos_short_600ms_vertflip\4.repeated_tap_with_finger_slow_short_vertflip_short_600ms.mp4	4.repeated_tap_with_finger_slow_short_vertflip_short_600ms.mp4	202.38184749583365	202.99015159979308	0.6083041039594264				
167.15283203125	0.2	342329	91	30	0	0	0	91	192	stimuli\Videos_short_600ms_horvertflip\20.single_touch_with_screwdriver_short_horvertflip_short_600ms.mp4	20.single_touch_with_screwdriver_short_horvertflip_short_600ms.mp4	203.18183529676708	203.7901687254057	0.6083334286386162				
167.953125	0.2	343968	92	30	0	0	0	92	129	stimuli\Videos_short_600ms_horflip\45.scratching_with_finger_nails_short_horflip_short_600ms.mp4	45.scratching_with_finger_nails_short_horflip_short_600ms.mp4	203.98182515042825	204.59015007490984	0.6083249244816216				
168.7529296875	0.2	345606	93	30	0	0	0	93	39	stimuli\Videos_short_600ms\45.scratching_with_finger_nails_short_short_600ms.mp4	45.scratching_with_finger_nails_short_short_600ms.mp4	204.78181119188093	205.3901457935067	0.6083346016257565				
169.552734375	0.2	347244	94	30	0	0	0	94	41	stimuli\Videos_short_600ms\47.(long)scratching_with_finger_nails_short_short_600ms.mp4	47.(long)scratching_with_finger_nails_short_short_600ms.mp4	205.5818004590485	206.19012479703656	0.6083243379880514				
170.35302734375	0.2	348883	95	30	0	0	0	95	318	stimuli\Videos_short_600ms_vertflip\53.touch_top_to_bottom_with_knife_short_vertflip_short_600ms.mp4	53.touch_top_to_bottom_with_knife_short_vertflip_short_600ms.mp4	206.38179031270943	206.99012227511412	0.6083319624046908				
171.15283203125	0.2	350521	96	30	0	0	0	96	31	stimuli\Videos_short_600ms\38.double_slap_with_pencil_short_short_600ms.mp4	38.double_slap_with_pencil_short_short_600ms.mp4	207.18177547442176	207.79009951916305	0.6083240447412663				
171.95263671875	0.2	352159	97	30	0	0	0	97	15	stimuli\Videos_short_600ms\23.single_push_with_a_spoon_short_short_600ms.mp4	23.single_push_with_a_spoon_short_short_600ms.mp4	207.98176327535543	208.59008819983703	0.6083249244816216				
172.75244140625	0.2	353797	98	30	0	0	0	98	96	stimuli\Videos_short_600ms_horflip\15.single_stroke_top_to_bottom_with_a_plastic_whisk_short_horflip_short_600ms.mp4	15.single_stroke_top_to_bottom_with_a_plastic_whisk_short_horflip_short_600ms.mp4	208.78175312901655	209.3900771737576	0.608324044741039	9.0	9.0	1.9681824300012067	1.0
209.41015625	0.2	428872	99	30	1	0	1	0	370	stimuli\Targets_short_600ms_horflip\hand-pinch_short_horflip_short_600ms.mp4	hand-pinch_short_horflip_short_600ms.mp4	246.23950462406196	246.84785623400148	0.6083516099395183				
210.2099609375	0.2	430510	100	30	1	0	0	1	103	stimuli\Videos_short_600ms_horflip\21.repeated_touch_with_metal_chopstick_short_horflip_short_600ms.mp4	21.repeated_touch_with_metal_chopstick_short_horflip_short_600ms.mp4	247.0395147117515	247.64784051597348	0.6083258042219768				
211.009765625	0.2	432148	101	30	1	0	0	2	299	stimuli\Videos_short_600ms_vertflip\36.single_slap_with_full_hand_short_vertflip_short_600ms.mp4	36.single_slap_with_full_hand_short_vertflip_short_600ms.mp4	247.83950485865944	248.4478350615832	0.608330202923753				
211.81005859375	0.2	433787	102	30	1	0	0	3	47	stimuli\Videos_short_600ms\52.touch_top_to_bottom_with_hammer_short_short_600ms.mp4	52.touch_top_to_bottom_with_hammer_short_short_600ms.mp4	248.63949236634608	249.24781465160663	0.6083222852605559				
212.60986328125	0.2	435425	103	30	1	0	0	4	174	stimuli\Videos_short_600ms_horflip\86.touch_top_to_bottom_with_hair_brush_short_horflip_short_600ms.mp4	86.touch_top_to_bottom_with_hair_brush_short_horflip_short_600ms.mp4	249.43945260208125	250.04780421202076	0.6083516099395183				
213.40966796875	0.2	437063	104	30	1	0	0	5	151	stimuli\Videos_short_600ms_horflip\65.stroke_top_to_bottom_with_stanley_knife_short_horflip_short_600ms.mp4	65.stroke_top_to_bottom_with_stanley_knife_short_horflip_short_600ms.mp4	250.239475006136	250.8478066752939	0.6083316691579057				
214.2099609375	0.2	438702	105	30	1	0	0	6	183	stimuli\Videos_short_600ms_horvertflip\12.repeated_touch_with_nail_file_short_horvertflip_short_600ms.mp4	12.repeated_touch_with_nail_file_short_horvertflip_short_600ms.mp4	251.039476296422	251.64778186661533	0.6083055701933517				
215.009765625	0.2	440340	106	30	1	0	0	7	120	stimuli\Videos_short_600ms_horflip\37.single_stab_with_nail_file_short_horflip_short_600ms.mp4	37.single_stab_with_nail_file_short_horflip_short_600ms.mp4	251.8394535404711	252.44774327533787	0.6082897348667302				
215.8095703125	0.2	441978	107	30	1	0	0	8	341	stimuli\Videos_short_600ms_vertflip\74.fingers_walking_from_top_to_bottom_short_vertflip_short_600ms.mp4	74.fingers_walking_from_top_to_bottom_short_vertflip_short_600ms.mp4	252.63943313049435	253.2477533630274	0.6083202325330603				
216.60986328125	0.2	443617	108	30	1	0	0	9	122	stimuli\Videos_short_600ms_horflip\39.single_stab_with_scissors_short_horflip_short_600ms.mp4	39.single_stab_with_scissors_short_horflip_short_600ms.mp4	253.4394270896105	254.0477669696784	0.6083398800678879				
217.40966796875	0.2	445255	109	30	1	0	0	10	262	stimuli\Videos_short_600ms_horvertflip\84.single_touch_with_cotton_bud_short_horvertflip_short_600ms.mp4	84.single_touch_with_cotton_bud_short_horvertflip_short_600ms.mp4	254.23940990534857	254.84773307034948	0.6083231650009111				
218.20947265625	0.2	446893	110	30	1	0	0	11	352	stimuli\Videos_short_600ms_vertflip\84.single_touch_with_cotton_bud_short_vertflip_short_600ms.mp4	84.single_touch_with_cotton_bud_short_vertflip_short_600ms.mp4	255.03939858602257	255.6477255632317	0.6083269772091171				
219.009765625	0.2	448532	111	30	1	0	0	12	337	stimuli\Videos_short_600ms_vertflip\70.(long)stroke_with_finger_all_over_the_hand_short_vertflip_short_600ms.mp4	70.(long)stroke_with_finger_all_over_the_hand_short_vertflip_short_600ms.mp4	255.83938374773493	256.44770896546333	0.6083252177284066				
219.8095703125	0.2	450170	112	30	1	0	0	13	243	stimuli\Videos_short_600ms_horvertflip\67.single_touch_with_sponge_short_horvertflip_short_600ms.mp4	67.single_touch_with_sponge_short_horvertflip_short_600ms.mp4	256.6393442767169	257.2476982326309	0.6083539559140263				
220.609375	0.2	451808	113	30	1	0	1	14	368	stimuli\Targets_short_600ms_horflip\chopstickwood-tap_short_horflip_short_600ms.mp4	chopstickwood-tap_short_horflip_short_600ms.mp4	257.4393608158359	258.0476825146029	0.6083216987669857				
221.40966796875	0.2	453447	114	30	1	0	0	15	213	stimuli\Videos_short_600ms_horvertflip\4.repeated_tap_with_finger_slow_short_horvertflip_short_600ms.mp4	4.repeated_tap_with_finger_slow_short_horvertflip_short_600ms.mp4	258.23934861676935	258.8476811656676	0.6083325488982609				
222.20947265625	0.2	455085	115	30	1	0	1	16	374	stimuli\Targets_short_600ms_horvertflip\chopstickwood-tap_short_vertflip_short_600ms.mp4	chopstickwood-tap_short_vertflip_short_600ms.mp4	259.03933729744335	259.6476616354314	0.6083243379880514				
223.009765625	0.2	456724	116	30	1	0	0	17	84	stimuli\Videos_short_600ms\86.touch_top_to_bottom_with_hair_brush_short_short_600ms.mp4	86.touch_top_to_bottom_with_hair_brush_short_short_600ms.mp4	259.83932480513	260.4476479701309	0.6083231650009111				
223.8095703125	0.2	458362	117	30	1	0	0	18	242	stimuli\Videos_short_600ms_horvertflip\66.stroke_top_to_bottom_with_sponge_short_horvertflip_short_600ms.mp4	66.stroke_top_to_bottom_with_sponge_short_horvertflip_short_600ms.mp4	260.63930762086807	261.2476369440517	0.6083293231836251				
224.609375	0.2	460000	118	30	1	0	0	19	212	stimuli\Videos_short_600ms_horvertflip\39.single_stab_with_scissors_short_horvertflip_short_600ms.mp4	39.single_stab_with_scissors_short_horvertflip_short_600ms.mp4	261.4393021664778	262.0476294369339	0.6083272704561296				
225.40966796875	0.2	461639	119	30	1	0	0	20	283	stimuli\Videos_short_600ms_vertflip\21.repeated_touch_with_metal_chopstick_short_vertflip_short_600ms.mp4	21.repeated_touch_with_metal_chopstick_short_vertflip_short_600ms.mp4	262.2392843957223	262.84761518513983	0.6083307894175505				
226.20947265625	0.2	463277	120	30	1	0	0	21	249	stimuli\Videos_short_600ms_horvertflip\72.(short)stroke_with_finger_all_over_the_hand_short_horvertflip_short_600ms.mp4	72.(short)stroke_with_finger_all_over_the_hand_short_horvertflip_short_600ms.mp4	263.03927336964307	263.647600640099	0.6083272704559022				
227.00927734375	0.2	464915	121	30	1	0	0	22	261	stimuli\Videos_short_600ms_horvertflip\83.single_stroke_top_to_bottom_with_cotton_bud_short_horvertflip_short_600ms.mp4	83.single_stroke_top_to_bottom_with_cotton_bud_short_horvertflip_short_600ms.mp4	263.8392614638233	264.44759195999404	0.6083304961707654				
227.8095703125	0.2	466554	122	30	1	0	0	23	247	stimuli\Videos_short_600ms_horvertflip\70.(long)stroke_with_finger_all_over_the_hand_short_horvertflip_short_600ms.mp4	70.(long)stroke_with_finger_all_over_the_hand_short_horvertflip_short_600ms.mp4	264.6392495580037	265.24757624196604	0.608326683962332				
228.609375	0.2	468192	123	30	1	0	0	24	6	stimuli\Videos_short_600ms\15.single_stroke_top_to_bottom_with_a_plastic_whisk_short_short_600ms.mp4	15.single_stroke_top_to_bottom_with_a_plastic_whisk_short_short_600ms.mp4	265.43928281218973	266.0475649226398	0.6082821104500908				
229.4091796875	0.2	469830	124	30	1	0	0	25	143	stimuli\Videos_short_600ms_horflip\58.single_slap_with_pencil_short_horflip_short_600ms.mp4	58.single_slap_with_pencil_short_horflip_short_600ms.mp4	266.23923395727434	266.8475582952624	0.6083243379880514				
230.20947265625	0.2	471469	125	30	1	0	0	26	286	stimuli\Videos_short_600ms_vertflip\24.single_stroke_top_to_bottom_with_a_spoon_short_vertflip_short_600ms.mp4	24.single_stroke_top_to_bottom_with_a_spoon_short_vertflip_short_600ms.mp4	267.0392088553492	267.64753759203904	0.6083287366898276				
231.00927734375	0.2	473107	126	30	1	0	0	27	240	stimuli\Videos_short_600ms_horvertflip\64.repeated_touch_with_screwdriver_short_horvertflip_short_600ms.mp4	64.repeated_touch_with_screwdriver_short_horvertflip_short_600ms.mp4	267.83920691992034	268.44750515894407	0.6082982390237248				
231.80908203125	0.2	474745	127	30	1	0	0	28	231	stimuli\Videos_short_600ms_horvertflip\56.repeated_touch_with_nail_file_short_horvertflip_short_600ms.mp4	56.repeated_touch_with_nail_file_short_horvertflip_short_600ms.mp4	268.6392043979979	269.2475404658576	0.6083360678596819				
232.609375	0.2	476384	128	30	1	0	0	29	112	stimuli\Videos_short_600ms_horflip\3.single_push_with_finger_short_horflip_short_600ms.mp4	3.single_push_with_finger_short_horflip_short_600ms.mp4	269.43918222854063	270.0475018745801	0.6083196460394902				
233.4091796875	0.2	478022	129	30	1	0	0	30	114	stimuli\Videos_short_600ms_horflip\31.hand_grabbing_wrist_short_horflip_short_600ms.mp4	31.hand_grabbing_wrist_short_horflip_short_600ms.mp4	270.23917002947405	270.84749319447496	0.6083231650009111				
234.208984375	0.2	479660	130	30	1	0	0	31	38	stimuli\Videos_short_600ms\44.pushing_top_to_bottom_with_finger_short_short_600ms.mp4	44.pushing_top_to_bottom_with_finger_short_short_600ms.mp4	271.03912176105246	271.64748187514897	0.6083601140965129				
235.00927734375	0.2	481299	131	30	1	0	0	32	326	stimuli\Videos_short_600ms_vertflip\60.single_push_with_tip_of_pencil_short_vertflip_short_600ms.mp4	60.single_push_with_tip_of_pencil_short_vertflip_short_600ms.mp4	271.83916938433117	272.4474904966046	0.6083211122734156				
235.80908203125	0.2	482937	132	30	1	0	0	33	339	stimuli\Videos_short_600ms_vertflip\72.(short)stroke_with_finger_all_over_the_hand_short_vertflip_short_600ms.mp4	72.(short)stroke_with_finger_all_over_the_hand_short_vertflip_short_600ms.mp4	272.63913196604085	273.24748768143536	0.6083557153945094				
236.60888671875	0.2	484575	133	30	1	0	0	34	107	stimuli\Videos_short_600ms_horflip\25.single_touch_with_stanley_knife_short_horflip_short_600ms.mp4	25.single_touch_with_stanley_knife_short_horflip_short_600ms.mp4	273.4391235791825	274.0474449847027	0.6083214055202006				
237.4091796875	0.2	486214	134	30	1	0	1	35	375	stimuli\Targets_short_600ms_horvertflip\finger-tap_short_vertflip_short_600ms.mp4	finger-tap_short_vertflip_short_600ms.mp4	274.23907794998195	274.8474184165434	0.608340466561458				
238.208984375	0.2	487852	135	30	1	0	0	36	333	stimuli\Videos_short_600ms_vertflip\67.single_touch_with_sponge_short_vertflip_short_600ms.mp4	67.single_touch_with_sponge_short_vertflip_short_600ms.mp4	275.03908451871007	275.6474217595569	0.6083372408468222				
239.0087890625	0.2	489490	136	30	1	0	0	37	340	stimuli\Videos_short_600ms_vertflip\73.single_stroke_with_flat_hand_short_vertflip_short_600ms.mp4	73.single_stroke_with_flat_hand_short_vertflip_short_600ms.mp4	275.83908375626834	276.447362641004	0.6082788847356824				
239.80908203125	0.2	491129	137	30	1	0	0	38	253	stimuli\Videos_short_600ms_horvertflip\76.tickle_with_fingers_from_top_to_bottom_short_horvertflip_short_600ms.mp4	76.tickle_with_fingers_from_top_to_bottom_short_horvertflip_short_600ms.mp4	276.6390489771991	277.2473821125909	0.6083331353918311				
240.60888671875	0.2	492767	138	30	1	0	0	39	330	stimuli\Videos_short_600ms_vertflip\64.repeated_touch_with_screwdriver_short_vertflip_short_600ms.mp4	64.repeated_touch_with_screwdriver_short_vertflip_short_600ms.mp4	277.43902358202695	278.0473338441691	0.6083102621421403				
241.4091796875	0.2	494406	139	30	1	0	1	40	371	stimuli\Targets_short_600ms_horflip\hand-stroke_short_horflip_short_600ms.mp4	hand-stroke_short_horflip_short_600ms.mp4	278.2390688593314	278.84739759602144	0.6083287366900549				
242.208984375	0.2	496044	140	30	1	0	0	41	160	stimuli\Videos_short_600ms_horflip\73.single_stroke_with_flat_hand_short_horflip_short_600ms.mp4	73.single_stroke_with_flat_hand_short_horflip_short_600ms.mp4	279.03901560571444	279.6473478613657	0.6083322556512485				
243.0087890625	0.2	497682	141	30	1	0	0	42	234	stimuli\Videos_short_600ms_horvertflip\59.single_push_with_long_side_pencil_short_horvertflip_short_600ms.mp4	59.single_push_with_long_side_pencil_short_horvertflip_short_600ms.mp4	279.8390174824938	280.4474022293207	0.6083847468269141				
243.80908203125	0.2	499321	142	30	1	0	0	43	82	stimuli\Videos_short_600ms\84.single_touch_with_cotton_bud_short_short_600ms.mp4	84.single_touch_with_cotton_bud_short_short_600ms.mp4	280.63897156004646	281.2472862208904	0.6083146608439165				
244.60888671875	0.2	500959	143	30	1	0	1	44	361	stimuli\Targets_short_600ms\chopstick-silver-tap_short_short_600ms.mp4	chopstick-silver-tap_short_short_600ms.mp4	281.4389570150056	282.0472801800065	0.6083231650009111				
245.40869140625	0.2	502597	144	30	1	0	0	45	90	stimuli\Videos_short_600ms_horflip\1.repeated_touch_with_finger_fast_short_horflip_short_600ms.mp4	1.repeated_touch_with_finger_fast_short_horflip_short_600ms.mp4	282.2389377780162	282.8472603565235	0.608322578507341				
246.208984375	0.2	504236	145	30	1	0	0	46	68	stimuli\Videos_short_600ms\71.single_stroke_with_finger_top_to_bottom_short_short_600ms.mp4	71.single_stroke_with_finger_top_to_bottom_short_short_600ms.mp4	283.03892939115804	283.64732557460957	0.6083961834515321				
247.0087890625	0.2	505874	146	30	1	0	0	47	94	stimuli\Videos_short_600ms_horflip\13.single_touch_with_pen_short_horflip_short_600ms.mp4	13.single_touch_with_pen_short_horflip_short_600ms.mp4	283.83894593027685	284.4472620573549	0.6083161270780693				
247.80859375	0.2	507512	147	30	1	0	0	48	280	stimuli\Videos_short_600ms_vertflip\19.single_touch_with_rolling_pin_short_vertflip_short_600ms.mp4	19.single_touch_with_rolling_pin_short_vertflip_short_600ms.mp4	284.6388859319836	285.2472284512728	0.6083425192891809				
248.60888671875	0.2	509151	148	30	1	0	0	49	328	stimuli\Videos_short_600ms_vertflip\62.touch_top_to_bottom_with_scissors_short_vertflip_short_600ms.mp4	62.touch_top_to_bottom_with_scissors_short_vertflip_short_600ms.mp4	285.43888839525675	286.0472147859723	0.608326390715547				
249.40869140625	0.2	510789	149	30	1	0	0	50	141	stimuli\Videos_short_600ms_horflip\56.repeated_touch_with_nail_file_short_horflip_short_600ms.mp4	56.repeated_touch_with_nail_file_short_horflip_short_600ms.mp4	286.2390219398451	286.847188217813	0.6081662779679391				
250.20849609375	0.2	512427	150	30	1	0	0	51	176	stimuli\Videos_short_600ms_horflip\88.repeated_stroke_with_plastic_brush_short_horflip_short_600ms.mp4	88.repeated_stroke_with_plastic_brush_short_horflip_short_600ms.mp4	287.038844056342	287.64719889199614	0.6083548356541542				
251.0087890625	0.2	514066	151	30	1	0	1	52	366	stimuli\Targets_short_600ms_horflip\brush-stroke_short_horflip_short_600ms.mp4	brush-stroke_short_horflip_short_600ms.mp4	287.8390623492528	288.44716909812223	0.6081067488694316				
251.80859375	0.2	515704	152	30	1	0	0	53	50	stimuli\Videos_short_600ms\55.touch_top_to_bottom_with_nail_file_short_short_600ms.mp4	55.touch_top_to_bottom_with_nail_file_short_short_600ms.mp4	288.6389827034245	289.2471727343825	0.6081900309579851				
252.6083984375	0.2	517342	153	30	1	0	0	54	254	stimuli\Videos_short_600ms_horvertflip\77.tapping_with_all_fingers_short_horvertflip_short_600ms.mp4	77.tapping_with_all_fingers_short_horvertflip_short_600ms.mp4	289.4392602321868	290.04714851219774	0.6078882800109113				
253.40869140625	0.2	518981	154	30	1	0	0	55	245	stimuli\Videos_short_600ms_horvertflip\69.stroke_with_soft_sock_short_horvertflip_short_600ms.mp4	69.stroke_with_soft_sock_short_horvertflip_short_600ms.mp4	290.23920785831	290.847143644301	0.6079357859910033				
254.20849609375	0.2	520619	155	30	1	0	0	56	140	stimuli\Videos_short_600ms_horflip\55.touch_top_to_bottom_with_nail_file_short_horflip_short_600ms.mp4	55.touch_top_to_bottom_with_nail_file_short_horflip_short_600ms.mp4	291.03880622750603	291.6471173693885	0.6083111418824956				
255.00830078125	0.2	522257	156	30	1	0	0	57	69	stimuli\Videos_short_600ms\72.(short)stroke_with_finger_all_over_the_hand_short_short_600ms.mp4	72.(short)stroke_with_finger_all_over_the_hand_short_short_600ms.mp4	291.83879373519267	292.4471758427985	0.6083821076058484				
255.80859375	0.2	523896	157	30	1	0	0	58	80	stimuli\Videos_short_600ms\82.repeated_touch_with_cotton_bud_short_short_600ms.mp4	82.repeated_touch_with_cotton_bud_short_short_600ms.mp4	292.63876863326755	293.2471126187904	0.6083439855228789				
256.6083984375	0.2	525534	158	30	1	0	0	59	137	stimuli\Videos_short_600ms_horflip\52.touch_top_to_bottom_with_hammer_short_horflip_short_600ms.mp4	52.touch_top_to_bottom_with_hammer_short_horflip_short_600ms.mp4	293.4388118578445	294.0473092114387	0.6084973535942027				
257.408203125	0.2	527172	159	30	1	0	0	60	79	stimuli\Videos_short_600ms\81.single_stroke_top_to_bottom_with_cotton_pad_short_short_600ms.mp4	81.single_stroke_top_to_bottom_with_cotton_pad_short_short_600ms.mp4	294.23878411669807	294.84710434923113	0.6083202325330603				
258.20849609375	0.2	528811	160	30	1	0	0	61	308	stimuli\Videos_short_600ms_vertflip\44.pushing_top_to_bottom_with_finger_short_vertflip_short_600ms.mp4	44.pushing_top_to_bottom_with_finger_short_vertflip_short_600ms.mp4	295.0395123657772	295.6470625322388	0.6075501664615786				
259.00830078125	0.2	530449	161	30	1	0	0	62	294	stimuli\Videos_short_600ms_vertflip\31.hand_grabbing_wrist_short_vertflip_short_600ms.mp4	31.hand_grabbing_wrist_short_vertflip_short_600ms.mp4	295.8388529710444	296.44707056720085	0.6082175961564644				
259.80859375	0.2	532088	162	30	1	0	0	63	276	stimuli\Videos_short_600ms_vertflip\15.single_stroke_top_to_bottom_with_a_plastic_whisk_short_vertflip_short_600ms.mp4	15.single_stroke_top_to_bottom_with_a_plastic_whisk_short_vertflip_short_600ms.mp4	296.63878945378974	297.247034908391	0.6082454546012741				
260.6083984375	0.2	533726	163	30	1	0	1	64	376	stimuli\Targets_short_600ms_horvertflip\hand-pinch_short_vertflip_short_600ms.mp4	hand-pinch_short_vertflip_short_600ms.mp4	297.43874089212113	298.04703942439164	0.6082985322705099				
261.408203125	0.2	535364	164	30	1	0	0	65	110	stimuli\Videos_short_600ms_horflip\28.single_injection_with_sharp_needle_short_horflip_short_600ms.mp4	28.single_injection_with_sharp_needle_short_horflip_short_600ms.mp4	298.23875127305746	298.8470231198701	0.6082718468126131				
262.20849609375	0.2	537003	165	30	1	0	0	66	252	stimuli\Videos_short_600ms_horvertflip\75.(long)stroke_with_fingers_all_over_the_hand_short_horvertflip_short_600ms.mp4	75.(long)stroke_with_fingers_all_over_the_hand_short_horvertflip_short_600ms.mp4	299.03908862416506	299.6470112140505	0.6079225898854475				
263.00830078125	0.2	538641	166	30	1	0	0	67	3	stimuli\Videos_short_600ms\12.repeated_touch_with_nail_file_short_short_600ms.mp4	12.repeated_touch_with_nail_file_short_short_600ms.mp4	299.8391383001715	300.44697760796817	0.6078393077966666				
263.80810546875	0.2	540279	167	30	1	0	0	68	155	stimuli\Videos_short_600ms_horflip\69.stroke_with_soft_sock_short_horflip_short_600ms.mp4	69.stroke_with_soft_sock_short_horflip_short_600ms.mp4	300.6389029402974	301.2469900416322	0.6080871013348315				
264.6083984375	0.2	541918	168	30	1	0	0	69	45	stimuli\Videos_short_600ms\50.single_(long)hard_push_with_thumb_short_short_600ms.mp4	50.single_(long)hard_push_with_thumb_short_short_600ms.mp4	301.43870511601267	302.0469790155528	0.6082738995401087				
265.41650390625	0.2	543573	169	30	1	0	0	70	209	stimuli\Videos_short_600ms_horvertflip\36.single_slap_with_full_hand_short_horvertflip_short_600ms.mp4	36.single_slap_with_full_hand_short_horvertflip_short_600ms.mp4	302.24698329695593	302.855343997546	0.6083607005900831				
266.21630859375	0.2	545211	170	30	1	0	0	71	202	stimuli\Videos_short_600ms_horvertflip\3.single_push_with_finger_short_horvertflip_short_600ms.mp4	3.single_push_with_finger_short_horvertflip_short_600ms.mp4	303.04696171399223	303.655287811461	0.6083260974687619				
267.0166015625	0.2	546850	171	30	1	0	0	72	175	stimuli\Videos_short_600ms_horflip\87.single_stroke_top_to_bottom_with_plastic_brush_short_horflip_short_600ms.mp4	87.single_stroke_top_to_bottom_with_plastic_brush_short_horflip_short_600ms.mp4	303.84694775544494	304.4553234116213	0.6083756561763494				
267.81640625	0.2	548488	172	30	1	0	0	73	98	stimuli\Videos_short_600ms_horflip\17.repeated_touch_with_rolling_pin_short_horflip_short_600ms.mp4	17.repeated_touch_with_rolling_pin_short_horflip_short_600ms.mp4	304.646930571183	305.2552868730713	0.6083563018883069				
268.6162109375	0.2	550126	173	30	1	0	0	74	72	stimuli\Videos_short_600ms\75.(long)stroke_with_fingers_all_over_the_hand_short_short_600ms.mp4	75.(long)stroke_with_fingers_all_over_the_hand_short_short_600ms.mp4	305.44692453029916	306.0552488682872	0.6083243379880514				
269.41650390625	0.2	551765	174	30	1	0	0	75	207	stimuli\Videos_short_600ms_horvertflip\34.repeated_punch_with_hand_short_horvertflip_short_600ms.mp4	34.repeated_punch_with_hand_short_horvertflip_short_600ms.mp4	306.2469061730501	306.85528182922644	0.6083756561763494				
270.21630859375	0.2	553403	175	30	1	0	0	76	124	stimuli\Videos_short_600ms_horflip\40.repeated_push_with_finger_short_horflip_short_600ms.mp4	40.repeated_push_with_finger_short_horflip_short_600ms.mp4	307.0468925077496	307.6552775478233	0.6083850400736992				
271.01611328125	0.2	555041	176	30	1	0	0	77	101	stimuli\Videos_short_600ms_horflip\2.single_touch_with_finger_short_horflip_short_600ms.mp4	2.single_touch_with_finger_short_horflip_short_600ms.mp4	307.8472028801525	308.455272093433	0.608069213280487				
271.81640625	0.2	556680	177	30	1	0	0	78	217	stimuli\Videos_short_600ms_horvertflip\43.touch_top_to_bottom_with_sharp_wooden_stick_short_horvertflip_short_600ms.mp4	43.touch_top_to_bottom_with_sharp_wooden_stick_short_horvertflip_short_600ms.mp4	308.6469871678137	309.25525344293715	0.6082662751234693				
272.6162109375	0.2	558318	178	30	1	0	0	79	35	stimuli\Videos_short_600ms\41.injection_with_blunt_syringe_short_short_600ms.mp4	41.injection_with_blunt_syringe_short_short_600ms.mp4	309.44712159214237	310.05523948438986	0.6081178922474919				
273.416015625	0.2	559956	179	30	1	0	0	80	148	stimuli\Videos_short_600ms_horflip\62.touch_top_to_bottom_with_scissors_short_horflip_short_600ms.mp4	62.touch_top_to_bottom_with_scissors_short_horflip_short_600ms.mp4	310.2468636522656	310.8552275785703	0.6083639263047189				
274.21630859375	0.2	561595	180	30	1	0	0	81	327	stimuli\Videos_short_600ms_vertflip\61.single_hit_with_rolling_pin_short_vertflip_short_600ms.mp4	61.single_hit_with_rolling_pin_short_vertflip_short_600ms.mp4	311.046838843587	311.6552156727505	0.6083768291634897				
275.01611328125	0.2	563233	181	30	1	0	0	82	1	stimuli\Videos_short_600ms\10.single_touch_with_knife_short_short_600ms.mp4	10.single_touch_with_knife_short_short_600ms.mp4	311.84682693776745	312.455202300697	0.6083753629295643				
275.81640625	0.2	564872	182	30	1	0	0	83	23	stimuli\Videos_short_600ms\30.finger_pulling_back_another_finger_short_short_600ms.mp4	30.finger_pulling_back_another_finger_short_short_600ms.mp4	312.64682148337715	313.2551912746176	0.6083697912404205				
276.6162109375	0.2	566510	183	30	1	0	0	84	355	stimuli\Videos_short_600ms_vertflip\87.single_stroke_top_to_bottom_with_plastic_brush_short_vertflip_short_600ms.mp4	87.single_stroke_top_to_bottom_with_plastic_brush_short_vertflip_short_600ms.mp4	313.4468084045702	314.05517819581087	0.6083697912406478				
277.416015625	0.2	568148	184	30	1	0	0	85	12	stimuli\Videos_short_600ms\20.single_touch_with_screwdriver_short_short_600ms.mp4	20.single_touch_with_screwdriver_short_short_600ms.mp4	314.24680236368636	314.85516863596536	0.6083662722789995				
278.21630859375	0.2	569787	185	30	1	0	0	86	287	stimuli\Videos_short_600ms_vertflip\25.single_touch_with_stanley_knife_short_vertflip_short_600ms.mp4	25.single_touch_with_stanley_knife_short_vertflip_short_600ms.mp4	315.0467775550078	315.6551543841713	0.6083768291634897				
279.01611328125	0.2	571425	186	30	1	0	0	87	346	stimuli\Videos_short_600ms_vertflip\79.long_with_soft_brush_all_over_the_hand_short_vertflip_short_600ms.mp4	79.long_with_soft_brush_all_over_the_hand_short_vertflip_short_600ms.mp4	315.84676711542215	316.4551413053646	0.608374189942424				
279.81591796875	0.2	573063	187	30	1	0	0	88	310	stimuli\Videos_short_600ms_vertflip\46.scratching_top_to_bottom_with_finger_nails_short_vertflip_short_600ms.mp4	46.scratching_top_to_bottom_with_finger_nails_short_vertflip_short_600ms.mp4	316.6467572623301	317.25513291850643	0.6083756561763494				
280.6162109375	0.2	574702	188	30	1	0	0	89	178	stimuli\Videos_short_600ms_horflip\9.single_touch_with_hammer_short_horflip_short_600ms.mp4	9.single_touch_with_hammer_short_horflip_short_600ms.mp4	317.4467435970296	318.05512511814163	0.6083815211120509				
281.416015625	0.2	576340	189	30	1	0	0	90	206	stimuli\Videos_short_600ms_horvertflip\33.scratch_top_to_bottom_with_scissors_short_horvertflip_short_600ms.mp4	33.scratch_top_to_bottom_with_scissors_short_horvertflip_short_600ms.mp4	318.24676952004575	318.8551076406329	0.6083381205871774				
282.2158203125	0.2	577978	190	30	1	0	0	91	74	stimuli\Videos_short_600ms\77.tapping_with_all_fingers_short_short_600ms.mp4	77.tapping_with_all_fingers_short_short_600ms.mp4	319.04671949214344	319.65506963584903	0.6083501437055929				
283.01611328125	0.2	579617	191	30	1	0	0	92	161	stimuli\Videos_short_600ms_horflip\74.fingers_walking_from_top_to_bottom_short_horflip_short_600ms.mp4	74.fingers_walking_from_top_to_bottom_short_horflip_short_600ms.mp4	319.84670758632365	320.45508881418914	0.6083812278654932				
283.81591796875	0.2	581255	192	30	1	0	0	93	62	stimuli\Videos_short_600ms\66.stroke_top_to_bottom_with_sponge_short_short_600ms.mp4	66.stroke_top_to_bottom_with_sponge_short_short_600ms.mp4	320.64672324570233	321.25506664473164	0.6083433990293088				
284.61572265625	0.2	582893	193	30	1	0	0	94	305	stimuli\Videos_short_600ms_vertflip\41.injection_with_blunt_syringe_short_vertflip_short_600ms.mp4	41.injection_with_blunt_syringe_short_vertflip_short_600ms.mp4	321.4466996100109	322.05506294982206	0.6083633398111488				
285.416015625	0.2	584532	194	30	1	0	0	95	188	stimuli\Videos_short_600ms_horvertflip\17.repeated_touch_with_rolling_pin_short_horvertflip_short_600ms.mp4	17.repeated_touch_with_rolling_pin_short_horvertflip_short_600ms.mp4	322.2467237735466	322.8550466453007	0.608322871754126				
286.2158203125	0.2	586170	195	30	1	0	0	96	28	stimuli\Videos_short_600ms\35.single_punch_with_hand_short_short_600ms.mp4	35.single_punch_with_hand_short_short_600ms.mp4	323.04670658928467	323.6550432436379	0.608336654353252				
287.015625	0.2	587808	196	30	1	0	0	97	78	stimuli\Videos_short_600ms\80.stroke_with_sharp_stick_all_over_the_hand_short_short_600ms.mp4	80.stroke_with_sharp_stick_all_over_the_hand_short_short_600ms.mp4	323.8466984956733	324.45502078093364	0.6083222852603285	8.0	9.0	1.8545117631551875	0.0
322.0478515625	0.2	659554	197	30	2	0	0	0	26	stimuli\Videos_short_600ms\33.scratch_top_to_bottom_with_scissors_short_short_600ms.mp4	33.scratch_top_to_bottom_with_scissors_short_short_600ms.mp4	358.8795043073553	359.487852984827	0.6083486774716675				
322.84814453125	0.2	661193	198	30	2	0	0	1	200	stimuli\Videos_short_600ms_horvertflip\28.single_injection_with_sharp_needle_short_horvertflip_short_600ms.mp4	28.single_injection_with_sharp_needle_short_horvertflip_short_600ms.mp4	359.6794900555615	360.28781585978345	0.6083258042219768				
323.64794921875	0.2	662831	199	30	2	0	0	2	25	stimuli\Videos_short_600ms\32.single_(long)pinch_with_fingers_short_short_600ms.mp4	32.single_(long)pinch_with_fingers_short_short_600ms.mp4	360.4794775632481	361.08780190123616	0.6083243379880514				
324.44775390625	0.2	664469	200	30	2	0	0	3	273	stimuli\Videos_short_600ms_vertflip\12.repeated_touch_with_nail_file_short_vertflip_short_600ms.mp4	12.repeated_touch_with_nail_file_short_vertflip_short_600ms.mp4	361.27946507093475	361.88781961334234	0.6083545424075965				
325.248046875	0.2	666108	201	30	2	0	0	4	54	stimuli\Videos_short_600ms\59.single_push_with_long_side_pencil_short_short_600ms.mp4	59.single_push_with_long_side_pencil_short_short_600ms.mp4	362.07945404485554	362.6877786760904	0.6083246312348365				
326.0478515625	0.2	667746	202	30	2	0	0	5	210	stimuli\Videos_short_600ms_horvertflip\37.single_stab_with_nail_file_short_horvertflip_short_600ms.mp4	37.single_stab_with_nail_file_short_horvertflip_short_600ms.mp4	362.8794427255293	363.4879386128898	0.6084958873605046				
326.84765625	0.2	669384	203	30	2	0	0	6	177	stimuli\Videos_short_600ms_horflip\89.single_touch_with_plastic_brush_short_horflip_short_600ms.mp4	89.single_touch_with_plastic_brush_short_horflip_short_600ms.mp4	363.6794296467226	364.2877551576978	0.6083255109751917				
327.65625	0.2	671040	204	30	2	0	0	7	73	stimuli\Videos_short_600ms\76.tickle_with_fingers_from_top_to_bottom_short_short_600ms.mp4	76.tickle_with_fingers_from_top_to_bottom_short_short_600ms.mp4	364.4877682365045	365.0960817243615	0.6083134878570036				
328.4560546875	0.2	672678	205	30	2	0	0	8	282	stimuli\Videos_short_600ms_vertflip\20.single_touch_with_screwdriver_short_vertflip_short_600ms.mp4	20.single_touch_with_screwdriver_short_vertflip_short_600ms.mp4	365.2877384426308	365.8960372681479	0.6082988255170676				
329.25634765625	0.2	674317	206	30	2	0	0	9	298	stimuli\Videos_short_600ms_vertflip\35.single_punch_with_hand_short_vertflip_short_600ms.mp4	35.single_punch_with_hand_short_vertflip_short_600ms.mp4	366.0877274165514	366.6960491153184	0.6083216987669857				
330.05615234375	0.2	675955	207	30	2	0	0	10	97	stimuli\Videos_short_600ms_horflip\16.repeated_touch_with_plastic_brush_short_horflip_short_600ms.mp4	16.repeated_touch_with_plastic_brush_short_horflip_short_600ms.mp4	366.8877152174848	367.4960372094986	0.6083219920137708				
330.85595703125	0.2	677593	208	30	2	0	0	11	150	stimuli\Videos_short_600ms_horflip\64.repeated_touch_with_screwdriver_short_horflip_short_600ms.mp4	64.repeated_touch_with_screwdriver_short_horflip_short_600ms.mp4	367.68770301841846	368.2960273564065	0.6083243379880514				
331.65625	0.2	679232	209	30	2	0	0	12	297	stimuli\Videos_short_600ms_vertflip\34.repeated_punch_with_hand_short_vertflip_short_600ms.mp4	34.repeated_punch_with_hand_short_vertflip_short_600ms.mp4	368.4876922855858	369.0960113451317	0.60831905954592				
332.4560546875	0.2	680870	210	30	2	0	0	13	235	stimuli\Videos_short_600ms_horvertflip\6.single_touch_with_flat_hand_short_horvertflip_short_600ms.mp4	6.single_touch_with_flat_hand_short_horvertflip_short_600ms.mp4	369.28765398755513	369.8960009055461	0.6083469179909571				
333.255859375	0.2	682508	211	30	2	0	0	14	19	stimuli\Videos_short_600ms\27.single_push_with_a_plastic_whisk_short_short_600ms.mp4	27.single_push_with_a_plastic_whisk_short_short_600ms.mp4	370.08766671446574	370.695990759207	0.6083240447412663				
334.05615234375	0.2	684147	212	30	2	0	0	15	100	stimuli\Videos_short_600ms_horflip\19.single_touch_with_rolling_pin_short_horflip_short_600ms.mp4	19.single_touch_with_rolling_pin_short_horflip_short_600ms.mp4	370.887704074107	371.49597709390673	0.6082730197997535				
334.85595703125	0.2	685785	213	30	2	0	0	16	221	stimuli\Videos_short_600ms_horvertflip\47.(long)scratching_with_finger_nails_short_horvertflip_short_600ms.mp4	47.(long)scratching_with_finger_nails_short_horvertflip_short_600ms.mp4	371.68763733113747	372.29596460159337	0.6083272704559022				
335.65576171875	0.2	687423	214	30	2	0	1	17	383	stimuli\Targets_short_600ms_vertflip\hand-stroke_short_horvertflip_short_600ms.mp4	hand-stroke_short_horvertflip_short_600ms.mp4	372.4876295307729	373.0959515227864	0.6083219920135434				
336.4560546875	0.2	689062	215	30	2	0	0	18	14	stimuli\Videos_short_600ms\22.single_touch_with_metal_chopstick_short_short_600ms.mp4	22.single_touch_with_metal_chopstick_short_short_600ms.mp4	373.2876164519659	373.895940789954	0.6083243379880514				
337.255859375	0.2	690700	216	30	2	0	0	19	323	stimuli\Videos_short_600ms_vertflip\58.single_slap_with_pencil_short_vertflip_short_600ms.mp4	58.single_slap_with_pencil_short_vertflip_short_600ms.mp4	374.0876127570564	374.6959238989389	0.6083111418824956				
338.0556640625	0.2	692338	217	30	2	0	0	20	111	stimuli\Videos_short_600ms_horflip\29.single_pinch_with_tweezers_short_horflip_short_600ms.mp4	29.single_pinch_with_tweezers_short_horflip_short_600ms.mp4	374.88760231747074	375.4959140458468	0.6083117283760657				
338.85595703125	0.2	693977	218	30	2	0	0	21	20	stimuli\Videos_short_600ms\28.single_injection_with_sharp_needle_short_short_600ms.mp4	28.single_injection_with_sharp_needle_short_short_600ms.mp4	375.6875801480133	376.29587868028375	0.6082985322705099				
339.65576171875	0.2	695615	219	30	2	0	0	22	167	stimuli\Videos_short_600ms_horflip\8.single_touch_with_hairbrush_short_horflip_short_600ms.mp4	8.single_touch_with_hairbrush_short_horflip_short_600ms.mp4	376.4875752801165	377.09586765420454	0.6082923740880233				
340.45556640625	0.2	697253	220	30	2	0	1	23	381	stimuli\Targets_short_600ms_vertflip\finger-tap_short_horvertflip_short_600ms.mp4	finger-tap_short_horvertflip_short_600ms.mp4	377.28755868234816	377.89587011747744	0.6083114351292807				
341.255859375	0.2	698892	221	30	2	0	0	24	154	stimuli\Videos_short_600ms_horflip\68.stroke_top_to_bottom_with_shawl_short_horflip_short_600ms.mp4	68.stroke_top_to_bottom_with_shawl_short_horflip_short_600ms.mp4	378.0875450170479	378.6958684752956	0.6083234582476962				
342.0556640625	0.2	700530	222	30	2	0	1	25	367	stimuli\Targets_short_600ms_horflip\chopstick-silver-tap_short_horflip_short_600ms.mp4	chopstick-silver-tap_short_horflip_short_600ms.mp4	378.8875313517474	379.4958641938924	0.608332842145046				
342.85546875	0.2	702168	223	30	2	0	0	26	0	stimuli\Videos_short_600ms\1.repeated_touch_with_finger_fast_short_short_600ms.mp4	1.repeated_touch_with_finger_fast_short_short_600ms.mp4	379.68752061891496	380.2958525813194	0.6083319624044634				
343.65576171875	0.2	703807	224	30	2	0	0	27	315	stimuli\Videos_short_600ms_vertflip\50.single_(long)hard_push_with_thumb_short_vertflip_short_600ms.mp4	50.single_(long)hard_push_with_thumb_short_vertflip_short_600ms.mp4	380.4875087130952	381.0958312916025	0.608322578507341				
344.45556640625	0.2	705445	225	30	2	0	0	28	75	stimuli\Videos_short_600ms\78.single_stroke_top_to_bottom_with_soft_brush_short_short_600ms.mp4	78.single_stroke_top_to_bottom_with_soft_brush_short_short_600ms.mp4	381.2874944613011	381.895820265523	0.6083258042219768				
345.255859375	0.2	707084	226	30	2	0	0	29	5	stimuli\Videos_short_600ms\14.repeated_touch_with_pencil_short_short_600ms.mp4	14.repeated_touch_with_pencil_short_short_600ms.mp4	382.08748636768973	382.69580777320994	0.6083214055202006				
346.0556640625	0.2	708722	227	30	2	0	0	30	105	stimuli\Videos_short_600ms_horflip\23.single_push_with_a_spoon_short_horflip_short_600ms.mp4	23.single_push_with_a_spoon_short_horflip_short_600ms.mp4	382.8874718226489	383.4957926416755	0.6083208190266305				
346.85546875	0.2	710360	228	30	2	0	0	31	196	stimuli\Videos_short_600ms_horvertflip\24.single_stroke_top_to_bottom_with_a_spoon_short_horvertflip_short_600ms.mp4	24.single_stroke_top_to_bottom_with_a_spoon_short_horvertflip_short_600ms.mp4	383.68746343579073	384.2957895332595	0.6083260974687619				
347.65576171875	0.2	711999	229	30	2	0	0	32	59	stimuli\Videos_short_600ms\63.stroke_top_to_bottom_with_screwdriver_short_short_600ms.mp4	63.stroke_top_to_bottom_with_screwdriver_short_short_600ms.mp4	384.48743305542325	385.0957697097765	0.608336654353252				
348.45556640625	0.2	713637	230	30	2	0	0	33	268	stimuli\Videos_short_600ms_horvertflip\9.single_touch_with_hammer_short_horvertflip_short_600ms.mp4	9.single_touch_with_hammer_short_horvertflip_short_600ms.mp4	385.28743786467066	385.8957569242163	0.6083190595456927				
349.25537109375	0.2	715275	231	30	2	0	1	34	378	stimuli\Targets_short_600ms_vertflip\brush-stroke_short_horvertflip_short_600ms.mp4	brush-stroke_short_horvertflip_short_600ms.mp4	386.0874324102804	386.6957450183968	0.608312608116421				
350.0556640625	0.2	716914	232	30	2	0	0	35	189	stimuli\Videos_short_600ms_horvertflip\18.single_stroke_from_top_to_bottom_with_rolling_pin_short_horvertflip_short_600ms.mp4	18.single_stroke_from_top_to_bottom_with_rolling_pin_short_horvertflip_short_600ms.mp4	386.88738414185855	387.49573369907057	0.6083495572120228				
350.85546875	0.2	718552	233	30	2	0	0	36	117	stimuli\Videos_short_600ms_horflip\34.repeated_punch_with_hand_short_horflip_short_600ms.mp4	34.repeated_punch_with_hand_short_horflip_short_600ms.mp4	387.68737458201326	388.29572296623815	0.6083483842248825				
351.6552734375	0.2	720190	234	30	2	0	0	37	43	stimuli\Videos_short_600ms\49.repeated_slap_with_hand_short_short_600ms.mp4	49.repeated_slap_with_hand_short_short_600ms.mp4	388.4873773385332	389.09571135366514	0.608334015131959				
352.45556640625	0.2	721829	235	30	2	0	0	38	224	stimuli\Videos_short_600ms_horvertflip\5.repeated_tap_with_finger_moving_from_top_to_bottom_short_horvertflip_short_600ms.mp4	5.repeated_tap_with_finger_moving_from_top_to_bottom_short_horvertflip_short_600ms.mp4	389.2873809747932	389.8956938761564	0.608312901363206				
353.25537109375	0.2	723467	236	30	2	0	0	39	146	stimuli\Videos_short_600ms_horflip\60.single_push_with_tip_of_pencil_short_horflip_short_600ms.mp4	60.single_push_with_tip_of_pencil_short_horflip_short_600ms.mp4	390.0873649635184	390.6956822635837	0.6083173000652096				
354.05517578125	0.2	725105	237	30	2	0	0	40	184	stimuli\Videos_short_600ms_horvertflip\13.single_touch_with_pen_short_horvertflip_short_600ms.mp4	13.single_touch_with_pen_short_horvertflip_short_600ms.mp4	390.88734983198424	391.4956683050363	0.6083184730521225				
354.85546875	0.2	726744	238	30	2	0	0	41	353	stimuli\Videos_short_600ms_vertflip\85.touch_top_to_bottom_with_fabric_short_vertflip_short_600ms.mp4	85.touch_top_to_bottom_with_fabric_short_vertflip_short_600ms.mp4	391.6873502425297	392.2956355786946	0.6082853361649541				
355.66357421875	0.2	728399	239	30	2	0	0	42	351	stimuli\Videos_short_600ms_vertflip\83.single_stroke_top_to_bottom_with_cotton_bud_short_vertflip_short_600ms.mp4	83.single_stroke_top_to_bottom_with_cotton_bud_short_vertflip_short_600ms.mp4	392.49567475646586	393.1039829658803	0.6083082094144174				
356.46337890625	0.2	730037	240	30	2	0	0	43	228	stimuli\Videos_short_600ms_horvertflip\53.touch_top_to_bottom_with_knife_short_horvertflip_short_600ms.mp4	53.touch_top_to_bottom_with_knife_short_horvertflip_short_600ms.mp4	393.2956552262294	393.9039710600607	0.6083158338312842				
357.263671875	0.2	731676	241	30	2	0	0	44	289	stimuli\Videos_short_600ms_vertflip\27.single_push_with_a_plastic_whisk_short_vertflip_short_600ms.mp4	27.single_push_with_a_plastic_whisk_short_vertflip_short_600ms.mp4	394.0956356959932	394.7039556352795	0.6083199392862753				
358.0634765625	0.2	733314	242	30	2	0	0	45	265	stimuli\Videos_short_600ms_horvertflip\87.single_stroke_top_to_bottom_with_plastic_brush_short_horvertflip_short_600ms.mp4	87.single_stroke_top_to_bottom_with_plastic_brush_short_horvertflip_short_600ms.mp4	394.89563170783686	395.5039484214085	0.6083167135716394				
358.86328125	0.2	734952	243	30	2	0	0	46	229	stimuli\Videos_short_600ms_horvertflip\54.repeated_touch_with_knife_short_horvertflip_short_600ms.mp4	54.repeated_touch_with_knife_short_horvertflip_short_600ms.mp4	395.6956086586392	396.3039303574062	0.6083216987669857				
359.66357421875	0.2	736591	244	30	2	0	0	47	86	stimuli\Videos_short_600ms\88.repeated_stroke_with_plastic_brush_short_short_600ms.mp4	88.repeated_stroke_with_plastic_brush_short_short_600ms.mp4	396.4955988055472	397.10391786509285	0.6083190595456927				
360.46337890625	0.2	738229	245	30	2	0	1	48	363	stimuli\Targets_short_600ms\finger-tap_short_short_600ms.mp4	finger-tap_short_short_600ms.mp4	397.2955848469999	397.9039059592733	0.6083211122734156				
361.263671875	0.2	739868	246	30	2	0	0	49	147	stimuli\Videos_short_600ms_horflip\61.single_hit_with_rolling_pin_short_horflip_short_600ms.mp4	61.single_hit_with_rolling_pin_short_horflip_short_600ms.mp4	398.0955729411801	398.7038999183894	0.6083269772093445				
362.0634765625	0.2	741506	247	30	2	0	0	50	316	stimuli\Videos_short_600ms_vertflip\51.repeated_touch_with_hammer_short_vertflip_short_600ms.mp4	51.repeated_touch_with_hammer_short_vertflip_short_600ms.mp4	398.89556191510087	399.50388742607606	0.6083255109751917				
362.86328125	0.2	743144	248	30	2	0	0	51	241	stimuli\Videos_short_600ms_horvertflip\65.stroke_top_to_bottom_with_stanley_knife_short_horvertflip_short_600ms.mp4	65.stroke_top_to_bottom_with_stanley_knife_short_horvertflip_short_600ms.mp4	399.69554737006	400.3038810919454	0.6083337218854012				
363.66357421875	0.2	744783	249	30	2	0	0	52	301	stimuli\Videos_short_600ms_vertflip\38.double_slap_with_pencil_short_vertflip_short_600ms.mp4	38.double_slap_with_pencil_short_vertflip_short_600ms.mp4	400.4955363439808	401.10386302794313	0.608326683962332				
364.46337890625	0.2	746421	250	30	2	0	0	53	349	stimuli\Videos_short_600ms_vertflip\81.single_stroke_top_to_bottom_with_cotton_pad_short_vertflip_short_600ms.mp4	81.single_stroke_top_to_bottom_with_cotton_pad_short_vertflip_short_600ms.mp4	401.29552590439494	401.90386138576105	0.6083354813661117				
365.26318359375	0.2	748059	251	30	2	0	0	54	153	stimuli\Videos_short_600ms_horflip\67.single_touch_with_sponge_short_horflip_short_600ms.mp4	67.single_touch_with_sponge_short_horflip_short_600ms.mp4	402.09551839727715	402.7038371635763	0.608318766299135				
366.0634765625	0.2	749698	252	30	2	0	1	55	365	stimuli\Targets_short_600ms\hand-stroke_short_short_600ms.mp4	hand-stroke_short_short_600ms.mp4	402.8954994535345	403.50382379152256	0.6083243379880514				
366.86328125	0.2	751336	253	30	2	0	0	56	311	stimuli\Videos_short_600ms_vertflip\47.(long)scratching_with_finger_nails_short_vertflip_short_600ms.mp4	47.(long)scratching_with_finger_nails_short_vertflip_short_600ms.mp4	403.6954884274553	404.3038127654431	0.608324337987824				
367.6630859375	0.2	752974	254	30	2	0	0	57	42	stimuli\Videos_short_600ms\48.single_slap_with_hand_short_short_600ms.mp4	48.single_slap_with_hand_short_short_600ms.mp4	404.4954809203373	405.10380027313	0.6083193527927051				
368.46337890625	0.2	754613	255	30	2	0	0	58	259	stimuli\Videos_short_600ms_horvertflip\81.single_stroke_top_to_bottom_with_cotton_pad_short_horvertflip_short_600ms.mp4	81.single_stroke_top_to_bottom_with_cotton_pad_short_horvertflip_short_600ms.mp4	405.2954476075019	405.90378748756984	0.6083398800678879				
369.26318359375	0.2	756251	256	30	2	0	0	59	179	stimuli\Videos_short_600ms_horflip\90.repeated_touch_with_sponge_short_horflip_short_600ms.mp4	90.repeated_touch_with_sponge_short_horflip_short_600ms.mp4	406.09545270999615	406.7037749952567	0.6083222852605559				
370.06298828125	0.2	757889	257	30	2	0	0	60	119	stimuli\Videos_short_600ms_horflip\36.single_slap_with_full_hand_short_horflip_short_600ms.mp4	36.single_slap_with_full_hand_short_horflip_short_600ms.mp4	406.8954337662535	407.50376220969656	0.6083284434430425				
370.86328125	0.2	759528	258	30	2	0	0	61	309	stimuli\Videos_short_600ms_vertflip\45.scratching_with_finger_nails_short_vertflip_short_600ms.mp4	45.scratching_with_finger_nails_short_vertflip_short_600ms.mp4	407.6954371092668	408.3037520633577	0.608314954090929				
371.6630859375	0.2	761166	259	30	2	0	0	62	149	stimuli\Videos_short_600ms_horflip\63.stroke_top_to_bottom_with_screwdriver_short_horflip_short_600ms.mp4	63.stroke_top_to_bottom_with_screwdriver_short_horflip_short_600ms.mp4	408.495412887082	409.1037381048104	0.6083252177284066				
372.462890625	0.2	762804	260	30	2	0	0	63	296	stimuli\Videos_short_600ms_vertflip\33.scratch_top_to_bottom_with_scissors_short_vertflip_short_600ms.mp4	33.scratch_top_to_bottom_with_scissors_short_vertflip_short_600ms.mp4	409.295405673211	409.9037264922374	0.6083208190264031				
373.26318359375	0.2	764443	261	30	2	0	0	64	208	stimuli\Videos_short_600ms_horvertflip\35.single_punch_with_hand_short_horvertflip_short_600ms.mp4	35.single_punch_with_hand_short_horvertflip_short_600ms.mp4	410.0953925944041	410.7037098944693	0.6083173000652096				
374.06298828125	0.2	766081	262	30	2	0	0	65	87	stimuli\Videos_short_600ms\89.single_touch_with_plastic_brush_short_short_600ms.mp4	89.single_touch_with_plastic_brush_short_short_600ms.mp4	410.8953836210523	411.5036713031916	0.6082876821392347				
374.86279296875	0.2	767719	263	30	2	0	0	66	291	stimuli\Videos_short_600ms_vertflip\29.single_pinch_with_tweezers_short_vertflip_short_600ms.mp4	29.single_pinch_with_tweezers_short_vertflip_short_600ms.mp4	411.695354413672	412.30368490984256	0.608330496170538				
375.6630859375	0.2	769358	264	30	2	0	0	67	108	stimuli\Videos_short_600ms_horflip\26.single_touch_with_a_blunt_syringe_short_horflip_short_600ms.mp4	26.single_touch_with_a_blunt_syringe_short_horflip_short_600ms.mp4	412.49535277148993	413.103673004023	0.6083202325330603				
376.462890625	0.2	770996	265	30	2	0	0	68	134	stimuli\Videos_short_600ms_horflip\5.repeated_tap_with_finger_moving_from_top_to_bottom_short_horflip_short_600ms.mp4	5.repeated_tap_with_finger_moving_from_top_to_bottom_short_horflip_short_600ms.mp4	413.2953461441125	413.9036649104116	0.608318766299135				
377.2626953125	0.2	772634	266	30	2	0	0	69	10	stimuli\Videos_short_600ms\19.single_touch_with_rolling_pin_short_short_600ms.mp4	19.single_touch_with_rolling_pin_short_short_600ms.mp4	414.0953269071231	414.7036623884892	0.6083354813661117				
378.06298828125	0.2	774273	267	30	2	0	1	70	369	stimuli\Targets_short_600ms_horflip\finger-tap_short_horflip_short_600ms.mp4	finger-tap_short_horflip_short_600ms.mp4	414.89531852026494	415.5036457907208	0.6083272704559022				
378.86279296875	0.2	775911	268	30	2	0	0	71	331	stimuli\Videos_short_600ms_vertflip\65.stroke_top_to_bottom_with_stanley_knife_short_vertflip_short_600ms.mp4	65.stroke_top_to_bottom_with_stanley_knife_short_vertflip_short_600ms.mp4	415.6953030954837	416.3036286064589	0.6083255109751917				
379.6630859375	0.2	777550	269	30	2	0	0	72	230	stimuli\Videos_short_600ms_horvertflip\55.touch_top_to_bottom_with_nail_file_short_horvertflip_short_600ms.mp4	55.touch_top_to_bottom_with_nail_file_short_horvertflip_short_600ms.mp4	416.4952967613531	417.1036269642768	0.608330202923753				
380.462890625	0.2	779188	270	30	2	0	0	73	130	stimuli\Videos_short_600ms_horflip\46.scratching_top_to_bottom_with_finger_nails_short_horflip_short_600ms.mp4	46.scratching_top_to_bottom_with_finger_nails_short_horflip_short_600ms.mp4	417.2952807500783	417.9036047948195	0.6083240447412663				
381.2626953125	0.2	780826	271	30	2	0	1	74	369	stimuli\Targets_short_600ms_horflip\finger-tap_short_horflip_short_600ms.mp4	finger-tap_short_horflip_short_600ms.mp4	418.09526620503743	418.70359112951905	0.6083249244816216				
382.06298828125	0.2	782465	272	30	2	0	0	75	233	stimuli\Videos_short_600ms_horvertflip\58.single_slap_with_pencil_short_horvertflip_short_600ms.mp4	58.single_slap_with_pencil_short_horvertflip_short_600ms.mp4	418.895255472205	419.5035809831802	0.6083255109751917				
382.86279296875	0.2	784103	273	30	2	0	0	76	255	stimuli\Videos_short_600ms_horvertflip\78.single_stroke_top_to_bottom_with_soft_brush_short_horvertflip_short_600ms.mp4	78.single_stroke_top_to_bottom_with_soft_brush_short_horvertflip_short_600ms.mp4	419.69523916768344	420.3035667313861	0.6083275637026873				
383.66259765625	0.2	785741	274	30	2	0	0	77	162	stimuli\Videos_short_600ms_horflip\75.(long)stroke_with_fingers_all_over_the_hand_short_horflip_short_600ms.mp4	75.(long)stroke_with_fingers_all_over_the_hand_short_horflip_short_600ms.mp4	420.49523136731887	421.10355541206013	0.6083240447412663				
384.462890625	0.2	787380	275	30	2	0	0	78	264	stimuli\Videos_short_600ms_horvertflip\86.touch_top_to_bottom_with_hair_brush_short_horvertflip_short_600ms.mp4	86.touch_top_to_bottom_with_hair_brush_short_horvertflip_short_600ms.mp4	421.2952212209798	421.9035437994871	0.608322578507341				
385.2626953125	0.2	789018	276	30	2	0	0	79	357	stimuli\Videos_short_600ms_vertflip\89.single_touch_with_plastic_brush_short_vertflip_short_600ms.mp4	89.single_touch_with_plastic_brush_short_vertflip_short_600ms.mp4	422.095213713862	422.703531013927	0.6083173000649822				
386.0625	0.2	790656	277	30	2	0	0	80	4	stimuli\Videos_short_600ms\13.single_touch_with_pen_short_short_600ms.mp4	13.single_touch_with_pen_short_short_600ms.mp4	422.8951695508954	423.5035188148606	0.6083492639652377				
386.86279296875	0.2	792295	278	30	2	0	1	81	374	stimuli\Targets_short_600ms_horvertflip\chopstickwood-tap_short_vertflip_short_600ms.mp4	chopstickwood-tap_short_vertflip_short_600ms.mp4	423.69517729261065	424.3035057360537	0.6083284434430425				
387.66259765625	0.2	793933	279	30	2	0	0	82	278	stimuli\Videos_short_600ms_vertflip\17.repeated_touch_with_rolling_pin_short_vertflip_short_600ms.mp4	17.repeated_touch_with_rolling_pin_short_vertflip_short_600ms.mp4	424.4951788761432	425.1034897247789	0.6083108486357105				
388.46240234375	0.2	795571	280	30	2	0	0	83	258	stimuli\Videos_short_600ms_horvertflip\80.stroke_with_sharp_stick_all_over_the_hand_short_horvertflip_short_600ms.mp4	80.stroke_with_sharp_stick_all_over_the_hand_short_horvertflip_short_600ms.mp4	425.2952514253994	425.90346344986665	0.6082120244673206				
389.2626953125	0.2	797210	281	30	2	0	0	84	125	stimuli\Videos_short_600ms_horflip\41.injection_with_blunt_syringe_short_horflip_short_600ms.mp4	41.injection_with_blunt_syringe_short_horflip_short_600ms.mp4	426.09511811540824	426.703444506124	0.6083263907157743				
390.0625	0.2	798848	282	30	2	0	0	85	322	stimuli\Videos_short_600ms_vertflip\57.single_touch_with_nail_file_short_vertflip_short_600ms.mp4	57.single_touch_with_nail_file_short_vertflip_short_600ms.mp4	426.8951320153062	427.50343172056387	0.6082997052576502				
390.8623046875	0.2	800486	283	30	2	0	0	86	358	stimuli\Videos_short_600ms_vertflip\9.single_touch_with_hammer_short_vertflip_short_600ms.mp4	9.single_touch_with_hammer_short_vertflip_short_600ms.mp4	427.69512832039663	428.30342304045894	0.6082947200623039				
391.66259765625	0.2	802125	284	30	2	0	0	87	17	stimuli\Videos_short_600ms\25.single_touch_with_stanley_knife_short_short_600ms.mp4	25.single_touch_with_stanley_knife_short_short_600ms.mp4	428.4951058576926	429.1034325416549	0.608326683962332				
392.46240234375	0.2	803763	285	30	2	0	0	88	91	stimuli\Videos_short_600ms_horflip\10.single_touch_with_knife_short_horflip_short_600ms.mp4	10.single_touch_with_knife_short_horflip_short_600ms.mp4	429.2951144791482	429.9034308994728	0.608316420324627				
393.26220703125	0.2	805401	286	30	2	0	0	89	275	stimuli\Videos_short_600ms_vertflip\14.repeated_touch_with_pencil_short_vertflip_short_600ms.mp4	14.repeated_touch_with_pencil_short_vertflip_short_600ms.mp4	430.0950832190403	430.7034201666404	0.6083369476000371				
394.0625	0.2	807040	287	30	2	0	0	90	246	stimuli\Videos_short_600ms_horvertflip\7.repeated_touch_with_hairbrush_short_horvertflip_short_600ms.mp4	7.repeated_touch_with_hairbrush_short_horvertflip_short_600ms.mp4	430.895070726727	431.50339506471505	0.6083243379880514				
394.8623046875	0.2	808678	288	30	2	0	0	91	186	stimuli\Videos_short_600ms_horvertflip\15.single_stroke_top_to_bottom_with_a_plastic_whisk_short_horvertflip_short_600ms.mp4	15.single_stroke_top_to_bottom_with_a_plastic_whisk_short_horvertflip_short_600ms.mp4	431.695059407401	432.30338579811655	0.608326390715547				
395.662109375	0.2	810316	289	30	2	0	0	92	113	stimuli\Videos_short_600ms_horflip\30.finger_pulling_back_another_finger_short_horflip_short_600ms.mp4	30.finger_pulling_back_another_finger_short_horflip_short_600ms.mp4	432.4950457421005	433.1033715463225	0.6083258042219768				
396.46240234375	0.2	811955	290	30	2	0	0	93	126	stimuli\Videos_short_600ms_horflip\42.single_slap_with_plastic_whisk_short_horflip_short_600ms.mp4	42.single_slap_with_plastic_whisk_short_horflip_short_600ms.mp4	433.29503530251486	433.903357881022	0.6083225785071136				
397.26220703125	0.2	813593	291	30	2	0	0	94	270	stimuli\Videos_short_600ms_vertflip\1.repeated_touch_with_finger_fast_short_vertflip_short_600ms.mp4	1.repeated_touch_with_finger_fast_short_vertflip_short_600ms.mp4	434.0950263291629	434.70334890767026	0.608322578507341				
398.06201171875	0.2	815231	292	30	2	0	0	95	171	stimuli\Videos_short_600ms_horflip\83.single_stroke_top_to_bottom_with_cotton_bud_short_horflip_short_600ms.mp4	83.single_stroke_top_to_bottom_with_cotton_bud_short_horflip_short_600ms.mp4	434.895009144901	435.50333524236976	0.6083260974687619				
398.8623046875	0.2	816870	293	30	2	0	0	96	321	stimuli\Videos_short_600ms_vertflip\56.repeated_touch_with_nail_file_short_vertflip_short_600ms.mp4	56.repeated_touch_with_nail_file_short_vertflip_short_600ms.mp4	435.69499665258786	436.30332245680984	0.6083258042219768				
399.662109375	0.2	818508	294	30	2	0	0	97	232	stimuli\Videos_short_600ms_horvertflip\57.single_touch_with_nail_file_short_horvertflip_short_600ms.mp4	57.single_touch_with_nail_file_short_horvertflip_short_600ms.mp4	436.4949885589763	437.10330879150933	0.6083202325330603				
400.46240234375	0.2	820147	295	30	2	0	0	98	21	stimuli\Videos_short_600ms\29.single_pinch_with_tweezers_short_short_600ms.mp4	29.single_pinch_with_tweezers_short_short_600ms.mp4	437.2949467419842	437.9032954194556	0.6083486774714402	9.0	9.0	1.8134768600423288	1.0
436.1279296875	0.2	893190	296	30	3	0	0	0	16	stimuli\Videos_short_600ms\24.single_stroke_top_to_bottom_with_a_spoon_short_short_600ms.mp4	24.single_stroke_top_to_bottom_with_a_spoon_short_short_600ms.mp4	472.9610902563768	473.5694137146245	0.6083234582476962				
436.927734375	0.2	894828	297	30	3	0	0	1	238	stimuli\Videos_short_600ms_horvertflip\62.touch_top_to_bottom_with_scissors_short_horvertflip_short_600ms.mp4	62.touch_top_to_bottom_with_scissors_short_horvertflip_short_600ms.mp4	473.7610786438038	474.3694012223111	0.608322578507341				
437.7275390625	0.2	896466	298	30	3	0	0	2	133	stimuli\Videos_short_600ms_horflip\49.repeated_slap_with_hand_short_horflip_short_600ms.mp4	49.repeated_slap_with_hand_short_horflip_short_600ms.mp4	474.561067031231	475.1693893164915	0.6083222852605559				
438.52783203125	0.2	898105	299	30	3	0	0	3	324	stimuli\Videos_short_600ms_vertflip\59.single_push_with_long_side_pencil_short_vertflip_short_600ms.mp4	59.single_push_with_long_side_pencil_short_vertflip_short_600ms.mp4	475.3610530726837	475.9693768241782	0.6083237514944813				
439.32763671875	0.2	899743	300	30	3	0	0	4	123	stimuli\Videos_short_600ms_horflip\4.repeated_tap_with_finger_slow_short_horflip_short_600ms.mp4	4.repeated_tap_with_finger_slow_short_horflip_short_600ms.mp4	476.16103647491536	476.7693655048522	0.60832902993684				
440.12744140625	0.2	901381	301	30	3	0	0	5	142	stimuli\Videos_short_600ms_horflip\57.single_touch_with_nail_file_short_horflip_short_600ms.mp4	57.single_touch_with_nail_file_short_horflip_short_600ms.mp4	476.96107911299873	477.56935242604527	0.6082733130465385				
440.927734375	0.2	903020	302	30	3	0	0	6	56	stimuli\Videos_short_600ms\60.single_push_with_tip_of_pencil_short_short_600ms.mp4	60.single_push_with_tip_of_pencil_short_short_600ms.mp4	477.76101999444586	478.3693390539915	0.6083190595456927				
441.7275390625	0.2	904658	303	30	3	0	0	7	169	stimuli\Videos_short_600ms_horflip\81.single_stroke_top_to_bottom_with_cotton_pad_short_horflip_short_600ms.mp4	81.single_stroke_top_to_bottom_with_cotton_pad_short_horflip_short_600ms.mp4	478.5610033966775	479.1693274414188	0.6083240447412663				
442.52734375	0.2	906296	304	30	3	0	0	8	199	stimuli\Videos_short_600ms_horvertflip\27.single_push_with_a_plastic_whisk_short_horvertflip_short_600ms.mp4	27.single_push_with_a_plastic_whisk_short_horvertflip_short_600ms.mp4	479.36100146124863	479.969315535599	0.6083140743503463				
443.32763671875	0.2	907935	305	30	3	0	0	9	274	stimuli\Videos_short_600ms_vertflip\13.single_touch_with_pen_short_vertflip_short_600ms.mp4	13.single_touch_with_pen_short_vertflip_short_600ms.mp4	480.1609822242592	480.76930304328584	0.6083208190266305				
444.12744140625	0.2	909573	306	30	3	0	0	10	71	stimuli\Videos_short_600ms\74.fingers_walking_from_top_to_bottom_short_short_600ms.mp4	74.fingers_walking_from_top_to_bottom_short_short_600ms.mp4	480.9609629872698	481.56928732525785	0.6083243379880514				
444.92724609375	0.2	911211	307	30	3	0	0	11	118	stimuli\Videos_short_600ms_horflip\35.single_punch_with_hand_short_horflip_short_600ms.mp4	35.single_punch_with_hand_short_horflip_short_600ms.mp4	481.7609633978152	482.3692745396977	0.6083111418824956				
445.7275390625	0.2	912850	308	30	3	0	0	12	222	stimuli\Videos_short_600ms_horvertflip\48.single_slap_with_hand_short_horvertflip_short_600ms.mp4	48.single_slap_with_hand_short_horvertflip_short_600ms.mp4	482.5609418148515	483.1692661528395	0.6083243379880514				
446.52734375	0.2	914488	309	30	3	0	0	13	295	stimuli\Videos_short_600ms_vertflip\32.single_(long)pinch_with_fingers_short_vertflip_short_600ms.mp4	32.single_(long)pinch_with_fingers_short_vertflip_short_600ms.mp4	483.360936653708	483.96922756156187	0.6082909078538705				
447.3271484375	0.2	916126	310	30	3	0	0	14	338	stimuli\Videos_short_600ms_vertflip\71.single_stroke_with_finger_top_to_bottom_short_vertflip_short_600ms.mp4	71.single_stroke_with_finger_top_to_bottom_short_vertflip_short_600ms.mp4	484.1609150707443	484.76921888145694	0.6083038107126413				
448.12744140625	0.2	917765	311	30	3	0	0	15	139	stimuli\Videos_short_600ms_horflip\54.repeated_touch_with_knife_short_horflip_short_600ms.mp4	54.repeated_touch_with_knife_short_horflip_short_600ms.mp4	484.96090404466486	485.5692324881081	0.6083284434432699				
448.92724609375	0.2	919403	312	30	3	0	0	16	2	stimuli\Videos_short_600ms\11.single_touch_with_lighter_short_short_600ms.mp4	11.single_touch_with_lighter_short_short_600ms.mp4	485.760889792871	486.3692199957948	0.608330202923753				
449.72705078125	0.2	921041	313	30	3	0	0	17	256	stimuli\Videos_short_600ms_horvertflip\79.long_with_soft_brush_all_over_the_hand_short_horvertflip_short_600ms.mp4	79.long_with_soft_brush_all_over_the_hand_short_horvertflip_short_600ms.mp4	486.5608790600384	487.1692133684174	0.6083343083789714				
450.52734375	0.2	922680	314	30	3	0	0	18	306	stimuli\Videos_short_600ms_vertflip\42.single_slap_with_plastic_whisk_short_vertflip_short_600ms.mp4	42.single_slap_with_plastic_whisk_short_vertflip_short_600ms.mp4	487.3608671542188	487.96919061246626	0.6083234582474688				
451.3271484375	0.2	924318	315	30	3	0	0	19	8	stimuli\Videos_short_600ms\17.repeated_touch_with_rolling_pin_short_short_600ms.mp4	17.repeated_touch_with_rolling_pin_short_short_600ms.mp4	488.160855248399	488.7691775336595	0.6083222852605559				
452.126953125	0.2	925956	316	30	3	0	0	20	93	stimuli\Videos_short_600ms_horflip\12.repeated_touch_with_nail_file_short_horflip_short_600ms.mp4	12.repeated_touch_with_nail_file_short_horflip_short_600ms.mp4	488.96080522049647	489.56917383875	0.6083686182535075				
452.92724609375	0.2	927595	317	30	3	0	0	21	27	stimuli\Videos_short_600ms\34.repeated_punch_with_hand_short_short_600ms.mp4	34.repeated_punch_with_hand_short_short_600ms.mp4	489.7608305570193	490.36915254903306	0.6083219920137708				
453.72705078125	0.2	929233	318	30	3	0	0	22	36	stimuli\Videos_short_600ms\42.single_slap_with_plastic_whisk_short_short_600ms.mp4	42.single_slap_with_plastic_whisk_short_short_600ms.mp4	490.5608174782123	491.1691421094472	0.6083246312348365				
454.52685546875	0.2	930871	319	30	3	0	1	23	366	stimuli\Targets_short_600ms_horflip\brush-stroke_short_horflip_short_600ms.mp4	brush-stroke_short_horflip_short_600ms.mp4	491.3608073318735	491.96910908985865	0.6083017579851457				
455.3271484375	0.2	932510	320	30	3	0	0	24	53	stimuli\Videos_short_600ms\58.single_slap_with_pencil_short_short_600ms.mp4	58.single_slap_with_pencil_short_short_600ms.mp4	492.1607675676087	492.7691171248207	0.6083495572120228				
456.126953125	0.2	934148	321	30	3	0	0	25	89	stimuli\Videos_short_600ms\90.repeated_touch_with_sponge_short_short_600ms.mp4	90.repeated_touch_with_sponge_short_short_600ms.mp4	492.9607518495807	493.5691386491351	0.6083867995544097				
456.92724609375	0.2	935787	322	30	3	0	0	26	359	stimuli\Videos_short_600ms_vertflip\90.repeated_touch_with_sponge_short_vertflip_short_600ms.mp4	90.repeated_touch_with_sponge_short_vertflip_short_600ms.mp4	493.760749620905	494.3690915537006	0.6083419327956108				
457.72705078125	0.2	937425	323	30	3	0	0	27	173	stimuli\Videos_short_600ms_horflip\85.touch_top_to_bottom_with_fabric_short_horflip_short_600ms.mp4	85.touch_top_to_bottom_with_fabric_short_horflip_short_600ms.mp4	494.560750911191	495.16905912060565	0.6083082094146448				
458.52685546875	0.2	939063	324	30	3	0	0	28	284	stimuli\Videos_short_600ms_vertflip\22.single_touch_with_metal_chopstick_short_vertflip_short_600ms.mp4	22.single_touch_with_metal_chopstick_short_vertflip_short_600ms.mp4	495.3607495622557	495.9690671555677	0.6083175933119946				
459.3271484375	0.2	940702	325	30	3	0	0	29	181	stimuli\Videos_short_600ms_horvertflip\10.single_touch_with_knife_short_horvertflip_short_600ms.mp4	10.single_touch_with_knife_short_horvertflip_short_600ms.mp4	496.1607951328069	496.7690573024754	0.6082621696684782				
460.126953125	0.2	942340	326	30	3	0	1	30	364	stimuli\Targets_short_600ms\hand-pinch_short_short_600ms.mp4	hand-pinch_short_short_600ms.mp4	496.96074422516426	497.5690236963933	0.6082794712290251				
460.9267578125	0.2	943978	327	30	3	0	0	31	313	stimuli\Videos_short_600ms_vertflip\49.repeated_slap_with_hand_short_vertflip_short_600ms.mp4	49.repeated_slap_with_hand_short_vertflip_short_600ms.mp4	497.7607082731077	498.3690264529132	0.6083181798055648				
461.72705078125	0.2	945617	328	30	3	0	0	32	267	stimuli\Videos_short_600ms_horvertflip\89.single_touch_with_plastic_brush_short_horvertflip_short_600ms.mp4	89.single_touch_with_plastic_brush_short_horvertflip_short_600ms.mp4	498.560697833522	499.1689934333244	0.6082955998024318				
462.52685546875	0.2	947255	329	30	3	0	0	33	329	stimuli\Videos_short_600ms_vertflip\63.stroke_top_to_bottom_with_screwdriver_short_vertflip_short_600ms.mp4	63.stroke_top_to_bottom_with_screwdriver_short_vertflip_short_600ms.mp4	499.3606812357537	499.9690052804949	0.6083240447412663				
463.32666015625	0.2	948893	330	30	3	0	0	34	345	stimuli\Videos_short_600ms_vertflip\78.single_stroke_top_to_bottom_with_soft_brush_short_vertflip_short_600ms.mp4	78.single_stroke_top_to_bottom_with_soft_brush_short_vertflip_short_600ms.mp4	500.1606901504561	500.7689954274026	0.6083052769465667				
464.126953125	0.2	950532	331	30	3	0	0	35	37	stimuli\Videos_short_600ms\43.touch_top_to_bottom_with_sharp_wooden_stick_short_short_600ms.mp4	43.touch_top_to_bottom_with_sharp_wooden_stick_short_short_600ms.mp4	500.96065654437393	501.5689879202848	0.6083313759108933				
464.9267578125	0.2	952170	332	30	3	0	0	36	145	stimuli\Videos_short_600ms_horflip\6.single_touch_with_flat_hand_short_horflip_short_600ms.mp4	6.single_touch_with_flat_hand_short_horflip_short_600ms.mp4	501.760643465567	502.3689763077121	0.608332842145046				
465.73486328125	0.2	953825	333	30	3	0	0	37	76	stimuli\Videos_short_600ms\79.long_with_soft_brush_all_over_the_hand_short_short_600ms.mp4	79.long_with_soft_brush_all_over_the_hand_short_short_600ms.mp4	502.5689841080766	503.1772621130717	0.6082780049950998				
466.53515625	0.2	955464	334	30	3	0	0	38	244	stimuli\Videos_short_600ms_horvertflip\68.stroke_top_to_bottom_with_shawl_short_horvertflip_short_600ms.mp4	68.stroke_top_to_bottom_with_shawl_short_horvertflip_short_600ms.mp4	503.3689531412156	503.9772496207586	0.6082964795430144				
467.3349609375	0.2	957102	335	30	3	0	0	39	225	stimuli\Videos_short_600ms_horvertflip\50.single_(long)hard_push_with_thumb_short_horvertflip_short_600ms.mp4	50.single_(long)hard_push_with_thumb_short_horvertflip_short_600ms.mp4	504.16894211513613	504.7772400609131	0.6082979457769397				
468.134765625	0.2	958740	336	30	3	0	0	40	336	stimuli\Videos_short_600ms_vertflip\7.repeated_touch_with_hairbrush_short_vertflip_short_600ms.mp4	7.repeated_touch_with_hairbrush_short_vertflip_short_600ms.mp4	504.9689290363294	505.57725132159	0.6083222852605559				
468.93505859375	0.2	960379	337	30	3	0	0	41	135	stimuli\Videos_short_600ms_horflip\50.single_(long)hard_push_with_thumb_short_horflip_short_600ms.mp4	50.single_(long)hard_push_with_thumb_short_horflip_short_600ms.mp4	505.7689508538906	506.37724879966754	0.6082979457769397				
469.73486328125	0.2	962017	338	30	3	0	0	42	77	stimuli\Videos_short_600ms\8.single_touch_with_hairbrush_short_short_600ms.mp4	8.single_touch_with_hairbrush_short_short_600ms.mp4	506.5689169545617	507.1772462777451	0.6083293231833977				
470.53466796875	0.2	963655	339	30	3	0	0	43	159	stimuli\Videos_short_600ms_horflip\72.(short)stroke_with_finger_all_over_the_hand_short_horflip_short_600ms.mp4	72.(short)stroke_with_finger_all_over_the_hand_short_horflip_short_600ms.mp4	507.3688900931557	507.9772141378969	0.6083240447412663				
471.3349609375	0.2	965294	340	30	3	0	0	44	115	stimuli\Videos_short_600ms_horflip\32.single_(long)pinch_with_fingers_short_horflip_short_600ms.mp4	32.single_(long)pinch_with_fingers_short_horflip_short_600ms.mp4	508.16887642785514	508.7772086835066	0.6083322556514759				
472.134765625	0.2	966932	341	30	3	0	1	45	365	stimuli\Targets_short_600ms\hand-stroke_short_short_600ms.mp4	hand-stroke_short_short_600ms.mp4	508.9688648152824	509.57718798028327	0.6083231650009111				
472.93505859375	0.2	968571	342	30	3	0	0	46	18	stimuli\Videos_short_600ms\26.single_touch_with_a_blunt_syringe_short_short_600ms.mp4	26.single_touch_with_a_blunt_syringe_short_short_600ms.mp4	509.76885320270935	510.3771751947231	0.6083219920137708				
473.73486328125	0.2	970209	343	30	3	0	0	47	350	stimuli\Videos_short_600ms_vertflip\82.repeated_touch_with_cotton_bud_short_vertflip_short_600ms.mp4	82.repeated_touch_with_cotton_bud_short_vertflip_short_600ms.mp4	510.5688380711749	511.17716094292905	0.608322871754126				
474.53466796875	0.2	971847	344	30	3	0	0	48	194	stimuli\Videos_short_600ms_horvertflip\22.single_touch_with_metal_chopstick_short_horvertflip_short_600ms.mp4	22.single_touch_with_metal_chopstick_short_horvertflip_short_600ms.mp4	511.3688270450957	511.9771505033434	0.6083234582476962				
475.3349609375	0.2	973486	345	30	3	0	0	49	168	stimuli\Videos_short_600ms_horflip\80.stroke_with_sharp_stick_all_over_the_hand_short_horflip_short_600ms.mp4	80.stroke_with_sharp_stick_all_over_the_hand_short_horflip_short_600ms.mp4	512.1688148460291	512.7771362515493	0.6083214055202006				
476.134765625	0.2	975124	346	30	3	0	0	50	65	stimuli\Videos_short_600ms\69.stroke_with_soft_sock_short_short_600ms.mp4	69.stroke_with_soft_sock_short_short_600ms.mp4	512.9687809467002	513.5771258119637	0.6083448652634615				
476.9345703125	0.2	976762	347	30	3	0	0	51	106	stimuli\Videos_short_600ms_horflip\24.single_stroke_top_to_bottom_with_a_spoon_short_horflip_short_600ms.mp4	24.single_stroke_top_to_bottom_with_a_spoon_short_horflip_short_600ms.mp4	513.7687649354255	514.3771115601696	0.608346624744172				
477.73486328125	0.2	978401	348	30	3	0	0	52	116	stimuli\Videos_short_600ms_horflip\33.scratch_top_to_bottom_with_scissors_short_horflip_short_600ms.mp4	33.scratch_top_to_bottom_with_scissors_short_horflip_short_600ms.mp4	514.5687797150638	515.177100827337	0.6083211122731882				
478.53466796875	0.2	980039	349	30	3	0	0	53	348	stimuli\Videos_short_600ms_vertflip\80.stroke_with_sharp_stick_all_over_the_hand_short_vertflip_short_600ms.mp4	80.stroke_with_sharp_stick_all_over_the_hand_short_vertflip_short_600ms.mp4	515.3687628240486	515.9770874552835	0.6083246312348365				
479.33447265625	0.2	981677	350	30	3	0	0	54	132	stimuli\Videos_short_600ms_horflip\48.single_slap_with_hand_short_horflip_short_600ms.mp4	48.single_slap_with_hand_short_horflip_short_600ms.mp4	516.1687588358923	516.7770790684253	0.6083202325330603				
480.134765625	0.2	983316	351	30	3	0	0	55	40	stimuli\Videos_short_600ms\46.scratching_top_to_bottom_with_finger_nails_short_short_600ms.mp4	46.scratching_top_to_bottom_with_finger_nails_short_short_600ms.mp4	516.9687428246175	517.577066576112	0.6083237514944813				
480.9345703125	0.2	984954	352	30	3	0	0	56	342	stimuli\Videos_short_600ms_vertflip\75.(long)stroke_with_fingers_all_over_the_hand_short_vertflip_short_600ms.mp4	75.(long)stroke_with_fingers_all_over_the_hand_short_vertflip_short_600ms.mp4	517.7687361972401	518.3770259321068	0.6082897348667302				
481.734375	0.2	986592	353	30	3	0	0	57	9	stimuli\Videos_short_600ms\18.single_stroke_from_top_to_bottom_with_rolling_pin_short_short_600ms.mp4	18.single_stroke_from_top_to_bottom_with_rolling_pin_short_short_600ms.mp4	518.5687160805103	519.177035140056	0.6083190595456927				
482.53466796875	0.2	988231	354	30	3	0	0	58	197	stimuli\Videos_short_600ms_horvertflip\25.single_touch_with_stanley_knife_short_horvertflip_short_600ms.mp4	25.single_touch_with_stanley_knife_short_horvertflip_short_600ms.mp4	519.3687141450814	519.9770220612493	0.6083079161678597				
483.33447265625	0.2	989869	355	30	3	0	0	59	99	stimuli\Videos_short_600ms_horflip\18.single_stroke_from_top_to_bottom_with_rolling_pin_short_horflip_short_600ms.mp4	18.single_stroke_from_top_to_bottom_with_rolling_pin_short_horflip_short_600ms.mp4	520.1686916823774	520.7770169001058	0.6083252177284066				
484.13427734375	0.2	991507	356	30	3	0	0	60	356	stimuli\Videos_short_600ms_vertflip\88.repeated_stroke_with_plastic_brush_short_vertflip_short_600ms.mp4	88.repeated_stroke_with_plastic_brush_short_vertflip_short_600ms.mp4	520.9686815360383	521.5770240553275	0.6083425192891809				
484.9345703125	0.2	993146	357	30	3	0	0	61	319	stimuli\Videos_short_600ms_vertflip\54.repeated_touch_with_knife_short_vertflip_short_600ms.mp4	54.repeated_touch_with_knife_short_vertflip_short_600ms.mp4	521.7686696302187	522.3769966074278	0.6083269772091171				
485.734375	0.2	994784	358	30	3	0	0	62	304	stimuli\Videos_short_600ms_vertflip\40.repeated_push_with_finger_short_vertflip_short_600ms.mp4	40.repeated_push_with_finger_short_vertflip_short_600ms.mp4	522.5686527392036	523.1769753177109	0.608322578507341				
486.5341796875	0.2	996422	359	30	3	0	0	63	237	stimuli\Videos_short_600ms_horvertflip\61.single_hit_with_rolling_pin_short_horvertflip_short_600ms.mp4	61.single_hit_with_rolling_pin_short_horvertflip_short_600ms.mp4	523.3686428861113	523.9769766079967	0.6083337218854012				
487.33447265625	0.2	998061	360	30	3	0	0	64	269	stimuli\Videos_short_600ms_horvertflip\90.repeated_touch_with_sponge_short_horvertflip_short_600ms.mp4	90.repeated_touch_with_sponge_short_horvertflip_short_600ms.mp4	524.1686312735385	524.7769488668503	0.6083175933117673				
488.13427734375	0.2	999699	361	30	3	0	0	65	195	stimuli\Videos_short_600ms_horvertflip\23.single_push_with_a_spoon_short_horvertflip_short_600ms.mp4	23.single_push_with_a_spoon_short_horvertflip_short_600ms.mp4	524.9686155555105	525.5769381340178	0.608322578507341				
488.93408203125	0.2	1001337	362	30	3	0	0	66	48	stimuli\Videos_short_600ms\53.touch_top_to_bottom_with_knife_short_short_600ms.mp4	53.touch_top_to_bottom_with_knife_short_short_600ms.mp4	525.7686042361845	526.3769256417045	0.6083214055199733				
489.734375	0.2	1002976	363	30	3	0	0	67	61	stimuli\Videos_short_600ms\65.stroke_top_to_bottom_with_stanley_knife_short_short_600ms.mp4	65.stroke_top_to_bottom_with_stanley_knife_short_short_600ms.mp4	526.5685715098425	527.1769137358849	0.6083422260423959				
490.5341796875	0.2	1004614	364	30	3	0	0	68	156	stimuli\Videos_short_600ms_horflip\7.repeated_touch_with_hairbrush_short_horflip_short_600ms.mp4	7.repeated_touch_with_hairbrush_short_horflip_short_600ms.mp4	527.3685546188274	527.9769012435715	0.608346624744172				
491.33447265625	0.2	1006253	365	30	3	0	0	69	57	stimuli\Videos_short_600ms\61.single_hit_with_rolling_pin_short_short_600ms.mp4	61.single_hit_with_rolling_pin_short_short_600ms.mp4	528.16853978054	528.7768884580114	0.6083486774714402				
492.13427734375	0.2	1007891	366	30	3	0	0	70	182	stimuli\Videos_short_600ms_horvertflip\11.single_touch_with_lighter_short_horvertflip_short_600ms.mp4	11.single_touch_with_lighter_short_horvertflip_short_600ms.mp4	528.9685278747202	529.5768768454386	0.6083489707184526				
492.93408203125	0.2	1009529	367	30	3	0	0	71	220	stimuli\Videos_short_600ms_horvertflip\46.scratching_top_to_bottom_with_finger_nails_short_horvertflip_short_600ms.mp4	46.scratching_top_to_bottom_with_finger_nails_short_horvertflip_short_600ms.mp4	529.76851508916	530.3768631801381	0.6083480909780974				
493.734375	0.2	1011168	368	30	3	0	0	72	34	stimuli\Videos_short_600ms\40.repeated_push_with_finger_short_short_600ms.mp4	40.repeated_push_with_finger_short_short_600ms.mp4	530.5685023036001	531.1768521540589	0.6083498504588079				
494.5341796875	0.2	1012806	369	30	3	0	0	73	128	stimuli\Videos_short_600ms_horflip\44.pushing_top_to_bottom_with_finger_short_horflip_short_600ms.mp4	44.pushing_top_to_bottom_with_finger_short_horflip_short_600ms.mp4	531.3685214819402	531.9768384887584	0.6083170068181971				
495.333984375	0.2	1014444	370	30	3	0	0	74	52	stimuli\Videos_short_600ms\57.single_touch_with_nail_file_short_short_600ms.mp4	57.single_touch_with_nail_file_short_short_600ms.mp4	532.168514561316	532.7768265829388	0.6083120216228508				
496.13427734375	0.2	1016083	371	30	3	0	0	75	58	stimuli\Videos_short_600ms\62.touch_top_to_bottom_with_scissors_short_short_600ms.mp4	62.touch_top_to_bottom_with_scissors_short_short_600ms.mp4	532.9685026554962	533.576810571664	0.6083079161678597				
496.93408203125	0.2	1017721	372	30	3	0	0	76	109	stimuli\Videos_short_600ms_horflip\27.single_push_with_a_plastic_whisk_short_horflip_short_600ms.mp4	27.single_push_with_a_plastic_whisk_short_horflip_short_600ms.mp4	533.768479019805	534.3767980793507	0.6083190595456927				
497.73388671875	0.2	1019359	373	30	3	0	0	77	198	stimuli\Videos_short_600ms_horvertflip\26.single_touch_with_a_blunt_syringe_short_horvertflip_short_600ms.mp4	26.single_touch_with_a_blunt_syringe_short_horvertflip_short_600ms.mp4	534.5691190016003	535.176784707297	0.6076657056967179				
498.5341796875	0.2	1020998	374	30	3	0	0	78	180	stimuli\Videos_short_600ms_horvertflip\1.repeated_touch_with_finger_fast_short_horvertflip_short_600ms.mp4	1.repeated_touch_with_finger_fast_short_horvertflip_short_600ms.mp4	535.3684299889417	535.9767783731663	0.6083483842246551				
499.333984375	0.2	1022636	375	30	3	0	0	79	279	stimuli\Videos_short_600ms_vertflip\18.single_stroke_from_top_to_bottom_with_rolling_pin_short_vertflip_short_600ms.mp4	18.single_stroke_from_top_to_bottom_with_rolling_pin_short_vertflip_short_600ms.mp4	536.1684415428651	536.7767655876064	0.6083240447412663				
