onset	duration	onsetsample	eventnumber	subjectnr	sequencenumber	blocksequencenumber	istarget	presentationnumber	stimnumber	stim	stimname	time_stimon	time_stimoff	stimdur	cresp	resp	rt	correct
9.70703125	0.2	19880	0	34	0	0	0	0	241	stimuli\Videos_short_600ms_horvertflip\65.stroke_top_to_bottom_with_stanley_knife_short_horvertflip_short_600ms.mp4	65.stroke_top_to_bottom_with_stanley_knife_short_horvertflip_short_600ms.mp4	45.96581915155048	46.57414975282427	0.6083306012737921	n/a	n/a	n/a	n/a
10.5068359375	0.2	21518	1	34	0	0	0	1	209	stimuli\Videos_short_600ms_horvertflip\36.single_slap_with_full_hand_short_horvertflip_short_600ms.mp4	36.single_slap_with_full_hand_short_horvertflip_short_600ms.mp4	46.76579985607577	47.37409585452269	0.6082959984469198	n/a	n/a	n/a	n/a
11.306640625	0.2	23156	2	34	0	0	0	2	247	stimuli\Videos_short_600ms_horvertflip\70.(long)stroke_with_finger_all_over_the_hand_short_horvertflip_short_600ms.mp4	70.(long)stroke_with_finger_all_over_the_hand_short_horvertflip_short_600ms.mp4	47.56575798078984	48.17408711584267	0.608329135052827	n/a	n/a	n/a	n/a
12.10693359375	0.2	24795	3	34	0	0	0	3	218	stimuli\Videos_short_600ms_horvertflip\44.pushing_top_to_bottom_with_finger_short_horvertflip_short_600ms.mp4	44.pushing_top_to_bottom_with_finger_short_horvertflip_short_600ms.mp4	48.36578970982282	48.97407779067407	0.6082880808512527	n/a	n/a	n/a	n/a
12.90673828125	0.2	26433	4	34	0	0	0	4	39	stimuli\Videos_short_600ms\45.scratching_with_finger_nails_short_short_600ms.mp4	45.scratching_with_finger_nails_short_short_600ms.mp4	49.16575927106487	49.774046178938534	0.6082869078736621	n/a	n/a	n/a	n/a
13.70654296875	0.2	28071	5	34	0	0	0	5	128	stimuli\Videos_short_600ms_horflip\44.pushing_top_to_bottom_with_finger_short_horflip_short_600ms.mp4	44.pushing_top_to_bottom_with_finger_short_horflip_short_600ms.mp4	49.96612852428325	50.574033628082816	0.6079051037995669	n/a	n/a	n/a	n/a
14.5068359375	0.2	29710	6	34	0	0	0	6	16	stimuli\Videos_short_600ms\24.single_stroke_top_to_bottom_with_a_spoon_short_short_600ms.mp4	24.single_stroke_top_to_bottom_with_a_spoon_short_short_600ms.mp4	50.7657338761087	51.37401022718814	0.6082763510794393	n/a	n/a	n/a	n/a
15.306640625	0.2	31348	7	34	0	0	0	7	31	stimuli\Videos_short_600ms\38.double_slap_with_pencil_short_short_600ms.mp4	38.double_slap_with_pencil_short_short_600ms.mp4	51.56572601716152	52.17401204530279	0.608286028141265	n/a	n/a	n/a	n/a
16.1064453125	0.2	32986	8	34	0	0	0	8	355	stimuli\Videos_short_600ms_vertflip\87.single_stroke_top_to_bottom_with_plastic_brush_short_vertflip_short_600ms.mp4	87.single_stroke_top_to_bottom_with_plastic_brush_short_vertflip_short_600ms.mp4	52.36564514038491	52.97400741204274	0.6083622716578247	n/a	n/a	n/a	n/a
16.90673828125	0.2	34625	9	34	0	0	0	9	104	stimuli\Videos_short_600ms_horflip\22.single_touch_with_metal_chopstick_short_horflip_short_600ms.mp4	22.single_touch_with_metal_chopstick_short_horflip_short_600ms.mp4	53.16574754129306	53.77397697328479	0.608229431991731	n/a	n/a	n/a	n/a
17.70654296875	0.2	36263	10	34	0	0	0	10	178	stimuli\Videos_short_600ms_horflip\9.single_touch_with_hammer_short_horflip_short_600ms.mp4	9.single_touch_with_hammer_short_horflip_short_600ms.mp4	53.96563528737624	54.5739573845658	0.6083220971895571	n/a	n/a	n/a	n/a
18.5068359375	0.2	37902	11	34	0	0	0	11	157	stimuli\Videos_short_600ms_horflip\70.(long)stroke_with_finger_all_over_the_hand_short_horflip_short_600ms.mp4	70.(long)stroke_with_finger_all_over_the_hand_short_horflip_short_600ms.mp4	54.765594878312186	55.3739380890911	0.6083432107789122	n/a	n/a	n/a	n/a
19.306640625	0.2	39540	12	34	0	0	0	12	64	stimuli\Videos_short_600ms\68.stroke_top_to_bottom_with_shawl_short_short_600ms.mp4	68.stroke_top_to_bottom_with_shawl_short_short_600ms.mp4	55.56557030444037	56.17391615441784	0.6083458499774679	n/a	n/a	n/a	n/a
20.1064453125	0.2	41178	13	34	0	0	0	13	285	stimuli\Videos_short_600ms_vertflip\23.single_push_with_a_spoon_short_vertflip_short_600ms.mp4	23.single_push_with_a_spoon_short_vertflip_short_600ms.mp4	56.365596755075785	56.97389597920983	0.6082992241340435	n/a	n/a	n/a	n/a
20.90673828125	0.2	42817	14	34	0	0	1	14	379	stimuli\Targets_short_600ms_vertflip\chopstick-silver-tap_short_horvertflip_short_600ms.mp4	chopstick-silver-tap_short_horvertflip_short_600ms.mp4	57.1655449094842	57.77387873644557	0.6083338269613705	n/a	n/a	n/a	n/a
21.70654296875	0.2	44455	15	34	0	0	0	15	0	stimuli\Videos_short_600ms\1.repeated_touch_with_finger_fast_short_short_600ms.mp4	1.repeated_touch_with_finger_fast_short_short_600ms.mp4	57.96550068824445	58.57386295990227	0.6083622716578247	n/a	n/a	n/a	n/a
22.50634765625	0.2	46093	16	34	0	0	0	16	110	stimuli\Videos_short_600ms_horflip\28.single_injection_with_sharp_needle_short_horflip_short_600ms.mp4	28.single_injection_with_sharp_needle_short_horflip_short_600ms.mp4	58.765501040137224	59.373850409046554	0.6083493689093302	n/a	n/a	n/a	n/a
23.306640625	0.2	47732	17	34	0	0	0	17	82	stimuli\Videos_short_600ms\84.single_touch_with_cotton_bud_short_short_600ms.mp4	84.single_touch_with_cotton_bud_short_short_600ms.mp4	59.56553247592592	60.17382818112856	0.6082957052026359	n/a	n/a	n/a	n/a
24.1064453125	0.2	49370	18	34	0	0	0	18	358	stimuli\Videos_short_600ms_vertflip\9.single_touch_with_hammer_short_vertflip_short_600ms.mp4	9.single_touch_with_hammer_short_vertflip_short_600ms.mp4	60.36546508838683	60.973808299165285	0.6083432107784574	n/a	n/a	n/a	n/a
24.90625	0.2	51008	19	34	0	0	0	19	328	stimuli\Videos_short_600ms_vertflip\62.touch_top_to_bottom_with_scissors_short_vertflip_short_600ms.mp4	62.touch_top_to_bottom_with_scissors_short_vertflip_short_600ms.mp4	61.165444033445965	61.773792229377705	0.6083481959317396	n/a	n/a	n/a	n/a
25.70654296875	0.2	52647	20	34	0	0	0	20	196	stimuli\Videos_short_600ms_horvertflip\24.single_stroke_top_to_bottom_with_a_spoon_short_horvertflip_short_600ms.mp4	24.single_stroke_top_to_bottom_with_a_spoon_short_horvertflip_short_600ms.mp4	61.9654370542321	62.57377469336916	0.6083376391370621	n/a	n/a	n/a	n/a
26.50634765625	0.2	54285	21	34	0	0	0	21	219	stimuli\Videos_short_600ms_horvertflip\45.scratching_with_finger_nails_short_horvertflip_short_600ms.mp4	45.scratching_with_finger_nails_short_horvertflip_short_600ms.mp4	62.76545500078282	63.37370085445491	0.6082458536720878	n/a	n/a	n/a	n/a
27.30615234375	0.2	55923	22	34	0	0	0	22	232	stimuli\Videos_short_600ms_horvertflip\57.single_touch_with_nail_file_short_horvertflip_short_600ms.mp4	57.single_touch_with_nail_file_short_horvertflip_short_600ms.mp4	63.56543130664386	64.17370589825714	0.6082745916132808	n/a	n/a	n/a	n/a
28.1064453125	0.2	57562	23	34	0	0	0	23	66	stimuli\Videos_short_600ms\7.repeated_touch_with_hairbrush_short_short_600ms.mp4	7.repeated_touch_with_hairbrush_short_short_600ms.mp4	64.36544925319458	64.97368894873671	0.6082396955421245	n/a	n/a	n/a	n/a
28.90625	0.2	59200	24	34	0	0	0	24	30	stimuli\Videos_short_600ms\37.single_stab_with_nail_file_short_short_600ms.mp4	37.single_stab_with_nail_file_short_short_600ms.mp4	65.16537570752507	65.7736752249034	0.6082995173783274	n/a	n/a	n/a	n/a
29.7060546875	0.2	60838	25	34	0	0	1	25	377	stimuli\Targets_short_600ms_horvertflip\hand-stroke_short_vertflip_short_600ms.mp4	hand-stroke_short_vertflip_short_600ms.mp4	65.96532122273493	66.57365534294013	0.6083341202051997	n/a	n/a	n/a	n/a
30.50634765625	0.2	62477	26	34	0	0	0	26	194	stimuli\Videos_short_600ms_horvertflip\22.single_touch_with_metal_chopstick_short_horvertflip_short_600ms.mp4	22.single_touch_with_metal_chopstick_short_horvertflip_short_600ms.mp4	66.76531746920773	67.3736430853287	0.6083256161209647	n/a	n/a	n/a	n/a
31.30615234375	0.2	64115	27	34	0	0	0	27	351	stimuli\Videos_short_600ms_vertflip\83.single_stroke_top_to_bottom_with_cotton_bud_short_vertflip_short_600ms.mp4	83.single_stroke_top_to_bottom_with_cotton_bud_short_vertflip_short_600ms.mp4	67.56530579808486	68.17364783588619	0.6083420378013216	n/a	n/a	n/a	n/a
32.10595703125	0.2	65753	28	34	0	0	0	28	276	stimuli\Videos_short_600ms_vertflip\15.single_stroke_top_to_bottom_with_a_plastic_whisk_short_vertflip_short_600ms.mp4	15.single_stroke_top_to_bottom_with_a_plastic_whisk_short_vertflip_short_600ms.mp4	68.36529529993913	68.97361974308251	0.6083244431433741	n/a	n/a	n/a	n/a
32.90625	0.2	67392	29	34	0	0	0	29	48	stimuli\Videos_short_600ms\53.touch_top_to_bottom_with_knife_short_short_600ms.mp4	53.touch_top_to_bottom_with_knife_short_short_600ms.mp4	69.16527864366299	69.77359986111924	0.6083212174562505	n/a	n/a	n/a	n/a
33.7060546875	0.2	69030	30	34	0	0	0	30	125	stimuli\Videos_short_600ms_horflip\41.injection_with_blunt_syringe_short_horflip_short_600ms.mp4	41.injection_with_blunt_syringe_short_horflip_short_600ms.mp4	69.96528808612902	70.57358232511024	0.608294238981216	n/a	n/a	n/a	n/a
34.505859375	0.2	70668	31	34	0	0	0	31	5	stimuli\Videos_short_600ms\14.repeated_touch_with_pencil_short_short_600ms.mp4	14.repeated_touch_with_pencil_short_short_600ms.mp4	70.76532392058243	71.37356244314697	0.6082385225645339	n/a	n/a	n/a	n/a
35.30615234375	0.2	72307	32	34	0	0	0	32	25	stimuli\Videos_short_600ms\32.single_(long)pinch_with_fingers_short_short_600ms.mp4	32.single_(long)pinch_with_fingers_short_short_600ms.mp4	71.56521870452889	72.17354080171799	0.6083220971891024	n/a	n/a	n/a	n/a
36.10595703125	0.2	73945	33	34	0	0	1	33	369	stimuli\Targets_short_600ms_horflip\finger-tap_short_horflip_short_600ms.mp4	finger-tap_short_horflip_short_600ms.mp4	72.36518591981621	72.97352238597614	0.6083364661599262	n/a	n/a	n/a	n/a
36.90576171875	0.2	75583	34	34	0	0	0	34	105	stimuli\Videos_short_600ms_horflip\23.single_push_with_a_spoon_short_horflip_short_600ms.mp4	23.single_push_with_a_spoon_short_horflip_short_600ms.mp4	73.16514580399644	73.77351100809756	0.6083652041011192	n/a	n/a	n/a	n/a
37.7060546875	0.2	77222	35	34	0	0	0	35	205	stimuli\Videos_short_600ms_horvertflip\32.single_(long)pinch_with_fingers_short_horvertflip_short_600ms.mp4	32.single_(long)pinch_with_fingers_short_horvertflip_short_600ms.mp4	73.96517049516615	74.57348643422529	0.608315939059139	n/a	n/a	n/a	n/a
38.505859375	0.2	78860	36	34	0	0	0	36	182	stimuli\Videos_short_600ms_horvertflip\11.single_touch_with_lighter_short_horvertflip_short_600ms.mp4	11.single_touch_with_lighter_short_horvertflip_short_600ms.mp4	74.76511043873415	75.37346479279631	0.6083543540621577	n/a	n/a	n/a	n/a
39.30615234375	0.2	80499	37	34	0	0	0	37	224	stimuli\Videos_short_600ms_horvertflip\5.repeated_tap_with_finger_moving_from_top_to_bottom_short_horvertflip_short_600ms.mp4	5.repeated_tap_with_finger_moving_from_top_to_bottom_short_horvertflip_short_600ms.mp4	75.56510052707699	76.17344784327588	0.6083473161988877	n/a	n/a	n/a	n/a
40.10595703125	0.2	82137	38	34	0	0	0	38	278	stimuli\Videos_short_600ms_vertflip\17.repeated_touch_with_rolling_pin_short_vertflip_short_600ms.mp4	17.repeated_touch_with_rolling_pin_short_vertflip_short_600ms.mp4	76.36519647661089	76.97343265322161	0.6082361766107169	n/a	n/a	n/a	n/a
40.90576171875	0.2	83775	39	34	0	0	0	39	330	stimuli\Videos_short_600ms_vertflip\64.repeated_touch_with_screwdriver_short_vertflip_short_600ms.mp4	64.repeated_touch_with_screwdriver_short_vertflip_short_600ms.mp4	77.16510856197101	77.77340661312792	0.6082980511569076	n/a	n/a	n/a	n/a
41.7060546875	0.2	85414	40	34	0	0	0	40	197	stimuli\Videos_short_600ms_horvertflip\25.single_touch_with_stanley_knife_short_horvertflip_short_600ms.mp4	25.single_touch_with_stanley_knife_short_horvertflip_short_600ms.mp4	77.9651558329515	78.57340901773114	0.6082531847796417	n/a	n/a	n/a	n/a
42.505859375	0.2	87052	41	34	0	0	0	41	65	stimuli\Videos_short_600ms\69.stroke_with_soft_sock_short_short_600ms.mp4	69.stroke_with_soft_sock_short_short_600ms.mp4	78.76516762137226	79.3733378180159	0.6081701966436412	n/a	n/a	n/a	n/a
43.3056640625	0.2	88690	42	34	0	0	0	42	275	stimuli\Videos_short_600ms_vertflip\14.repeated_touch_with_pencil_short_vertflip_short_600ms.mp4	14.repeated_touch_with_pencil_short_vertflip_short_600ms.mp4	79.56507501482338	80.17333259826728	0.6082575834439012	n/a	n/a	n/a	n/a
44.10595703125	0.2	90329	43	34	0	0	0	43	288	stimuli\Videos_short_600ms_vertflip\26.single_touch_with_a_blunt_syringe_short_vertflip_short_600ms.mp4	26.single_touch_with_a_blunt_syringe_short_vertflip_short_600ms.mp4	80.3650146651471	80.97332063390013	0.6083059687530294	n/a	n/a	n/a	n/a
44.90576171875	0.2	91967	44	34	0	0	0	44	245	stimuli\Videos_short_600ms_horvertflip\69.stroke_with_soft_sock_short_horvertflip_short_600ms.mp4	69.stroke_with_soft_sock_short_horvertflip_short_600ms.mp4	81.16559798670187	81.77330104518114	0.6077030584792737	n/a	n/a	n/a	n/a
45.70556640625	0.2	93605	45	34	0	0	0	45	187	stimuli\Videos_short_600ms_horvertflip\16.repeated_touch_with_plastic_brush_short_horvertflip_short_600ms.mp4	16.repeated_touch_with_plastic_brush_short_horvertflip_short_600ms.mp4	81.96509190569486	82.57330198356294	0.6082100778680797	n/a	n/a	n/a	n/a
46.505859375	0.2	95244	46	34	0	0	0	46	190	stimuli\Videos_short_600ms_horvertflip\19.single_touch_with_rolling_pin_short_horvertflip_short_600ms.mp4	19.single_touch_with_rolling_pin_short_horvertflip_short_600ms.mp4	82.76527406905188	83.37329060568436	0.6080165366324763	n/a	n/a	n/a	n/a
47.3056640625	0.2	96882	47	34	0	0	0	47	313	stimuli\Videos_short_600ms_vertflip\49.repeated_slap_with_hand_short_vertflip_short_600ms.mp4	49.repeated_slap_with_hand_short_vertflip_short_600ms.mp4	83.56496094279191	84.17326427234639	0.6083033295544737	n/a	n/a	n/a	n/a
48.10546875	0.2	98520	48	34	0	0	0	48	301	stimuli\Videos_short_600ms_vertflip\38.double_slap_with_pencil_short_vertflip_short_600ms.mp4	38.double_slap_with_pencil_short_vertflip_short_600ms.mp4	84.36495924197516	84.97325406744494	0.608294825469784	n/a	n/a	n/a	n/a
48.90576171875	0.2	100159	49	34	0	0	0	49	188	stimuli\Videos_short_600ms_horvertflip\17.repeated_touch_with_rolling_pin_short_horvertflip_short_600ms.mp4	17.repeated_touch_with_rolling_pin_short_horvertflip_short_600ms.mp4	85.16498598585486	85.77322685437412	0.6082408685192604	n/a	n/a	n/a	n/a
49.70556640625	0.2	101797	50	34	0	0	1	50	374	stimuli\Targets_short_600ms_horvertflip\chopstickwood-tap_short_vertflip_short_600ms.mp4	chopstickwood-tap_short_vertflip_short_600ms.mp4	85.96488428873272	86.57320726565513	0.608322976922409	n/a	n/a	n/a	n/a
50.50537109375	0.2	103435	51	34	0	0	0	51	333	stimuli\Videos_short_600ms_vertflip\67.single_touch_with_sponge_short_vertflip_short_600ms.mp4	67.single_touch_with_sponge_short_vertflip_short_600ms.mp4	86.76484212020296	87.37318914315756	0.6083470229546037	n/a	n/a	n/a	n/a
51.3056640625	0.2	105074	52	34	0	0	1	52	361	stimuli\Targets_short_600ms\chopstick-silver-tap_short_short_600ms.mp4	chopstick-silver-tap_short_short_600ms.mp4	87.56482634365966	88.17316632875145	0.6083399850917885	n/a	n/a	n/a	n/a
52.10546875	0.2	106712	53	34	0	0	0	53	169	stimuli\Videos_short_600ms_horflip\81.single_stroke_top_to_bottom_with_cotton_pad_short_horflip_short_600ms.mp4	81.single_stroke_top_to_bottom_with_cotton_pad_short_horflip_short_600ms.mp4	88.36487830654914	88.97315025896387	0.6082719524147251	n/a	n/a	n/a	n/a
52.9052734375	0.2	108350	54	34	0	0	0	54	62	stimuli\Videos_short_600ms\66.stroke_top_to_bottom_with_sponge_short_short_600ms.mp4	66.stroke_top_to_bottom_with_sponge_short_short_600ms.mp4	89.16482000958331	89.77313125673345	0.6083112471501408	n/a	n/a	n/a	n/a
53.70556640625	0.2	109989	55	34	0	0	0	55	302	stimuli\Videos_short_600ms_vertflip\39.single_stab_with_scissors_short_vertflip_short_600ms.mp4	39.single_stab_with_scissors_short_vertflip_short_600ms.mp4	89.96477168292313	90.5731146004573	0.6083429175341735	n/a	n/a	n/a	n/a
54.50537109375	0.2	111627	56	34	0	0	0	56	126	stimuli\Videos_short_600ms_horflip\42.single_slap_with_plastic_whisk_short_horflip_short_600ms.mp4	42.single_slap_with_plastic_whisk_short_horflip_short_600ms.mp4	90.76473479279048	91.37309647795972	0.6083616851692568	n/a	n/a	n/a	n/a
55.30517578125	0.2	113265	57	34	0	0	0	57	28	stimuli\Videos_short_600ms\35.single_punch_with_hand_short_short_600ms.mp4	35.single_punch_with_hand_short_short_600ms.mp4	91.56473954334795	92.17306310675896	0.6083235634109769	n/a	n/a	n/a	n/a
56.10546875	0.2	114904	58	34	0	0	0	58	86	stimuli\Videos_short_600ms\88.repeated_stroke_with_plastic_brush_short_short_600ms.mp4	88.repeated_stroke_with_plastic_brush_short_short_600ms.mp4	92.36472523302656	92.97302269769489	0.6082974646683397	n/a	n/a	n/a	n/a
56.9052734375	0.2	116542	59	34	0	0	0	59	99	stimuli\Videos_short_600ms_horflip\18.single_stroke_from_top_to_bottom_with_rolling_pin_short_horflip_short_600ms.mp4	18.single_stroke_from_top_to_bottom_with_rolling_pin_short_horflip_short_600ms.mp4	93.1647205997665	93.77299372515836	0.608273125391861	n/a	n/a	n/a	n/a
57.70556640625	0.2	118181	60	34	0	0	0	60	240	stimuli\Videos_short_600ms_horvertflip\64.repeated_touch_with_screwdriver_short_horvertflip_short_600ms.mp4	64.repeated_touch_with_screwdriver_short_horvertflip_short_600ms.mp4	93.9647059962008	94.57297589590507	0.6082698997042826	n/a	n/a	n/a	n/a
58.50537109375	0.2	119819	61	34	0	0	0	61	295	stimuli\Videos_short_600ms_vertflip\32.single_(long)pinch_with_fingers_short_vertflip_short_600ms.mp4	32.single_(long)pinch_with_fingers_short_vertflip_short_600ms.mp4	94.76468054259568	95.37295542745323	0.6082748848575648	n/a	n/a	n/a	n/a
59.30517578125	0.2	121457	62	34	0	0	0	62	253	stimuli\Videos_short_600ms_horvertflip\76.tickle_with_fingers_from_top_to_bottom_short_horvertflip_short_600ms.mp4	76.tickle_with_fingers_from_top_to_bottom_short_horvertflip_short_600ms.mp4	95.56465479574626	96.17296193747644	0.6083071417301653	n/a	n/a	n/a	n/a
60.10546875	0.2	123096	63	34	0	0	0	63	124	stimuli\Videos_short_600ms_horflip\40.repeated_push_with_finger_short_horflip_short_600ms.mp4	40.repeated_push_with_finger_short_horflip_short_600ms.mp4	96.36464547057768	96.97295759746112	0.6083121268834475	n/a	n/a	n/a	n/a
60.9052734375	0.2	124734	64	34	0	0	0	64	29	stimuli\Videos_short_600ms\36.single_slap_with_full_hand_short_short_600ms.mp4	36.single_slap_with_full_hand_short_short_600ms.mp4	97.16461239262117	97.77293566278786	0.608323270166693	n/a	n/a	n/a	n/a
61.705078125	0.2	126372	65	34	0	0	0	65	303	stimuli\Videos_short_600ms_vertflip\4.repeated_tap_with_finger_slow_short_vertflip_short_600ms.mp4	4.repeated_tap_with_finger_slow_short_vertflip_short_600ms.mp4	97.96458283359608	98.57294158632249	0.6083587527264172	n/a	n/a	n/a	n/a
62.50537109375	0.2	128011	66	34	0	0	0	66	22	stimuli\Videos_short_600ms\3.single_push_with_finger_short_short_600ms.mp4	3.single_push_with_finger_short_short_600ms.mp4	98.7645884638864	99.37290880161028	0.6083203377238533	n/a	n/a	n/a	n/a
63.30517578125	0.2	129649	67	34	0	0	0	67	1	stimuli\Videos_short_600ms\10.single_touch_with_knife_short_short_600ms.mp4	10.single_touch_with_knife_short_short_600ms.mp4	99.56454072371524	100.17289214533412	0.6083514216188632	n/a	n/a	n/a	n/a
64.10498046875	0.2	131287	68	34	0	0	1	68	373	stimuli\Targets_short_600ms_horvertflip\chopstick-silver-tap_short_vertflip_short_600ms.mp4	chopstick-silver-tap_short_vertflip_short_600ms.mp4	100.3645278796148	100.97287226337085	0.608344383756048	n/a	n/a	n/a	n/a
64.9052734375	0.2	132926	69	34	0	0	0	69	49	stimuli\Videos_short_600ms\54.repeated_touch_with_knife_short_short_600ms.mp4	54.repeated_touch_with_knife_short_short_600ms.mp4	101.16456723299962	101.77284915572	0.60828192272038	n/a	n/a	n/a	n/a
65.705078125	0.2	134564	70	34	0	0	0	70	304	stimuli\Videos_short_600ms_vertflip\40.repeated_push_with_finger_short_vertflip_short_600ms.mp4	40.repeated_push_with_finger_short_vertflip_short_600ms.mp4	101.96450600359049	102.57283572513144	0.6083297215409402	n/a	n/a	n/a	n/a
66.5048828125	0.2	136202	71	34	0	0	1	71	365	stimuli\Targets_short_600ms\hand-stroke_short_short_600ms.mp4	hand-stroke_short_short_600ms.mp4	102.76449110678004	103.37281467019102	0.6083235634109769	n/a	n/a	n/a	n/a
67.30517578125	0.2	137841	72	34	0	0	0	72	100	stimuli\Videos_short_600ms_horflip\19.single_touch_with_rolling_pin_short_horflip_short_600ms.mp4	19.single_touch_with_rolling_pin_short_horflip_short_600ms.mp4	103.56445363015882	104.17279625444915	0.6083426242903442	n/a	n/a	n/a	n/a
68.10498046875	0.2	139479	73	34	0	0	0	73	153	stimuli\Videos_short_600ms_horflip\67.single_touch_with_sponge_short_horflip_short_600ms.mp4	67.single_touch_with_sponge_short_horflip_short_600ms.mp4	104.36441498056048	104.97277783870732	0.6083628581468474	n/a	n/a	n/a	n/a
68.90478515625	0.2	141117	74	34	0	0	0	74	229	stimuli\Videos_short_600ms_horvertflip\54.repeated_touch_with_knife_short_horvertflip_short_600ms.mp4	54.repeated_touch_with_knife_short_horvertflip_short_600ms.mp4	105.1644050689033	105.77276118243115	0.6083561135278615	n/a	n/a	n/a	n/a
69.705078125	0.2	142756	75	34	0	0	0	75	123	stimuli\Videos_short_600ms_horflip\4.repeated_tap_with_finger_slow_short_horflip_short_600ms.mp4	4.repeated_tap_with_finger_slow_short_horflip_short_600ms.mp4	105.96437785583294	106.57274071397931	0.6083628581463927	n/a	n/a	n/a	n/a
70.5048828125	0.2	144394	76	34	0	0	0	76	296	stimuli\Videos_short_600ms_vertflip\33.scratch_top_to_bottom_with_scissors_short_vertflip_short_600ms.mp4	33.scratch_top_to_bottom_with_scissors_short_vertflip_short_600ms.mp4	106.76437703474858	107.37272229823748	0.6083452634889	n/a	n/a	n/a	n/a
71.3046875	0.2	146032	77	34	0	0	0	77	331	stimuli\Videos_short_600ms_vertflip\65.stroke_top_to_bottom_with_stanley_knife_short_vertflip_short_600ms.mp4	65.stroke_top_to_bottom_with_stanley_knife_short_vertflip_short_600ms.mp4	107.56462224562938	108.172682475662	0.6080602300326063	n/a	n/a	n/a	n/a
72.10498046875	0.2	147671	78	34	0	0	0	78	263	stimuli\Videos_short_600ms_horvertflip\85.touch_top_to_bottom_with_fabric_short_horvertflip_short_600ms.mp4	85.touch_top_to_bottom_with_fabric_short_horvertflip_short_600ms.mp4	108.3643630763204	108.97266787209628	0.6083047957758936	n/a	n/a	n/a	n/a
72.90478515625	0.2	149309	79	34	0	0	0	79	283	stimuli\Videos_short_600ms_vertflip\21.repeated_touch_with_metal_chopstick_short_vertflip_short_600ms.mp4	21.repeated_touch_with_metal_chopstick_short_vertflip_short_600ms.mp4	109.16435052546422	109.77262013192468	0.6082696064604534	n/a	n/a	n/a	n/a
73.70458984375	0.2	150947	80	34	0	0	0	80	111	stimuli\Videos_short_600ms_horflip\29.single_pinch_with_tweezers_short_horflip_short_600ms.mp4	29.single_pinch_with_tweezers_short_horflip_short_600ms.mp4	109.96433562865424	110.57262722843645	0.6082915997822056	n/a	n/a	n/a	n/a
74.5048828125	0.2	152586	81	34	0	0	1	81	382	stimuli\Targets_short_600ms_vertflip\hand-pinch_short_horvertflip_short_600ms.mp4	hand-pinch_short_horvertflip_short_600ms.mp4	110.76428876821548	111.37258359368523	0.608294825469784	n/a	n/a	n/a	n/a
75.3046875	0.2	154224	82	34	0	0	0	82	181	stimuli\Videos_short_600ms_horvertflip\10.single_touch_with_knife_short_horvertflip_short_600ms.mp4	10.single_touch_with_knife_short_horvertflip_short_600ms.mp4	111.56428853362011	112.17259098344176	0.6083024498216218	n/a	n/a	n/a	n/a
76.10498046875	0.2	155863	83	34	0	0	0	83	155	stimuli\Videos_short_600ms_horflip\69.stroke_with_soft_sock_short_horflip_short_600ms.mp4	69.stroke_with_soft_sock_short_horflip_short_600ms.mp4	112.36424988402176	112.9725743271656	0.6083244431438288	n/a	n/a	n/a	n/a
76.90478515625	0.2	157501	84	34	0	0	0	84	281	stimuli\Videos_short_600ms_vertflip\2.single_touch_with_finger_short_vertflip_short_600ms.mp4	2.single_touch_with_finger_short_vertflip_short_600ms.mp4	113.1642537548464	113.77256441550844	0.6083106606620277	n/a	n/a	n/a	n/a
77.70458984375	0.2	159139	85	34	0	0	0	85	10	stimuli\Videos_short_600ms\19.single_touch_with_rolling_pin_short_short_600ms.mp4	19.single_touch_with_rolling_pin_short_short_600ms.mp4	113.96421363902664	114.5725633011798	0.6083496621531594	n/a	n/a	n/a	n/a
78.5048828125	0.2	160778	86	34	0	0	0	86	172	stimuli\Videos_short_600ms_horflip\84.single_touch_with_cotton_bud_short_horflip_short_600ms.mp4	84.single_touch_with_cotton_bud_short_horflip_short_600ms.mp4	114.76424536805962	115.37253491513184	0.6082895470722178	n/a	n/a	n/a	n/a
79.3046875	0.2	162416	87	34	0	0	0	87	137	stimuli\Videos_short_600ms_horflip\52.touch_top_to_bottom_with_hammer_short_horflip_short_600ms.mp4	52.touch_top_to_bottom_with_hammer_short_horflip_short_600ms.mp4	115.56425099834996	116.17251972507756	0.6082687267276015	n/a	n/a	n/a	n/a
80.1044921875	0.2	164054	88	34	0	0	0	88	129	stimuli\Videos_short_600ms_horflip\45.scratching_with_finger_nails_short_horflip_short_600ms.mp4	45.scratching_with_finger_nails_short_horflip_short_600ms.mp4	116.36415868504535	116.97249749715957	0.6083388121141979	n/a	n/a	n/a	n/a
80.90478515625	0.2	165693	89	34	0	0	1	89	383	stimuli\Targets_short_600ms_vertflip\hand-stroke_short_horvertflip_short_600ms.mp4	hand-stroke_short_horvertflip_short_600ms.mp4	117.1641590369386	117.77248172061672	0.608322683678125	n/a	n/a	n/a	n/a
81.70458984375	0.2	167331	90	34	0	0	0	90	43	stimuli\Videos_short_600ms\49.repeated_slap_with_hand_short_short_600ms.mp4	49.repeated_slap_with_hand_short_short_600ms.mp4	117.96414589959431	118.57246125216489	0.6083153525705711	n/a	n/a	n/a	n/a
82.50439453125	0.2	168969	91	34	0	0	0	91	3	stimuli\Videos_short_600ms\12.repeated_touch_with_nail_file_short_short_600ms.mp4	12.repeated_touch_with_nail_file_short_short_600ms.mp4	118.7641286568296	119.37244430264444	0.6083156458148551	n/a	n/a	n/a	n/a
83.3046875	0.2	170608	92	34	0	0	0	92	261	stimuli\Videos_short_600ms_horvertflip\83.single_stroke_top_to_bottom_with_cotton_bud_short_horvertflip_short_600ms.mp4	83.single_stroke_top_to_bottom_with_cotton_bud_short_horvertflip_short_600ms.mp4	119.56410408295731	120.17242324770405	0.6083191647467174	n/a	n/a	n/a	n/a
84.1044921875	0.2	172246	93	34	0	0	0	93	116	stimuli\Videos_short_600ms_horflip\33.scratch_top_to_bottom_with_scissors_short_horflip_short_600ms.mp4	33.scratch_top_to_bottom_with_scissors_short_horflip_short_600ms.mp4	120.36412994710464	120.9724065914279	0.6082766443232686	n/a	n/a	n/a	n/a
84.904296875	0.2	173884	94	34	0	0	0	94	163	stimuli\Videos_short_600ms_horflip\76.tickle_with_fingers_from_top_to_bottom_short_horflip_short_600ms.mp4	76.tickle_with_fingers_from_top_to_bottom_short_horflip_short_600ms.mp4	121.1640399797543	121.7723890554189	0.6083490756645915	n/a	n/a	n/a	n/a
85.70458984375	0.2	175523	95	34	0	0	0	95	332	stimuli\Videos_short_600ms_vertflip\66.stroke_top_to_bottom_with_sponge_short_vertflip_short_600ms.mp4	66.stroke_top_to_bottom_with_sponge_short_vertflip_short_600ms.mp4	121.9640365194714	122.57237034643276	0.6083338269613705	n/a	n/a	n/a	n/a
86.50439453125	0.2	177161	96	34	0	0	0	96	203	stimuli\Videos_short_600ms_horvertflip\30.finger_pulling_back_another_finger_short_horvertflip_short_600ms.mp4	30.finger_pulling_back_another_finger_short_horvertflip_short_600ms.mp4	122.76434859005212	123.37234782527094	0.6079992352188128	n/a	n/a	n/a	n/a
87.30419921875	0.2	178799	97	34	0	0	0	97	97	stimuli\Videos_short_600ms_horflip\16.repeated_touch_with_plastic_brush_short_horflip_short_600ms.mp4	16.repeated_touch_with_plastic_brush_short_horflip_short_600ms.mp4	123.56401669615708	124.17232794330766	0.6083112471505956	n/a	n/a	n/a	n/a
88.1044921875	0.2	180438	98	34	0	0	0	98	55	stimuli\Videos_short_600ms\6.single_touch_with_flat_hand_short_short_600ms.mp4	6.single_touch_with_flat_hand_short_short_600ms.mp4	124.36401352911888	124.9723318141323	0.6083182850134108	9.0	9.0	0.906882619586213	1.0
121.2451171875	0.2	248310	99	34	1	0	0	0	337	stimuli\Videos_short_600ms_vertflip\70.(long)stroke_with_finger_all_over_the_hand_short_vertflip_short_600ms.mp4	70.(long)stroke_with_finger_all_over_the_hand_short_vertflip_short_600ms.mp4	157.5049012851723	158.11321223907862	0.6083109539063116	n/a	n/a	n/a	n/a
122.044921875	0.2	249948	100	34	1	0	0	1	341	stimuli\Videos_short_600ms_vertflip\74.fingers_walking_from_top_to_bottom_short_vertflip_short_600ms.mp4	74.fingers_walking_from_top_to_bottom_short_vertflip_short_600ms.mp4	158.30486498152823	158.9131970490239	0.6083320674956667	n/a	n/a	n/a	n/a
122.8447265625	0.2	251586	101	34	1	0	0	2	107	stimuli\Videos_short_600ms_horflip\25.single_touch_with_stanley_knife_short_horflip_short_600ms.mp4	25.single_touch_with_stanley_knife_short_horflip_short_600ms.mp4	159.10488996594268	159.71317980625918	0.6082898403165018	n/a	n/a	n/a	n/a
123.64501953125	0.2	253225	102	34	1	0	0	3	119	stimuli\Videos_short_600ms_horflip\36.single_slap_with_full_hand_short_horflip_short_600ms.mp4	36.single_slap_with_full_hand_short_horflip_short_600ms.mp4	159.90482081893742	160.51316109727304	0.6083402783356178	n/a	n/a	n/a	n/a
124.44482421875	0.2	254863	103	34	1	0	0	4	317	stimuli\Videos_short_600ms_vertflip\52.touch_top_to_bottom_with_hammer_short_vertflip_short_600ms.mp4	52.touch_top_to_bottom_with_hammer_short_vertflip_short_600ms.mp4	160.70478744773618	161.3131406288212	0.6083531810850218	n/a	n/a	n/a	n/a
125.24462890625	0.2	256501	104	34	1	0	0	5	9	stimuli\Videos_short_600ms\18.single_stroke_from_top_to_bottom_with_rolling_pin_short_short_600ms.mp4	18.single_stroke_from_top_to_bottom_with_rolling_pin_short_short_600ms.mp4	161.50478105501088	162.1131230928122	0.6083420378013216	n/a	n/a	n/a	n/a
126.044921875	0.2	258140	105	34	1	0	0	6	114	stimuli\Videos_short_600ms_horflip\31.hand_grabbing_wrist_short_horflip_short_600ms.mp4	31.hand_grabbing_wrist_short_horflip_short_600ms.mp4	162.3048462138936	162.9131055568032	0.608259342909605	n/a	n/a	n/a	n/a
126.8447265625	0.2	259778	106	34	1	0	0	7	300	stimuli\Videos_short_600ms_vertflip\37.single_stab_with_nail_file_short_vertflip_short_600ms.mp4	37.single_stab_with_nail_file_short_vertflip_short_600ms.mp4	163.104794368302	163.7130824491528	0.608288080850798	n/a	n/a	n/a	n/a
127.64453125	0.2	261416	107	34	1	0	0	8	259	stimuli\Videos_short_600ms_horvertflip\81.single_stroke_top_to_bottom_with_cotton_pad_short_horvertflip_short_600ms.mp4	81.single_stroke_top_to_bottom_with_cotton_pad_short_horvertflip_short_600ms.mp4	163.9047536659932	164.51306549963238	0.6083118336391635	n/a	n/a	n/a	n/a
128.44482421875	0.2	263055	108	34	1	0	0	9	32	stimuli\Videos_short_600ms\39.single_stab_with_scissors_short_short_600ms.mp4	39.single_stab_with_scissors_short_short_600ms.mp4	164.70475343139788	165.31304855011194	0.6082951187140679	n/a	n/a	n/a	n/a
129.24462890625	0.2	264693	109	34	1	0	0	10	87	stimuli\Videos_short_600ms\89.single_touch_with_plastic_brush_short_short_600ms.mp4	89.single_touch_with_plastic_brush_short_short_600ms.mp4	165.50471712775425	166.1130005166965	0.6082833889422545	n/a	n/a	n/a	n/a
130.044921875	0.2	266332	110	34	1	0	0	11	96	stimuli\Videos_short_600ms_horflip\15.single_stroke_top_to_bottom_with_a_plastic_whisk_short_horflip_short_600ms.mp4	15.single_stroke_top_to_bottom_with_a_plastic_whisk_short_horflip_short_600ms.mp4	166.30469284712626	166.9129662657624	0.6082734186361449	n/a	n/a	n/a	n/a
130.8447265625	0.2	267970	111	34	1	0	0	12	103	stimuli\Videos_short_600ms_horflip\21.repeated_touch_with_metal_chopstick_short_horflip_short_600ms.mp4	21.repeated_touch_with_metal_chopstick_short_horflip_short_600ms.mp4	167.1046588894369	167.71294814326484	0.6082892538279339	n/a	n/a	n/a	n/a
131.64453125	0.2	269608	112	34	1	0	0	13	210	stimuli\Videos_short_600ms_horvertflip\37.single_stab_with_nail_file_short_horvertflip_short_600ms.mp4	37.single_stab_with_nail_file_short_horvertflip_short_600ms.mp4	167.9046516169783	168.51295201408948	0.6083003971111793	n/a	n/a	n/a	n/a
132.44482421875	0.2	271247	113	34	1	0	0	14	14	stimuli\Videos_short_600ms\22.single_touch_with_metal_chopstick_short_short_600ms.mp4	22.single_touch_with_metal_chopstick_short_short_600ms.mp4	168.704637893145	169.31294591460846	0.608308021463472	n/a	n/a	n/a	n/a
133.24462890625	0.2	272885	114	34	1	0	0	15	183	stimuli\Videos_short_600ms_horvertflip\12.repeated_touch_with_nail_file_short_horvertflip_short_600ms.mp4	12.repeated_touch_with_nail_file_short_horvertflip_short_600ms.mp4	169.5046414707258	170.11291840829335	0.6082769375675525	n/a	n/a	n/a	n/a
134.04443359375	0.2	274523	115	34	1	0	0	16	81	stimuli\Videos_short_600ms\83.single_stroke_top_to_bottom_with_cotton_bud_short_short_600ms.mp4	83.single_stroke_top_to_bottom_with_cotton_bud_short_short_600ms.mp4	170.30483653683177	170.91292521156083	0.6080886747290606	n/a	n/a	n/a	n/a
134.8447265625	0.2	276162	116	34	1	0	0	17	327	stimuli\Videos_short_600ms_vertflip\61.single_hit_with_rolling_pin_short_vertflip_short_600ms.mp4	61.single_hit_with_rolling_pin_short_vertflip_short_600ms.mp4	171.10456123908625	171.7129012241776	0.6083399850913338	n/a	n/a	n/a	n/a
135.64453125	0.2	277800	117	34	1	0	0	18	308	stimuli\Videos_short_600ms_vertflip\44.pushing_top_to_bottom_with_finger_short_vertflip_short_600ms.mp4	44.pushing_top_to_bottom_with_finger_short_vertflip_short_600ms.mp4	171.90456071124618	172.5128965909175	0.6083358796713583	n/a	n/a	n/a	n/a
136.4443359375	0.2	279438	118	34	1	0	1	19	368	stimuli\Targets_short_600ms_horflip\chopstickwood-tap_short_horflip_short_600ms.mp4	chopstickwood-tap_short_horflip_short_600ms.mp4	172.70454229550433	173.3128638062053	0.6083215107009892	n/a	n/a	n/a	n/a
137.24462890625	0.2	281077	119	34	1	0	0	20	148	stimuli\Videos_short_600ms_horflip\62.touch_top_to_bottom_with_scissors_short_horflip_short_600ms.mp4	62.touch_top_to_bottom_with_scissors_short_horflip_short_600ms.mp4	173.50452300002962	174.1128448039749	0.6083218039452731	n/a	n/a	n/a	n/a
138.04443359375	0.2	282715	120	34	1	0	0	21	292	stimuli\Videos_short_600ms_vertflip\3.single_push_with_finger_short_vertflip_short_600ms.mp4	3.single_push_with_finger_short_vertflip_short_600ms.mp4	174.30450898295248	174.91282668147733	0.6083176985248429	n/a	n/a	n/a	n/a
138.84423828125	0.2	284353	121	34	1	0	0	22	222	stimuli\Videos_short_600ms_horvertflip\48.single_slap_with_hand_short_horvertflip_short_600ms.mp4	48.single_slap_with_hand_short_horvertflip_short_600ms.mp4	175.10446329549086	175.7128076792469	0.608344383756048	n/a	n/a	n/a	n/a
139.64453125	0.2	285992	122	34	1	0	0	23	83	stimuli\Videos_short_600ms\85.touch_top_to_bottom_with_fabric_short_short_600ms.mp4	85.touch_top_to_bottom_with_fabric_short_short_600ms.mp4	175.90447684337732	176.5127886770165	0.6083118336391635	n/a	n/a	n/a	n/a
140.4443359375	0.2	287630	123	34	1	0	0	24	243	stimuli\Videos_short_600ms_horvertflip\67.single_touch_with_sponge_short_horvertflip_short_600ms.mp4	67.single_touch_with_sponge_short_horvertflip_short_600ms.mp4	176.70451766298356	177.3127690882975	0.6082514253139379	n/a	n/a	n/a	n/a
141.244140625	0.2	289268	124	34	1	0	0	25	35	stimuli\Videos_short_600ms\41.injection_with_blunt_syringe_short_short_600ms.mp4	41.injection_with_blunt_syringe_short_short_600ms.mp4	177.504450275444	178.11275243202135	0.6083021565773379	n/a	n/a	n/a	n/a
142.04443359375	0.2	290907	125	34	1	0	0	26	6	stimuli\Videos_short_600ms\15.single_stroke_top_to_bottom_with_a_plastic_whisk_short_short_600ms.mp4	15.single_stroke_top_to_bottom_with_a_plastic_whisk_short_short_600ms.mp4	178.30443303267975	178.9127360689895	0.608303036309735	n/a	n/a	n/a	n/a
142.84423828125	0.2	292545	126	34	1	0	0	27	72	stimuli\Videos_short_600ms\75.(long)stroke_with_fingers_all_over_the_hand_short_short_600ms.mp4	75.(long)stroke_with_fingers_all_over_the_hand_short_short_600ms.mp4	179.10437561544632	179.7127164802705	0.6083408648241857	n/a	n/a	n/a	n/a
143.64404296875	0.2	294183	127	34	1	0	0	28	233	stimuli\Videos_short_600ms_horvertflip\58.single_slap_with_pencil_short_horvertflip_short_600ms.mp4	58.single_slap_with_pencil_short_horvertflip_short_600ms.mp4	179.90435925241445	180.51268604151255	0.6083267890981006	n/a	n/a	n/a	n/a
144.4443359375	0.2	295822	128	34	1	0	0	29	258	stimuli\Videos_short_600ms_horvertflip\80.stroke_with_sharp_stick_all_over_the_hand_short_horvertflip_short_600ms.mp4	80.stroke_with_sharp_stick_all_over_the_hand_short_horvertflip_short_600ms.mp4	180.70436986785808	181.3126758366111	0.6083059687530294	n/a	n/a	n/a	n/a
145.244140625	0.2	297460	129	34	1	0	0	30	230	stimuli\Videos_short_600ms_horvertflip\55.touch_top_to_bottom_with_nail_file_short_horvertflip_short_600ms.mp4	55.touch_top_to_bottom_with_nail_file_short_horvertflip_short_600ms.mp4	181.5044282821218	182.11263894647848	0.6082106643566476	n/a	n/a	n/a	n/a
146.0439453125	0.2	299098	130	34	1	0	0	31	354	stimuli\Videos_short_600ms_vertflip\86.touch_top_to_bottom_with_hair_brush_short_vertflip_short_600ms.mp4	86.touch_top_to_bottom_with_hair_brush_short_vertflip_short_600ms.mp4	182.30429168892852	182.91262023749275	0.6083285485642591	n/a	n/a	n/a	n/a
146.84423828125	0.2	300737	131	34	1	0	0	32	159	stimuli\Videos_short_600ms_horflip\72.(short)stroke_with_finger_all_over_the_hand_short_horflip_short_600ms.mp4	72.(short)stroke_with_finger_all_over_the_hand_short_horflip_short_600ms.mp4	183.10429819895216	183.712582174383	0.6082839754308225	n/a	n/a	n/a	n/a
147.64404296875	0.2	302375	132	34	1	0	1	33	380	stimuli\Targets_short_600ms_vertflip\chopstickwood-tap_short_horvertflip_short_600ms.mp4	chopstickwood-tap_short_horvertflip_short_600ms.mp4	183.90432934149612	184.51252798283667	0.6081986413405502	n/a	n/a	n/a	n/a
148.44384765625	0.2	304013	133	34	1	0	0	34	343	stimuli\Videos_short_600ms_vertflip\76.tickle_with_fingers_from_top_to_bottom_short_vertflip_short_600ms.mp4	76.tickle_with_fingers_from_top_to_bottom_short_vertflip_short_600ms.mp4	184.70424435929908	185.31258493087944	0.6083405715803565	n/a	n/a	n/a	n/a
149.244140625	0.2	305652	134	34	1	0	0	35	350	stimuli\Videos_short_600ms_vertflip\82.repeated_touch_with_cotton_bud_short_vertflip_short_600ms.mp4	82.repeated_touch_with_cotton_bud_short_vertflip_short_600ms.mp4	185.50432242093075	186.11258117735224	0.6082587564214919	n/a	n/a	n/a	n/a
150.0439453125	0.2	307290	135	34	1	0	0	36	147	stimuli\Videos_short_600ms_horflip\61.single_hit_with_rolling_pin_short_horflip_short_600ms.mp4	61.single_hit_with_rolling_pin_short_horflip_short_600ms.mp4	186.30422776167188	186.91256129538897	0.6083335337170865	n/a	n/a	n/a	n/a
150.84423828125	0.2	308929	136	34	1	0	0	37	117	stimuli\Videos_short_600ms_horflip\34.repeated_punch_with_hand_short_horflip_short_600ms.mp4	34.repeated_punch_with_hand_short_horflip_short_600ms.mp4	187.1042166770376	187.7125314431196	0.6083147660820032	n/a	n/a	n/a	n/a
151.64404296875	0.2	310567	137	34	1	0	0	38	93	stimuli\Videos_short_600ms_horflip\12.repeated_touch_with_nail_file_short_horflip_short_600ms.mp4	12.repeated_touch_with_nail_file_short_horflip_short_600ms.mp4	187.9041950356086	188.51252329092813	0.6083282553195204	n/a	n/a	n/a	n/a
152.44384765625	0.2	312205	138	34	1	0	0	39	106	stimuli\Videos_short_600ms_horflip\24.single_stroke_top_to_bottom_with_a_spoon_short_horflip_short_600ms.mp4	24.single_stroke_top_to_bottom_with_a_spoon_short_horflip_short_600ms.mp4	188.70424259983335	189.3124922656816	0.6082496658482341	n/a	n/a	n/a	n/a
153.244140625	0.2	313844	139	34	1	0	0	40	41	stimuli\Videos_short_600ms\47.(long)scratching_with_finger_nails_short_short_600ms.mp4	47.(long)scratching_with_finger_nails_short_short_600ms.mp4	189.50421040160973	190.11247414318404	0.6082637415743193	n/a	n/a	n/a	n/a
154.0439453125	0.2	315482	140	34	1	0	0	41	162	stimuli\Videos_short_600ms_horflip\75.(long)stroke_with_fingers_all_over_the_hand_short_horflip_short_600ms.mp4	75.(long)stroke_with_fingers_all_over_the_hand_short_horflip_short_600ms.mp4	190.30419755750927	190.91245836664075	0.6082608091314796	n/a	n/a	n/a	n/a
154.84375	0.2	317120	141	34	1	0	0	42	165	stimuli\Videos_short_600ms_horflip\78.single_stroke_top_to_bottom_with_soft_brush_short_horflip_short_600ms.mp4	78.single_stroke_top_to_bottom_with_soft_brush_short_horflip_short_600ms.mp4	191.10410846989225	191.7124378981889	0.6083294282966563	n/a	n/a	n/a	n/a
155.64404296875	0.2	318759	142	34	1	0	1	43	367	stimuli\Targets_short_600ms_horflip\chopstick-silver-tap_short_horflip_short_600ms.mp4	chopstick-silver-tap_short_horflip_short_600ms.mp4	191.9040663013625	192.51241977569137	0.608353474328851	n/a	n/a	n/a	n/a
156.44384765625	0.2	320397	143	34	1	0	0	44	318	stimuli\Videos_short_600ms_vertflip\53.touch_top_to_bottom_with_knife_short_vertflip_short_600ms.mp4	53.touch_top_to_bottom_with_knife_short_vertflip_short_600ms.mp4	192.70403879504735	193.3124010667052	0.6083622716578247	n/a	n/a	n/a	n/a
157.24365234375	0.2	322035	144	34	1	0	0	45	145	stimuli\Videos_short_600ms_horflip\6.single_touch_with_flat_hand_short_horflip_short_600ms.mp4	6.single_touch_with_flat_hand_short_horflip_short_600ms.mp4	193.50417257309527	194.11238265096335	0.6082100778680797	n/a	n/a	n/a	n/a
158.0439453125	0.2	323674	145	34	1	0	0	46	102	stimuli\Videos_short_600ms_horflip\20.single_touch_with_screwdriver_short_horflip_short_600ms.mp4	20.single_touch_with_screwdriver_short_horflip_short_600ms.mp4	194.30400372302935	194.9123671676648	0.6083634446354154	n/a	n/a	n/a	n/a
158.84375	0.2	325312	146	34	1	0	0	47	58	stimuli\Videos_short_600ms\62.touch_top_to_bottom_with_scissors_short_short_600ms.mp4	62.touch_top_to_bottom_with_scissors_short_short_600ms.mp4	195.1039861870204	195.7123437667697	0.6083575797492813	n/a	n/a	n/a	n/a
159.6435546875	0.2	326950	147	34	1	0	0	48	26	stimuli\Videos_short_600ms\33.scratch_top_to_bottom_with_scissors_short_short_600ms.mp4	33.scratch_top_to_bottom_with_scissors_short_short_600ms.mp4	195.90433755233653	196.51232623076064	0.6079886784241353	n/a	n/a	n/a	n/a
160.44384765625	0.2	328589	148	34	1	0	0	49	347	stimuli\Videos_short_600ms_vertflip\8.single_touch_with_hairbrush_short_vertflip_short_600ms.mp4	8.single_touch_with_hairbrush_short_vertflip_short_600ms.mp4	196.70428189456925	197.3122638283744	0.6079819338051493	n/a	n/a	n/a	n/a
161.24365234375	0.2	330227	149	34	1	0	0	50	142	stimuli\Videos_short_600ms_horflip\57.single_touch_with_nail_file_short_horflip_short_600ms.mp4	57.single_touch_with_nail_file_short_horflip_short_600ms.mp4	197.5040432523606	198.11225420996152	0.6082109576009316	n/a	n/a	n/a	n/a
162.04345703125	0.2	331865	150	34	1	0	0	51	54	stimuli\Videos_short_600ms\59.single_push_with_long_side_pencil_short_short_600ms.mp4	59.single_push_with_long_side_pencil_short_short_600ms.mp4	198.30395123230028	198.91223374150968	0.6082825092094026	n/a	n/a	n/a	n/a
162.84375	0.2	333504	151	34	1	0	0	52	85	stimuli\Videos_short_600ms\87.single_stroke_top_to_bottom_with_plastic_brush_short_short_600ms.mp4	87.single_stroke_top_to_bottom_with_plastic_brush_short_short_600ms.mp4	199.10393838820028	199.71223145420436	0.6082930660040802	n/a	n/a	n/a	n/a
163.6435546875	0.2	335142	152	34	1	0	0	53	336	stimuli\Videos_short_600ms_vertflip\7.repeated_touch_with_hairbrush_short_vertflip_short_600ms.mp4	7.repeated_touch_with_hairbrush_short_vertflip_short_600ms.mp4	199.9039170400156	200.51222212903576	0.6083050890201775	n/a	n/a	n/a	n/a
164.443359375	0.2	336780	153	34	1	0	0	54	89	stimuli\Videos_short_600ms\90.repeated_touch_with_sponge_short_short_600ms.mp4	90.repeated_touch_with_sponge_short_short_600ms.mp4	200.70387663095153	201.31220342004963	0.6083267890981006	n/a	n/a	n/a	n/a
165.24365234375	0.2	338419	154	34	1	0	0	55	339	stimuli\Videos_short_600ms_vertflip\72.(short)stroke_with_finger_all_over_the_hand_short_vertflip_short_600ms.mp4	72.(short)stroke_with_finger_all_over_the_hand_short_vertflip_short_600ms.mp4	201.5038593881868	202.11220817060712	0.6083487824203075	n/a	n/a	n/a	n/a
166.04345703125	0.2	340057	155	34	1	0	0	56	44	stimuli\Videos_short_600ms\5.repeated_tap_with_finger_moving_from_top_to_bottom_short_short_600ms.mp4	5.repeated_tap_with_finger_moving_from_top_to_bottom_short_short_600ms.mp4	202.30386971038615	202.912180664292	0.6083109539058569	n/a	n/a	n/a	n/a
166.84326171875	0.2	341695	156	34	1	0	0	57	130	stimuli\Videos_short_600ms_horflip\46.scratching_top_to_bottom_with_finger_nails_short_horflip_short_600ms.mp4	46.scratching_top_to_bottom_with_finger_nails_short_horflip_short_600ms.mp4	203.10447355904125	203.7121733918334	0.6076998327921501	n/a	n/a	n/a	n/a
167.6435546875	0.2	343334	157	34	1	0	0	58	127	stimuli\Videos_short_600ms_horflip\43.touch_top_to_bottom_with_sharp_wooden_stick_short_horflip_short_600ms.mp4	43.touch_top_to_bottom_with_sharp_wooden_stick_short_horflip_short_600ms.mp4	203.90384255596427	204.512143539564	0.6083009835997473	n/a	n/a	n/a	n/a
168.443359375	0.2	344972	158	34	1	0	0	59	160	stimuli\Videos_short_600ms_horflip\73.single_stroke_with_flat_hand_short_horflip_short_600ms.mp4	73.single_stroke_with_flat_hand_short_horflip_short_600ms.mp4	204.70382531319956	205.31212600355505	0.6083006903554633	n/a	n/a	n/a	n/a
169.24365234375	0.2	346611	159	34	1	0	0	60	359	stimuli\Videos_short_600ms_vertflip\90.repeated_touch_with_sponge_short_vertflip_short_600ms.mp4	90.repeated_touch_with_sponge_short_vertflip_short_600ms.mp4	205.5037684824547	206.112108467546	0.6083399850913338	n/a	n/a	n/a	n/a
170.04345703125	0.2	348249	160	34	1	0	0	61	108	stimuli\Videos_short_600ms_horflip\26.single_touch_with_a_blunt_syringe_short_horflip_short_600ms.mp4	26.single_touch_with_a_blunt_syringe_short_horflip_short_600ms.mp4	206.30376590190508	206.91208711936133	0.6083212174562505	n/a	n/a	n/a	n/a
170.84326171875	0.2	349887	161	34	1	0	0	62	33	stimuli\Videos_short_600ms\4.repeated_tap_with_finger_slow_short_short_600ms.mp4	4.repeated_tap_with_finger_slow_short_short_600ms.mp4	207.10388267178405	207.71206577117664	0.6081830993925905	n/a	n/a	n/a	n/a
171.6435546875	0.2	351526	162	34	1	0	0	63	260	stimuli\Videos_short_600ms_horvertflip\82.repeated_touch_with_cotton_bud_short_horvertflip_short_600ms.mp4	82.repeated_touch_with_cotton_bud_short_horvertflip_short_600ms.mp4	207.90373464206277	208.5120473554348	0.6083127133720154	n/a	n/a	n/a	n/a
172.443359375	0.2	353164	163	34	1	0	0	64	208	stimuli\Videos_short_600ms_horvertflip\35.single_punch_with_hand_short_horvertflip_short_600ms.mp4	35.single_punch_with_hand_short_horvertflip_short_600ms.mp4	208.70369687219772	209.3120321653801	0.6083352931823356	n/a	n/a	n/a	n/a
173.2431640625	0.2	354802	164	34	1	0	0	65	223	stimuli\Videos_short_600ms_horvertflip\49.repeated_slap_with_hand_short_horvertflip_short_600ms.mp4	49.repeated_slap_with_hand_short_horvertflip_short_600ms.mp4	209.50376027161428	210.1120122834168	0.6082520118025059	n/a	n/a	n/a	n/a
174.04345703125	0.2	356441	165	34	1	0	0	66	311	stimuli\Videos_short_600ms_vertflip\47.(long)scratching_with_finger_nails_short_vertflip_short_600ms.mp4	47.(long)scratching_with_finger_nails_short_vertflip_short_600ms.mp4	210.30396413504923	210.91199826633965	0.6080341312904238	n/a	n/a	n/a	n/a
174.84326171875	0.2	358079	166	34	1	0	0	67	268	stimuli\Videos_short_600ms_horvertflip\9.single_touch_with_hammer_short_horvertflip_short_600ms.mp4	9.single_touch_with_hammer_short_horvertflip_short_600ms.mp4	211.10362168435995	211.7119631356727	0.6083414513127536	n/a	n/a	n/a	n/a
175.64306640625	0.2	359717	167	34	1	0	0	68	75	stimuli\Videos_short_600ms\78.single_stroke_top_to_bottom_with_soft_brush_short_short_600ms.mp4	78.single_stroke_top_to_bottom_with_soft_brush_short_short_600ms.mp4	211.9036437363311	212.5119605551231	0.608316818791991	n/a	n/a	n/a	n/a
176.443359375	0.2	361356	168	34	1	0	0	69	70	stimuli\Videos_short_600ms\73.single_stroke_with_flat_hand_short_short_600ms.mp4	73.single_stroke_with_flat_hand_short_short_600ms.mp4	212.70362209490213	213.31191486766147	0.6082927727593415	n/a	n/a	n/a	n/a
177.2431640625	0.2	362994	169	34	1	0	0	70	122	stimuli\Videos_short_600ms_horflip\39.single_stab_with_scissors_short_horflip_short_600ms.mp4	39.single_stab_with_scissors_short_horflip_short_600ms.mp4	213.50358197908236	214.11190055734005	0.6083185782576948	n/a	n/a	n/a	n/a
178.04296875	0.2	364632	170	34	1	0	1	71	381	stimuli\Targets_short_600ms_vertflip\finger-tap_short_horvertflip_short_600ms.mp4	finger-tap_short_horvertflip_short_600ms.mp4	214.30364332578893	214.91186337396312	0.6082200481741893	n/a	n/a	n/a	n/a
178.84326171875	0.2	366271	171	34	1	0	0	72	353	stimuli\Videos_short_600ms_vertflip\85.touch_top_to_bottom_with_fabric_short_vertflip_short_600ms.mp4	85.touch_top_to_bottom_with_fabric_short_vertflip_short_600ms.mp4	215.10359529237303	215.71186489883348	0.6082696064604534	n/a	n/a	n/a	n/a
179.64306640625	0.2	367909	172	34	1	0	0	73	319	stimuli\Videos_short_600ms_vertflip\54.repeated_touch_with_knife_short_vertflip_short_600ms.mp4	54.repeated_touch_with_knife_short_vertflip_short_600ms.mp4	215.90355312384327	216.51184413713736	0.6082910132940924	n/a	n/a	n/a	n/a
180.44287109375	0.2	369547	173	34	1	0	1	74	370	stimuli\Targets_short_600ms_horflip\hand-pinch_short_horflip_short_600ms.mp4	hand-pinch_short_horflip_short_600ms.mp4	216.70382560644384	217.31185915124524	0.6080335448014011	n/a	n/a	n/a	n/a
181.2431640625	0.2	371186	174	34	1	0	0	75	50	stimuli\Videos_short_600ms\55.touch_top_to_bottom_with_nail_file_short_short_600ms.mp4	55.touch_top_to_bottom_with_nail_file_short_short_600ms.mp4	217.50349664499208	218.11182988546443	0.6083332404723478	n/a	n/a	n/a	n/a
182.04296875	0.2	372824	175	34	1	0	0	76	216	stimuli\Videos_short_600ms_horvertflip\42.single_slap_with_plastic_whisk_short_horvertflip_short_600ms.mp4	42.single_slap_with_plastic_whisk_short_horvertflip_short_600ms.mp4	218.30348849280065	218.91181264269972	0.6083241498990901	n/a	n/a	n/a	n/a
182.8427734375	0.2	374462	176	34	1	0	0	77	228	stimuli\Videos_short_600ms_horvertflip\53.touch_top_to_bottom_with_knife_short_horvertflip_short_600ms.mp4	53.touch_top_to_bottom_with_knife_short_horvertflip_short_600ms.mp4	219.10347183652448	219.71179070802648	0.6083188715019787	n/a	n/a	n/a	n/a
183.64306640625	0.2	376101	177	34	1	0	0	78	248	stimuli\Videos_short_600ms_horvertflip\71.single_stroke_with_finger_top_to_bottom_short_horvertflip_short_600ms.mp4	71.single_stroke_with_finger_top_to_bottom_short_horvertflip_short_600ms.mp4	219.9034504883398	220.5117722922846	0.6083218039448184	n/a	n/a	n/a	n/a
184.44287109375	0.2	377739	178	34	1	0	0	79	4	stimuli\Videos_short_600ms\13.single_touch_with_pen_short_short_600ms.mp4	13.single_touch_with_pen_short_short_600ms.mp4	220.7038974512966	221.31175416978704	0.6078567184904387	n/a	n/a	n/a	n/a
185.24267578125	0.2	379377	179	34	1	0	0	80	267	stimuli\Videos_short_600ms_horvertflip\89.single_touch_with_plastic_brush_short_horvertflip_short_600ms.mp4	89.single_touch_with_plastic_brush_short_horvertflip_short_600ms.mp4	221.50343213124643	222.11173458106805	0.6083024498216218	n/a	n/a	n/a	n/a
186.04296875	0.2	381016	180	34	1	0	0	81	158	stimuli\Videos_short_600ms_horflip\71.single_stroke_with_finger_top_to_bottom_short_horflip_short_600ms.mp4	71.single_stroke_with_finger_top_to_bottom_short_horflip_short_600ms.mp4	222.30337500725773	222.91171645857048	0.6083414513127536	n/a	n/a	n/a	n/a
186.8427734375	0.2	382654	181	34	1	0	0	82	242	stimuli\Videos_short_600ms_horvertflip\66.stroke_top_to_bottom_with_sponge_short_horvertflip_short_600ms.mp4	66.stroke_top_to_bottom_with_sponge_short_horvertflip_short_600ms.mp4	223.10342403770392	223.7116470183214	0.6082229806174837	n/a	n/a	n/a	n/a
187.64306640625	0.2	384293	182	34	1	0	0	83	166	stimuli\Videos_short_600ms_horflip\79.long_with_soft_brush_all_over_the_hand_short_horflip_short_600ms.mp4	79.long_with_soft_brush_all_over_the_hand_short_horflip_short_600ms.mp4	223.90333641630832	224.51168021357535	0.6083437972670254	n/a	n/a	n/a	n/a
188.44287109375	0.2	385931	183	34	1	0	1	84	378	stimuli\Targets_short_600ms_vertflip\brush-stroke_short_horvertflip_short_600ms.mp4	brush-stroke_short_horvertflip_short_600ms.mp4	224.7033716642727	225.31166502352107	0.6082933592483641	n/a	n/a	n/a	n/a
189.24267578125	0.2	387569	184	34	1	0	0	85	342	stimuli\Videos_short_600ms_vertflip\75.(long)stroke_with_fingers_all_over_the_hand_short_vertflip_short_600ms.mp4	75.(long)stroke_with_fingers_all_over_the_hand_short_vertflip_short_600ms.mp4	225.50329899833605	226.1116416226259	0.6083426242898895	n/a	n/a	n/a	n/a
190.04296875	0.2	389208	185	34	1	0	0	86	323	stimuli\Videos_short_600ms_vertflip\58.single_slap_with_pencil_short_vertflip_short_600ms.mp4	58.single_slap_with_pencil_short_vertflip_short_600ms.mp4	226.30361077567204	226.9116255528388	0.6080147771667725	n/a	n/a	n/a	n/a
190.8427734375	0.2	390846	186	34	1	0	0	87	67	stimuli\Videos_short_600ms\70.(long)stroke_with_finger_all_over_the_hand_short_short_600ms.mp4	70.(long)stroke_with_finger_all_over_the_hand_short_short_600ms.mp4	227.1032803479989	227.71159247488183	0.6083121268829927	n/a	n/a	n/a	n/a
191.642578125	0.2	392484	187	34	1	0	0	88	252	stimuli\Videos_short_600ms_horvertflip\75.(long)stroke_with_fingers_all_over_the_hand_short_horvertflip_short_600ms.mp4	75.(long)stroke_with_fingers_all_over_the_hand_short_horvertflip_short_600ms.mp4	227.90330503916857	228.51153945631313	0.6082344171445584	n/a	n/a	n/a	n/a
192.44287109375	0.2	394123	188	34	1	0	0	89	348	stimuli\Videos_short_600ms_vertflip\80.stroke_with_sharp_stick_all_over_the_hand_short_vertflip_short_600ms.mp4	80.stroke_with_sharp_stick_all_over_the_hand_short_vertflip_short_600ms.mp4	228.7032259218572	229.31154713931392	0.6083212174567052	n/a	n/a	n/a	n/a
193.24267578125	0.2	395761	189	34	1	0	0	90	150	stimuli\Videos_short_600ms_horflip\64.repeated_touch_with_screwdriver_short_horflip_short_600ms.mp4	64.repeated_touch_with_screwdriver_short_horflip_short_600ms.mp4	229.5033728958988	230.1115254978845	0.6081526019856938	n/a	n/a	n/a	n/a
194.04248046875	0.2	397399	190	34	1	0	0	91	226	stimuli\Videos_short_600ms_horvertflip\51.repeated_touch_with_hammer_short_horvertflip_short_600ms.mp4	51.repeated_touch_with_hammer_short_horvertflip_short_600ms.mp4	230.30320991071855	230.9115161727159	0.6083062619973134	n/a	n/a	n/a	n/a
194.8427734375	0.2	399038	191	34	1	0	0	92	185	stimuli\Videos_short_600ms_horvertflip\14.repeated_touch_with_pencil_short_horvertflip_short_600ms.mp4	14.repeated_touch_with_pencil_short_horvertflip_short_600ms.mp4	231.10378912685337	231.71149746372976	0.6077083368763851	n/a	n/a	n/a	n/a
195.642578125	0.2	400676	192	34	1	0	0	93	15	stimuli\Videos_short_600ms\23.single_push_with_a_spoon_short_short_600ms.mp4	23.single_push_with_a_spoon_short_short_600ms.mp4	231.90349916689271	232.51148872504973	0.6079895581569872	n/a	n/a	n/a	n/a
196.4423828125	0.2	402314	193	34	1	0	0	94	109	stimuli\Videos_short_600ms_horflip\27.single_push_with_a_plastic_whisk_short_horflip_short_600ms.mp4	27.single_push_with_a_plastic_whisk_short_horflip_short_600ms.mp4	232.7031599418906	233.3114884904544	0.6083285485638044	n/a	n/a	n/a	n/a
197.24267578125	0.2	403953	194	34	1	0	0	95	321	stimuli\Videos_short_600ms_vertflip\56.repeated_touch_with_nail_file_short_vertflip_short_600ms.mp4	56.repeated_touch_with_nail_file_short_vertflip_short_600ms.mp4	233.50317231679992	234.1114592246736	0.6082869078736621	6.0	6.0	2.3822251729116033	1.0
233.599609375	0.2	478412	195	34	2	0	0	0	176	stimuli\Videos_short_600ms_horflip\88.repeated_stroke_with_plastic_brush_short_horflip_short_600ms.mp4	88.repeated_stroke_with_plastic_brush_short_horflip_short_600ms.mp4	269.86075617147253	270.4689486546831	0.6081924832105869	n/a	n/a	n/a	n/a
234.39990234375	0.2	480051	196	34	2	0	0	1	191	stimuli\Videos_short_600ms_horvertflip\2.single_touch_with_finger_short_horvertflip_short_600ms.mp4	2.single_touch_with_finger_short_horvertflip_short_600ms.mp4	270.6605826294981	271.26892584027655	0.6083432107784574	n/a	n/a	n/a	n/a
235.19970703125	0.2	481689	197	34	2	0	0	2	8	stimuli\Videos_short_600ms\17.repeated_touch_with_rolling_pin_short_short_600ms.mp4	17.repeated_touch_with_rolling_pin_short_short_600ms.mp4	271.4606820979634	272.068908304268	0.6082262063046073	n/a	n/a	n/a	n/a
235.99951171875	0.2	483327	198	34	2	0	0	3	345	stimuli\Videos_short_600ms_vertflip\78.single_stroke_top_to_bottom_with_soft_brush_short_vertflip_short_600ms.mp4	78.single_stroke_top_to_bottom_with_soft_brush_short_vertflip_short_600ms.mp4	272.26062966588324	272.86888812906	0.6082584631767531	n/a	n/a	n/a	n/a
236.7998046875	0.2	484966	199	34	2	0	0	4	140	stimuli\Videos_short_600ms_horflip\55.touch_top_to_bottom_with_nail_file_short_horflip_short_600ms.mp4	55.touch_top_to_bottom_with_nail_file_short_horflip_short_600ms.mp4	273.0605314876925	273.66887235251716	0.6083408648246404	n/a	n/a	n/a	n/a
237.599609375	0.2	486604	200	34	2	0	0	5	211	stimuli\Videos_short_600ms_horvertflip\38.double_slap_with_pencil_short_horvertflip_short_600ms.mp4	38.double_slap_with_pencil_short_horvertflip_short_600ms.mp4	273.8605896087124	274.4688521773096	0.6082625685971834	n/a	n/a	n/a	n/a
238.3994140625	0.2	488242	201	34	2	0	0	6	201	stimuli\Videos_short_600ms_horvertflip\29.single_pinch_with_tweezers_short_horvertflip_short_600ms.mp4	29.single_pinch_with_tweezers_short_horvertflip_short_600ms.mp4	274.6604706101766	275.26883552103345	0.6083649108568352	n/a	n/a	n/a	n/a
239.19970703125	0.2	489881	202	34	2	0	0	7	170	stimuli\Videos_short_600ms_horflip\82.repeated_touch_with_cotton_bud_short_horflip_short_600ms.mp4	82.repeated_touch_with_cotton_bud_short_horflip_short_600ms.mp4	275.46044662279337	276.06881593231446	0.6083693095210947	n/a	n/a	n/a	n/a
239.99951171875	0.2	491519	203	34	2	0	0	8	71	stimuli\Videos_short_600ms\74.fingers_walking_from_top_to_bottom_short_short_600ms.mp4	74.fingers_walking_from_top_to_bottom_short_short_600ms.mp4	276.2604317259829	276.86879722332833	0.6083654973454031	n/a	n/a	n/a	n/a
240.79931640625	0.2	493157	204	34	2	0	0	9	101	stimuli\Videos_short_600ms_horflip\2.single_touch_with_finger_short_horflip_short_600ms.mp4	2.single_touch_with_finger_short_horflip_short_600ms.mp4	277.0604655077259	277.6687788075865	0.6083132998605834	n/a	n/a	n/a	n/a
241.599609375	0.2	494796	205	34	2	0	0	10	151	stimuli\Videos_short_600ms_horflip\65.stroke_top_to_bottom_with_stanley_knife_short_horflip_short_600ms.mp4	65.stroke_top_to_bottom_with_stanley_knife_short_horflip_short_600ms.mp4	277.86053359905145	278.4687568729132	0.6082232738617677	n/a	n/a	n/a	n/a
242.3994140625	0.2	496434	206	34	2	0	0	11	250	stimuli\Videos_short_600ms_horvertflip\73.single_stroke_with_flat_hand_short_horvertflip_short_600ms.mp4	73.single_stroke_with_flat_hand_short_horvertflip_short_600ms.mp4	278.6604811669713	279.26874402881276	0.6082628618414674	n/a	n/a	n/a	n/a
243.19921875	0.2	498072	207	34	2	0	0	12	113	stimuli\Videos_short_600ms_horflip\30.finger_pulling_back_another_finger_short_horflip_short_600ms.mp4	30.finger_pulling_back_another_finger_short_horflip_short_600ms.mp4	279.4603935455757	280.0687015670387	0.6083080214630172	n/a	n/a	n/a	n/a
243.99951171875	0.2	499711	208	34	2	0	0	13	77	stimuli\Videos_short_600ms\8.single_touch_with_hairbrush_short_short_600ms.mp4	8.single_touch_with_hairbrush_short_short_600ms.mp4	280.2603900852928	280.8686860837397	0.6082959984469198	n/a	n/a	n/a	n/a
244.79931640625	0.2	501349	209	34	2	0	0	14	307	stimuli\Videos_short_600ms_vertflip\43.touch_top_to_bottom_with_sharp_wooden_stick_short_vertflip_short_600ms.mp4	43.touch_top_to_bottom_with_sharp_wooden_stick_short_vertflip_short_600ms.mp4	281.0603927831403	281.66863980978997	0.6082470266496784	n/a	n/a	n/a	n/a
245.59912109375	0.2	502987	210	34	2	0	0	15	272	stimuli\Videos_short_600ms_vertflip\11.single_touch_with_lighter_short_vertflip_short_600ms.mp4	11.single_touch_with_lighter_short_vertflip_short_600ms.mp4	281.8603555997638	282.468649838745	0.608294238981216	n/a	n/a	n/a	n/a
246.3994140625	0.2	504626	211	34	2	0	0	16	134	stimuli\Videos_short_600ms_horflip\5.repeated_tap_with_finger_moving_from_top_to_bottom_short_horflip_short_600ms.mp4	5.repeated_tap_with_finger_moving_from_top_to_bottom_short_horflip_short_600ms.mp4	282.6603339583344	283.268638460866	0.6083045025316096	n/a	n/a	n/a	n/a
247.19921875	0.2	506264	212	34	2	0	0	17	212	stimuli\Videos_short_600ms_horvertflip\39.single_stab_with_scissors_short_horvertflip_short_600ms.mp4	39.single_stab_with_scissors_short_horvertflip_short_600ms.mp4	283.460310850684	284.06862415054457	0.6083132998605834	n/a	n/a	n/a	n/a
247.9990234375	0.2	507902	213	34	2	0	0	18	90	stimuli\Videos_short_600ms_horflip\1.repeated_touch_with_finger_fast_short_horflip_short_600ms.mp4	1.repeated_touch_with_finger_fast_short_horflip_short_600ms.mp4	284.26035694868733	284.86862244972735	0.6082655010400231	n/a	n/a	n/a	n/a
248.79931640625	0.2	509541	214	34	2	0	0	19	284	stimuli\Videos_short_600ms_vertflip\22.single_touch_with_metal_chopstick_short_vertflip_short_600ms.mp4	22.single_touch_with_metal_chopstick_short_vertflip_short_600ms.mp4	285.06031478015757	285.6685923042137	0.6082775240561205	n/a	n/a	n/a	n/a
249.59912109375	0.2	511179	215	34	2	0	0	20	282	stimuli\Videos_short_600ms_vertflip\20.single_touch_with_screwdriver_short_vertflip_short_600ms.mp4	20.single_touch_with_screwdriver_short_vertflip_short_600ms.mp4	285.86026733323024	286.46857330198327	0.6083059687530294	n/a	n/a	n/a	n/a
250.39892578125	0.2	512817	216	34	2	0	0	21	200	stimuli\Videos_short_600ms_horvertflip\28.single_injection_with_sharp_needle_short_horvertflip_short_600ms.mp4	28.single_injection_with_sharp_needle_short_horvertflip_short_600ms.mp4	286.6602588877945	287.2685551794857	0.6082962916912038	n/a	n/a	n/a	n/a
251.19921875	0.2	514456	217	34	2	0	0	22	237	stimuli\Videos_short_600ms_horvertflip\61.single_hit_with_rolling_pin_short_horvertflip_short_600ms.mp4	61.single_hit_with_rolling_pin_short_horvertflip_short_600ms.mp4	287.46021847873044	288.0685370569886	0.6083185782581495	n/a	n/a	n/a	n/a
251.9990234375	0.2	516094	218	34	2	0	0	23	112	stimuli\Videos_short_600ms_horflip\3.single_push_with_finger_short_horflip_short_600ms.mp4	3.single_push_with_finger_short_horflip_short_600ms.mp4	288.2601994765	288.86851717502486	0.6083176985248429	n/a	n/a	n/a	n/a
252.79931640625	0.2	517733	219	34	2	0	0	24	13	stimuli\Videos_short_600ms\21.repeated_touch_with_metal_chopstick_short_short_600ms.mp4	21.repeated_touch_with_metal_chopstick_short_short_600ms.mp4	289.0601649323221	289.66849875928347	0.6083338269613705	n/a	n/a	n/a	n/a
253.59912109375	0.2	519371	220	34	2	0	0	25	207	stimuli\Videos_short_600ms_horvertflip\34.repeated_punch_with_hand_short_horvertflip_short_600ms.mp4	34.repeated_punch_with_hand_short_horvertflip_short_600ms.mp4	289.8601127934862	290.4684809300302	0.6083681365439588	n/a	n/a	n/a	n/a
254.39892578125	0.2	521009	221	34	2	0	0	26	204	stimuli\Videos_short_600ms_horvertflip\31.hand_grabbing_wrist_short_horvertflip_short_600ms.mp4	31.hand_grabbing_wrist_short_horvertflip_short_600ms.mp4	290.6600970169429	291.2684601683336	0.6083631513906766	n/a	n/a	n/a	n/a
255.19921875	0.2	522648	222	34	2	0	0	27	316	stimuli\Videos_short_600ms_vertflip\51.repeated_touch_with_hammer_short_vertflip_short_600ms.mp4	51.repeated_touch_with_hammer_short_vertflip_short_600ms.mp4	291.4601357838387	292.0684394066375	0.6083036227987577	n/a	n/a	n/a	n/a
255.9990234375	0.2	524286	223	34	2	0	0	28	236	stimuli\Videos_short_600ms_horvertflip\60.single_push_with_tip_of_pencil_short_horvertflip_short_600ms.mp4	60.single_push_with_tip_of_pencil_short_horvertflip_short_600ms.mp4	292.2600657571011	292.8684239233389	0.6083581662378492	n/a	n/a	n/a	n/a
256.798828125	0.2	525924	224	34	2	0	1	29	366	stimuli\Targets_short_600ms_horflip\brush-stroke_short_horflip_short_600ms.mp4	brush-stroke_short_horflip_short_600ms.mp4	293.0604789969634	293.668382634542	0.6079036375786018	n/a	n/a	n/a	n/a
257.59912109375	0.2	527563	225	34	2	0	0	30	45	stimuli\Videos_short_600ms\50.single_(long)hard_push_with_thumb_short_short_600ms.mp4	50.single_(long)hard_push_with_thumb_short_short_600ms.mp4	293.8603573592295	294.4683856256338	0.6080282664042898	n/a	n/a	n/a	n/a
258.39892578125	0.2	529201	226	34	2	0	0	31	320	stimuli\Videos_short_600ms_vertflip\55.touch_top_to_bottom_with_nail_file_short_vertflip_short_600ms.mp4	55.touch_top_to_bottom_with_nail_file_short_vertflip_short_600ms.mp4	294.66002810453347	295.26833202057605	0.6083039160425869	n/a	n/a	n/a	n/a
259.19873046875	0.2	530839	227	34	2	0	0	32	306	stimuli\Videos_short_600ms_vertflip\42.single_slap_with_plastic_whisk_short_vertflip_short_600ms.mp4	42.single_slap_with_plastic_whisk_short_vertflip_short_600ms.mp4	295.45997215352145	296.0683136048342	0.6083414513127536	n/a	n/a	n/a	n/a
259.9990234375	0.2	532478	228	34	2	0	0	33	118	stimuli\Videos_short_600ms_horflip\35.single_punch_with_hand_short_horflip_short_600ms.mp4	35.single_punch_with_hand_short_horflip_short_600ms.mp4	296.26020886031756	296.86828345932054	0.6080745990029754	n/a	n/a	n/a	n/a
260.798828125	0.2	534116	229	34	2	0	0	34	225	stimuli\Videos_short_600ms_horvertflip\50.single_(long)hard_push_with_thumb_short_horvertflip_short_600ms.mp4	50.single_(long)hard_push_with_thumb_short_horvertflip_short_600ms.mp4	297.05992711119734	297.6682978869403	0.6083707757429693	n/a	n/a	n/a	n/a
261.5986328125	0.2	535754	230	34	2	0	0	35	60	stimuli\Videos_short_600ms\64.repeated_touch_with_screwdriver_short_short_600ms.mp4	64.repeated_touch_with_screwdriver_short_short_600ms.mp4	297.85990546976836	298.4682826968856	0.6083772271172165	n/a	n/a	n/a	n/a
262.39892578125	0.2	537393	231	34	2	0	1	36	376	stimuli\Targets_short_600ms_horvertflip\hand-pinch_short_vertflip_short_600ms.mp4	hand-pinch_short_vertflip_short_600ms.mp4	298.6599316271595	299.2682613487009	0.608329721541395	n/a	n/a	n/a	n/a
263.19873046875	0.2	539031	232	34	2	0	0	37	78	stimuli\Videos_short_600ms\80.stroke_with_sharp_stick_all_over_the_hand_short_short_600ms.mp4	80.stroke_with_sharp_stick_all_over_the_hand_short_short_600ms.mp4	299.45988388698834	300.06826815196837	0.6083842649800317	n/a	n/a	n/a	n/a
263.99853515625	0.2	540669	233	34	2	0	1	38	364	stimuli\Targets_short_600ms\hand-pinch_short_short_600ms.mp4	hand-pinch_short_short_600ms.mp4	300.2599015402948	300.868240352409	0.6083388121141979	n/a	n/a	n/a	n/a
264.798828125	0.2	542308	234	34	2	0	0	39	198	stimuli\Videos_short_600ms_horvertflip\26.single_touch_with_a_blunt_syringe_short_horvertflip_short_600ms.mp4	26.single_touch_with_a_blunt_syringe_short_horvertflip_short_600ms.mp4	301.059861424475	301.66821460556	0.6083531810850218	n/a	n/a	n/a	n/a
265.5986328125	0.2	543946	235	34	2	0	0	40	293	stimuli\Videos_short_600ms_vertflip\30.finger_pulling_back_another_finger_short_vertflip_short_600ms.mp4	30.finger_pulling_back_another_finger_short_vertflip_short_600ms.mp4	301.8598283465185	302.46820058848243	0.6083722419639344	n/a	n/a	n/a	n/a
266.3984375	0.2	545584	236	34	2	0	0	41	132	stimuli\Videos_short_600ms_horflip\48.single_slap_with_hand_short_horflip_short_600ms.mp4	48.single_slap_with_hand_short_horflip_short_600ms.mp4	302.6598105172652	303.268181586252	0.6083710689867985	n/a	n/a	n/a	n/a
267.19873046875	0.2	547223	237	34	2	0	0	42	121	stimuli\Videos_short_600ms_horflip\38.double_slap_with_pencil_short_horflip_short_600ms.mp4	38.double_slap_with_pencil_short_horflip_short_600ms.mp4	303.45984459225247	304.06816141104446	0.608316818791991	n/a	n/a	n/a	n/a
267.99853515625	0.2	548861	238	34	2	0	0	43	57	stimuli\Videos_short_600ms\61.single_hit_with_rolling_pin_short_short_600ms.mp4	61.single_hit_with_rolling_pin_short_short_600ms.mp4	304.2597942128823	304.86814592774545	0.6083517148631472	n/a	n/a	n/a	n/a
268.79833984375	0.2	550499	239	34	2	0	0	44	193	stimuli\Videos_short_600ms_horvertflip\21.repeated_touch_with_metal_chopstick_short_horvertflip_short_600ms.mp4	21.repeated_touch_with_metal_chopstick_short_horvertflip_short_600ms.mp4	305.0598834177972	305.6681216471179	0.6082382293207047	n/a	n/a	n/a	n/a
269.5986328125	0.2	552138	240	34	2	0	0	45	271	stimuli\Videos_short_600ms_vertflip\10.single_touch_with_knife_short_vertflip_short_600ms.mp4	10.single_touch_with_knife_short_vertflip_short_600ms.mp4	305.8597336286107	306.4681105624836	0.6083769338729326	n/a	n/a	n/a	n/a
270.3984375	0.2	553776	241	34	2	0	0	46	338	stimuli\Videos_short_600ms_vertflip\71.single_stroke_with_finger_top_to_bottom_short_vertflip_short_600ms.mp4	71.single_stroke_with_finger_top_to_bottom_short_vertflip_short_600ms.mp4	306.65970084389846	307.26808393590136	0.6083830920028959	n/a	n/a	n/a	n/a
271.19873046875	0.2	555415	242	34	2	0	0	47	138	stimuli\Videos_short_600ms_horflip\53.touch_top_to_bottom_with_knife_short_horflip_short_600ms.mp4	53.touch_top_to_bottom_with_knife_short_horflip_short_600ms.mp4	307.4596841876223	308.06806493367094	0.6083807460486241	n/a	n/a	n/a	n/a
271.99853515625	0.2	557053	243	34	2	0	0	48	310	stimuli\Videos_short_600ms_vertflip\46.scratching_top_to_bottom_with_finger_nails_short_vertflip_short_600ms.mp4	46.scratching_top_to_bottom_with_finger_nails_short_vertflip_short_600ms.mp4	308.25968600573697	308.86804739766194	0.6083613919249728	n/a	n/a	n/a	n/a
272.79833984375	0.2	558691	244	34	2	0	0	49	133	stimuli\Videos_short_600ms_horflip\49.repeated_slap_with_hand_short_horflip_short_600ms.mp4	49.repeated_slap_with_hand_short_horflip_short_600ms.mp4	309.05966524404084	309.66800962779644	0.6083443837555933	n/a	n/a	n/a	n/a
273.5986328125	0.2	560330	245	34	2	0	0	50	17	stimuli\Videos_short_600ms\25.single_touch_with_stanley_knife_short_short_600ms.mp4	25.single_touch_with_stanley_knife_short_short_600ms.mp4	309.8596268876868	310.46802874732475	0.6084018596379792	n/a	n/a	n/a	n/a
274.3984375	0.2	561968	246	34	2	0	0	51	305	stimuli\Videos_short_600ms_vertflip\41.injection_with_blunt_syringe_short_vertflip_short_600ms.mp4	41.injection_with_blunt_syringe_short_vertflip_short_600ms.mp4	310.65972518317494	311.26797045035846	0.6082452671835199	n/a	n/a	n/a	n/a
275.1982421875	0.2	563606	247	34	2	0	0	52	38	stimuli\Videos_short_600ms\44.pushing_top_to_bottom_with_finger_short_short_600ms.mp4	44.pushing_top_to_bottom_with_finger_short_short_600ms.mp4	311.45966981865195	312.0679297480501	0.608259929398173	n/a	n/a	n/a	n/a
275.99853515625	0.2	565245	248	34	2	0	0	53	277	stimuli\Videos_short_600ms_vertflip\16.repeated_touch_with_plastic_brush_short_vertflip_short_600ms.mp4	16.repeated_touch_with_plastic_brush_short_vertflip_short_600ms.mp4	312.25958659592015	312.8679274607448	0.6083408648246404	n/a	n/a	n/a	n/a
276.79833984375	0.2	566883	249	34	2	0	0	54	146	stimuli\Videos_short_600ms_horflip\60.single_push_with_tip_of_pencil_short_horflip_short_600ms.mp4	60.single_push_with_tip_of_pencil_short_horflip_short_600ms.mp4	313.05956730044545	313.6679201882862	0.6083528878407378	n/a	n/a	n/a	n/a
277.59814453125	0.2	568521	250	34	2	0	0	55	91	stimuli\Videos_short_600ms_horflip\10.single_touch_with_knife_short_horflip_short_600ms.mp4	10.single_touch_with_knife_short_horflip_short_600ms.mp4	313.8595474184822	314.4679023590329	0.6083549405507256	n/a	n/a	n/a	n/a
278.3984375	0.2	570160	251	34	2	0	0	56	46	stimuli\Videos_short_600ms\51.repeated_touch_with_hammer_short_short_600ms.mp4	51.repeated_touch_with_hammer_short_short_600ms.mp4	314.6595301757179	315.2679135609651	0.6083833852471798	n/a	n/a	n/a	n/a
279.1982421875	0.2	571798	252	34	2	0	0	57	280	stimuli\Videos_short_600ms_vertflip\19.single_touch_with_rolling_pin_short_vertflip_short_600ms.mp4	19.single_touch_with_rolling_pin_short_vertflip_short_600ms.mp4	315.45951410593034	316.06788194923	0.6083678432996749	n/a	n/a	n/a	n/a
279.998046875	0.2	573436	253	34	2	0	0	58	221	stimuli\Videos_short_600ms_horvertflip\47.(long)scratching_with_finger_nails_short_horvertflip_short_600ms.mp4	47.(long)scratching_with_finger_nails_short_horvertflip_short_600ms.mp4	316.2595124051131	316.8678726240614	0.6083602189482917	n/a	n/a	n/a	n/a
280.79833984375	0.2	575075	254	34	2	0	0	59	334	stimuli\Videos_short_600ms_vertflip\68.stroke_top_to_bottom_with_shawl_short_vertflip_short_600ms.mp4	68.stroke_top_to_bottom_with_shawl_short_vertflip_short_600ms.mp4	317.05955146525366	317.6678410123259	0.6082895470722178	n/a	n/a	n/a	n/a
281.59814453125	0.2	576713	255	34	2	0	0	60	297	stimuli\Videos_short_600ms_vertflip\34.repeated_punch_with_hand_short_vertflip_short_600ms.mp4	34.repeated_punch_with_hand_short_vertflip_short_600ms.mp4	317.859565892873	318.4678243560502	0.6082584631772079	n/a	n/a	n/a	n/a
282.39794921875	0.2	578351	256	34	2	0	0	61	149	stimuli\Videos_short_600ms_horflip\63.stroke_top_to_bottom_with_screwdriver_short_horflip_short_600ms.mp4	63.stroke_top_to_bottom_with_screwdriver_short_horflip_short_600ms.mp4	318.6594677146827	319.2678044740869	0.6083367594042102	n/a	n/a	n/a	n/a
283.1982421875	0.2	579990	257	34	2	0	0	62	257	stimuli\Videos_short_600ms_horvertflip\8.single_touch_with_hairbrush_short_horvertflip_short_600ms.mp4	8.single_touch_with_hairbrush_short_horvertflip_short_600ms.mp4	319.45944665974184	320.0677889907879	0.6083423310460603	n/a	n/a	n/a	n/a
283.998046875	0.2	581628	258	34	2	0	0	63	234	stimuli\Videos_short_600ms_horvertflip\59.single_push_with_long_side_pencil_short_horvertflip_short_600ms.mp4	59.single_push_with_long_side_pencil_short_horvertflip_short_600ms.mp4	320.2593824978899	320.86776881558035	0.6083863176904742	n/a	n/a	n/a	n/a
284.7978515625	0.2	583266	259	34	2	0	0	64	189	stimuli\Videos_short_600ms_horvertflip\18.single_stroke_from_top_to_bottom_with_rolling_pin_short_horvertflip_short_600ms.mp4	18.single_stroke_from_top_to_bottom_with_rolling_pin_short_horvertflip_short_600ms.mp4	321.0593813835617	321.6677486403728	0.6083672568111069	n/a	n/a	n/a	n/a
285.59814453125	0.2	584905	260	34	2	0	0	65	217	stimuli\Videos_short_600ms_horvertflip\43.touch_top_to_bottom_with_sharp_wooden_stick_short_horvertflip_short_600ms.mp4	43.touch_top_to_bottom_with_sharp_wooden_stick_short_horvertflip_short_600ms.mp4	321.8593468393833	322.46773022463094	0.6083833852476346	n/a	n/a	n/a	n/a
286.39794921875	0.2	586543	261	34	2	0	0	66	195	stimuli\Videos_short_600ms_horvertflip\23.single_push_with_a_spoon_short_horvertflip_short_600ms.mp4	23.single_push_with_a_spoon_short_horvertflip_short_600ms.mp4	322.65934865749796	323.2676898155669	0.6083411580689244	n/a	n/a	n/a	n/a
287.19775390625	0.2	588181	262	34	2	0	0	67	115	stimuli\Videos_short_600ms_horflip\32.single_(long)pinch_with_fingers_short_horflip_short_600ms.mp4	32.single_(long)pinch_with_fingers_short_horflip_short_600ms.mp4	323.45941880153396	324.0676977918115	0.6082789902775403	n/a	n/a	n/a	n/a
287.998046875	0.2	589820	263	34	2	0	0	68	74	stimuli\Videos_short_600ms\77.tapping_with_all_fingers_short_short_600ms.mp4	77.tapping_with_all_fingers_short_short_600ms.mp4	324.25934672208587	324.8676521043503	0.6083053822644615	n/a	n/a	n/a	n/a
288.7978515625	0.2	591458	264	34	2	0	0	69	80	stimuli\Videos_short_600ms\82.repeated_touch_with_cotton_bud_short_short_600ms.mp4	82.repeated_touch_with_cotton_bud_short_short_600ms.mp4	325.0593004481357	325.66764629811314	0.6083458499774679	n/a	n/a	n/a	n/a
289.59765625	0.2	593096	265	34	2	0	0	70	92	stimuli\Videos_short_600ms_horflip\11.single_touch_with_lighter_short_horflip_short_600ms.mp4	11.single_touch_with_lighter_short_horflip_short_600ms.mp4	325.8593210338854	326.4676140998895	0.6082930660040802	n/a	n/a	n/a	n/a
290.39794921875	0.2	594735	266	34	2	0	0	71	279	stimuli\Videos_short_600ms_vertflip\18.single_stroke_from_top_to_bottom_with_rolling_pin_short_vertflip_short_600ms.mp4	18.single_stroke_from_top_to_bottom_with_rolling_pin_short_vertflip_short_600ms.mp4	326.65929440730315	327.2675857138415	0.6082913065383764	n/a	n/a	n/a	n/a
291.19775390625	0.2	596373	267	34	2	0	0	72	324	stimuli\Videos_short_600ms_vertflip\59.single_push_with_long_side_pencil_short_vertflip_short_600ms.mp4	59.single_push_with_long_side_pencil_short_vertflip_short_600ms.mp4	327.459275698317	328.0675543953507	0.6082786970337111	n/a	n/a	n/a	n/a
291.998046875	0.2	598012	268	34	2	0	0	73	63	stimuli\Videos_short_600ms\67.single_touch_with_sponge_short_short_600ms.mp4	67.single_touch_with_sponge_short_short_600ms.mp4	328.2592341162758	328.8675694094586	0.6083352931827903	n/a	n/a	n/a	n/a
292.7978515625	0.2	599650	269	34	2	0	0	74	173	stimuli\Videos_short_600ms_horflip\85.touch_top_to_bottom_with_fabric_short_horflip_short_600ms.mp4	85.touch_top_to_bottom_with_fabric_short_horflip_short_600ms.mp4	329.0592388668333	329.66754278287635	0.6083039160430417	n/a	n/a	n/a	n/a
293.59765625	0.2	601288	270	34	2	0	0	75	19	stimuli\Videos_short_600ms\27.single_push_with_a_plastic_whisk_short_short_600ms.mp4	27.single_push_with_a_plastic_whisk_short_short_600ms.mp4	329.8592198646029	330.46755134561	0.6083314810070988	n/a	n/a	n/a	n/a
294.39794921875	0.2	602927	271	34	2	0	0	76	20	stimuli\Videos_short_600ms\28.single_injection_with_sharp_needle_short_short_600ms.mp4	28.single_injection_with_sharp_needle_short_short_600ms.mp4	330.6592008623725	331.2675282379596	0.6083273755871232	n/a	n/a	n/a	n/a
295.19775390625	0.2	604565	272	34	2	0	0	77	135	stimuli\Videos_short_600ms_horflip\50.single_(long)hard_push_with_thumb_short_horflip_short_600ms.mp4	50.single_(long)hard_push_with_thumb_short_horflip_short_600ms.mp4	331.45915400193417	332.06750483706446	0.6083508351302953	n/a	n/a	n/a	n/a
295.99755859375	0.2	606203	273	34	2	0	0	78	356	stimuli\Videos_short_600ms_vertflip\88.repeated_stroke_with_plastic_brush_short_vertflip_short_600ms.mp4	88.repeated_stroke_with_plastic_brush_short_vertflip_short_600ms.mp4	332.25916520386636	332.86748730105546	0.6083220971891024	n/a	n/a	n/a	n/a
296.7978515625	0.2	607842	274	34	2	0	0	79	238	stimuli\Videos_short_600ms_horvertflip\62.touch_top_to_bottom_with_scissors_short_horvertflip_short_600ms.mp4	62.touch_top_to_bottom_with_scissors_short_horvertflip_short_600ms.mp4	333.0591470813688	333.66746624611505	0.6083191647462627	n/a	n/a	n/a	n/a
297.59765625	0.2	609480	275	34	2	0	0	80	287	stimuli\Videos_short_600ms_vertflip\25.single_touch_with_stanley_knife_short_vertflip_short_600ms.mp4	25.single_touch_with_stanley_knife_short_vertflip_short_600ms.mp4	333.85912837238266	334.46744871010605	0.6083203377233986	n/a	n/a	n/a	n/a
298.3974609375	0.2	611118	276	34	2	0	0	81	299	stimuli\Videos_short_600ms_vertflip\36.single_slap_with_full_hand_short_vertflip_short_600ms.mp4	36.single_slap_with_full_hand_short_vertflip_short_600ms.mp4	334.6591114228622	335.2674317605856	0.6083203377233986	n/a	n/a	n/a	n/a
299.19775390625	0.2	612757	277	34	2	0	0	82	40	stimuli\Videos_short_600ms\46.scratching_top_to_bottom_with_finger_nails_short_short_600ms.mp4	46.scratching_top_to_bottom_with_finger_nails_short_short_600ms.mp4	335.45906984082103	336.06741158537807	0.6083417445570376	n/a	n/a	n/a	n/a
299.99755859375	0.2	614395	278	34	2	0	0	83	42	stimuli\Videos_short_600ms\48.single_slap_with_hand_short_short_600ms.mp4	48.single_slap_with_hand_short_short_600ms.mp4	336.2590763508442	336.8673937561248	0.6083174052805589	n/a	n/a	n/a	n/a
300.79736328125	0.2	616033	279	34	2	0	0	84	227	stimuli\Videos_short_600ms_horvertflip\52.touch_top_to_bottom_with_hammer_short_horvertflip_short_600ms.mp4	52.touch_top_to_bottom_with_hammer_short_horvertflip_short_600ms.mp4	337.0590318363602	337.66737123496296	0.6083393986027659	n/a	n/a	n/a	n/a
301.59765625	0.2	617672	280	34	2	0	0	85	12	stimuli\Videos_short_600ms\20.single_touch_with_screwdriver_short_short_600ms.mp4	20.single_touch_with_screwdriver_short_short_600ms.mp4	337.859075295165	338.4673630827715	0.608287787606514	n/a	n/a	n/a	n/a
302.3974609375	0.2	619310	281	34	2	0	0	86	344	stimuli\Videos_short_600ms_vertflip\77.tapping_with_all_fingers_short_vertflip_short_600ms.mp4	77.tapping_with_all_fingers_short_vertflip_short_600ms.mp4	338.6589847413261	339.2673338169907	0.6083490756645915	n/a	n/a	n/a	n/a
303.197265625	0.2	620948	282	34	2	0	0	87	68	stimuli\Videos_short_600ms\71.single_stroke_with_finger_top_to_bottom_short_short_600ms.mp4	71.single_stroke_with_finger_top_to_bottom_short_short_600ms.mp4	339.4589839202422	340.0672966336142	0.6083127133720154	n/a	n/a	n/a	n/a
303.99755859375	0.2	622587	283	34	2	0	0	88	239	stimuli\Videos_short_600ms_horvertflip\63.stroke_top_to_bottom_with_screwdriver_short_horvertflip_short_600ms.mp4	63.stroke_top_to_bottom_with_screwdriver_short_horvertflip_short_600ms.mp4	340.2589842721354	340.8672620894358	0.6082778173004044	n/a	n/a	n/a	n/a
304.79736328125	0.2	624225	284	34	2	0	0	89	61	stimuli\Videos_short_600ms\65.stroke_top_to_bottom_with_stanley_knife_short_short_600ms.mp4	65.stroke_top_to_bottom_with_stanley_knife_short_short_600ms.mp4	341.05896614963785	341.6672715319023	0.6083053822644615	n/a	n/a	n/a	n/a
305.59716796875	0.2	625863	285	34	2	0	0	90	186	stimuli\Videos_short_600ms_horvertflip\15.single_stroke_top_to_bottom_with_a_plastic_whisk_short_horvertflip_short_600ms.mp4	15.single_stroke_top_to_bottom_with_a_plastic_whisk_short_horvertflip_short_600ms.mp4	341.8589178229777	342.46722819039496	0.6083103674172889	n/a	n/a	n/a	n/a
306.3974609375	0.2	627502	286	34	2	0	0	91	52	stimuli\Videos_short_600ms\57.single_touch_with_nail_file_short_short_600ms.mp4	57.single_touch_with_nail_file_short_short_600ms.mp4	342.65898738052465	343.2671992178589	0.6082118373342382	n/a	n/a	n/a	n/a
307.197265625	0.2	629140	287	34	2	0	0	92	273	stimuli\Videos_short_600ms_vertflip\12.repeated_touch_with_nail_file_short_vertflip_short_600ms.mp4	12.repeated_touch_with_nail_file_short_vertflip_short_600ms.mp4	343.4589267376041	344.06720631437065	0.608279576766563	3.0	3.0	2.8006437298799938	1.0
343.14599609375	0.2	702763	288	34	3	0	0	0	199	stimuli\Videos_short_600ms_horvertflip\27.single_push_with_a_plastic_whisk_short_horvertflip_short_600ms.mp4	27.single_push_with_a_plastic_whisk_short_horvertflip_short_600ms.mp4	379.4080602886811	380.01643663606546	0.6083763473843646	n/a	n/a	n/a	n/a
343.9462890625	0.2	704402	289	34	3	0	0	1	312	stimuli\Videos_short_600ms_vertflip\48.single_slap_with_hand_short_vertflip_short_600ms.mp4	48.single_slap_with_hand_short_vertflip_short_600ms.mp4	380.20803630129785	380.8163707147478	0.6083344134499384	n/a	n/a	n/a	n/a
344.74609375	0.2	706040	290	34	3	0	0	2	315	stimuli\Videos_short_600ms_vertflip\50.single_(long)hard_push_with_thumb_short_vertflip_short_600ms.mp4	50.single_(long)hard_push_with_thumb_short_vertflip_short_600ms.mp4	381.0080099679599	381.61636402877775	0.6083540608178737	n/a	n/a	n/a	n/a
345.5458984375	0.2	707678	291	34	3	0	0	3	249	stimuli\Videos_short_600ms_horvertflip\72.(short)stroke_with_finger_all_over_the_hand_short_horvertflip_short_600ms.mp4	72.(short)stroke_with_finger_all_over_the_hand_short_horvertflip_short_600ms.mp4	381.80796750618583	382.4163250859351	0.6083575797492813	n/a	n/a	n/a	n/a
346.34619140625	0.2	709317	292	34	3	0	0	4	325	stimuli\Videos_short_600ms_vertflip\6.single_touch_with_flat_hand_short_vertflip_short_600ms.mp4	6.single_touch_with_flat_hand_short_vertflip_short_600ms.mp4	382.6079399998707	383.2163087229033	0.6083687230325268	n/a	n/a	n/a	n/a
347.14599609375	0.2	710955	293	34	3	0	0	5	352	stimuli\Videos_short_600ms_vertflip\84.single_touch_with_cotton_bud_short_vertflip_short_600ms.mp4	84.single_touch_with_cotton_bud_short_vertflip_short_600ms.mp4	383.407949149093	384.01628913418426	0.6083399850913338	n/a	n/a	n/a	n/a
347.94580078125	0.2	712593	294	34	3	0	0	6	95	stimuli\Videos_short_600ms_horflip\14.repeated_touch_with_pencil_short_horflip_short_600ms.mp4	14.repeated_touch_with_pencil_short_horflip_short_600ms.mp4	384.20791548464786	384.81626807924386	0.6083525945959991	n/a	n/a	n/a	n/a
348.74609375	0.2	714232	295	34	3	0	0	7	213	stimuli\Videos_short_600ms_horvertflip\4.repeated_tap_with_finger_slow_short_horvertflip_short_600ms.mp4	4.repeated_tap_with_finger_slow_short_horvertflip_short_600ms.mp4	385.0079102648992	385.6162511297234	0.6083408648241857	n/a	n/a	n/a	n/a
349.5458984375	0.2	715870	296	34	3	0	0	8	180	stimuli\Videos_short_600ms_horvertflip\1.repeated_touch_with_finger_fast_short_horvertflip_short_600ms.mp4	1.repeated_touch_with_finger_fast_short_horvertflip_short_600ms.mp4	385.8080000563027	386.4162286085616	0.6082285522588791	n/a	n/a	n/a	n/a
350.345703125	0.2	717508	297	34	3	0	0	9	335	stimuli\Videos_short_600ms_vertflip\69.stroke_with_soft_sock_short_vertflip_short_600ms.mp4	69.stroke_with_soft_sock_short_vertflip_short_600ms.mp4	386.6078916145621	387.2161770562143	0.6082854416522423	n/a	n/a	n/a	n/a
351.14599609375	0.2	719147	298	34	3	0	1	10	372	stimuli\Targets_short_600ms_horvertflip\brush-stroke_short_vertflip_short_600ms.mp4	brush-stroke_short_vertflip_short_600ms.mp4	387.4079063354257	388.01614368501305	0.6082373495873981	n/a	n/a	n/a	n/a
351.94580078125	0.2	720785	299	34	3	0	0	11	179	stimuli\Videos_short_600ms_horflip\90.repeated_touch_with_sponge_short_horflip_short_600ms.mp4	90.repeated_touch_with_sponge_short_horflip_short_600ms.mp4	388.2078773628891	388.81612556251594	0.6082481996268143	n/a	n/a	n/a	n/a
352.74609375	0.2	722424	300	34	3	0	0	12	322	stimuli\Videos_short_600ms_vertflip\57.single_touch_with_nail_file_short_vertflip_short_600ms.mp4	57.single_touch_with_nail_file_short_vertflip_short_600ms.mp4	389.0078299159618	389.61612826036344	0.6082983444016463	n/a	n/a	n/a	n/a
353.5458984375	0.2	724062	301	34	3	0	0	13	174	stimuli\Videos_short_600ms_horflip\86.touch_top_to_bottom_with_hair_brush_short_horflip_short_600ms.mp4	86.touch_top_to_bottom_with_hair_brush_short_horflip_short_600ms.mp4	389.8078387719397	390.4161098446216	0.6082710726818732	n/a	n/a	n/a	n/a
354.345703125	0.2	725700	302	34	3	0	0	14	11	stimuli\Videos_short_600ms\2.single_touch_with_finger_short_short_600ms.mp4	2.single_touch_with_finger_short_short_600ms.mp4	390.6078297400154	391.21611342220194	0.6082836821865385	n/a	n/a	n/a	n/a
355.14599609375	0.2	727339	303	34	3	0	0	15	59	stimuli\Videos_short_600ms\63.stroke_top_to_bottom_with_screwdriver_short_short_600ms.mp4	63.stroke_top_to_bottom_with_screwdriver_short_short_600ms.mp4	391.40777408224767	392.0161029240562	0.6083288418085431	n/a	n/a	n/a	n/a
355.94580078125	0.2	728977	304	34	3	0	0	16	326	stimuli\Videos_short_600ms_vertflip\60.single_push_with_tip_of_pencil_short_vertflip_short_600ms.mp4	60.single_push_with_tip_of_pencil_short_vertflip_short_600ms.mp4	392.20775537326153	392.8160534244189	0.6082980511573624	n/a	n/a	n/a	n/a
356.74560546875	0.2	730615	305	34	3	0	0	17	98	stimuli\Videos_short_600ms_horflip\17.repeated_touch_with_rolling_pin_short_horflip_short_600ms.mp4	17.repeated_touch_with_rolling_pin_short_horflip_short_600ms.mp4	393.0077674549266	393.6160593479535	0.6082918930269443	n/a	n/a	n/a	n/a
357.5458984375	0.2	732254	306	34	3	0	1	18	371	stimuli\Targets_short_600ms_horflip\hand-stroke_short_horflip_short_600ms.mp4	hand-stroke_short_horflip_short_600ms.mp4	393.8076950822342	394.41601571320234	0.6083206309681373	n/a	n/a	n/a	n/a
358.345703125	0.2	733892	307	34	3	0	0	19	184	stimuli\Videos_short_600ms_horvertflip\13.single_touch_with_pen_short_horvertflip_short_600ms.mp4	13.single_touch_with_pen_short_horvertflip_short_600ms.mp4	394.6076983665703	395.2160058015452	0.608307434974904	n/a	n/a	n/a	n/a
359.1455078125	0.2	735530	308	34	3	0	0	20	254	stimuli\Videos_short_600ms_horvertflip\77.tapping_with_all_fingers_short_horvertflip_short_600ms.mp4	77.tapping_with_all_fingers_short_horvertflip_short_600ms.mp4	395.4077218847629	396.0159994088194	0.6082775240565752	n/a	n/a	n/a	n/a
359.94580078125	0.2	737169	309	34	3	0	0	21	79	stimuli\Videos_short_600ms\81.single_stroke_top_to_bottom_with_cotton_pad_short_short_600ms.mp4	81.single_stroke_top_to_bottom_with_cotton_pad_short_short_600ms.mp4	396.20770229604386	396.8159584132668	0.6082561172229362	n/a	n/a	n/a	n/a
360.74560546875	0.2	738807	310	34	3	0	0	22	34	stimuli\Videos_short_600ms\40.repeated_push_with_finger_short_short_600ms.mp4	40.repeated_push_with_finger_short_short_600ms.mp4	397.00763197606193	397.6159652165343	0.6083332404723478	n/a	n/a	n/a	n/a
361.54541015625	0.2	740445	311	34	3	0	0	23	255	stimuli\Videos_short_600ms_horvertflip\78.single_stroke_top_to_bottom_with_soft_brush_short_horvertflip_short_600ms.mp4	78.single_stroke_top_to_bottom_with_soft_brush_short_horvertflip_short_600ms.mp4	397.8076337941766	398.41598521579544	0.6083514216188632	n/a	n/a	n/a	n/a
362.345703125	0.2	742084	312	34	3	0	0	24	206	stimuli\Videos_short_600ms_horvertflip\33.scratch_top_to_bottom_with_scissors_short_horvertflip_short_600ms.mp4	33.scratch_top_to_bottom_with_scissors_short_horvertflip_short_600ms.mp4	398.6075690458356	399.21599407177337	0.6084250259377768	n/a	n/a	n/a	n/a
363.1455078125	0.2	743722	313	34	3	0	0	25	262	stimuli\Videos_short_600ms_horvertflip\84.single_touch_with_cotton_bud_short_horvertflip_short_600ms.mp4	84.single_touch_with_cotton_bud_short_horvertflip_short_600ms.mp4	399.4075441787195	400.01590557064446	0.6083613919249728	n/a	n/a	n/a	n/a
363.9453125	0.2	745360	314	34	3	0	0	26	309	stimuli\Videos_short_600ms_vertflip\45.scratching_with_finger_nails_short_vertflip_short_600ms.mp4	45.scratching_with_finger_nails_short_vertflip_short_600ms.mp4	400.20754922252127	400.8158909670783	0.6083417445570376	n/a	n/a	n/a	n/a
364.74560546875	0.2	746999	315	34	3	0	1	27	375	stimuli\Targets_short_600ms_horvertflip\finger-tap_short_vertflip_short_600ms.mp4	finger-tap_short_vertflip_short_600ms.mp4	401.007563063652	401.6158490917928	0.6082860281408102	n/a	n/a	n/a	n/a
365.54541015625	0.2	748637	316	34	3	0	0	28	53	stimuli\Videos_short_600ms\58.single_slap_with_pencil_short_short_600ms.mp4	58.single_slap_with_pencil_short_short_600ms.mp4	401.8075370235583	402.41580369757594	0.6082666740176137	n/a	n/a	n/a	n/a
366.34521484375	0.2	750275	317	34	3	0	0	29	161	stimuli\Videos_short_600ms_horflip\74.fingers_walking_from_top_to_bottom_short_horflip_short_600ms.mp4	74.fingers_walking_from_top_to_bottom_short_horflip_short_600ms.mp4	402.6075353227416	403.21578616156694	0.60825083882537	n/a	n/a	n/a	n/a
367.1455078125	0.2	751914	318	34	3	0	0	30	298	stimuli\Videos_short_600ms_vertflip\35.single_punch_with_hand_short_vertflip_short_600ms.mp4	35.single_punch_with_hand_short_vertflip_short_600ms.mp4	403.407521892153	404.01576803906937	0.6082461469163718	n/a	n/a	n/a	n/a
367.9453125	0.2	753552	319	34	3	0	0	31	192	stimuli\Videos_short_600ms_horvertflip\20.single_touch_with_screwdriver_short_horvertflip_short_600ms.mp4	20.single_touch_with_screwdriver_short_horvertflip_short_600ms.mp4	404.2074838290432	404.81574903683895	0.6082652077957391	n/a	n/a	n/a	n/a
368.7451171875	0.2	755190	320	34	3	0	0	32	290	stimuli\Videos_short_600ms_vertflip\28.single_injection_with_sharp_needle_short_vertflip_short_600ms.mp4	28.single_injection_with_sharp_needle_short_vertflip_short_600ms.mp4	405.00743169020734	405.6158303241582	0.6083986339508556	n/a	n/a	n/a	n/a
369.54541015625	0.2	756829	321	34	3	0	0	33	120	stimuli\Videos_short_600ms_horflip\37.single_stab_with_nail_file_short_horflip_short_600ms.mp4	37.single_stab_with_nail_file_short_horflip_short_600ms.mp4	405.8074596070642	406.4157180702414	0.6082584631772079	n/a	n/a	n/a	n/a
370.34521484375	0.2	758467	322	34	3	0	0	34	251	stimuli\Videos_short_600ms_horvertflip\74.fingers_walking_from_top_to_bottom_short_horvertflip_short_600ms.mp4	74.fingers_walking_from_top_to_bottom_short_horvertflip_short_600ms.mp4	406.60741303987015	407.2157342573264	0.6083212174562505	n/a	n/a	n/a	n/a
371.1455078125	0.2	760106	323	34	3	0	0	35	141	stimuli\Videos_short_600ms_horflip\56.repeated_touch_with_nail_file_short_horflip_short_600ms.mp4	56.repeated_touch_with_nail_file_short_horflip_short_600ms.mp4	407.4073761497375	408.0157305037992	0.6083543540617029	n/a	n/a	n/a	n/a
371.9453125	0.2	761744	324	34	3	0	0	36	84	stimuli\Videos_short_600ms\86.touch_top_to_bottom_with_hair_brush_short_short_600ms.mp4	86.touch_top_to_bottom_with_hair_brush_short_short_600ms.mp4	408.2073773813636	408.81570035828554	0.6083229769219543	n/a	n/a	n/a	n/a
372.7451171875	0.2	763382	325	34	3	0	1	37	360	stimuli\Targets_short_600ms\brush-stroke_short_short_600ms.mp4	brush-stroke_short_short_600ms.mp4	409.0075856434628	409.6157212372795	0.608135593816769	n/a	n/a	n/a	n/a
373.54541015625	0.2	765021	326	34	3	0	0	38	47	stimuli\Videos_short_600ms\52.touch_top_to_bottom_with_hammer_short_short_600ms.mp4	52.touch_top_to_bottom_with_hammer_short_short_600ms.mp4	409.8074018379379	410.4156591281376	0.6082572901996173	n/a	n/a	n/a	n/a
374.34521484375	0.2	766659	327	34	3	0	1	39	362	stimuli\Targets_short_600ms\chopstickwood-tap_short_short_600ms.mp4	chopstickwood-tap_short_short_600ms.mp4	410.60743913861234	411.2156583070537	0.6082191684413374	n/a	n/a	n/a	n/a
375.14501953125	0.2	768297	328	34	3	0	0	40	265	stimuli\Videos_short_600ms_horvertflip\87.single_stroke_top_to_bottom_with_plastic_brush_short_horvertflip_short_600ms.mp4	87.single_stroke_top_to_bottom_with_plastic_brush_short_horvertflip_short_600ms.mp4	411.4073010791976	412.0156674562759	0.608366377078255	n/a	n/a	n/a	n/a
375.9453125	0.2	769936	329	34	3	0	0	41	340	stimuli\Videos_short_600ms_vertflip\73.single_stroke_with_flat_hand_short_vertflip_short_600ms.mp4	73.single_stroke_with_flat_hand_short_vertflip_short_600ms.mp4	412.2072850094101	412.81560358766774	0.6083185782576948	n/a	n/a	n/a	n/a
376.7451171875	0.2	771574	330	34	3	0	0	42	139	stimuli\Videos_short_600ms_horflip\54.repeated_touch_with_knife_short_horflip_short_600ms.mp4	54.repeated_touch_with_knife_short_horflip_short_600ms.mp4	413.00726893962246	413.6156435275411	0.6083745879186608	n/a	n/a	n/a	n/a
377.544921875	0.2	773212	331	34	3	0	0	43	88	stimuli\Videos_short_600ms\9.single_touch_with_hammer_short_short_600ms.mp4	9.single_touch_with_hammer_short_short_600ms.mp4	413.8072487644149	414.41557144809303	0.608322683678125	n/a	n/a	n/a	n/a
378.34521484375	0.2	774851	332	34	3	0	0	44	156	stimuli\Videos_short_600ms_horflip\7.repeated_touch_with_hairbrush_short_horflip_short_600ms.mp4	7.repeated_touch_with_hairbrush_short_horflip_short_600ms.mp4	414.60724501088816	415.2155506863969	0.6083056755087455	n/a	n/a	n/a	n/a
379.14501953125	0.2	776489	333	34	3	0	0	45	269	stimuli\Videos_short_600ms_horvertflip\90.repeated_touch_with_sponge_short_horvertflip_short_600ms.mp4	90.repeated_touch_with_sponge_short_horvertflip_short_600ms.mp4	415.4071893531204	416.0155070516453	0.6083176985248429	n/a	n/a	n/a	n/a
379.94482421875	0.2	778127	334	34	3	0	0	46	36	stimuli\Videos_short_600ms\42.single_slap_with_plastic_whisk_short_short_600ms.mp4	42.single_slap_with_plastic_whisk_short_short_600ms.mp4	416.2073207852141	416.81551473464606	0.6081939494320068	n/a	n/a	n/a	n/a
380.7451171875	0.2	779766	335	34	3	0	0	47	154	stimuli\Videos_short_600ms_horflip\68.stroke_top_to_bottom_with_shawl_short_horflip_short_600ms.mp4	68.stroke_top_to_bottom_with_shawl_short_horflip_short_600ms.mp4	417.0072402016817	417.6154898675295	0.6082496658477794	n/a	n/a	n/a	n/a
381.544921875	0.2	781404	336	34	3	0	0	48	164	stimuli\Videos_short_600ms_horflip\77.tapping_with_all_fingers_short_horflip_short_600ms.mp4	77.tapping_with_all_fingers_short_horflip_short_600ms.mp4	417.80713586536103	418.41542570567754	0.6082898403165018	n/a	n/a	n/a	n/a
382.3447265625	0.2	783042	337	34	3	0	0	49	7	stimuli\Videos_short_600ms\16.repeated_touch_with_plastic_brush_short_short_600ms.mp4	16.repeated_touch_with_plastic_brush_short_short_600ms.mp4	418.6071778579439	419.21540611695855	0.6082282590145951	n/a	n/a	n/a	n/a
383.14501953125	0.2	784681	338	34	3	0	0	50	168	stimuli\Videos_short_600ms_horflip\80.stroke_with_sharp_stick_all_over_the_hand_short_horflip_short_600ms.mp4	80.stroke_with_sharp_stick_all_over_the_hand_short_horflip_short_600ms.mp4	419.4071195609781	420.0154088148061	0.6082892538279339	n/a	n/a	n/a	n/a
383.94482421875	0.2	786319	339	34	3	0	0	51	136	stimuli\Videos_short_600ms_horflip\51.repeated_touch_with_hammer_short_horflip_short_600ms.mp4	51.repeated_touch_with_hammer_short_horflip_short_600ms.mp4	420.20721169833587	420.81537075169626	0.6081590533603958	n/a	n/a	n/a	n/a
384.74462890625	0.2	787957	340	34	3	0	0	52	69	stimuli\Videos_short_600ms\72.(short)stroke_with_finger_all_over_the_hand_short_short_600ms.mp4	72.(short)stroke_with_finger_all_over_the_hand_short_short_600ms.mp4	421.0070748118983	421.6153757954985	0.608300983600202	n/a	n/a	n/a	n/a
385.544921875	0.2	789596	341	34	3	0	0	53	152	stimuli\Videos_short_600ms_horflip\66.stroke_top_to_bottom_with_sponge_short_horflip_short_600ms.mp4	66.stroke_top_to_bottom_with_sponge_short_horflip_short_600ms.mp4	421.80711915043594	422.4153764406355	0.6082572901996173	n/a	n/a	n/a	n/a
386.3447265625	0.2	791234	342	34	3	0	1	54	363	stimuli\Targets_short_600ms\finger-tap_short_short_600ms.mp4	finger-tap_short_short_600ms.mp4	422.6070156938481	423.21541432779895	0.6083986339508556	n/a	n/a	n/a	n/a
387.14453125	0.2	792872	343	34	3	0	0	55	143	stimuli\Videos_short_600ms_horflip\58.single_slap_with_pencil_short_horflip_short_600ms.mp4	58.single_slap_with_pencil_short_horflip_short_600ms.mp4	423.4069990375719	424.0153419551066	0.6083429175346282	n/a	n/a	n/a	n/a
387.94482421875	0.2	794511	344	34	3	0	0	56	94	stimuli\Videos_short_600ms_horflip\13.single_touch_with_pen_short_horflip_short_600ms.mp4	13.single_touch_with_pen_short_horflip_short_600ms.mp4	424.207000269198	424.8153053582182	0.6083050890201775	n/a	n/a	n/a	n/a
388.74462890625	0.2	796149	345	34	3	0	0	57	51	stimuli\Videos_short_600ms\56.repeated_touch_with_nail_file_short_short_600ms.mp4	56.repeated_touch_with_nail_file_short_short_600ms.mp4	425.0069783345248	425.6152860627435	0.6083077282187332	n/a	n/a	n/a	n/a
389.54443359375	0.2	797787	346	34	3	0	0	58	175	stimuli\Videos_short_600ms_horflip\87.single_stroke_top_to_bottom_with_plastic_brush_short_horflip_short_600ms.mp4	87.single_stroke_top_to_bottom_with_plastic_brush_short_horflip_short_600ms.mp4	425.8069599187829	426.4152823092168	0.6083223904338411	n/a	n/a	n/a	n/a
390.3447265625	0.2	799426	347	34	3	0	0	59	37	stimuli\Videos_short_600ms\43.touch_top_to_bottom_with_sharp_wooden_stick_short_short_600ms.mp4	43.touch_top_to_bottom_with_sharp_wooden_stick_short_short_600ms.mp4	426.6069476611715	427.21523984744226	0.6082921862707735	n/a	n/a	n/a	n/a
391.14453125	0.2	801064	348	34	3	0	0	60	56	stimuli\Videos_short_600ms\60.single_push_with_tip_of_pencil_short_short_600ms.mp4	60.single_push_with_tip_of_pencil_short_short_600ms.mp4	427.40689874802274	428.0152463574659	0.6083476094431717	n/a	n/a	n/a	n/a
391.94482421875	0.2	802703	349	34	3	0	0	61	244	stimuli\Videos_short_600ms_horvertflip\68.stroke_top_to_bottom_with_shawl_short_horvertflip_short_600ms.mp4	68.stroke_top_to_bottom_with_shawl_short_horvertflip_short_600ms.mp4	428.206864790333	428.8152068281347	0.6083420378017763	n/a	n/a	n/a	n/a
392.74462890625	0.2	804341	350	34	3	0	0	62	357	stimuli\Videos_short_600ms_vertflip\89.single_touch_with_plastic_brush_short_vertflip_short_600ms.mp4	89.single_touch_with_plastic_brush_short_vertflip_short_600ms.mp4	429.0068988653202	429.61526172346703	0.6083628581468474	n/a	n/a	n/a	n/a
393.54443359375	0.2	805979	351	34	3	0	0	63	286	stimuli\Videos_short_600ms_vertflip\24.single_stroke_top_to_bottom_with_a_spoon_short_vertflip_short_600ms.mp4	24.single_stroke_top_to_bottom_with_a_spoon_short_vertflip_short_600ms.mp4	429.8068232669407	430.4151878845532	0.6083646176125512	n/a	n/a	n/a	n/a
394.3447265625	0.2	807618	352	34	3	0	0	64	256	stimuli\Videos_short_600ms_horvertflip\79.long_with_soft_brush_all_over_the_hand_short_horvertflip_short_600ms.mp4	79.long_with_soft_brush_all_over_the_hand_short_horvertflip_short_600ms.mp4	430.6068602743708	431.2151732809871	0.6083130066162994	n/a	n/a	n/a	n/a
395.14453125	0.2	809256	353	34	3	0	0	65	220	stimuli\Videos_short_600ms_horvertflip\46.scratching_top_to_bottom_with_finger_nails_short_horvertflip_short_600ms.mp4	46.scratching_top_to_bottom_with_finger_nails_short_horvertflip_short_600ms.mp4	431.4068321815675	432.0151560382224	0.6083238566548061	n/a	n/a	n/a	n/a
395.9443359375	0.2	810894	354	34	3	0	0	66	214	stimuli\Videos_short_600ms_horvertflip\40.repeated_push_with_finger_short_horvertflip_short_600ms.mp4	40.repeated_push_with_finger_short_horvertflip_short_600ms.mp4	432.2068419172778	432.8151258927087	0.6082839754308225	n/a	n/a	n/a	n/a
396.74462890625	0.2	812533	355	34	3	0	0	67	23	stimuli\Videos_short_600ms\30.finger_pulling_back_another_finger_short_short_600ms.mp4	30.finger_pulling_back_another_finger_short_short_600ms.mp4	433.00681587718464	433.61507140791855	0.6082555307339135	n/a	n/a	n/a	n/a
397.54443359375	0.2	814171	356	34	3	0	0	68	349	stimuli\Videos_short_600ms_vertflip\81.single_stroke_top_to_bottom_with_cotton_pad_short_vertflip_short_600ms.mp4	81.single_stroke_top_to_bottom_with_cotton_pad_short_vertflip_short_600ms.mp4	433.8069772201966	434.415070880079	0.6080936598823428	n/a	n/a	n/a	n/a
398.34423828125	0.2	815809	357	34	3	0	0	69	346	stimuli\Videos_short_600ms_vertflip\79.long_with_soft_brush_all_over_the_hand_short_vertflip_short_600ms.mp4	79.long_with_soft_brush_all_over_the_hand_short_vertflip_short_600ms.mp4	434.6068215661239	435.21502783181586	0.6082062656919334	n/a	n/a	n/a	n/a
399.14453125	0.2	817448	358	34	3	0	0	70	167	stimuli\Videos_short_600ms_horflip\8.single_touch_with_hairbrush_short_horflip_short_600ms.mp4	8.single_touch_with_hairbrush_short_horflip_short_600ms.mp4	435.40671019194	436.01503346210666	0.608323270166693	n/a	n/a	n/a	n/a
