onset	duration	onsetsample	eventnumber	subjectnr	sequencenumber	blocksequencenumber	istarget	presentationnumber	stimnumber	stim	stimname	time_stimon	time_stimoff	stimdur	cresp	resp	rt	correct
30.2421875	0.2	61936	0	43	0	0	1	0	379	stimuli\Targets_short_600ms_vertflip\chopstick-silver-tap_short_horvertflip_short_600ms.mp4	chopstick-silver-tap_short_horvertflip_short_600ms.mp4	47.925569709191905	48.53390132948516	0.6083316202932565				
31.04248046875	0.2	63575	1	43	0	0	0	1	308	stimuli\Videos_short_600ms_vertflip\44.pushing_top_to_bottom_with_finger_short_vertflip_short_600ms.mp4	44.pushing_top_to_bottom_with_finger_short_vertflip_short_600ms.mp4	48.72555193854055	49.33387300201139	0.6083210634708394				
31.84228515625	0.2	65213	2	43	0	0	0	2	99	stimuli\Videos_short_600ms_horflip\18.single_stroke_from_top_to_bottom_with_rolling_pin_short_horflip_short_600ms.mp4	18.single_stroke_from_top_to_bottom_with_rolling_pin_short_horflip_short_600ms.mp4	49.52553680709502	50.133854938115064	0.6083181310200416				
32.64208984375	0.2	66851	3	43	0	0	0	3	109	stimuli\Videos_short_600ms_horflip\27.single_push_with_a_plastic_whisk_short_horflip_short_600ms.mp4	27.single_push_with_a_plastic_whisk_short_horflip_short_600ms.mp4	50.32552196889446	50.9338403931597	0.6083184242652351				
33.4423828125	0.2	68490	4	43	0	0	0	4	305	stimuli\Videos_short_600ms_vertflip\41.injection_with_blunt_syringe_short_vertflip_short_600ms.mp4	41.injection_with_blunt_syringe_short_vertflip_short_600ms.mp4	51.12553792142626	51.73382467522379	0.608286753797529				
34.2421875	0.2	70128	5	43	0	0	0	5	213	stimuli\Videos_short_600ms_horvertflip\4.repeated_tap_with_finger_slow_short_horvertflip_short_600ms.mp4	4.repeated_tap_with_finger_slow_short_horvertflip_short_600ms.mp4	51.92564331370454	52.53380661132746	0.608163297622923				
35.04248046875	0.2	71767	6	43	0	0	0	6	116	stimuli\Videos_short_600ms_horflip\33.scratch_top_to_bottom_with_scissors_short_horflip_short_600ms.mp4	33.scratch_top_to_bottom_with_scissors_short_horflip_short_600ms.mp4	52.7254440243546	53.3337891339213	0.6083451095666987				
35.84228515625	0.2	73405	7	43	0	0	0	7	347	stimuli\Videos_short_600ms_vertflip\8.single_touch_with_hairbrush_short_vertflip_short_600ms.mp4	8.single_touch_with_hairbrush_short_vertflip_short_600ms.mp4	53.52543856999637	54.13376813757418	0.6083295675778118				
36.64208984375	0.2	75043	8	43	0	0	0	8	154	stimuli\Videos_short_600ms_horflip\68.stroke_top_to_bottom_with_shawl_short_horflip_short_600ms.mp4	68.stroke_top_to_bottom_with_shawl_short_horflip_short_600ms.mp4	54.325420506100045	54.933739810100406	0.6083193040003607				
37.4423828125	0.2	76682	9	43	0	0	0	9	73	stimuli\Videos_short_600ms\76.tickle_with_fingers_from_top_to_bottom_short_short_600ms.mp4	76.tickle_with_fingers_from_top_to_bottom_short_short_600ms.mp4	55.125394817831875	55.73374432607443	0.6083495082425543				
38.2421875	0.2	78320	10	43	0	0	1	10	366	stimuli\Targets_short_600ms_horflip\brush-stroke_short_horflip_short_600ms.mp4	brush-stroke_short_horflip_short_600ms.mp4	55.92607819614409	56.5337236229725	0.6076454268284124				
39.0419921875	0.2	79958	11	43	0	0	0	11	121	stimuli\Videos_short_600ms_horflip\38.double_slap_with_pencil_short_horflip_short_600ms.mp4	38.double_slap_with_pencil_short_horflip_short_600ms.mp4	56.725383029380055	57.333716115898824	0.608333086518769				
39.84228515625	0.2	81597	12	43	0	0	0	12	337	stimuli\Videos_short_600ms_vertflip\70.(long)stroke_with_finger_all_over_the_hand_short_vertflip_short_600ms.mp4	70.(long)stroke_with_finger_all_over_the_hand_short_vertflip_short_600ms.mp4	57.52538256018784	58.133665795044635	0.608283234856799				
40.64208984375	0.2	83235	13	43	0	0	0	13	114	stimuli\Videos_short_600ms_horflip\31.hand_grabbing_wrist_short_horflip_short_600ms.mp4	31.hand_grabbing_wrist_short_horflip_short_600ms.mp4	58.32536156384094	58.93367060426385	0.6083090404229097				
41.44189453125	0.2	84873	14	43	0	0	0	14	172	stimuli\Videos_short_600ms_horflip\84.single_touch_with_cotton_bud_short_horflip_short_600ms.mp4	84.single_touch_with_cotton_bud_short_horflip_short_600ms.mp4	59.125350244581114	59.73365312685769	0.6083028822765755				
42.2421875	0.2	86512	15	43	0	0	0	15	55	stimuli\Videos_short_600ms\6.single_touch_with_flat_hand_short_short_600ms.mp4	6.single_touch_with_flat_hand_short_short_600ms.mp4	59.92531898465654	60.533639168392256	0.6083201837357137				
43.0419921875	0.2	88150	16	43	0	0	0	16	265	stimuli\Videos_short_600ms_horvertflip\87.single_stroke_top_to_bottom_with_plastic_brush_short_horvertflip_short_600ms.mp4	87.single_stroke_top_to_bottom_with_plastic_brush_short_horvertflip_short_600ms.mp4	60.725304439701176	61.33363195456354	0.608327514862367				
43.841796875	0.2	89788	17	43	0	0	0	17	60	stimuli\Videos_short_600ms\64.repeated_touch_with_screwdriver_short_short_600ms.mp4	64.repeated_touch_with_screwdriver_short_short_600ms.mp4	61.52528989474558	62.133617702853144	0.6083278081075605				
44.64208984375	0.2	91427	18	43	0	0	0	18	157	stimuli\Videos_short_600ms_horflip\70.(long)stroke_with_finger_all_over_the_hand_short_horflip_short_600ms.mp4	70.(long)stroke_with_finger_all_over_the_hand_short_horflip_short_600ms.mp4	62.32527622952534	62.933590841604655	0.6083146120793117				
45.44189453125	0.2	93065	19	43	0	0	0	19	194	stimuli\Videos_short_600ms_horvertflip\22.single_touch_with_metal_chopstick_short_horvertflip_short_600ms.mp4	22.single_touch_with_metal_chopstick_short_horvertflip_short_600ms.mp4	63.1252543534431	63.733582454795624	0.6083281013525266				
46.24169921875	0.2	94703	20	43	0	0	0	20	256	stimuli\Videos_short_600ms_horvertflip\79.long_with_soft_brush_all_over_the_hand_short_horvertflip_short_600ms.mp4	79.long_with_soft_brush_all_over_the_hand_short_horvertflip_short_600ms.mp4	63.92523892875238	64.53355764626258	0.6083187175102012				
47.0419921875	0.2	96342	21	43	0	0	0	21	82	stimuli\Videos_short_600ms\84.single_touch_with_cotton_bud_short_short_600ms.mp4	84.single_touch_with_cotton_bud_short_short_600ms.mp4	64.72524872313761	65.33354134183674	0.6082926186991244				
47.841796875	0.2	97980	22	43	0	0	0	22	44	stimuli\Videos_short_600ms\5.repeated_tap_with_finger_moving_from_top_to_bottom_short_short_600ms.mp4	5.repeated_tap_with_finger_moving_from_top_to_bottom_short_short_600ms.mp4	65.5251934171174	66.13351975899946	0.6083263418820479				
48.6416015625	0.2	99618	23	43	0	0	0	23	289	stimuli\Videos_short_600ms_vertflip\27.single_push_with_a_plastic_whisk_short_vertflip_short_600ms.mp4	27.single_push_with_a_plastic_whisk_short_vertflip_short_600ms.mp4	66.32517887216181	66.93351107894546	0.6083322067836434				
49.44189453125	0.2	101257	24	43	0	0	0	24	226	stimuli\Videos_short_600ms_horvertflip\51.repeated_touch_with_hammer_short_horvertflip_short_600ms.mp4	51.repeated_touch_with_hammer_short_horvertflip_short_600ms.mp4	67.12517635025438	67.73349184206882	0.6083154918144373				
50.24169921875	0.2	102895	25	43	0	0	0	25	314	stimuli\Videos_short_600ms_vertflip\5.repeated_tap_with_finger_moving_from_top_to_bottom_short_vertflip_short_600ms.mp4	5.repeated_tap_with_finger_moving_from_top_to_bottom_short_vertflip_short_600ms.mp4	67.92514978225086	68.53347671062329	0.6083269283724348				
51.04150390625	0.2	104533	26	43	0	0	0	26	42	stimuli\Videos_short_600ms\48.single_slap_with_hand_short_short_600ms.mp4	48.single_slap_with_hand_short_short_600ms.mp4	68.72511529663075	69.33346363189298	0.6083483352622352				
51.841796875	0.2	106172	27	43	0	0	0	27	325	stimuli\Videos_short_600ms_vertflip\6.single_touch_with_flat_hand_short_vertflip_short_600ms.mp4	6.single_touch_with_flat_hand_short_vertflip_short_600ms.mp4	69.52511013551748	70.13344380852618	0.6083336730087012				
52.6416015625	0.2	107810	28	43	0	0	0	28	38	stimuli\Videos_short_600ms\44.pushing_top_to_bottom_with_finger_short_short_600ms.mp4	44.pushing_top_to_bottom_with_finger_short_short_600ms.mp4	70.32516596937876	70.93342897032562	0.608263000946863				
53.44189453125	0.2	109449	29	43	0	0	0	29	356	stimuli\Videos_short_600ms_vertflip\88.repeated_stroke_with_plastic_brush_short_vertflip_short_600ms.mp4	88.repeated_stroke_with_plastic_brush_short_vertflip_short_600ms.mp4	71.12509541461486	71.73341295914497	0.6083175445301094				
54.24169921875	0.2	111087	30	43	0	0	0	30	270	stimuli\Videos_short_600ms_vertflip\1.repeated_touch_with_finger_fast_short_vertflip_short_600ms.mp4	1.repeated_touch_with_finger_fast_short_vertflip_short_600ms.mp4	71.92508438860023	72.53339753445425	0.6083131458540265				
55.04150390625	0.2	112725	31	43	0	0	0	31	179	stimuli\Videos_short_600ms_horflip\90.repeated_touch_with_sponge_short_horflip_short_600ms.mp4	90.repeated_touch_with_sponge_short_horflip_short_600ms.mp4	72.72506515172358	73.33338328274363	0.6083181310200416				
55.841796875	0.2	114364	32	43	0	0	0	32	215	stimuli\Videos_short_600ms_horvertflip\41.injection_with_blunt_syringe_short_horvertflip_short_600ms.mp4	41.injection_with_blunt_syringe_short_horvertflip_short_600ms.mp4	73.52504180941605	74.1333599404361	0.6083181310200416				
56.6416015625	0.2	116002	33	43	0	0	0	33	346	stimuli\Videos_short_600ms_vertflip\79.long_with_soft_brush_all_over_the_hand_short_vertflip_short_600ms.mp4	79.long_with_soft_brush_all_over_the_hand_short_vertflip_short_600ms.mp4	74.32502638472533	74.93334334276506	0.6083169580397225				
57.44140625	0.2	117640	34	43	0	0	0	34	249	stimuli\Videos_short_600ms_horvertflip\72.(short)stroke_with_finger_all_over_the_hand_short_horvertflip_short_600ms.mp4	72.(short)stroke_with_finger_all_over_the_hand_short_horvertflip_short_600ms.mp4	75.12501066678942	75.73333260999561	0.6083219432061924				
58.24169921875	0.2	119279	35	43	0	0	0	35	244	stimuli\Videos_short_600ms_horvertflip\68.stroke_top_to_bottom_with_shawl_short_horvertflip_short_600ms.mp4	68.stroke_top_to_bottom_with_shawl_short_horvertflip_short_600ms.mp4	75.92499436236358	76.5333168920597	0.6083225296961245				
59.04150390625	0.2	120917	36	43	0	0	0	36	7	stimuli\Videos_short_600ms\16.repeated_touch_with_plastic_brush_short_short_600ms.mp4	16.repeated_touch_with_plastic_brush_short_short_600ms.mp4	76.7249783511827	77.33329882816338	0.6083204769806798				
59.84130859375	0.2	122555	37	43	0	0	0	37	248	stimuli\Videos_short_600ms_horvertflip\71.single_stroke_with_finger_top_to_bottom_short_horvertflip_short_600ms.mp4	71.single_stroke_with_finger_top_to_bottom_short_horvertflip_short_600ms.mp4	77.52496204675685	78.1332910278445	0.6083289810876522				
60.6416015625	0.2	124194	38	43	0	0	0	38	41	stimuli\Videos_short_600ms\47.(long)scratching_with_finger_nails_short_short_600ms.mp4	47.(long)scratching_with_finger_nails_short_short_600ms.mp4	78.32494398286053	78.93326621931169	0.6083222364511585				
61.44140625	0.2	125832	39	43	0	0	0	39	342	stimuli\Videos_short_600ms_vertflip\75.(long)stroke_with_fingers_all_over_the_hand_short_vertflip_short_600ms.mp4	75.(long)stroke_with_fingers_all_over_the_hand_short_vertflip_short_600ms.mp4	79.1249326636007	79.73325284733642	0.6083201837357137				
62.2412109375	0.2	127470	40	43	0	0	0	40	327	stimuli\Videos_short_600ms_vertflip\61.single_hit_with_rolling_pin_short_vertflip_short_600ms.mp4	61.single_hit_with_rolling_pin_short_vertflip_short_600ms.mp4	79.92491166725381	80.53323331721458	0.6083216499607715				
63.04150390625	0.2	129109	41	43	0	0	0	41	132	stimuli\Videos_short_600ms_horflip\48.single_slap_with_hand_short_horflip_short_600ms.mp4	48.single_slap_with_hand_short_horflip_short_600ms.mp4	80.72489829527854	81.33321583980842	0.6083175445298821				
63.84130859375	0.2	130747	42	43	0	0	0	42	15	stimuli\Videos_short_600ms\23.single_push_with_a_spoon_short_short_600ms.mp4	23.single_push_with_a_spoon_short_short_600ms.mp4	81.52488023138221	82.13319953538257	0.6083193040003607				
64.64111328125	0.2	132385	43	43	0	0	1	43	381	stimuli\Targets_short_600ms_vertflip\finger-tap_short_horvertflip_short_600ms.mp4	finger-tap_short_horvertflip_short_600ms.mp4	82.32486627291678	82.93318293771154	0.6083166647947564				
65.44140625	0.2	134024	44	43	0	0	0	44	359	stimuli\Videos_short_600ms_vertflip\90.repeated_touch_with_sponge_short_vertflip_short_600ms.mp4	90.repeated_touch_with_sponge_short_vertflip_short_600ms.mp4	83.12486580372479	83.73316809951098	0.6083022957861886				
66.2412109375	0.2	135662	45	43	0	0	0	45	219	stimuli\Videos_short_600ms_horvertflip\45.scratching_with_finger_nails_short_horvertflip_short_600ms.mp4	45.scratching_with_finger_nails_short_horvertflip_short_600ms.mp4	83.92483688976063	84.53315238157529	0.6083154918146647				
67.041015625	0.2	137300	46	43	0	0	0	46	210	stimuli\Videos_short_600ms_horvertflip\37.single_stab_with_nail_file_short_horvertflip_short_600ms.mp4	37.single_stab_with_nail_file_short_horvertflip_short_600ms.mp4	84.7247889148673	85.33313490416913	0.6083459893018244				
67.84130859375	0.2	138939	47	43	0	0	0	47	64	stimuli\Videos_short_600ms\68.stroke_top_to_bottom_with_shawl_short_short_600ms.mp4	68.stroke_top_to_bottom_with_shawl_short_short_600ms.mp4	85.5247951903118	86.1331206524585	0.6083254621466949				
68.64111328125	0.2	140577	48	43	0	0	0	48	49	stimuli\Videos_short_600ms\54.repeated_touch_with_knife_short_short_600ms.mp4	54.repeated_touch_with_knife_short_short_600ms.mp4	86.32478533727726	86.93310258856218	0.608317251284916				
69.44091796875	0.2	142215	49	43	0	0	0	49	272	stimuli\Videos_short_600ms_vertflip\11.single_touch_with_lighter_short_vertflip_short_600ms.mp4	11.single_touch_with_lighter_short_vertflip_short_600ms.mp4	87.12477431126263	87.73308863009697	0.6083143188343456				
70.2412109375	0.2	143854	50	43	0	0	0	50	322	stimuli\Videos_short_600ms_vertflip\57.single_touch_with_nail_file_short_vertflip_short_600ms.mp4	57.single_touch_with_nail_file_short_vertflip_short_600ms.mp4	87.92475742034662	88.53306587427937	0.6083084539327501				
71.041015625	0.2	145492	51	43	0	0	0	51	207	stimuli\Videos_short_600ms_horvertflip\34.repeated_punch_with_hand_short_horvertflip_short_600ms.mp4	34.repeated_punch_with_hand_short_horvertflip_short_600ms.mp4	88.72473466452925	89.33304956985353	0.6083149053242778				
71.8408203125	0.2	147130	52	43	0	0	0	52	186	stimuli\Videos_short_600ms_horvertflip\15.single_stroke_top_to_bottom_with_a_plastic_whisk_short_horvertflip_short_600ms.mp4	15.single_stroke_top_to_bottom_with_a_plastic_whisk_short_horvertflip_short_600ms.mp4	89.52471923983853	90.1330385438389	0.6083193040003607				
72.64111328125	0.2	148769	53	43	0	0	0	53	1	stimuli\Videos_short_600ms\10.single_touch_with_knife_short_short_600ms.mp4	10.single_touch_with_knife_short_short_600ms.mp4	90.3247026421675	90.9330172542468	0.6083146120793117				
73.44091796875	0.2	150407	54	43	0	0	0	54	228	stimuli\Videos_short_600ms_horvertflip\53.touch_top_to_bottom_with_knife_short_horvertflip_short_600ms.mp4	53.touch_top_to_bottom_with_knife_short_horvertflip_short_600ms.mp4	91.12468516476132	91.73301033366306	0.6083251689017288				
74.2412109375	0.2	152046	55	43	0	0	0	55	278	stimuli\Videos_short_600ms_vertflip\17.repeated_touch_with_rolling_pin_short_vertflip_short_600ms.mp4	17.repeated_touch_with_rolling_pin_short_vertflip_short_600ms.mp4	91.9246697400706	92.53299051029626	0.6083207702256459				
75.041015625	0.2	153684	56	43	0	0	0	56	201	stimuli\Videos_short_600ms_horvertflip\29.single_pinch_with_tweezers_short_horvertflip_short_600ms.mp4	29.single_pinch_with_tweezers_short_horvertflip_short_600ms.mp4	92.72465167617428	93.3329868154085	0.6083351392342138				
75.8408203125	0.2	155322	57	43	0	0	0	57	168	stimuli\Videos_short_600ms_horflip\80.stroke_with_sharp_stick_all_over_the_hand_short_horflip_short_600ms.mp4	80.stroke_with_sharp_stick_all_over_the_hand_short_horflip_short_600ms.mp4	93.52463595823838	94.1329573149544	0.6083213567160328				
76.64111328125	0.2	156961	58	43	0	0	0	58	241	stimuli\Videos_short_600ms_horvertflip\65.stroke_top_to_bottom_with_stanley_knife_short_horvertflip_short_600ms.mp4	65.stroke_top_to_bottom_with_stanley_knife_short_horvertflip_short_600ms.mp4	94.32457684003224	94.93295039437066	0.6083735543384137				
77.44921875	0.2	158616	59	43	0	0	0	59	258	stimuli\Videos_short_600ms_horvertflip\80.stroke_with_sharp_stick_all_over_the_hand_short_horvertflip_short_600ms.mp4	80.stroke_with_sharp_stick_all_over_the_hand_short_horvertflip_short_600ms.mp4	95.13293356210374	95.74125609179988	0.6083225296961245				
78.2490234375	0.2	160254	60	43	0	0	0	60	84	stimuli\Videos_short_600ms\86.touch_top_to_bottom_with_hair_brush_short_short_600ms.mp4	86.touch_top_to_bottom_with_hair_brush_short_short_600ms.mp4	95.9329210698636	96.54123128326682	0.6083102134032288				
79.04931640625	0.2	161893	61	43	0	0	0	61	74	stimuli\Videos_short_600ms\77.tapping_with_all_fingers_short_short_600ms.mp4	77.tapping_with_all_fingers_short_short_600ms.mp4	96.7329041789476	97.3412243626833	0.6083201837357137				
79.84912109375	0.2	163531	62	43	0	0	0	62	131	stimuli\Videos_short_600ms_horflip\47.(long)scratching_with_finger_nails_short_horflip_short_600ms.mp4	47.(long)scratching_with_finger_nails_short_horflip_short_600ms.mp4	97.5328872880316	98.14121011097268	0.6083228229410906				
80.64892578125	0.2	165169	63	43	0	0	1	63	376	stimuli\Targets_short_600ms_horvertflip\hand-pinch_short_vertflip_short_600ms.mp4	hand-pinch_short_vertflip_short_600ms.mp4	98.33287186334088	98.94119937820324	0.608327514862367				
81.44921875	0.2	166808	64	43	0	0	0	64	284	stimuli\Videos_short_600ms_vertflip\22.single_touch_with_metal_chopstick_short_vertflip_short_600ms.mp4	22.single_touch_with_metal_chopstick_short_vertflip_short_600ms.mp4	99.13285761163048	99.7411772088758	0.6083195972453268				
82.2490234375	0.2	168446	65	43	0	0	1	65	360	stimuli\Targets_short_600ms\brush-stroke_short_short_600ms.mp4	brush-stroke_short_short_600ms.mp4	99.93283954773416	100.54117204776252	0.6083325000283821				
83.048828125	0.2	170084	66	43	0	0	0	66	93	stimuli\Videos_short_600ms_horflip\12.repeated_touch_with_nail_file_short_horflip_short_600ms.mp4	12.repeated_touch_with_nail_file_short_horflip_short_600ms.mp4	100.73282295006312	101.3411434270438	0.6083204769806798				
83.84912109375	0.2	171723	67	43	0	0	0	67	147	stimuli\Videos_short_600ms_horflip\61.single_hit_with_rolling_pin_short_horflip_short_600ms.mp4	61.single_hit_with_rolling_pin_short_horflip_short_600ms.mp4	101.53280664563704	102.14112770910788	0.6083210634708394				
84.64892578125	0.2	173361	68	43	0	0	0	68	183	stimuli\Videos_short_600ms_horvertflip\12.repeated_touch_with_nail_file_short_horvertflip_short_600ms.mp4	12.repeated_touch_with_nail_file_short_horvertflip_short_600ms.mp4	102.33279210068169	102.94111521686796	0.6083231161862841				
85.44873046875	0.2	174999	69	43	0	0	0	69	125	stimuli\Videos_short_600ms_horflip\41.injection_with_blunt_syringe_short_horflip_short_600ms.mp4	41.injection_with_blunt_syringe_short_horflip_short_600ms.mp4	103.13277726248111	103.74109744621684	0.6083201837357137				
86.2490234375	0.2	176638	70	43	0	0	0	70	274	stimuli\Videos_short_600ms_vertflip\13.single_touch_with_pen_short_vertflip_short_600ms.mp4	13.single_touch_with_pen_short_vertflip_short_600ms.mp4	103.9327536269284	104.54108202152612	0.60832839459772				
87.048828125	0.2	178276	71	43	0	0	0	71	92	stimuli\Videos_short_600ms_horflip\11.single_touch_with_lighter_short_horflip_short_600ms.mp4	11.single_touch_with_lighter_short_horflip_short_600ms.mp4	104.73274817257015	105.3410636643846	0.6083154918144373				
87.84912109375	0.2	179915	72	43	0	0	0	72	255	stimuli\Videos_short_600ms_horvertflip\78.single_stroke_top_to_bottom_with_soft_brush_short_horvertflip_short_600ms.mp4	78.single_stroke_top_to_bottom_with_soft_brush_short_horvertflip_short_600ms.mp4	105.532785238747	106.14104706671355	0.6082618279665439				
88.64892578125	0.2	181553	73	43	0	0	0	73	87	stimuli\Videos_short_600ms\89.single_touch_with_plastic_brush_short_short_600ms.mp4	89.single_touch_with_plastic_brush_short_short_600ms.mp4	106.3327079393464	106.94103105553268	0.6083231161862841				
89.44873046875	0.2	183191	74	43	0	0	0	74	144	stimuli\Videos_short_600ms_horflip\59.single_push_with_long_side_pencil_short_horflip_short_600ms.mp4	59.single_push_with_long_side_pencil_short_horflip_short_600ms.mp4	107.13269837955704	107.7410150443518	0.6083166647947564				
90.2490234375	0.2	184830	75	43	0	0	0	75	134	stimuli\Videos_short_600ms_horflip\5.repeated_tap_with_finger_moving_from_top_to_bottom_short_horflip_short_600ms.mp4	5.repeated_tap_with_finger_moving_from_top_to_bottom_short_horflip_short_600ms.mp4	107.9326876467876	108.54100548456267	0.6083178377750755				
91.048828125	0.2	186468	76	43	0	0	0	76	46	stimuli\Videos_short_600ms\51.repeated_touch_with_hammer_short_short_600ms.mp4	51.repeated_touch_with_hammer_short_short_600ms.mp4	108.73266928964608	109.34098624768605	0.6083169580399499				
91.8486328125	0.2	188106	77	43	0	0	0	77	108	stimuli\Videos_short_600ms_horflip\26.single_touch_with_a_blunt_syringe_short_horflip_short_600ms.mp4	26.single_touch_with_a_blunt_syringe_short_horflip_short_600ms.mp4	109.53264712031888	110.14096261213332	0.6083154918144373				
92.64892578125	0.2	189745	78	43	0	0	0	78	67	stimuli\Videos_short_600ms\70.(long)stroke_with_finger_all_over_the_hand_short_short_600ms.mp4	70.(long)stroke_with_finger_all_over_the_hand_short_short_600ms.mp4	110.33263580105904	110.94095099962853	0.6083151985694712				
93.44873046875	0.2	191383	79	43	0	0	0	79	195	stimuli\Videos_short_600ms_horvertflip\23.single_push_with_a_spoon_short_horvertflip_short_600ms.mp4	23.single_push_with_a_spoon_short_horvertflip_short_600ms.mp4	111.1326139249768	111.74090918288152	0.6082952579047287				
94.24853515625	0.2	193021	80	43	0	0	0	80	66	stimuli\Videos_short_600ms\7.repeated_touch_with_hairbrush_short_short_600ms.mp4	7.repeated_touch_with_hairbrush_short_short_600ms.mp4	111.93259762055096	112.54092278945268	0.6083251689017288				
95.048828125	0.2	194660	81	43	0	0	0	81	330	stimuli\Videos_short_600ms_vertflip\64.repeated_touch_with_screwdriver_short_vertflip_short_600ms.mp4	64.repeated_touch_with_screwdriver_short_vertflip_short_600ms.mp4	112.73258072963496	113.34090941747765	0.6083286878426861				
95.8486328125	0.2	196298	82	43	0	0	0	82	16	stimuli\Videos_short_600ms\24.single_stroke_top_to_bottom_with_a_spoon_short_short_600ms.mp4	24.single_stroke_top_to_bottom_with_a_spoon_short_short_600ms.mp4	113.5325658914344	114.14089604550236	0.6083301540679713				
96.6484375	0.2	197936	83	43	0	0	1	83	383	stimuli\Targets_short_600ms_vertflip\hand-stroke_short_horvertflip_short_600ms.mp4	hand-stroke_short_horvertflip_short_600ms.mp4	114.33256718171263	114.94086918425388	0.6083020025412225				
97.44873046875	0.2	199575	84	43	0	0	0	84	29	stimuli\Videos_short_600ms\36.single_slap_with_full_hand_short_short_600ms.mp4	36.single_slap_with_full_hand_short_short_600ms.mp4	115.13253035013167	115.74086548936587	0.6083351392342138				
98.24853515625	0.2	201213	85	43	0	0	0	85	202	stimuli\Videos_short_600ms_horvertflip\3.single_push_with_finger_short_horvertflip_short_600ms.mp4	3.single_push_with_finger_short_horvertflip_short_600ms.mp4	115.93251609842127	116.54083569566684	0.6083195972455542				
99.04833984375	0.2	202851	86	43	0	0	0	86	31	stimuli\Videos_short_600ms\38.double_slap_with_pencil_short_short_600ms.mp4	38.double_slap_with_pencil_short_short_600ms.mp4	116.7325000872404	117.3408220304466	0.6083219432061924				
99.8486328125	0.2	204490	87	43	0	0	0	87	315	stimuli\Videos_short_600ms_vertflip\50.single_(long)hard_push_with_thumb_short_vertflip_short_600ms.mp4	50.single_(long)hard_push_with_thumb_short_vertflip_short_600ms.mp4	117.53248495579489	118.14080455304044	0.6083195972455542				
100.6484375	0.2	206128	88	43	0	0	0	88	149	stimuli\Videos_short_600ms_horflip\63.stroke_top_to_bottom_with_screwdriver_short_horflip_short_600ms.mp4	63.stroke_top_to_bottom_with_screwdriver_short_horflip_short_600ms.mp4	118.33246747838872	118.9407879553694	0.6083204769806798				
101.4482421875	0.2	207766	89	43	0	0	1	89	371	stimuli\Targets_short_600ms_horflip\hand-stroke_short_horflip_short_600ms.mp4	hand-stroke_short_horflip_short_600ms.mp4	119.13245000098232	119.74077253067868	0.6083225296963519				
102.24853515625	0.2	209405	90	43	0	0	0	90	345	stimuli\Videos_short_600ms_vertflip\78.single_stroke_top_to_bottom_with_soft_brush_short_vertflip_short_600ms.mp4	78.single_stroke_top_to_bottom_with_soft_brush_short_vertflip_short_600ms.mp4	119.93241580860716	120.5407562262526	0.6083404176454223				
103.04833984375	0.2	211043	91	43	0	0	0	91	317	stimuli\Videos_short_600ms_vertflip\52.touch_top_to_bottom_with_hammer_short_vertflip_short_600ms.mp4	52.touch_top_to_bottom_with_hammer_short_vertflip_short_600ms.mp4	120.73316311434472	121.34074109480709	0.607577980462338				
103.84814453125	0.2	212681	92	43	0	0	0	92	182	stimuli\Videos_short_600ms_horvertflip\11.single_touch_with_lighter_short_horvertflip_short_600ms.mp4	11.single_touch_with_lighter_short_horvertflip_short_600ms.mp4	121.5323993282343	122.14072391064587	0.6083245824115693				
104.6484375	0.2	214320	93	43	0	0	0	93	57	stimuli\Videos_short_600ms\61.single_hit_with_rolling_pin_short_short_600ms.mp4	61.single_hit_with_rolling_pin_short_short_600ms.mp4	122.3323668953294	122.9407052602594	0.6083383649299776				
105.4482421875	0.2	215958	94	43	0	0	0	94	83	stimuli\Videos_short_600ms\85.touch_top_to_bottom_with_fabric_short_short_600ms.mp4	85.touch_top_to_bottom_with_fabric_short_short_600ms.mp4	123.13283825745566	123.74068778285324	0.6078495253975689				
106.248046875	0.2	217596	95	43	0	0	0	95	13	stimuli\Videos_short_600ms\21.repeated_touch_with_metal_chopstick_short_short_600ms.mp4	21.repeated_touch_with_metal_chopstick_short_short_600ms.mp4	123.93235686634809	124.54064977829216	0.6082929119440905				
107.04833984375	0.2	219235	96	43	0	0	0	96	344	stimuli\Videos_short_600ms_vertflip\77.tapping_with_all_fingers_short_vertflip_short_600ms.mp4	77.tapping_with_all_fingers_short_vertflip_short_600ms.mp4	124.73234994576433	125.340640511748	0.6082905659836797	7.0	7.0	1.7942272948405389	1.0
143.546875	0.2	293984	97	43	1	0	0	0	36	stimuli\Videos_short_600ms\42.single_slap_with_plastic_whisk_short_short_600ms.mp4	42.single_slap_with_plastic_whisk_short_short_600ms.mp4	161.23235771675877	161.83992543364343	0.6075677168846596				
144.34716796875	0.2	295623	98	43	1	0	0	1	112	stimuli\Videos_short_600ms_horflip\3.single_push_with_finger_short_horflip_short_600ms.mp4	3.single_push_with_finger_short_horflip_short_600ms.mp4	162.03156577912137	162.63990854272743	0.6083427636060605				
145.14697265625	0.2	297261	99	43	1	0	0	2	329	stimuli\Videos_short_600ms_vertflip\63.stroke_top_to_bottom_with_screwdriver_short_vertflip_short_600ms.mp4	63.stroke_top_to_bottom_with_screwdriver_short_vertflip_short_600ms.mp4	162.83157117483074	163.4398907720763	0.6083195972455542				
145.94677734375	0.2	298899	100	43	1	0	0	3	161	stimuli\Videos_short_600ms_horflip\74.fingers_walking_from_top_to_bottom_short_horflip_short_600ms.mp4	74.fingers_walking_from_top_to_bottom_short_horflip_short_600ms.mp4	163.63155399066954	164.23987564063054	0.6083216499609989				
146.7470703125	0.2	300538	101	43	1	0	0	4	191	stimuli\Videos_short_600ms_horvertflip\2.single_touch_with_finger_short_horvertflip_short_600ms.mp4	2.single_touch_with_finger_short_horvertflip_short_600ms.mp4	164.4315456038605	165.03985845646935	0.608312852608833				
147.546875	0.2	302176	102	43	1	0	0	5	18	stimuli\Videos_short_600ms\26.single_touch_with_a_blunt_syringe_short_short_600ms.mp4	26.single_touch_with_a_blunt_syringe_short_short_600ms.mp4	165.23152666022906	165.83984449800414	0.6083178377750755				
148.34716796875	0.2	303815	103	43	1	0	0	6	123	stimuli\Videos_short_600ms_horflip\4.repeated_tap_with_finger_slow_short_horflip_short_600ms.mp4	4.repeated_tap_with_finger_slow_short_horflip_short_600ms.mp4	166.03150185169602	166.63982672735278	0.6083248756567627				
149.14697265625	0.2	305453	104	43	1	0	0	7	257	stimuli\Videos_short_600ms_horvertflip\8.single_touch_with_hairbrush_short_horvertflip_short_600ms.mp4	8.single_touch_with_hairbrush_short_horvertflip_short_600ms.mp4	166.8314972770729	167.43981218239742	0.6083149053245052				
149.94677734375	0.2	307091	105	43	1	0	0	8	94	stimuli\Videos_short_600ms_horflip\13.single_touch_with_pen_short_horflip_short_600ms.mp4	13.single_touch_with_pen_short_horflip_short_600ms.mp4	167.63148067940188	168.23979441174606	0.6083137323441861				
150.7470703125	0.2	308730	106	43	1	0	0	9	301	stimuli\Videos_short_600ms_vertflip\38.double_slap_with_pencil_short_vertflip_short_600ms.mp4	38.double_slap_with_pencil_short_vertflip_short_600ms.mp4	168.43143241126336	169.03977722758486	0.6083448163215053				
151.546875	0.2	310368	107	43	1	0	0	10	28	stimuli\Videos_short_600ms\35.single_punch_with_hand_short_short_600ms.mp4	35.single_punch_with_hand_short_short_600ms.mp4	169.2314216784937	169.839761216404	0.6083395379102967				
152.3466796875	0.2	312006	108	43	1	0	0	11	22	stimuli\Videos_short_600ms\3.single_push_with_finger_short_short_600ms.mp4	3.single_push_with_finger_short_short_600ms.mp4	170.0314291269185	170.63973230244005	0.6083031755215416				
153.14697265625	0.2	313645	109	43	1	0	0	12	222	stimuli\Videos_short_600ms_horvertflip\48.single_slap_with_hand_short_horvertflip_short_600ms.mp4	48.single_slap_with_hand_short_horvertflip_short_600ms.mp4	170.83138437772072	171.43973154000287	0.6083471622821435				
153.94677734375	0.2	315283	110	43	1	0	0	13	105	stimuli\Videos_short_600ms_horflip\23.single_push_with_a_spoon_short_horflip_short_600ms.mp4	23.single_push_with_a_spoon_short_horflip_short_600ms.mp4	171.6313927058809	172.23969206921652	0.6082993633356182				
154.74658203125	0.2	316921	111	43	1	0	0	14	2	stimuli\Videos_short_600ms\11.single_touch_with_lighter_short_short_600ms.mp4	11.single_touch_with_lighter_short_short_600ms.mp4	172.43138050688594	173.03967224584972	0.6082917389637714				
155.546875	0.2	318560	112	43	1	0	0	15	259	stimuli\Videos_short_600ms_horvertflip\81.single_stroke_top_to_bottom_with_cotton_pad_short_horvertflip_short_600ms.mp4	81.single_stroke_top_to_bottom_with_cotton_pad_short_horvertflip_short_600ms.mp4	173.2313612700093	173.83967940102934	0.6083181310200416				
156.3466796875	0.2	320198	113	43	1	0	0	16	262	stimuli\Videos_short_600ms_horvertflip\84.single_touch_with_cotton_bud_short_horvertflip_short_600ms.mp4	84.single_touch_with_cotton_bud_short_horvertflip_short_600ms.mp4	174.0313484845242	174.63967365342592	0.6083251689017288				
157.146484375	0.2	321836	114	43	1	0	0	17	348	stimuli\Videos_short_600ms_vertflip\80.stroke_with_sharp_stick_all_over_the_hand_short_vertflip_short_600ms.mp4	80.stroke_with_sharp_stick_all_over_the_hand_short_vertflip_short_600ms.mp4	174.8313286611574	175.43965207058886	0.6083234094314776				
157.94677734375	0.2	323475	115	43	1	0	0	18	269	stimuli\Videos_short_600ms_horvertflip\90.repeated_touch_with_sponge_short_horvertflip_short_600ms.mp4	90.repeated_touch_with_sponge_short_horvertflip_short_600ms.mp4	175.63131499593715	176.23964339053487	0.60832839459772				
158.74658203125	0.2	325113	116	43	1	0	1	19	361	stimuli\Targets_short_600ms\chopstick-silver-tap_short_short_600ms.mp4	chopstick-silver-tap_short_short_600ms.mp4	176.43129781177595	177.03961594279622	0.608318131020269				
159.54638671875	0.2	326751	117	43	1	0	0	20	88	stimuli\Videos_short_600ms\9.single_touch_with_hammer_short_short_600ms.mp4	9.single_touch_with_hammer_short_short_600ms.mp4	177.23128092085994	177.8396128343984	0.60833191353845				
160.3466796875	0.2	328390	118	43	1	0	0	21	177	stimuli\Videos_short_600ms_horflip\89.single_touch_with_plastic_brush_short_horflip_short_600ms.mp4	89.single_touch_with_plastic_brush_short_horflip_short_600ms.mp4	178.0312660826594	178.63958509341478	0.6083190107553946				
161.146484375	0.2	330028	119	43	1	0	0	22	277	stimuli\Videos_short_600ms_vertflip\16.repeated_touch_with_plastic_brush_short_vertflip_short_600ms.mp4	16.repeated_touch_with_plastic_brush_short_vertflip_short_600ms.mp4	178.83124948498835	179.43956849574374	0.6083190107553946				
161.9462890625	0.2	331666	120	43	1	0	0	23	307	stimuli\Videos_short_600ms_vertflip\43.touch_top_to_bottom_with_sharp_wooden_stick_short_vertflip_short_600ms.mp4	43.touch_top_to_bottom_with_sharp_wooden_stick_short_vertflip_short_600ms.mp4	179.63122848864143	180.23955307105305	0.6083245824115693				
162.74658203125	0.2	333305	121	43	1	0	0	24	33	stimuli\Videos_short_600ms\4.repeated_tap_with_finger_slow_short_short_600ms.mp4	4.repeated_tap_with_finger_slow_short_short_600ms.mp4	180.4312159964013	181.0395350071567	0.6083190107553946				
163.54638671875	0.2	334943	122	43	1	0	0	25	266	stimuli\Videos_short_600ms_horvertflip\88.repeated_stroke_with_plastic_brush_short_horvertflip_short_600ms.mp4	88.repeated_stroke_with_plastic_brush_short_horvertflip_short_600ms.mp4	181.23118092429104	181.8395207554463	0.6083398311552628				
164.34619140625	0.2	336581	123	43	1	0	0	26	303	stimuli\Videos_short_600ms_vertflip\4.repeated_tap_with_finger_slow_short_vertflip_short_600ms.mp4	4.repeated_tap_with_finger_slow_short_vertflip_short_600ms.mp4	182.03115934145376	182.6395053307556	0.6083459893018244				
165.146484375	0.2	338220	124	43	1	0	0	27	68	stimuli\Videos_short_600ms\71.single_stroke_with_finger_top_to_bottom_short_short_600ms.mp4	71.single_stroke_with_finger_top_to_bottom_short_short_600ms.mp4	182.8312087239235	183.43948785334945	0.6082791294259096				
165.9462890625	0.2	339858	125	43	1	0	0	28	155	stimuli\Videos_short_600ms_horflip\69.stroke_with_soft_sock_short_horflip_short_600ms.mp4	69.stroke_with_soft_sock_short_horflip_short_600ms.mp4	183.631127319092	184.23947066918825	0.6083433500962201				
166.74658203125	0.2	341497	126	43	1	0	0	29	140	stimuli\Videos_short_600ms_horflip\55.touch_top_to_bottom_with_nail_file_short_horflip_short_600ms.mp4	55.touch_top_to_bottom_with_nail_file_short_horflip_short_600ms.mp4	184.4311391661929	185.03945759045817	0.6083184242652351				
167.54638671875	0.2	343135	127	43	1	0	0	30	160	stimuli\Videos_short_600ms_horflip\73.single_stroke_with_flat_hand_short_horflip_short_600ms.mp4	73.single_stroke_with_flat_hand_short_horflip_short_600ms.mp4	185.23152519400375	185.8394389400717	0.6079137460678794				
168.34619140625	0.2	344773	128	43	1	0	0	31	159	stimuli\Videos_short_600ms_horflip\72.(short)stroke_with_finger_all_over_the_hand_short_horflip_short_600ms.mp4	72.(short)stroke_with_finger_all_over_the_hand_short_horflip_short_600ms.mp4	186.03111095601707	186.63942498160625	0.6083140255891522				
169.146484375	0.2	346412	129	43	1	0	0	32	220	stimuli\Videos_short_600ms_horvertflip\46.scratching_top_to_bottom_with_finger_nails_short_horvertflip_short_600ms.mp4	46.scratching_top_to_bottom_with_finger_nails_short_horvertflip_short_600ms.mp4	186.83109846377715	187.4394098501607	0.6083113863835479				
169.9462890625	0.2	348050	130	43	1	0	0	33	72	stimuli\Videos_short_600ms\75.(long)stroke_with_fingers_all_over_the_hand_short_short_600ms.mp4	75.(long)stroke_with_fingers_all_over_the_hand_short_short_600ms.mp4	187.63107042954832	188.23939354573463	0.6083231161862841				
170.74609375	0.2	349688	131	43	1	0	0	34	86	stimuli\Videos_short_600ms\88.repeated_stroke_with_plastic_brush_short_short_600ms.mp4	88.repeated_stroke_with_plastic_brush_short_short_600ms.mp4	188.43105441836747	189.0393719628976	0.6083175445301094				
171.54638671875	0.2	351327	132	43	1	0	1	35	369	stimuli\Targets_short_600ms_horflip\finger-tap_short_horflip_short_600ms.mp4	finger-tap_short_horflip_short_600ms.mp4	189.23103782069643	189.8393562449617	0.6083184242652351				
172.34619140625	0.2	352965	133	43	1	0	0	36	357	stimuli\Videos_short_600ms_vertflip\89.single_touch_with_plastic_brush_short_vertflip_short_600ms.mp4	89.single_touch_with_plastic_brush_short_vertflip_short_600ms.mp4	190.03102298249587	190.6393440459667	0.6083210634708394				
173.14599609375	0.2	354603	134	43	1	0	0	37	323	stimuli\Videos_short_600ms_vertflip\58.single_slap_with_pencil_short_vertflip_short_600ms.mp4	58.single_slap_with_pencil_short_vertflip_short_600ms.mp4	190.83100198614895	191.43933038074647	0.6083283945974927				
173.9462890625	0.2	356242	135	43	1	0	0	38	81	stimuli\Videos_short_600ms\83.single_stroke_top_to_bottom_with_cotton_bud_short_short_600ms.mp4	83.single_stroke_top_to_bottom_with_cotton_bud_short_short_600ms.mp4	191.6309886141737	192.23931935473183	0.6083307405581309				
174.74609375	0.2	357880	136	43	1	0	0	39	107	stimuli\Videos_short_600ms_horflip\25.single_touch_with_stanley_knife_short_horflip_short_600ms.mp4	25.single_touch_with_stanley_knife_short_horflip_short_600ms.mp4	192.43097641517875	193.03929425295385	0.6083178377750755				
175.5458984375	0.2	359518	137	43	1	0	0	40	224	stimuli\Videos_short_600ms_horvertflip\5.repeated_tap_with_finger_moving_from_top_to_bottom_short_horvertflip_short_600ms.mp4	5.repeated_tap_with_finger_moving_from_top_to_bottom_short_horvertflip_short_600ms.mp4	193.2309583512824	193.83928293369425	0.6083245824117967				
176.34619140625	0.2	361157	138	43	1	0	0	41	276	stimuli\Videos_short_600ms_vertflip\15.single_stroke_top_to_bottom_with_a_plastic_whisk_short_vertflip_short_600ms.mp4	15.single_stroke_top_to_bottom_with_a_plastic_whisk_short_vertflip_short_600ms.mp4	194.0309432198369	194.6392636968176	0.6083204769806798				
177.14599609375	0.2	362795	139	43	1	0	0	42	101	stimuli\Videos_short_600ms_horflip\2.single_touch_with_finger_short_horflip_short_600ms.mp4	2.single_touch_with_finger_short_horflip_short_600ms.mp4	194.83092515594035	195.43924416669577	0.6083190107553946				
177.94580078125	0.2	364433	140	43	1	0	0	43	313	stimuli\Videos_short_600ms_vertflip\49.repeated_slap_with_hand_short_vertflip_short_600ms.mp4	49.repeated_slap_with_hand_short_vertflip_short_600ms.mp4	195.63091061098496	196.23950703157695	0.6085964205919936				
178.74609375	0.2	366072	141	43	1	0	0	44	209	stimuli\Videos_short_600ms_horvertflip\36.single_slap_with_full_hand_short_horvertflip_short_600ms.mp4	36.single_slap_with_full_hand_short_horvertflip_short_600ms.mp4	196.43088345649153	197.0392150767848	0.6083316202932565				
179.5458984375	0.2	367710	142	43	1	0	0	45	52	stimuli\Videos_short_600ms\57.single_touch_with_nail_file_short_short_600ms.mp4	57.single_touch_with_nail_file_short_short_600ms.mp4	197.2309407565781	197.83919613315337	0.6082553765752436				
180.345703125	0.2	369348	143	43	1	0	0	46	3	stimuli\Videos_short_600ms\12.repeated_touch_with_nail_file_short_short_600ms.mp4	12.repeated_touch_with_nail_file_short_short_600ms.mp4	198.0308373583664	198.63916399349364	0.6083266351272414				
181.14599609375	0.2	370987	144	43	1	0	0	47	17	stimuli\Videos_short_600ms\25.single_touch_with_stanley_knife_short_short_600ms.mp4	25.single_touch_with_stanley_knife_short_short_600ms.mp4	198.83084246083055	199.4391652837719	0.608322822941318				
181.94580078125	0.2	372625	145	43	1	0	1	48	367	stimuli\Targets_short_600ms_horflip\chopstick-silver-tap_short_horflip_short_600ms.mp4	chopstick-silver-tap_short_horflip_short_600ms.mp4	199.63082703613983	200.23914927259105	0.6083222364511585				
182.74560546875	0.2	374263	146	43	1	0	0	49	62	stimuli\Videos_short_600ms\66.stroke_top_to_bottom_with_sponge_short_short_600ms.mp4	66.stroke_top_to_bottom_with_sponge_short_short_600ms.mp4	200.43081278442943	201.03913238167505	0.6083195972455542				
183.5458984375	0.2	375902	147	43	1	0	0	50	350	stimuli\Videos_short_600ms_vertflip\82.repeated_touch_with_cotton_bud_short_vertflip_short_600ms.mp4	82.repeated_touch_with_cotton_bud_short_vertflip_short_600ms.mp4	201.23080557060075	201.8391184232096	0.608312852608833				
184.345703125	0.2	377540	148	43	1	0	0	51	352	stimuli\Videos_short_600ms_vertflip\84.single_touch_with_cotton_bud_short_vertflip_short_600ms.mp4	84.single_touch_with_cotton_bud_short_vertflip_short_600ms.mp4	202.03078134855787	202.6390763132174	0.6082949646595353				
185.14599609375	0.2	379179	149	43	1	0	0	52	8	stimuli\Videos_short_600ms\17.repeated_touch_with_rolling_pin_short_short_600ms.mp4	17.repeated_touch_with_rolling_pin_short_short_600ms.mp4	202.83076475088683	203.4390805359465	0.6083157850596308				
185.94580078125	0.2	380817	150	43	1	0	0	53	302	stimuli\Videos_short_600ms_vertflip\39.single_stab_with_scissors_short_vertflip_short_600ms.mp4	39.single_stab_with_scissors_short_vertflip_short_600ms.mp4	203.6307496194413	204.23906481801075	0.6083151985694712				
186.74560546875	0.2	382455	151	43	1	0	0	54	310	stimuli\Videos_short_600ms_vertflip\46.scratching_top_to_bottom_with_finger_nails_short_vertflip_short_600ms.mp4	46.scratching_top_to_bottom_with_finger_nails_short_vertflip_short_600ms.mp4	204.43073038256463	205.0390502730552	0.6083198904905203				
187.5458984375	0.2	384094	152	43	1	0	0	55	221	stimuli\Videos_short_600ms_horvertflip\47.(long)scratching_with_finger_nails_short_horvertflip_short_600ms.mp4	47.(long)scratching_with_finger_nails_short_horvertflip_short_600ms.mp4	205.2307199430402	205.83903807406023	0.6083181310200416				
188.345703125	0.2	385732	153	43	1	0	0	56	54	stimuli\Videos_short_600ms\59.single_push_with_long_side_pencil_short_short_600ms.mp4	59.single_push_with_long_side_pencil_short_short_600ms.mp4	206.03069923993823	206.63902206287935	0.6083228229410906				
189.1455078125	0.2	387370	154	43	1	0	0	57	153	stimuli\Videos_short_600ms_horflip\67.single_touch_with_sponge_short_horflip_short_600ms.mp4	67.single_touch_with_sponge_short_horflip_short_600ms.mp4	206.8306838152475	207.4390139693155	0.6083301540679713				
189.94580078125	0.2	389009	155	43	1	0	0	58	164	stimuli\Videos_short_600ms_horflip\77.tapping_with_all_fingers_short_horflip_short_600ms.mp4	77.tapping_with_all_fingers_short_horflip_short_600ms.mp4	207.63066780406663	208.23898828104737	0.6083204769806798				
190.74560546875	0.2	390647	156	43	1	0	0	59	200	stimuli\Videos_short_600ms_horvertflip\28.single_injection_with_sharp_needle_short_horvertflip_short_600ms.mp4	28.single_injection_with_sharp_needle_short_horvertflip_short_600ms.mp4	208.4306523793759	209.03897285635665	0.6083204769806798				
191.54541015625	0.2	392285	157	43	1	0	1	60	368	stimuli\Targets_short_600ms_horflip\chopstickwood-tap_short_horflip_short_600ms.mp4	chopstickwood-tap_short_horflip_short_600ms.mp4	209.2306343154796	209.83895361948	0.6083193040003607				
192.345703125	0.2	393924	158	43	1	0	0	61	156	stimuli\Videos_short_600ms_horflip\7.repeated_touch_with_hairbrush_short_horflip_short_600ms.mp4	7.repeated_touch_with_hairbrush_short_horflip_short_600ms.mp4	210.0306341395326	210.6389376082991	0.6083034687665076				
193.1455078125	0.2	395562	159	43	1	0	0	62	351	stimuli\Videos_short_600ms_vertflip\83.single_stroke_top_to_bottom_with_cotton_bud_short_vertflip_short_600ms.mp4	83.single_stroke_top_to_bottom_with_cotton_bud_short_vertflip_short_600ms.mp4	210.830602879608	211.43892159711825	0.6083187175102012				
193.9453125	0.2	397200	160	43	1	0	0	63	21	stimuli\Videos_short_600ms\29.single_pinch_with_tweezers_short_short_600ms.mp4	29.single_pinch_with_tweezers_short_short_600ms.mp4	211.63058628193696	212.2389049994472	0.6083187175102012				
194.74560546875	0.2	398839	161	43	1	0	0	64	113	stimuli\Videos_short_600ms_horflip\30.finger_pulling_back_another_finger_short_horflip_short_600ms.mp4	30.finger_pulling_back_another_finger_short_horflip_short_600ms.mp4	212.43056469909993	213.0388922139623	0.608327514862367				
195.54541015625	0.2	400477	162	43	1	0	0	65	166	stimuli\Videos_short_600ms_horflip\79.long_with_soft_brush_all_over_the_hand_short_horflip_short_600ms.mp4	79.long_with_soft_brush_all_over_the_hand_short_horflip_short_600ms.mp4	213.2305548460654	213.8388726838405	0.6083178377750755				
196.34521484375	0.2	402115	163	43	1	0	0	66	14	stimuli\Videos_short_600ms\22.single_touch_with_metal_chopstick_short_short_600ms.mp4	22.single_touch_with_metal_chopstick_short_short_600ms.mp4	214.03053414296343	214.63885725914977	0.6083231161862841				
197.1455078125	0.2	403754	164	43	1	0	1	67	377	stimuli\Targets_short_600ms_horvertflip\hand-stroke_short_vertflip_short_600ms.mp4	hand-stroke_short_vertflip_short_600ms.mp4	214.83049672489255	215.4388415412141	0.6083448163215053				
197.9453125	0.2	405392	165	43	1	0	0	68	335	stimuli\Videos_short_600ms_vertflip\69.stroke_with_soft_sock_short_vertflip_short_600ms.mp4	69.stroke_with_soft_sock_short_vertflip_short_600ms.mp4	215.6305018273567	216.23880001771204	0.6082981903552991				
198.7451171875	0.2	407030	166	43	1	0	0	69	176	stimuli\Videos_short_600ms_horflip\88.repeated_stroke_with_plastic_brush_short_horflip_short_600ms.mp4	88.repeated_stroke_with_plastic_brush_short_horflip_short_600ms.mp4	216.4304963729985	217.0388095188523	0.6083131458537991				
199.54541015625	0.2	408669	167	43	1	0	0	70	254	stimuli\Videos_short_600ms_horvertflip\77.tapping_with_all_fingers_short_horvertflip_short_600ms.mp4	77.tapping_with_all_fingers_short_horvertflip_short_600ms.mp4	217.23047713612183	217.83878910899537	0.60831197287348				
200.34521484375	0.2	410307	168	43	1	0	0	71	75	stimuli\Videos_short_600ms\78.single_stroke_top_to_bottom_with_soft_brush_short_short_600ms.mp4	78.single_stroke_top_to_bottom_with_soft_brush_short_short_600ms.mp4	218.03046405739155	218.6387549166202	0.6082908592286458				
201.14501953125	0.2	411945	169	43	1	0	0	72	53	stimuli\Videos_short_600ms\58.single_slap_with_pencil_short_short_600ms.mp4	58.single_slap_with_pencil_short_short_600ms.mp4	218.830440715084	219.43875650014365	0.6083157850596308				
201.9453125	0.2	413584	170	43	1	0	0	73	19	stimuli\Videos_short_600ms\27.single_push_with_a_plastic_whisk_short_short_600ms.mp4	27.single_push_with_a_plastic_whisk_short_short_600ms.mp4	219.6304267566186	220.23871908207252	0.608292325453931				
202.7451171875	0.2	415222	171	43	1	0	0	74	11	stimuli\Videos_short_600ms\2.single_touch_with_finger_short_short_600ms.mp4	2.single_touch_with_finger_short_short_600ms.mp4	220.4304081062321	221.03872682374256	0.6083187175104285				
203.54541015625	0.2	416861	172	43	1	0	0	75	280	stimuli\Videos_short_600ms_vertflip\19.single_touch_with_rolling_pin_short_vertflip_short_600ms.mp4	19.single_touch_with_rolling_pin_short_vertflip_short_600ms.mp4	221.2303941477669	221.8387157977279	0.6083216499609989				
204.34521484375	0.2	418499	173	43	1	0	0	76	309	stimuli\Videos_short_600ms_vertflip\45.scratching_with_finger_nails_short_vertflip_short_600ms.mp4	45.scratching_with_finger_nails_short_vertflip_short_600ms.mp4	222.0303766703607	222.63869890681167	0.6083222364509311				
205.14501953125	0.2	420137	174	43	1	0	0	77	205	stimuli\Videos_short_600ms_horvertflip\32.single_(long)pinch_with_fingers_short_horvertflip_short_600ms.mp4	32.single_(long)pinch_with_fingers_short_horvertflip_short_600ms.mp4	222.83035889970935	223.4386805496704	0.6083216499609989				
205.9453125	0.2	421776	175	43	1	0	0	78	204	stimuli\Videos_short_600ms_horvertflip\31.hand_grabbing_wrist_short_horvertflip_short_600ms.mp4	31.hand_grabbing_wrist_short_horvertflip_short_600ms.mp4	223.6303425952835	224.23866307226425	0.6083204769806798				
206.7451171875	0.2	423414	176	43	1	0	0	79	306	stimuli\Videos_short_600ms_vertflip\42.single_slap_with_plastic_whisk_short_vertflip_short_600ms.mp4	42.single_slap_with_plastic_whisk_short_vertflip_short_600ms.mp4	224.4303286368181	225.038646181348	0.6083175445298821				
207.544921875	0.2	425052	177	43	1	0	0	80	300	stimuli\Videos_short_600ms_vertflip\37.single_stab_with_nail_file_short_vertflip_short_600ms.mp4	37.single_stab_with_nail_file_short_vertflip_short_600ms.mp4	225.23031086616675	225.8386319296376	0.6083210634708394				
208.34521484375	0.2	426691	178	43	1	0	0	81	233	stimuli\Videos_short_600ms_horvertflip\58.single_slap_with_pencil_short_horvertflip_short_600ms.mp4	58.single_slap_with_pencil_short_horvertflip_short_600ms.mp4	226.0302969077015	226.6386138657413	0.6083169580397225				
209.14501953125	0.2	428329	179	43	1	0	0	82	25	stimuli\Videos_short_600ms\32.single_(long)pinch_with_fingers_short_short_600ms.mp4	32.single_(long)pinch_with_fingers_short_short_600ms.mp4	226.8302773775797	227.4385990275407	0.6083216499609989				
209.94482421875	0.2	429967	180	43	1	0	0	83	273	stimuli\Videos_short_600ms_vertflip\12.repeated_touch_with_nail_file_short_vertflip_short_600ms.mp4	12.repeated_touch_with_nail_file_short_vertflip_short_600ms.mp4	227.63029596931733	228.23858155013457	0.6082855808172098				
210.7451171875	0.2	431606	181	43	1	0	0	84	151	stimuli\Videos_short_600ms_horflip\65.stroke_top_to_bottom_with_stanley_knife_short_horflip_short_600ms.mp4	65.stroke_top_to_bottom_with_stanley_knife_short_horflip_short_600ms.mp4	228.43024799442375	229.0385655389537	0.6083175445298821				
211.544921875	0.2	433244	182	43	1	0	0	85	339	stimuli\Videos_short_600ms_vertflip\72.(short)stroke_with_finger_all_over_the_hand_short_vertflip_short_600ms.mp4	72.(short)stroke_with_finger_all_over_the_hand_short_vertflip_short_600ms.mp4	229.2302343292033	229.8385509939983	0.6083166647949838				
212.3447265625	0.2	434882	183	43	1	0	1	86	374	stimuli\Targets_short_600ms_horvertflip\chopstickwood-tap_short_vertflip_short_600ms.mp4	chopstickwood-tap_short_vertflip_short_600ms.mp4	230.03021303961123	230.6385326368568	0.6083195972455542				
213.14501953125	0.2	436521	184	43	1	0	0	87	214	stimuli\Videos_short_600ms_horvertflip\40.repeated_push_with_finger_short_horvertflip_short_600ms.mp4	40.repeated_push_with_finger_short_horvertflip_short_600ms.mp4	230.83019878790083	231.43851867839135	0.6083198904905203				
213.94482421875	0.2	438159	185	43	1	0	0	88	51	stimuli\Videos_short_600ms\56.repeated_touch_with_nail_file_short_short_600ms.mp4	56.repeated_touch_with_nail_file_short_short_600ms.mp4	231.63018570917075	232.2385023739655	0.6083166647947564				
214.74462890625	0.2	439797	186	43	1	0	0	89	110	stimuli\Videos_short_600ms_horflip\28.single_injection_with_sharp_needle_short_horflip_short_600ms.mp4	28.single_injection_with_sharp_needle_short_horflip_short_600ms.mp4	232.4301661790491	233.0384813776184	0.6083151985692439				
215.544921875	0.2	441436	187	43	1	0	0	90	245	stimuli\Videos_short_600ms_horvertflip\69.stroke_with_soft_sock_short_horvertflip_short_600ms.mp4	69.stroke_with_soft_sock_short_horvertflip_short_600ms.mp4	233.2301563260146	233.8384718178293	0.6083154918146647				
216.3447265625	0.2	443074	188	43	1	0	0	91	77	stimuli\Videos_short_600ms\8.single_touch_with_hairbrush_short_short_600ms.mp4	8.single_touch_with_hairbrush_short_short_600ms.mp4	234.03010805787608	234.63845903234417	0.6083509744680669				
217.14453125	0.2	444712	189	43	1	0	0	92	227	stimuli\Videos_short_600ms_horvertflip\52.touch_top_to_bottom_with_hammer_short_horvertflip_short_600ms.mp4	52.touch_top_to_bottom_with_hammer_short_horvertflip_short_600ms.mp4	234.83012694285867	235.43843246434065	0.6083055214819524				
217.94482421875	0.2	446351	190	43	1	0	0	93	89	stimuli\Videos_short_600ms\90.repeated_touch_with_sponge_short_short_600ms.mp4	90.repeated_touch_with_sponge_short_short_600ms.mp4	235.63010008161015	236.2384176261401	0.6083175445298821				
218.74462890625	0.2	447989	191	43	1	0	0	94	24	stimuli\Videos_short_600ms\31.hand_grabbing_wrist_short_short_600ms.mp4	31.hand_grabbing_wrist_short_short_600ms.mp4	236.4300843636745	237.03840777310575	0.6083234094312502				
219.54443359375	0.2	449627	192	43	1	0	0	95	129	stimuli\Videos_short_600ms_horflip\45.scratching_with_finger_nails_short_horflip_short_600ms.mp4	45.scratching_with_finger_nails_short_horflip_short_600ms.mp4	237.2300668862681	237.8383891227193	0.6083222364511585	6.0	6.0	1.687094607017798	1.0
255.376953125	0.2	523012	193	43	2	0	0	0	37	stimuli\Videos_short_600ms\43.touch_top_to_bottom_with_sharp_wooden_stick_short_short_600ms.mp4	43.touch_top_to_bottom_with_sharp_wooden_stick_short_short_600ms.mp4	273.06266559182586	273.67094618747683	0.6082805956509674				
256.1767578125	0.2	524650	194	43	2	0	0	1	128	stimuli\Videos_short_600ms_horflip\44.pushing_top_to_bottom_with_finger_short_horflip_short_600ms.mp4	44.pushing_top_to_bottom_with_finger_short_horflip_short_600ms.mp4	273.86256747202515	274.4709650724594	0.608397600434273				
256.9765625	0.2	526288	195	43	2	0	0	2	0	stimuli\Videos_short_600ms\1.repeated_touch_with_finger_fast_short_short_600ms.mp4	1.repeated_touch_with_finger_fast_short_short_600ms.mp4	274.6626309302585	275.2709250151829	0.6082940849244096				
257.77685546875	0.2	527927	196	43	2	0	0	3	185	stimuli\Videos_short_600ms_horvertflip\14.repeated_touch_with_pencil_short_horvertflip_short_600ms.mp4	14.repeated_touch_with_pencil_short_horvertflip_short_600ms.mp4	275.4627181413425	276.070942140695	0.6082239993525036				
258.57666015625	0.2	529565	197	43	2	0	0	4	193	stimuli\Videos_short_600ms_horvertflip\21.repeated_touch_with_metal_chopstick_short_horvertflip_short_600ms.mp4	21.repeated_touch_with_metal_chopstick_short_horvertflip_short_600ms.mp4	276.26260887822923	276.8708557506973	0.6082468724680439				
259.376953125	0.2	531204	198	43	2	0	0	5	98	stimuli\Videos_short_600ms_horflip\17.repeated_touch_with_rolling_pin_short_horflip_short_600ms.mp4	17.repeated_touch_with_rolling_pin_short_horflip_short_600ms.mp4	277.06252659366237	277.67089662906005	0.6083700353976838				
260.1767578125	0.2	532842	199	43	2	0	0	6	294	stimuli\Videos_short_600ms_vertflip\31.hand_grabbing_wrist_short_vertflip_short_600ms.mp4	31.hand_grabbing_wrist_short_vertflip_short_600ms.mp4	277.8625434259295	278.4708266607861	0.6082832348565717				
260.9765625	0.2	534480	200	43	2	0	0	7	353	stimuli\Videos_short_600ms_vertflip\85.touch_top_to_bottom_with_fabric_short_vertflip_short_600ms.mp4	85.touch_top_to_bottom_with_fabric_short_vertflip_short_600ms.mp4	278.6625470621684	279.2708276578194	0.6082805956509674				
261.77685546875	0.2	536119	201	43	2	0	0	8	103	stimuli\Videos_short_600ms_horflip\21.repeated_touch_with_metal_chopstick_short_horflip_short_600ms.mp4	21.repeated_touch_with_metal_chopstick_short_horflip_short_600ms.mp4	279.4624641911114	280.0708459563118	0.60838176520042				
262.57666015625	0.2	537757	202	43	2	0	0	9	148	stimuli\Videos_short_600ms_horflip\62.touch_top_to_bottom_with_scissors_short_horflip_short_600ms.mp4	62.touch_top_to_bottom_with_scissors_short_horflip_short_600ms.mp4	280.26251210735586	280.87081323016196	0.6083011228060968				
263.37646484375	0.2	539395	203	43	2	0	0	10	296	stimuli\Videos_short_600ms_vertflip\33.scratch_top_to_bottom_with_scissors_short_vertflip_short_600ms.mp4	33.scratch_top_to_bottom_with_scissors_short_vertflip_short_600ms.mp4	281.0624779149807	281.67083064891904	0.6083527339383181				
264.1767578125	0.2	541034	204	43	2	0	0	11	263	stimuli\Videos_short_600ms_horvertflip\85.touch_top_to_bottom_with_fabric_short_horvertflip_short_600ms.mp4	85.touch_top_to_bottom_with_fabric_short_horvertflip_short_600ms.mp4	281.86251263519694	282.4708131715129	0.6083005363159373				
264.9765625	0.2	542672	205	43	2	0	0	12	312	stimuli\Videos_short_600ms_vertflip\48.single_slap_with_hand_short_vertflip_short_600ms.mp4	48.single_slap_with_hand_short_vertflip_short_600ms.mp4	282.6624799090471	283.2707983333123	0.6083184242652351				
265.7763671875	0.2	544310	206	43	2	0	0	13	26	stimuli\Videos_short_600ms\33.scratch_top_to_bottom_with_scissors_short_short_600ms.mp4	33.scratch_top_to_bottom_with_scissors_short_short_600ms.mp4	283.46246448435636	284.07077968292583	0.6083151985694712				
266.57666015625	0.2	545949	207	43	2	0	0	14	70	stimuli\Videos_short_600ms\73.single_stroke_with_flat_hand_short_short_600ms.mp4	73.single_stroke_with_flat_hand_short_short_600ms.mp4	284.2624537515869	284.8707607392944	0.6083069877074649				
267.37646484375	0.2	547587	208	43	2	0	0	15	20	stimuli\Videos_short_600ms\28.single_injection_with_sharp_needle_short_short_600ms.mp4	28.single_injection_with_sharp_needle_short_short_600ms.mp4	285.06243216874964	285.6707502997699	0.608318131020269				
268.17626953125	0.2	549225	209	43	2	0	0	16	188	stimuli\Videos_short_600ms_horvertflip\17.repeated_touch_with_rolling_pin_short_horvertflip_short_600ms.mp4	17.repeated_touch_with_rolling_pin_short_horvertflip_short_600ms.mp4	285.8624132251182	286.47070643030725	0.6082932051890566				
268.9765625	0.2	550864	210	43	2	0	1	17	380	stimuli\Targets_short_600ms_vertflip\chopstickwood-tap_short_horvertflip_short_600ms.mp4	chopstickwood-tap_short_horvertflip_short_600ms.mp4	286.66246671301906	287.27069657727293	0.6082298642538717				
269.7763671875	0.2	552502	211	43	2	0	0	18	354	stimuli\Videos_short_600ms_vertflip\86.touch_top_to_bottom_with_hair_brush_short_vertflip_short_600ms.mp4	86.touch_top_to_bottom_with_hair_brush_short_vertflip_short_600ms.mp4	287.46237973653115	288.0706770471513	0.6082973106201734				
270.576171875	0.2	554140	212	43	2	0	0	19	298	stimuli\Videos_short_600ms_vertflip\35.single_punch_with_hand_short_vertflip_short_600ms.mp4	35.single_punch_with_hand_short_vertflip_short_600ms.mp4	288.2627563804997	288.8706847888211	0.6079284083214134				
271.37646484375	0.2	555779	213	43	2	0	0	20	343	stimuli\Videos_short_600ms_vertflip\76.tickle_with_fingers_from_top_to_bottom_short_vertflip_short_600ms.mp4	76.tickle_with_fingers_from_top_to_bottom_short_vertflip_short_600ms.mp4	289.0623474209244	289.67066995062055	0.6083225296961245				
272.17626953125	0.2	557417	214	43	2	0	1	21	372	stimuli\Targets_short_600ms_horvertflip\brush-stroke_short_vertflip_short_600ms.mp4	brush-stroke_short_vertflip_short_600ms.mp4	289.86233111649835	290.47065276645935	0.6083216499609989				
272.97607421875	0.2	559055	215	43	2	0	0	22	208	stimuli\Videos_short_600ms_horvertflip\35.single_punch_with_hand_short_horvertflip_short_600ms.mp4	35.single_punch_with_hand_short_horvertflip_short_600ms.mp4	290.66229369842745	291.2706367552785	0.6083430568510266				
273.7763671875	0.2	560694	216	43	2	0	0	23	292	stimuli\Videos_short_600ms_vertflip\3.single_push_with_finger_short_vertflip_short_600ms.mp4	3.single_push_with_finger_short_vertflip_short_600ms.mp4	291.46229733466635	292.07061605217655	0.6083187175102012				
274.576171875	0.2	562332	217	43	2	0	0	24	117	stimuli\Videos_short_600ms_horflip\34.repeated_punch_with_hand_short_horflip_short_600ms.mp4	34.repeated_punch_with_hand_short_horflip_short_600ms.mp4	292.2622822032206	292.8706006274858	0.6083184242652351				
275.3759765625	0.2	563970	218	43	2	0	0	25	316	stimuli\Videos_short_600ms_vertflip\51.repeated_touch_with_hammer_short_vertflip_short_600ms.mp4	51.repeated_touch_with_hammer_short_vertflip_short_600ms.mp4	293.0622984489976	293.6705837365698	0.6082852875722438				
276.17626953125	0.2	565609	219	43	2	0	0	26	279	stimuli\Videos_short_600ms_vertflip\18.single_stroke_from_top_to_bottom_with_rolling_pin_short_vertflip_short_600ms.mp4	18.single_stroke_from_top_to_bottom_with_rolling_pin_short_vertflip_short_600ms.mp4	293.86224636867314	294.47057036459455	0.6083239959214097				
276.97607421875	0.2	567247	220	43	2	0	0	27	196	stimuli\Videos_short_600ms_horvertflip\24.single_stroke_top_to_bottom_with_a_spoon_short_horvertflip_short_600ms.mp4	24.single_stroke_top_to_bottom_with_a_spoon_short_horvertflip_short_600ms.mp4	294.6622327034527	295.27055054122775	0.6083178377750755				
277.7763671875	0.2	568886	221	43	2	0	0	28	260	stimuli\Videos_short_600ms_horvertflip\82.repeated_touch_with_cotton_bud_short_horvertflip_short_600ms.mp4	82.repeated_touch_with_cotton_bud_short_horvertflip_short_600ms.mp4	295.4621961651169	296.07053628951735	0.6083401244004563				
278.576171875	0.2	570524	222	43	2	0	0	29	102	stimuli\Videos_short_600ms_horflip\20.single_touch_with_screwdriver_short_horflip_short_600ms.mp4	20.single_touch_with_screwdriver_short_horflip_short_600ms.mp4	296.2622027338066	296.8705196918463	0.6083169580397225				
279.3759765625	0.2	572162	223	43	2	0	0	30	247	stimuli\Videos_short_600ms_horvertflip\70.(long)stroke_with_finger_all_over_the_hand_short_horvertflip_short_600ms.mp4	70.(long)stroke_with_finger_all_over_the_hand_short_horvertflip_short_600ms.mp4	297.06218173745947	297.67050485364575	0.6083231161862841				
280.17626953125	0.2	573801	224	43	2	0	0	31	50	stimuli\Videos_short_600ms\55.touch_top_to_bottom_with_nail_file_short_short_600ms.mp4	55.touch_top_to_bottom_with_nail_file_short_short_600ms.mp4	297.8621642600533	298.4704876694848	0.6083234094314776				
280.97607421875	0.2	575439	225	43	2	0	0	32	127	stimuli\Videos_short_600ms_horflip\43.touch_top_to_bottom_with_sharp_wooden_stick_short_horflip_short_600ms.mp4	43.touch_top_to_bottom_with_sharp_wooden_stick_short_horflip_short_600ms.mp4	298.6621526475485	299.2704704853236	0.6083178377750755				
281.77587890625	0.2	577077	226	43	2	0	0	33	250	stimuli\Videos_short_600ms_horvertflip\73.single_stroke_with_flat_hand_short_horvertflip_short_600ms.mp4	73.single_stroke_with_flat_hand_short_horvertflip_short_600ms.mp4	299.4621879542551	300.0704600457991	0.608272091543995				
282.576171875	0.2	578716	227	43	2	0	0	34	238	stimuli\Videos_short_600ms_horvertflip\62.touch_top_to_bottom_with_scissors_short_horvertflip_short_600ms.mp4	62.touch_top_to_bottom_with_scissors_short_horvertflip_short_600ms.mp4	300.262125610353	300.87044110216743	0.6083154918144373				
283.3759765625	0.2	580354	228	43	2	0	0	35	217	stimuli\Videos_short_600ms_horvertflip\43.touch_top_to_bottom_with_sharp_wooden_stick_short_horvertflip_short_600ms.mp4	43.touch_top_to_bottom_with_sharp_wooden_stick_short_horvertflip_short_600ms.mp4	301.06209962883986	301.670418639595	0.6083190107551673				
284.17578125	0.2	581992	229	43	2	0	0	36	275	stimuli\Videos_short_600ms_vertflip\14.repeated_touch_with_pencil_short_vertflip_short_600ms.mp4	14.repeated_touch_with_pencil_short_vertflip_short_600ms.mp4	301.8620859636194	302.47038092827916	0.6082949646597626				
284.97607421875	0.2	583631	230	43	2	0	0	37	9	stimuli\Videos_short_600ms\18.single_stroke_from_top_to_bottom_with_rolling_pin_short_short_600ms.mp4	18.single_stroke_from_top_to_bottom_with_rolling_pin_short_short_600ms.mp4	302.6620720051542	303.27036345087276	0.608291445718578				
285.77587890625	0.2	585269	231	43	2	0	0	38	119	stimuli\Videos_short_600ms_horflip\36.single_slap_with_full_hand_short_horflip_short_600ms.mp4	36.single_slap_with_full_hand_short_horflip_short_600ms.mp4	303.46236419454226	304.0703694330723	0.6080052385300405				
286.57568359375	0.2	586907	232	43	2	0	0	39	61	stimuli\Videos_short_600ms\65.stroke_top_to_bottom_with_stanley_knife_short_short_600ms.mp4	65.stroke_top_to_bottom_with_stanley_knife_short_short_600ms.mp4	304.262034411136	304.8703566475872	0.6083222364511585				
287.3759765625	0.2	588546	233	43	2	0	0	40	63	stimuli\Videos_short_600ms\67.single_touch_with_sponge_short_short_600ms.mp4	67.single_touch_with_sponge_short_short_600ms.mp4	305.06201869320034	305.67034708779784	0.6083283945974927				
288.17578125	0.2	590184	234	43	2	0	0	41	171	stimuli\Videos_short_600ms_horflip\83.single_stroke_top_to_bottom_with_cotton_bud_short_horflip_short_600ms.mp4	83.single_stroke_top_to_bottom_with_cotton_bud_short_horflip_short_600ms.mp4	305.8620035617546	306.47032257251	0.6083190107553946				
288.9755859375	0.2	591822	235	43	2	0	0	42	285	stimuli\Videos_short_600ms_vertflip\23.single_push_with_a_spoon_short_vertflip_short_600ms.mp4	23.single_push_with_a_spoon_short_vertflip_short_600ms.mp4	306.6619599855371	307.27031887762223	0.6083588920851071				
289.77587890625	0.2	593461	236	43	2	0	1	43	363	stimuli\Targets_short_600ms\finger-tap_short_short_600ms.mp4	finger-tap_short_short_600ms.mp4	307.4619697799226	308.070288790678	0.6083190107553946				
290.57568359375	0.2	595099	237	43	2	0	0	44	32	stimuli\Videos_short_600ms\39.single_stab_with_scissors_short_short_600ms.mp4	39.single_stab_with_scissors_short_short_600ms.mp4	308.2619540619869	308.87027307274207	0.6083190107551673				
291.37548828125	0.2	596737	238	43	2	0	0	45	39	stimuli\Videos_short_600ms\45.scratching_with_finger_nails_short_short_600ms.mp4	45.scratching_with_finger_nails_short_short_600ms.mp4	309.0619395170313	309.670259700767	0.6083201837357137				
292.17578125	0.2	598376	239	43	2	0	1	46	373	stimuli\Targets_short_600ms_horvertflip\chopstick-silver-tap_short_vertflip_short_600ms.mp4	chopstick-silver-tap_short_vertflip_short_600ms.mp4	309.8619249720757	310.4702428098508	0.6083178377750755				
292.9755859375	0.2	600014	240	43	2	0	0	47	175	stimuli\Videos_short_600ms_horflip\87.single_stroke_top_to_bottom_with_plastic_brush_short_horflip_short_600ms.mp4	87.single_stroke_top_to_bottom_with_plastic_brush_short_horflip_short_600ms.mp4	310.66188432830904	311.27022474595447	0.6083404176454223				
293.775390625	0.2	601652	241	43	2	0	0	48	291	stimuli\Videos_short_600ms_vertflip\29.single_pinch_with_tweezers_short_vertflip_short_600ms.mp4	29.single_pinch_with_tweezers_short_vertflip_short_600ms.mp4	311.46189148348867	312.0702072685483	0.6083157850596308				
294.57568359375	0.2	603291	242	43	2	0	0	49	216	stimuli\Videos_short_600ms_horvertflip\42.single_slap_with_plastic_whisk_short_horvertflip_short_600ms.mp4	42.single_slap_with_plastic_whisk_short_horvertflip_short_600ms.mp4	312.26187371283754	312.8701921371028	0.6083184242652351				
295.37548828125	0.2	604929	243	43	2	0	0	50	165	stimuli\Videos_short_600ms_horflip\78.single_stroke_top_to_bottom_with_soft_brush_short_horflip_short_600ms.mp4	78.single_stroke_top_to_bottom_with_soft_brush_short_horflip_short_600ms.mp4	313.06183072311023	313.6701761259219	0.6083454028116648				
296.17578125	0.2	606568	244	43	2	0	0	51	336	stimuli\Videos_short_600ms_vertflip\7.repeated_touch_with_hairbrush_short_vertflip_short_600ms.mp4	7.repeated_touch_with_hairbrush_short_vertflip_short_600ms.mp4	313.86181060649824	314.4701598214958	0.6083492149975882				
296.9755859375	0.2	608206	245	43	2	0	0	52	324	stimuli\Videos_short_600ms_vertflip\59.single_push_with_long_side_pencil_short_vertflip_short_600ms.mp4	59.single_push_with_long_side_pencil_short_vertflip_short_600ms.mp4	314.66180163319905	315.2701443968051	0.6083427636060605				
297.775390625	0.2	609844	246	43	2	0	0	53	58	stimuli\Videos_short_600ms\62.touch_top_to_bottom_with_scissors_short_short_600ms.mp4	62.touch_top_to_bottom_with_scissors_short_short_600ms.mp4	315.4618084951337	316.0701219342327	0.6083134390989926				
298.57568359375	0.2	611483	247	43	2	0	0	54	100	stimuli\Videos_short_600ms_horflip\19.single_touch_with_rolling_pin_short_horflip_short_600ms.mp4	19.single_touch_with_rolling_pin_short_horflip_short_600ms.mp4	316.26180098806003	316.8700845161618	0.6082835281017651				
299.37548828125	0.2	613121	248	43	2	0	0	55	106	stimuli\Videos_short_600ms_horflip\24.single_stroke_top_to_bottom_with_a_spoon_short_horflip_short_600ms.mp4	24.single_stroke_top_to_bottom_with_a_spoon_short_horflip_short_600ms.mp4	317.0617738335666	317.67009167134165	0.6083178377750755				
300.17529296875	0.2	614759	249	43	2	0	0	56	358	stimuli\Videos_short_600ms_vertflip\9.single_touch_with_hammer_short_vertflip_short_600ms.mp4	9.single_touch_with_hammer_short_vertflip_short_600ms.mp4	317.8617566494054	318.470077419631	0.6083207702256459				
300.9755859375	0.2	616398	250	43	2	0	0	57	65	stimuli\Videos_short_600ms\69.stroke_with_soft_sock_short_short_600ms.mp4	69.stroke_with_soft_sock_short_short_600ms.mp4	318.66174269093995	319.27006170169534	0.6083190107553946				
301.775390625	0.2	618036	251	43	2	0	0	58	331	stimuli\Videos_short_600ms_vertflip\65.stroke_top_to_bottom_with_stanley_knife_short_vertflip_short_600ms.mp4	65.stroke_top_to_bottom_with_stanley_knife_short_vertflip_short_600ms.mp4	319.4617249202888	320.07004715673975	0.6083222364509311				
302.5751953125	0.2	619674	252	43	2	0	0	59	199	stimuli\Videos_short_600ms_horvertflip\27.single_push_with_a_plastic_whisk_short_horvertflip_short_600ms.mp4	27.single_push_with_a_plastic_whisk_short_horvertflip_short_600ms.mp4	320.2617077361276	320.87003055906894	0.608322822941318				
303.37548828125	0.2	621313	253	43	2	0	0	60	169	stimuli\Videos_short_600ms_horflip\81.single_stroke_top_to_bottom_with_cotton_pad_short_horflip_short_600ms.mp4	81.single_stroke_top_to_bottom_with_cotton_pad_short_horflip_short_600ms.mp4	321.06169289792706	321.6700124951726	0.6083195972455542				
304.17529296875	0.2	622951	254	43	2	0	0	61	59	stimuli\Videos_short_600ms\63.stroke_top_to_bottom_with_screwdriver_short_short_600ms.mp4	63.stroke_top_to_bottom_with_screwdriver_short_short_600ms.mp4	321.86167454078554	322.4699953110114	0.6083207702258733				
304.97509765625	0.2	624589	255	43	2	0	0	62	56	stimuli\Videos_short_600ms\60.single_push_with_tip_of_pencil_short_short_600ms.mp4	60.single_push_with_tip_of_pencil_short_short_600ms.mp4	322.66165794311473	323.2699816457912	0.6083237026764436				
305.775390625	0.2	626228	256	43	2	0	0	63	252	stimuli\Videos_short_600ms_horvertflip\75.(long)stroke_with_fingers_all_over_the_hand_short_horvertflip_short_600ms.mp4	75.(long)stroke_with_fingers_all_over_the_hand_short_horvertflip_short_600ms.mp4	323.461642518424	324.06996446163	0.608321943205965				
306.5751953125	0.2	627866	257	43	2	0	0	64	80	stimuli\Videos_short_600ms\82.repeated_touch_with_cotton_bud_short_short_600ms.mp4	82.repeated_touch_with_cotton_bud_short_short_600ms.mp4	324.2616268004881	324.86994639773366	0.6083195972455542				
307.375	0.2	629504	258	43	2	0	0	65	150	stimuli\Videos_short_600ms_horflip\64.repeated_touch_with_screwdriver_short_horflip_short_600ms.mp4	64.repeated_touch_with_screwdriver_short_horflip_short_600ms.mp4	325.0615852769861	325.6699300933078	0.6083448163217327				
308.17529296875	0.2	631143	259	43	2	0	1	66	375	stimuli\Targets_short_600ms_horvertflip\finger-tap_short_vertflip_short_600ms.mp4	finger-tap_short_vertflip_short_600ms.mp4	325.8615915524306	326.4699126159014	0.6083210634708394				
308.97509765625	0.2	632781	260	43	2	0	0	67	115	stimuli\Videos_short_600ms_horflip\32.single_(long)pinch_with_fingers_short_horflip_short_600ms.mp4	32.single_(long)pinch_with_fingers_short_horflip_short_600ms.mp4	326.6615814061513	327.26989807094606	0.6083166647947564				
309.77490234375	0.2	634419	261	43	2	0	0	68	5	stimuli\Videos_short_600ms\14.repeated_touch_with_pencil_short_short_600ms.mp4	14.repeated_touch_with_pencil_short_short_600ms.mp4	327.46155923682386	328.06987971380454	0.6083204769806798				
310.5751953125	0.2	636058	262	43	2	0	0	69	124	stimuli\Videos_short_600ms_horflip\40.repeated_push_with_finger_short_horflip_short_600ms.mp4	40.repeated_push_with_finger_short_horflip_short_600ms.mp4	328.2615399999472	328.86986370262366	0.6083237026764436				
311.375	0.2	637696	263	43	2	0	0	70	135	stimuli\Videos_short_600ms_horflip\50.single_(long)hard_push_with_thumb_short_horflip_short_600ms.mp4	50.single_(long)hard_push_with_thumb_short_horflip_short_600ms.mp4	329.06152164280593	329.6698509171388	0.6083292743328457				
312.1748046875	0.2	639334	264	43	2	0	1	71	364	stimuli\Targets_short_600ms\hand-pinch_short_short_600ms.mp4	hand-pinch_short_short_600ms.mp4	329.8615147222222	330.46983285324245	0.608318131020269				
312.97509765625	0.2	640973	265	43	2	0	0	72	111	stimuli\Videos_short_600ms_horflip\29.single_pinch_with_tweezers_short_horflip_short_600ms.mp4	29.single_pinch_with_tweezers_short_horflip_short_600ms.mp4	330.6615001772668	331.26981009742485	0.6083099201580353				
313.77490234375	0.2	642611	266	43	2	0	0	73	261	stimuli\Videos_short_600ms_horvertflip\83.single_stroke_top_to_bottom_with_cotton_bud_short_horvertflip_short_600ms.mp4	83.single_stroke_top_to_bottom_with_cotton_bud_short_horvertflip_short_600ms.mp4	331.46148651204635	332.0697782510101	0.6082917389637714				
314.57470703125	0.2	644249	267	43	2	0	0	74	319	stimuli\Videos_short_600ms_vertflip\54.repeated_touch_with_knife_short_vertflip_short_600ms.mp4	54.repeated_touch_with_knife_short_vertflip_short_600ms.mp4	332.26146170351353	332.86977778181813	0.6083160783045969				
315.375	0.2	645888	268	43	2	0	0	75	237	stimuli\Videos_short_600ms_horvertflip\61.single_hit_with_rolling_pin_short_horvertflip_short_600ms.mp4	61.single_hit_with_rolling_pin_short_horvertflip_short_600ms.mp4	333.06145507617475	333.66973977725706	0.6082847010823116				
316.1748046875	0.2	647526	269	43	2	0	0	76	240	stimuli\Videos_short_600ms_horvertflip\64.repeated_touch_with_screwdriver_short_horvertflip_short_600ms.mp4	64.repeated_touch_with_screwdriver_short_horvertflip_short_600ms.mp4	333.86142733519114	334.4697246458113	0.6082973106201734				
316.97509765625	0.2	649165	270	43	2	0	0	77	211	stimuli\Videos_short_600ms_horvertflip\38.double_slap_with_pencil_short_horvertflip_short_600ms.mp4	38.double_slap_with_pencil_short_horvertflip_short_600ms.mp4	334.6614119105004	335.269739718608	0.6083278081075605				
317.77490234375	0.2	650803	271	43	2	0	0	78	198	stimuli\Videos_short_600ms_horvertflip\26.single_touch_with_a_blunt_syringe_short_horvertflip_short_600ms.mp4	26.single_touch_with_a_blunt_syringe_short_horvertflip_short_600ms.mp4	335.46139472633945	336.0697181357707	0.6083234094312502				
318.57470703125	0.2	652441	272	43	2	0	0	79	141	stimuli\Videos_short_600ms_horflip\56.repeated_touch_with_nail_file_short_horflip_short_600ms.mp4	56.repeated_touch_with_nail_file_short_horflip_short_600ms.mp4	336.26137871515857	336.86970710975606	0.6083283945974927				
319.375	0.2	654080	273	43	2	0	0	80	142	stimuli\Videos_short_600ms_horflip\57.single_touch_with_nail_file_short_horflip_short_600ms.mp4	57.single_touch_with_nail_file_short_horflip_short_600ms.mp4	337.0613600647721	337.6696814214879	0.6083213567158055				
320.1748046875	0.2	655718	274	43	2	0	0	81	130	stimuli\Videos_short_600ms_horflip\46.scratching_top_to_bottom_with_finger_nails_short_horflip_short_600ms.mp4	46.scratching_top_to_bottom_with_finger_nails_short_horflip_short_600ms.mp4	337.86134639955185	338.46966775626765	0.6083213567158055				
320.974609375	0.2	657356	275	43	2	0	0	82	139	stimuli\Videos_short_600ms_horflip\54.repeated_touch_with_knife_short_horflip_short_600ms.mp4	54.repeated_touch_with_knife_short_horflip_short_600ms.mp4	338.66133068161594	339.2696514518418	0.6083207702258733				
321.77490234375	0.2	658995	276	43	2	0	0	83	333	stimuli\Videos_short_600ms_vertflip\67.single_touch_with_sponge_short_vertflip_short_600ms.mp4	67.single_touch_with_sponge_short_vertflip_short_600ms.mp4	339.46131349745474	340.06963074873966	0.608317251284916				
322.57470703125	0.2	660633	277	43	2	0	0	84	334	stimuli\Videos_short_600ms_vertflip\68.stroke_top_to_bottom_with_shawl_short_vertflip_short_600ms.mp4	68.stroke_top_to_bottom_with_shawl_short_vertflip_short_600ms.mp4	340.2612974862741	340.86961825649973	0.6083207702256459				
323.37451171875	0.2	662271	278	43	2	0	0	85	328	stimuli\Videos_short_600ms_vertflip\62.touch_top_to_bottom_with_scissors_short_vertflip_short_600ms.mp4	62.touch_top_to_bottom_with_scissors_short_vertflip_short_600ms.mp4	341.0612814750932	341.66958054518363	0.6082990700904247				
324.1748046875	0.2	663910	279	43	2	0	0	86	290	stimuli\Videos_short_600ms_vertflip\28.single_injection_with_sharp_needle_short_vertflip_short_600ms.mp4	28.single_injection_with_sharp_needle_short_vertflip_short_600ms.mp4	341.86124610973775	342.4695844746677	0.6083383649299776				
324.974609375	0.2	665548	280	43	2	0	0	87	288	stimuli\Videos_short_600ms_vertflip\26.single_touch_with_a_blunt_syringe_short_vertflip_short_600ms.mp4	26.single_touch_with_a_blunt_syringe_short_vertflip_short_600ms.mp4	342.6612503324666	343.26956817024166	0.6083178377750755				
325.7744140625	0.2	667186	281	43	2	0	0	88	297	stimuli\Videos_short_600ms_vertflip\34.repeated_punch_with_hand_short_vertflip_short_600ms.mp4	34.repeated_punch_with_hand_short_vertflip_short_600ms.mp4	343.46123138883513	344.06955421177645	0.608322822941318				
326.57470703125	0.2	668825	282	43	2	0	0	89	340	stimuli\Videos_short_600ms_vertflip\73.single_stroke_with_flat_hand_short_vertflip_short_600ms.mp4	73.single_stroke_with_flat_hand_short_vertflip_short_600ms.mp4	344.26120980599785	344.8695349748998	0.6083251689019562				
327.37451171875	0.2	670463	283	43	2	0	0	90	163	stimuli\Videos_short_600ms_horflip\76.tickle_with_fingers_from_top_to_bottom_short_horflip_short_600ms.mp4	76.tickle_with_fingers_from_top_to_bottom_short_horflip_short_600ms.mp4	345.06119672726777	345.6695169110035	0.6083201837357137				
328.17431640625	0.2	672101	284	43	2	0	0	91	304	stimuli\Videos_short_600ms_vertflip\40.repeated_push_with_finger_short_vertflip_short_600ms.mp4	40.repeated_push_with_finger_short_vertflip_short_600ms.mp4	345.8611862877433	346.4695035390282	0.608317251284916				
328.974609375	0.2	673740	285	43	2	0	0	92	79	stimuli\Videos_short_600ms\81.single_stroke_top_to_bottom_with_cotton_pad_short_short_600ms.mp4	81.single_stroke_top_to_bottom_with_cotton_pad_short_short_600ms.mp4	346.66116998331745	347.26948342241644	0.6083134390989926				
329.7744140625	0.2	675378	286	43	2	0	0	93	133	stimuli\Videos_short_600ms_horflip\49.repeated_slap_with_hand_short_horflip_short_600ms.mp4	49.repeated_slap_with_hand_short_horflip_short_600ms.mp4	347.46114781399	348.0694433651397	0.6082955511496948				
330.57421875	0.2	677016	287	43	2	0	0	94	225	stimuli\Videos_short_600ms_horvertflip\50.single_(long)hard_push_with_thumb_short_horvertflip_short_600ms.mp4	50.single_(long)hard_push_with_thumb_short_horvertflip_short_600ms.mp4	348.2611323892993	348.8694282336942	0.6082958443948883				
331.37451171875	0.2	678655	288	43	2	0	0	95	118	stimuli\Videos_short_600ms_horflip\35.single_punch_with_hand_short_horflip_short_600ms.mp4	35.single_punch_with_hand_short_horflip_short_600ms.mp4	349.06111608487345	349.6694104630428	0.6082943781693757	6.0	6.0	1.8227283697303849	1.0
366.7734375	0.2	751152	289	43	3	0	0	0	97	stimuli\Videos_short_600ms_horflip\16.repeated_touch_with_plastic_brush_short_horflip_short_600ms.mp4	16.repeated_touch_with_plastic_brush_short_horflip_short_600ms.mp4	384.4603853768067	385.0687058537874	0.6083204769806798				
367.5732421875	0.2	752790	290	43	3	0	0	1	167	stimuli\Videos_short_600ms_horflip\8.single_touch_with_hairbrush_short_horflip_short_600ms.mp4	8.single_touch_with_hairbrush_short_horflip_short_600ms.mp4	385.260369952116	385.86868808313625	0.608318131020269				
368.373046875	0.2	754428	291	43	3	0	0	2	326	stimuli\Videos_short_600ms_vertflip\60.single_push_with_tip_of_pencil_short_vertflip_short_600ms.mp4	60.single_push_with_tip_of_pencil_short_vertflip_short_600ms.mp4	386.06035364769014	386.6686714854652	0.6083178377750755				
369.17333984375	0.2	756067	292	43	3	0	0	3	126	stimuli\Videos_short_600ms_horflip\42.single_slap_with_plastic_whisk_short_horflip_short_600ms.mp4	42.single_slap_with_plastic_whisk_short_horflip_short_600ms.mp4	386.8603367567742	387.4686548877942	0.6083181310200416				
369.97314453125	0.2	757705	293	43	3	0	0	4	318	stimuli\Videos_short_600ms_vertflip\53.touch_top_to_bottom_with_knife_short_vertflip_short_600ms.mp4	53.touch_top_to_bottom_with_knife_short_vertflip_short_600ms.mp4	387.6603101887706	388.2686388766133	0.6083286878426861				
370.77294921875	0.2	759343	294	43	3	0	0	5	264	stimuli\Videos_short_600ms_horvertflip\86.touch_top_to_bottom_with_hair_brush_short_horvertflip_short_600ms.mp4	86.touch_top_to_bottom_with_hair_brush_short_horvertflip_short_600ms.mp4	388.4602818612968	389.06862139920713	0.6083395379102967				
371.5732421875	0.2	760982	295	43	3	0	0	6	6	stimuli\Videos_short_600ms\15.single_stroke_top_to_bottom_with_a_plastic_whisk_short_short_600ms.mp4	15.single_stroke_top_to_bottom_with_a_plastic_whisk_short_short_600ms.mp4	389.2602582257441	389.86860421504616	0.6083459893020517				
372.373046875	0.2	762620	296	43	3	0	0	7	104	stimuli\Videos_short_600ms_horflip\22.single_touch_with_metal_chopstick_short_horflip_short_600ms.mp4	22.single_touch_with_metal_chopstick_short_horflip_short_600ms.mp4	390.06024368078874	390.66858967009057	0.6083459893018244				
373.1728515625	0.2	764258	297	43	3	0	0	8	145	stimuli\Videos_short_600ms_horflip\6.single_touch_with_flat_hand_short_horflip_short_600ms.mp4	6.single_touch_with_flat_hand_short_horflip_short_600ms.mp4	390.8602481967628	391.4685745386448	0.6083263418820479				
373.97314453125	0.2	765897	298	43	3	0	0	9	235	stimuli\Videos_short_600ms_horvertflip\6.single_touch_with_flat_hand_short_horvertflip_short_600ms.mp4	6.single_touch_with_flat_hand_short_horvertflip_short_600ms.mp4	391.6602406896891	392.26855735448385	0.6083166647947564				
374.77294921875	0.2	767535	299	43	3	0	0	10	282	stimuli\Videos_short_600ms_vertflip\20.single_touch_with_screwdriver_short_vertflip_short_600ms.mp4	20.single_touch_with_screwdriver_short_vertflip_short_600ms.mp4	392.4602302501644	393.06853489191144	0.6083046417470541				
375.57275390625	0.2	769173	300	43	3	0	0	11	138	stimuli\Videos_short_600ms_horflip\53.touch_top_to_bottom_with_knife_short_horflip_short_600ms.mp4	53.touch_top_to_bottom_with_knife_short_horflip_short_600ms.mp4	393.26021218626806	393.8685262118572	0.6083140255891522				
376.373046875	0.2	770812	301	43	3	0	0	12	71	stimuli\Videos_short_600ms\74.fingers_walking_from_top_to_bottom_short_short_600ms.mp4	74.fingers_walking_from_top_to_bottom_short_short_600ms.mp4	394.06018591150973	394.6684805829243	0.6082946714145692				
377.1728515625	0.2	772450	302	43	3	0	0	13	96	stimuli\Videos_short_600ms_horflip\15.single_stroke_top_to_bottom_with_a_plastic_whisk_short_horflip_short_600ms.mp4	15.single_stroke_top_to_bottom_with_a_plastic_whisk_short_horflip_short_600ms.mp4	394.8601807503967	395.4684856853885	0.6083049349917928				
377.97314453125	0.2	774089	303	43	3	0	0	14	349	stimuli\Videos_short_600ms_vertflip\81.single_stroke_top_to_bottom_with_cotton_pad_short_vertflip_short_600ms.mp4	81.single_stroke_top_to_bottom_with_cotton_pad_short_vertflip_short_600ms.mp4	395.6601506634525	396.2684685012275	0.6083178377750755				
378.77294921875	0.2	775727	304	43	3	0	0	15	78	stimuli\Videos_short_600ms\80.stroke_with_sharp_stick_all_over_the_hand_short_short_600ms.mp4	80.stroke_with_sharp_stick_all_over_the_hand_short_short_600ms.mp4	396.4601361184969	397.0684636333592	0.608327514862367				
379.57275390625	0.2	777365	305	43	3	0	0	16	76	stimuli\Videos_short_600ms\79.long_with_soft_brush_all_over_the_hand_short_short_600ms.mp4	79.long_with_soft_brush_all_over_the_hand_short_short_600ms.mp4	397.2601174681104	397.8684385315812	0.6083210634708394				
380.373046875	0.2	779004	306	43	3	0	0	17	95	stimuli\Videos_short_600ms_horflip\14.repeated_touch_with_pencil_short_horflip_short_600ms.mp4	14.repeated_touch_with_pencil_short_horflip_short_600ms.mp4	398.06010350964493	398.66843337046794	0.6083298608230052				
381.1728515625	0.2	780642	307	43	3	0	0	18	197	stimuli\Videos_short_600ms_horvertflip\25.single_touch_with_stanley_knife_short_horvertflip_short_600ms.mp4	25.single_touch_with_stanley_knife_short_horvertflip_short_600ms.mp4	398.860086618729	399.4684047497492	0.608318131020269				
381.97265625	0.2	782280	308	43	3	0	0	19	271	stimuli\Videos_short_600ms_vertflip\10.single_touch_with_knife_short_vertflip_short_600ms.mp4	10.single_touch_with_knife_short_vertflip_short_600ms.mp4	399.6600697278129	400.2683890318133	0.6083193040003607				
382.77294921875	0.2	783919	309	43	3	0	0	20	295	stimuli\Videos_short_600ms_vertflip\32.single_(long)pinch_with_fingers_short_vertflip_short_600ms.mp4	32.single_(long)pinch_with_fingers_short_vertflip_short_600ms.mp4	400.4600528368969	401.06837243414225	0.6083195972453268				
383.57275390625	0.2	785557	310	43	3	0	0	21	231	stimuli\Videos_short_600ms_horvertflip\56.repeated_touch_with_nail_file_short_horvertflip_short_600ms.mp4	56.repeated_touch_with_nail_file_short_horvertflip_short_600ms.mp4	401.2600359459807	401.86835583647144	0.6083198904907476				
384.37255859375	0.2	787195	311	43	3	0	1	22	365	stimuli\Targets_short_600ms\hand-stroke_short_short_600ms.mp4	hand-stroke_short_short_600ms.mp4	402.0600193483099	402.66833953204537	0.6083201837354864				
385.1728515625	0.2	788834	312	43	3	0	0	23	293	stimuli\Videos_short_600ms_vertflip\30.finger_pulling_back_another_finger_short_vertflip_short_600ms.mp4	30.finger_pulling_back_another_finger_short_vertflip_short_600ms.mp4	402.8600053898445	403.46832410735465	0.6083187175102012				
385.97265625	0.2	790472	313	43	3	0	0	24	320	stimuli\Videos_short_600ms_vertflip\55.touch_top_to_bottom_with_nail_file_short_vertflip_short_600ms.mp4	55.touch_top_to_bottom_with_nail_file_short_vertflip_short_600ms.mp4	403.6599820475369	404.2683060434583	0.6083239959214097				
386.7724609375	0.2	792110	314	43	3	0	0	25	136	stimuli\Videos_short_600ms_horflip\51.repeated_touch_with_hammer_short_horflip_short_600ms.mp4	51.repeated_touch_with_hammer_short_horflip_short_600ms.mp4	404.4599443362208	405.06828768631703	0.6083433500962201				
387.57275390625	0.2	793749	315	43	3	0	1	26	382	stimuli\Targets_short_600ms_vertflip\hand-pinch_short_horvertflip_short_600ms.mp4	hand-pinch_short_horvertflip_short_600ms.mp4	405.2599500251752	405.8682719683811	0.608321943205965				
388.37255859375	0.2	795387	316	43	3	0	0	27	212	stimuli\Videos_short_600ms_horvertflip\39.single_stab_with_scissors_short_horvertflip_short_600ms.mp4	39.single_stab_with_scissors_short_horvertflip_short_600ms.mp4	406.0599322545238	406.66825625044544	0.6083239959216371				
389.17236328125	0.2	797025	317	43	3	0	0	28	4	stimuli\Videos_short_600ms\13.single_touch_with_pen_short_short_600ms.mp4	13.single_touch_with_pen_short_short_600ms.mp4	406.8599262136754	407.46824053250975	0.6083143188343456				
389.97265625	0.2	798664	318	43	3	0	0	29	246	stimuli\Videos_short_600ms_horvertflip\7.repeated_touch_with_hairbrush_short_horvertflip_short_600ms.mp4	7.repeated_touch_with_hairbrush_short_horvertflip_short_600ms.mp4	407.6599096160044	408.26822217536824	0.608312559363867				
390.7724609375	0.2	800302	319	43	3	0	1	30	378	stimuli\Targets_short_600ms_vertflip\brush-stroke_short_horvertflip_short_600ms.mp4	brush-stroke_short_horvertflip_short_600ms.mp4	408.4598938980687	409.0682073371677	0.6083134390989926				
391.572265625	0.2	801940	320	43	3	0	0	31	45	stimuli\Videos_short_600ms\50.single_(long)hard_push_with_thumb_short_short_600ms.mp4	50.single_(long)hard_push_with_thumb_short_short_600ms.mp4	409.2598685030455	409.8681942584376	0.6083257553921158				
392.37255859375	0.2	803579	321	43	3	0	0	32	232	stimuli\Videos_short_600ms_horvertflip\57.single_touch_with_nail_file_short_horvertflip_short_600ms.mp4	57.single_touch_with_nail_file_short_horvertflip_short_600ms.mp4	410.0598533716	410.66817150262	0.6083181310200416				
393.17236328125	0.2	805217	322	43	3	0	0	33	332	stimuli\Videos_short_600ms_vertflip\66.stroke_top_to_bottom_with_sponge_short_vertflip_short_600ms.mp4	66.stroke_top_to_bottom_with_sponge_short_vertflip_short_600ms.mp4	410.85978956147255	411.46815255898855	0.6083629975159965				
393.97216796875	0.2	806855	323	43	3	0	0	34	287	stimuli\Videos_short_600ms_vertflip\25.single_touch_with_stanley_knife_short_vertflip_short_600ms.mp4	25.single_touch_with_stanley_knife_short_vertflip_short_600ms.mp4	411.6598225222185	412.26814505191464	0.6083225296961245				
394.7724609375	0.2	808494	324	43	3	0	0	35	173	stimuli\Videos_short_600ms_horflip\85.touch_top_to_bottom_with_fabric_short_horflip_short_600ms.mp4	85.touch_top_to_bottom_with_fabric_short_horflip_short_600ms.mp4	412.459804165077	413.06812376232256	0.6083195972455542				
395.572265625	0.2	810132	325	43	3	0	0	36	251	stimuli\Videos_short_600ms_horvertflip\74.fingers_walking_from_top_to_bottom_short_horvertflip_short_600ms.mp4	74.fingers_walking_from_top_to_bottom_short_horvertflip_short_600ms.mp4	413.2597858079357	413.868117134984	0.6083313270482904				
396.3720703125	0.2	811770	326	43	3	0	0	37	85	stimuli\Videos_short_600ms\87.single_stroke_top_to_bottom_with_plastic_brush_short_short_600ms.mp4	87.single_stroke_top_to_bottom_with_plastic_brush_short_short_600ms.mp4	414.0597718494703	414.6680902737355	0.6083184242652351				
397.17236328125	0.2	813409	327	43	3	0	0	38	311	stimuli\Videos_short_600ms_vertflip\47.(long)scratching_with_finger_nails_short_vertflip_short_600ms.mp4	47.(long)scratching_with_finger_nails_short_vertflip_short_600ms.mp4	414.8597578910051	415.4680845261321	0.608326635127014				
397.97216796875	0.2	815047	328	43	3	0	1	39	370	stimuli\Targets_short_600ms_horflip\hand-pinch_short_horflip_short_600ms.mp4	hand-pinch_short_horflip_short_600ms.mp4	415.6597357216776	416.2680576648836	0.608321943205965				
398.7724609375	0.2	816686	329	43	3	0	0	40	23	stimuli\Videos_short_600ms\30.finger_pulling_back_another_finger_short_short_600ms.mp4	30.finger_pulling_back_another_finger_short_short_600ms.mp4	416.4597202969869	417.06802493873374	0.6083046417468267				
399.572265625	0.2	818324	330	43	3	0	0	41	192	stimuli\Videos_short_600ms_horvertflip\20.single_touch_with_screwdriver_short_horvertflip_short_600ms.mp4	20.single_touch_with_screwdriver_short_horvertflip_short_600ms.mp4	417.2597031128257	417.8680235898064	0.6083204769806798				
400.3720703125	0.2	819962	331	43	3	0	1	42	362	stimuli\Targets_short_600ms\chopstickwood-tap_short_short_600ms.mp4	chopstickwood-tap_short_short_600ms.mp4	418.0596920868111	418.6680069921356	0.6083149053245052				
401.17236328125	0.2	821601	332	43	3	0	0	43	48	stimuli\Videos_short_600ms\53.touch_top_to_bottom_with_knife_short_short_600ms.mp4	53.touch_top_to_bottom_with_knife_short_short_600ms.mp4	418.8596461646332	419.46799156744487	0.6083454028116648				
401.97216796875	0.2	823239	333	43	3	0	1	44	379	stimuli\Targets_short_600ms_vertflip\chopstick-silver-tap_short_horvertflip_short_600ms.mp4	chopstick-silver-tap_short_horvertflip_short_600ms.mp4	419.6596562522636	420.26797174407807	0.6083154918144373				
402.77197265625	0.2	824877	334	43	3	0	0	45	27	stimuli\Videos_short_600ms\34.repeated_punch_with_hand_short_short_600ms.mp4	34.repeated_punch_with_hand_short_short_600ms.mp4	420.4596106233305	421.0679580788578	0.6083474555273369				
403.572265625	0.2	826516	335	43	3	0	0	46	218	stimuli\Videos_short_600ms_horvertflip\44.pushing_top_to_bottom_with_finger_short_horvertflip_short_600ms.mp4	44.pushing_top_to_bottom_with_finger_short_horvertflip_short_600ms.mp4	421.2595960783751	421.86794060145166	0.6083445230765392				
404.3720703125	0.2	828154	336	43	3	0	0	47	152	stimuli\Videos_short_600ms_horflip\66.stroke_top_to_bottom_with_sponge_short_horflip_short_600ms.mp4	66.stroke_top_to_bottom_with_sponge_short_horflip_short_600ms.mp4	422.059600007859	422.6679240037806	0.6083239959216371				
405.171875	0.2	829792	337	43	3	0	0	48	137	stimuli\Videos_short_600ms_horflip\52.touch_top_to_bottom_with_hammer_short_horflip_short_600ms.mp4	52.touch_top_to_bottom_with_hammer_short_horflip_short_600ms.mp4	422.8595881021092	423.4679071128646	0.6083190107553946				
405.97216796875	0.2	831431	338	43	3	0	0	49	162	stimuli\Videos_short_600ms_horflip\75.(long)stroke_with_fingers_all_over_the_hand_short_horflip_short_600ms.mp4	75.(long)stroke_with_fingers_all_over_the_hand_short_horflip_short_600ms.mp4	423.6595703314578	424.26788846247814	0.608318131020269				
406.77197265625	0.2	833069	339	43	3	0	0	50	143	stimuli\Videos_short_600ms_horflip\58.single_slap_with_pencil_short_horflip_short_600ms.mp4	58.single_slap_with_pencil_short_horflip_short_600ms.mp4	424.459562531139	425.06787655672815	0.6083140255891522				
407.57177734375	0.2	834707	340	43	3	0	0	51	283	stimuli\Videos_short_600ms_vertflip\21.repeated_touch_with_metal_chopstick_short_vertflip_short_600ms.mp4	21.repeated_touch_with_metal_chopstick_short_vertflip_short_600ms.mp4	425.2595400685666	425.8678535076656	0.6083134390989926				
408.3720703125	0.2	836346	341	43	3	0	0	52	281	stimuli\Videos_short_600ms_vertflip\2.single_touch_with_finger_short_vertflip_short_600ms.mp4	2.single_touch_with_finger_short_vertflip_short_600ms.mp4	426.05952112493515	426.6678363235044	0.6083151985692439				
409.171875	0.2	837984	342	43	3	0	0	53	189	stimuli\Videos_short_600ms_horvertflip\18.single_stroke_from_top_to_bottom_with_rolling_pin_short_horvertflip_short_600ms.mp4	18.single_stroke_from_top_to_bottom_with_rolling_pin_short_horvertflip_short_600ms.mp4	426.8595021813034	427.46782412450966	0.6083219432061924				
409.9716796875	0.2	839622	343	43	3	0	0	54	243	stimuli\Videos_short_600ms_horvertflip\67.single_touch_with_sponge_short_horvertflip_short_600ms.mp4	67.single_touch_with_sponge_short_horvertflip_short_600ms.mp4	427.6594891025734	428.26781515121047	0.6083260486370818				
410.77197265625	0.2	841261	344	43	3	0	0	55	230	stimuli\Videos_short_600ms_horvertflip\55.touch_top_to_bottom_with_nail_file_short_horvertflip_short_600ms.mp4	55.touch_top_to_bottom_with_nail_file_short_horvertflip_short_600ms.mp4	428.4594434736405	429.0677976738043	0.6083542001638307				
411.57177734375	0.2	842899	345	43	3	0	0	56	69	stimuli\Videos_short_600ms\72.(short)stroke_with_finger_all_over_the_hand_short_short_600ms.mp4	72.(short)stroke_with_finger_all_over_the_hand_short_short_600ms.mp4	429.2594547342512	429.86777315851623	0.6083184242650077				
412.37158203125	0.2	844537	346	43	3	0	0	57	12	stimuli\Videos_short_600ms\20.single_touch_with_screwdriver_short_short_600ms.mp4	20.single_touch_with_screwdriver_short_short_600ms.mp4	430.05943755009	430.6677621325016	0.6083245824115693				
413.171875	0.2	846176	347	43	3	0	0	58	174	stimuli\Videos_short_600ms_horflip\86.touch_top_to_bottom_with_hair_brush_short_horflip_short_600ms.mp4	86.touch_top_to_bottom_with_hair_brush_short_horflip_short_600ms.mp4	430.85941860645835	431.4677396699292	0.6083210634708394				
413.9716796875	0.2	847814	348	43	3	0	0	59	203	stimuli\Videos_short_600ms_horvertflip\30.finger_pulling_back_another_finger_short_horvertflip_short_600ms.mp4	30.finger_pulling_back_another_finger_short_horvertflip_short_600ms.mp4	431.6594034750128	432.267722192523	0.6083187175102012				
414.771484375	0.2	849452	349	43	3	0	0	60	10	stimuli\Videos_short_600ms\19.single_touch_with_rolling_pin_short_short_600ms.mp4	19.single_touch_with_rolling_pin_short_short_600ms.mp4	432.45938746383194	433.06770647458734	0.6083190107553946				
415.57177734375	0.2	851091	350	43	3	0	0	61	120	stimuli\Videos_short_600ms_horflip\37.single_stab_with_nail_file_short_horflip_short_600ms.mp4	37.single_stab_with_nail_file_short_horflip_short_600ms.mp4	433.2593720391412	433.867688703936	0.6083166647947564				
416.37158203125	0.2	852729	351	43	3	0	0	62	239	stimuli\Videos_short_600ms_horvertflip\63.stroke_top_to_bottom_with_screwdriver_short_horvertflip_short_600ms.mp4	63.stroke_top_to_bottom_with_screwdriver_short_horvertflip_short_600ms.mp4	434.0593510427941	434.6676580305016	0.6083069877074649				
417.171875	0.2	854368	352	43	3	0	0	63	268	stimuli\Videos_short_600ms_horvertflip\9.single_touch_with_hammer_short_horvertflip_short_600ms.mp4	9.single_touch_with_hammer_short_horvertflip_short_600ms.mp4	434.8593819508246	435.4676575613096	0.6082756104849523				
417.9716796875	0.2	856006	353	43	3	0	0	64	223	stimuli\Videos_short_600ms_horvertflip\49.repeated_slap_with_hand_short_horvertflip_short_600ms.mp4	49.repeated_slap_with_hand_short_horvertflip_short_600ms.mp4	435.6593172609621	436.2676400839034	0.608322822941318				
418.771484375	0.2	857644	354	43	3	0	0	65	229	stimuli\Videos_short_600ms_horvertflip\54.repeated_touch_with_knife_short_horvertflip_short_600ms.mp4	54.repeated_touch_with_knife_short_horvertflip_short_600ms.mp4	436.45930066329106	437.06762495245766	0.6083242891666032				
419.57177734375	0.2	859283	355	43	3	0	0	66	47	stimuli\Videos_short_600ms\52.touch_top_to_bottom_with_hammer_short_short_600ms.mp4	52.touch_top_to_bottom_with_hammer_short_short_600ms.mp4	437.25928230614977	437.86760512909086	0.6083228229410906				
420.37158203125	0.2	860921	356	43	3	0	0	67	91	stimuli\Videos_short_600ms_horflip\10.single_touch_with_knife_short_horflip_short_600ms.mp4	10.single_touch_with_knife_short_horflip_short_600ms.mp4	438.0592762653011	438.66758970440014	0.6083134390989926				
421.17138671875	0.2	862559	357	43	3	0	1	68	363	stimuli\Targets_short_600ms\finger-tap_short_short_600ms.mp4	finger-tap_short_short_600ms.mp4	438.8592617203458	439.4675707607687	0.6083090404229097				
421.9716796875	0.2	864198	358	43	3	0	0	69	170	stimuli\Videos_short_600ms_horflip\82.repeated_touch_with_cotton_bud_short_horflip_short_600ms.mp4	82.repeated_touch_with_cotton_bud_short_horflip_short_600ms.mp4	439.6592454159197	440.2675380346189	0.6082926186991244				
422.771484375	0.2	865836	359	43	3	0	0	70	267	stimuli\Videos_short_600ms_horvertflip\89.single_touch_with_plastic_brush_short_horvertflip_short_600ms.mp4	89.single_touch_with_plastic_brush_short_horvertflip_short_600ms.mp4	440.45921972765154	441.06751410582115	0.6082943781696031				
423.5712890625	0.2	867474	360	43	3	0	0	71	299	stimuli\Videos_short_600ms_vertflip\36.single_slap_with_full_hand_short_vertflip_short_600ms.mp4	36.single_slap_with_full_hand_short_vertflip_short_600ms.mp4	441.2592025434906	441.8675186217952	0.6083160783045969				
424.37158203125	0.2	869113	361	43	3	0	0	72	35	stimuli\Videos_short_600ms\41.injection_with_blunt_syringe_short_short_600ms.mp4	41.injection_with_blunt_syringe_short_short_600ms.mp4	442.0591853593294	442.6675040768396	0.6083187175102012				
425.17138671875	0.2	870751	362	43	3	0	0	73	253	stimuli\Videos_short_600ms_horvertflip\76.tickle_with_fingers_from_top_to_bottom_short_horvertflip_short_600ms.mp4	76.tickle_with_fingers_from_top_to_bottom_short_horvertflip_short_600ms.mp4	442.85916729543305	443.4674918778446	0.6083245824115693				
425.97119140625	0.2	872389	363	43	3	0	0	74	181	stimuli\Videos_short_600ms_horvertflip\10.single_touch_with_knife_short_horvertflip_short_600ms.mp4	10.single_touch_with_knife_short_horvertflip_short_600ms.mp4	443.65915275047746	444.26747615990894	0.6083234094314776				
426.771484375	0.2	874028	364	43	3	0	0	75	122	stimuli\Videos_short_600ms_horflip\39.single_stab_with_scissors_short_horflip_short_600ms.mp4	39.single_stab_with_scissors_short_horflip_short_600ms.mp4	444.4591379122769	445.0674651338943	0.6083272216174009				
427.5712890625	0.2	875666	365	43	3	0	0	76	286	stimuli\Videos_short_600ms_vertflip\24.single_stroke_top_to_bottom_with_a_spoon_short_vertflip_short_600ms.mp4	24.single_stroke_top_to_bottom_with_a_spoon_short_vertflip_short_600ms.mp4	445.2591201416258	445.86744208483174	0.608321943205965				
428.37109375	0.2	877304	366	43	3	0	0	77	184	stimuli\Videos_short_600ms_horvertflip\13.single_touch_with_pen_short_horvertflip_short_600ms.mp4	13.single_touch_with_pen_short_horvertflip_short_600ms.mp4	446.059075392428	446.66742226146494	0.60834686903695				
429.17138671875	0.2	878943	367	43	3	0	0	78	43	stimuli\Videos_short_600ms\49.repeated_slap_with_hand_short_short_600ms.mp4	49.repeated_slap_with_hand_short_short_600ms.mp4	446.85908606654857	447.4674047840588	0.6083187175102012				
429.97119140625	0.2	880581	368	43	3	0	0	79	146	stimuli\Videos_short_600ms_horflip\60.single_push_with_tip_of_pencil_short_horflip_short_600ms.mp4	60.single_push_with_tip_of_pencil_short_horflip_short_600ms.mp4	447.6590700553677	448.2673896526133	0.6083195972455542				
430.77099609375	0.2	882219	369	43	3	0	1	80	374	stimuli\Targets_short_600ms_horvertflip\chopstickwood-tap_short_vertflip_short_600ms.mp4	chopstickwood-tap_short_vertflip_short_600ms.mp4	448.45905375094185	449.067372761697	0.6083190107551673				
431.5712890625	0.2	883858	370	43	3	0	0	81	234	stimuli\Videos_short_600ms_horvertflip\59.single_push_with_long_side_pencil_short_horvertflip_short_600ms.mp4	59.single_push_with_long_side_pencil_short_horvertflip_short_600ms.mp4	449.25903510055537	449.8673582167417	0.6083231161862841				
432.37109375	0.2	885496	371	43	3	0	0	82	178	stimuli\Videos_short_600ms_horflip\9.single_touch_with_hammer_short_horflip_short_600ms.mp4	9.single_touch_with_hammer_short_horflip_short_600ms.mp4	450.0590143974532	450.6673383933749	0.6083239959216371				
433.1708984375	0.2	887134	372	43	3	0	0	83	187	stimuli\Videos_short_600ms_horvertflip\16.repeated_touch_with_plastic_brush_short_horvertflip_short_600ms.mp4	16.repeated_touch_with_plastic_brush_short_horvertflip_short_600ms.mp4	450.85899809302737	451.4673226754392	0.6083245824117967				
433.97119140625	0.2	888773	373	43	3	0	0	84	40	stimuli\Videos_short_600ms\46.scratching_top_to_bottom_with_finger_nails_short_short_600ms.mp4	46.scratching_top_to_bottom_with_finger_nails_short_short_600ms.mp4	451.65898384131697	452.2673051980328	0.6083213567158055				
434.77099609375	0.2	890411	374	43	3	0	1	85	366	stimuli\Targets_short_600ms_horflip\brush-stroke_short_horflip_short_600ms.mp4	brush-stroke_short_horflip_short_600ms.mp4	452.45894231781494	453.06728977334205	0.6083474555271096				
435.5712890625	0.2	892050	375	43	3	0	0	86	338	stimuli\Videos_short_600ms_vertflip\71.single_stroke_with_finger_top_to_bottom_short_vertflip_short_600ms.mp4	71.single_stroke_with_finger_top_to_bottom_short_vertflip_short_600ms.mp4	453.25895651087626	453.8672752283867	0.6083187175104285				
