onset	duration	onsetsample	eventnumber	subjectnr	sequencenumber	blocksequencenumber	istarget	presentationnumber	stimnumber	stim	stimname	time_stimon	time_stimoff	stimdur	cresp	resp	rt	correct
25.9580078125	0.2	53162	0	12	0	0	0	0	121	stimuli\Videos_short_600ms_horflip\38.double_slap_with_pencil_short_horflip_short_600ms.mp4	38.double_slap_with_pencil_short_horflip_short_600ms.mp4	44.977063897345715	45.58519010734494	0.6081262099992273				
26.7578125	0.2	54800	1	12	0	0	0	1	191	stimuli\Videos_short_600ms_horvertflip\2.single_touch_with_finger_short_horvertflip_short_600ms.mp4	2.single_touch_with_finger_short_horvertflip_short_600ms.mp4	45.77683522544339	46.38517257133617	0.6083373458927781				
27.5576171875	0.2	56438	2	12	0	0	0	2	279	stimuli\Videos_short_600ms_vertflip\18.single_stroke_from_top_to_bottom_with_rolling_pin_short_vertflip_short_600ms.mp4	18.single_stroke_from_top_to_bottom_with_rolling_pin_short_vertflip_short_600ms.mp4	46.57681299752562	47.18515327586147	0.6083402783358451				
28.35791015625	0.2	58077	3	12	0	0	0	3	124	stimuli\Videos_short_600ms_horflip\40.repeated_push_with_finger_short_horflip_short_600ms.mp4	40.repeated_push_with_finger_short_horflip_short_600ms.mp4	47.3767922358295	47.98513339389797	0.6083411580684697				
29.15771484375	0.2	59715	4	12	0	0	0	4	255	stimuli\Videos_short_600ms_horvertflip\78.single_stroke_top_to_bottom_with_soft_brush_short_horvertflip_short_600ms.mp4	78.single_stroke_top_to_bottom_with_soft_brush_short_horvertflip_short_600ms.mp4	48.176789068791095	48.78511820384347	0.6083291350523723				
29.95751953125	0.2	61353	5	12	0	0	0	5	268	stimuli\Videos_short_600ms_horvertflip\9.single_touch_with_hammer_short_horvertflip_short_600ms.mp4	9.single_touch_with_hammer_short_horvertflip_short_600ms.mp4	48.976765374651904	49.585070756916366	0.6083053822644615				
30.7578125	0.2	62992	6	12	0	0	0	6	188	stimuli\Videos_short_600ms_horvertflip\17.repeated_touch_with_rolling_pin_short_horvertflip_short_600ms.mp4	17.repeated_touch_with_rolling_pin_short_horvertflip_short_600ms.mp4	49.77676895223226	50.38505498037307	0.6082860281408102				
31.5576171875	0.2	64630	7	12	0	0	0	7	224	stimuli\Videos_short_600ms_horvertflip\5.repeated_tap_with_finger_moving_from_top_to_bottom_short_horvertflip_short_600ms.mp4	5.repeated_tap_with_finger_moving_from_top_to_bottom_short_horvertflip_short_600ms.mp4	50.576748777024704	51.18503832409715	0.6082895470724452				
32.357421875	0.2	66268	8	12	0	0	1	8	362	stimuli\Targets_short_600ms\chopstickwood-tap_short_short_600ms.mp4	chopstickwood-tap_short_short_600ms.mp4	51.376723030175526	51.9850401422118	0.6083171120362749				
33.15771484375	0.2	67907	9	12	0	0	0	9	75	stimuli\Videos_short_600ms\78.single_stroke_top_to_bottom_with_soft_brush_short_short_600ms.mp4	78.single_stroke_top_to_bottom_with_soft_brush_short_short_600ms.mp4	52.17670344145631	52.78499152230734	0.6082880808510254				
33.95751953125	0.2	69545	10	12	0	0	0	10	324	stimuli\Videos_short_600ms_vertflip\59.single_push_with_long_side_pencil_short_vertflip_short_600ms.mp4	59.single_push_with_long_side_pencil_short_vertflip_short_600ms.mp4	52.976681800027336	53.58498512958181	0.6083033295544737				
34.75732421875	0.2	71183	11	12	0	0	0	11	244	stimuli\Videos_short_600ms_horvertflip\68.stroke_top_to_bottom_with_shawl_short_horvertflip_short_600ms.mp4	68.stroke_top_to_bottom_with_shawl_short_horvertflip_short_600ms.mp4	53.77666602348427	54.38498958689502	0.6083235634107496				
35.5576171875	0.2	72822	12	12	0	0	0	12	242	stimuli\Videos_short_600ms_horvertflip\66.stroke_top_to_bottom_with_sponge_short_horvertflip_short_600ms.mp4	66.stroke_top_to_bottom_with_sponge_short_horvertflip_short_600ms.mp4	54.57664467529935	55.18496941168746	0.6083247363881128				
36.357421875	0.2	74460	13	12	0	0	0	13	292	stimuli\Videos_short_600ms_vertflip\3.single_push_with_finger_short_vertflip_short_600ms.mp4	3.single_push_with_finger_short_vertflip_short_600ms.mp4	55.37662831226771	55.984941318883784	0.608313006616072				
37.1572265625	0.2	76098	14	12	0	0	0	14	266	stimuli\Videos_short_600ms_horvertflip\88.repeated_stroke_with_plastic_brush_short_horvertflip_short_600ms.mp4	88.repeated_stroke_with_plastic_brush_short_horvertflip_short_600ms.mp4	56.17660667083851	56.78493433966946	0.6083276688309525				
37.95751953125	0.2	77737	15	12	0	0	0	15	334	stimuli\Videos_short_600ms_vertflip\68.stroke_top_to_bottom_with_shawl_short_vertflip_short_600ms.mp4	68.stroke_top_to_bottom_with_shawl_short_vertflip_short_600ms.mp4	56.97658708211952	57.58490624686601	0.6083191647464901				
38.75732421875	0.2	79375	16	12	0	0	0	16	120	stimuli\Videos_short_600ms_horflip\37.single_stab_with_nail_file_short_horflip_short_600ms.mp4	37.single_stab_with_nail_file_short_horflip_short_600ms.mp4	57.77656778664482	58.38488460543681	0.608316818791991				
39.5576171875	0.2	81014	17	12	0	0	0	17	322	stimuli\Videos_short_600ms_vertflip\57.single_touch_with_nail_file_short_vertflip_short_600ms.mp4	57.single_touch_with_nail_file_short_vertflip_short_600ms.mp4	58.576549957391535	59.18486794916089	0.6083179917693542				
40.357421875	0.2	82652	18	12	0	0	0	18	98	stimuli\Videos_short_600ms_horflip\17.repeated_touch_with_rolling_pin_short_horflip_short_600ms.mp4	17.repeated_touch_with_rolling_pin_short_horflip_short_600ms.mp4	59.37653652680274	59.98484484151027	0.6083083147075286				
41.1572265625	0.2	84290	19	12	0	0	0	19	294	stimuli\Videos_short_600ms_vertflip\31.hand_grabbing_wrist_short_vertflip_short_600ms.mp4	31.hand_grabbing_wrist_short_vertflip_short_600ms.mp4	60.17650667453336	60.78483053118862	0.6083238566552609				
41.95751953125	0.2	85929	20	12	0	0	0	20	114	stimuli\Videos_short_600ms_horflip\31.hand_grabbing_wrist_short_horflip_short_600ms.mp4	31.hand_grabbing_wrist_short_horflip_short_600ms.mp4	60.97644867081158	61.5848156343784	0.608366963566823				
42.75732421875	0.2	87567	21	12	0	0	0	21	277	stimuli\Videos_short_600ms_vertflip\16.repeated_touch_with_plastic_brush_short_vertflip_short_600ms.mp4	16.repeated_touch_with_plastic_brush_short_vertflip_short_600ms.mp4	61.77648949041759	62.38479194023921	0.6083024498216218				
43.55712890625	0.2	89205	22	12	0	0	0	22	10	stimuli\Videos_short_600ms\19.single_touch_with_rolling_pin_short_short_600ms.mp4	19.single_touch_with_rolling_pin_short_short_600ms.mp4	62.57643383265008	63.184773231253075	0.6083393986029932				
44.357421875	0.2	90844	23	12	0	0	0	23	85	stimuli\Videos_short_600ms\87.single_stroke_top_to_bottom_with_plastic_brush_short_short_600ms.mp4	87.single_stroke_top_to_bottom_with_plastic_brush_short_short_600ms.mp4	63.37642480072577	63.98475510875551	0.6083303080297355				
45.1572265625	0.2	92482	24	12	0	0	1	24	367	stimuli\Targets_short_600ms_horflip\chopstick-silver-tap_short_horflip_short_600ms.mp4	chopstick-silver-tap_short_horflip_short_600ms.mp4	64.17641224987005	64.78472525648613	0.608313006616072				
45.95703125	0.2	94120	25	12	0	0	0	25	147	stimuli\Videos_short_600ms_horflip\61.single_hit_with_rolling_pin_short_horflip_short_600ms.mp4	61.single_hit_with_rolling_pin_short_horflip_short_600ms.mp4	64.97640615038858	65.58470478803429	0.6082986376457029				
46.75732421875	0.2	95759	26	12	0	0	0	26	5	stimuli\Videos_short_600ms\14.repeated_touch_with_pencil_short_short_600ms.mp4	14.repeated_touch_with_pencil_short_short_600ms.mp4	65.77638744140245	66.3846529424427	0.6082655010402505				
47.55712890625	0.2	97397	27	12	0	0	0	27	202	stimuli\Videos_short_600ms_horvertflip\3.single_push_with_finger_short_horvertflip_short_600ms.mp4	3.single_push_with_finger_short_horvertflip_short_600ms.mp4	66.57636140130899	67.18465622677877	0.608294825469784				
48.35693359375	0.2	99035	28	12	0	0	0	28	186	stimuli\Videos_short_600ms_horvertflip\15.single_stroke_top_to_bottom_with_a_plastic_whisk_short_horvertflip_short_600ms.mp4	15.single_stroke_top_to_bottom_with_a_plastic_whisk_short_horvertflip_short_600ms.mp4	67.37634151934571	67.98465775164914	0.608316232303423				
49.1572265625	0.2	100674	29	12	0	0	0	29	232	stimuli\Videos_short_600ms_horvertflip\57.single_touch_with_nail_file_short_horvertflip_short_600ms.mp4	57.single_touch_with_nail_file_short_horvertflip_short_600ms.mp4	68.17633190093261	68.78462174124934	0.6082898403167292				
49.95703125	0.2	102312	30	12	0	0	0	30	101	stimuli\Videos_short_600ms_horflip\2.single_touch_with_finger_short_horflip_short_600ms.mp4	2.single_touch_with_finger_short_horflip_short_600ms.mp4	68.97628533373836	69.58460420524057	0.6083188715022061				
50.7568359375	0.2	103950	31	12	0	0	0	31	38	stimuli\Videos_short_600ms\44.pushing_top_to_bottom_with_finger_short_short_600ms.mp4	44.pushing_top_to_bottom_with_finger_short_short_600ms.mp4	69.77623788681126	70.38461188824112	0.6083740014298655				
51.55712890625	0.2	105589	32	12	0	0	0	32	263	stimuli\Videos_short_600ms_horvertflip\85.touch_top_to_bottom_with_fabric_short_horvertflip_short_600ms.mp4	85.touch_top_to_bottom_with_fabric_short_horvertflip_short_600ms.mp4	70.57626463069096	71.18458526165887	0.6083206309679099				
52.35693359375	0.2	107227	33	12	0	0	0	33	1	stimuli\Videos_short_600ms\10.single_touch_with_knife_short_short_600ms.mp4	10.single_touch_with_knife_short_short_600ms.mp4	71.37624826765932	71.98456743240581	0.6083191647464901				
53.15673828125	0.2	108865	34	12	0	0	0	34	346	stimuli\Videos_short_600ms_vertflip\79.long_with_soft_brush_all_over_the_hand_short_vertflip_short_600ms.mp4	79.long_with_soft_brush_all_over_the_hand_short_vertflip_short_600ms.mp4	72.17622721271891	72.78454344502234	0.608316232303423				
53.95703125	0.2	110504	35	12	0	0	1	35	378	stimuli\Targets_short_600ms_vertflip\brush-stroke_short_horvertflip_short_600ms.mp4	brush-stroke_short_horvertflip_short_600ms.mp4	72.97620703751113	73.5845288414564	0.6083218039452731				
54.7568359375	0.2	112142	36	12	0	0	0	36	49	stimuli\Videos_short_600ms\54.repeated_touch_with_knife_short_short_600ms.mp4	54.repeated_touch_with_knife_short_short_600ms.mp4	73.77619184745663	74.38450807976005	0.608316232303423				
55.556640625	0.2	113780	37	12	0	0	0	37	68	stimuli\Videos_short_600ms\71.single_stroke_with_finger_top_to_bottom_short_short_600ms.mp4	71.single_stroke_with_finger_top_to_bottom_short_short_600ms.mp4	74.57620187641169	75.18448849104107	0.6082866146293782				
56.35693359375	0.2	115419	38	12	0	0	0	38	283	stimuli\Videos_short_600ms_vertflip\21.repeated_touch_with_metal_chopstick_short_vertflip_short_600ms.mp4	21.repeated_touch_with_metal_chopstick_short_vertflip_short_600ms.mp4	75.3761418199797	75.98443107380785	0.6082892538281612				
57.15673828125	0.2	117057	39	12	0	0	0	39	257	stimuli\Videos_short_600ms_horvertflip\8.single_touch_with_hairbrush_short_horvertflip_short_600ms.mp4	8.single_touch_with_hairbrush_short_horvertflip_short_600ms.mp4	76.1760899743881	76.78445283253473	0.6083628581466201				
57.95703125	0.2	118696	40	12	0	0	0	40	32	stimuli\Videos_short_600ms\39.single_stab_with_scissors_short_short_600ms.mp4	39.single_stab_with_scissors_short_short_600ms.mp4	76.9760706789134	77.58443265732694	0.6083619784135408				
58.7568359375	0.2	120334	41	12	0	0	0	41	305	stimuli\Videos_short_600ms_vertflip\41.injection_with_blunt_syringe_short_vertflip_short_600ms.mp4	41.injection_with_blunt_syringe_short_vertflip_short_600ms.mp4	77.77607279027234	78.38441424158532	0.608341451312981				
59.556640625	0.2	121972	42	12	0	0	0	42	58	stimuli\Videos_short_600ms\62.touch_top_to_bottom_with_scissors_short_short_600ms.mp4	62.touch_top_to_bottom_with_scissors_short_short_600ms.mp4	78.57606229212638	79.18439611908775	0.6083338269613705				
60.35693359375	0.2	123611	43	12	0	0	0	43	17	stimuli\Videos_short_600ms\25.single_touch_with_stanley_knife_short_short_600ms.mp4	25.single_touch_with_stanley_knife_short_short_600ms.mp4	79.37604270340739	79.98436626681837	0.6083235634109769				
61.15673828125	0.2	125249	44	12	0	0	0	44	99	stimuli\Videos_short_600ms_horflip\18.single_stroke_from_top_to_bottom_with_rolling_pin_short_horflip_short_600ms.mp4	18.single_stroke_from_top_to_bottom_with_rolling_pin_short_horflip_short_600ms.mp4	80.17604422827776	80.78434286592346	0.6082986376457029				
61.95654296875	0.2	126887	45	12	0	0	0	45	91	stimuli\Videos_short_600ms_horflip\10.single_touch_with_knife_short_horflip_short_600ms.mp4	10.single_touch_with_knife_short_horflip_short_600ms.mp4	80.9760217071157	81.58431653258549	0.608294825469784				
62.7568359375	0.2	128526	46	12	0	0	0	46	256	stimuli\Videos_short_600ms_horvertflip\79.long_with_soft_brush_all_over_the_hand_short_horvertflip_short_600ms.mp4	79.long_with_soft_brush_all_over_the_hand_short_horvertflip_short_600ms.mp4	81.77601179545854	82.38429606413365	0.6082842686751064				
63.556640625	0.2	130164	47	12	0	0	0	47	178	stimuli\Videos_short_600ms_horflip\9.single_touch_with_hammer_short_horflip_short_600ms.mp4	9.single_touch_with_hammer_short_horflip_short_600ms.mp4	82.57599719189261	83.18428204705629	0.6082848551636744				
64.3564453125	0.2	131802	48	12	0	0	0	48	13	stimuli\Videos_short_600ms\21.repeated_touch_with_metal_chopstick_short_short_600ms.mp4	21.repeated_touch_with_metal_chopstick_short_short_600ms.mp4	83.37596323420303	83.98427037593342	0.6083071417303927				
65.15673828125	0.2	133441	49	12	0	0	0	49	167	stimuli\Videos_short_600ms_horflip\8.single_touch_with_hairbrush_short_horflip_short_600ms.mp4	8.single_touch_with_hairbrush_short_horflip_short_600ms.mp4	84.17594452521689	84.78424462908401	0.6083001038671227				
65.95654296875	0.2	135079	50	12	0	0	0	50	198	stimuli\Videos_short_600ms_horvertflip\26.single_touch_with_a_blunt_syringe_short_horvertflip_short_600ms.mp4	26.single_touch_with_a_blunt_syringe_short_horvertflip_short_600ms.mp4	84.97592669596384	85.58425143235172	0.6083247363878854				
66.75634765625	0.2	136717	51	12	0	0	0	51	344	stimuli\Videos_short_600ms_vertflip\77.tapping_with_all_fingers_short_vertflip_short_600ms.mp4	77.tapping_with_all_fingers_short_vertflip_short_600ms.mp4	85.7759074004889	86.3842365355415	0.6083291350525997				
67.556640625	0.2	138356	52	12	0	0	0	52	173	stimuli\Videos_short_600ms_horflip\85.touch_top_to_bottom_with_fabric_short_horflip_short_600ms.mp4	85.touch_top_to_bottom_with_fabric_short_horflip_short_600ms.mp4	86.57588927799156	87.18421020220376	0.6083209242121939				
68.3564453125	0.2	139994	53	12	0	0	0	53	127	stimuli\Videos_short_600ms_horflip\43.touch_top_to_bottom_with_sharp_wooden_stick_short_horflip_short_600ms.mp4	43.touch_top_to_bottom_with_sharp_wooden_stick_short_horflip_short_600ms.mp4	87.375871155494	87.98418826753027	0.6083171120362749				
69.15625	0.2	141632	54	12	0	0	0	54	93	stimuli\Videos_short_600ms_horflip\12.repeated_touch_with_nail_file_short_horflip_short_600ms.mp4	12.repeated_touch_with_nail_file_short_horflip_short_600ms.mp4	88.17585127353072	88.78416897205557	0.6083176985248429				
69.95654296875	0.2	143271	55	12	0	0	0	55	238	stimuli\Videos_short_600ms_horvertflip\62.touch_top_to_bottom_with_scissors_short_horvertflip_short_600ms.mp4	62.touch_top_to_bottom_with_scissors_short_horvertflip_short_600ms.mp4	88.97583491049886	89.58415172929085	0.608316818791991				
70.75634765625	0.2	144909	56	12	0	0	0	56	79	stimuli\Videos_short_600ms\81.single_stroke_top_to_bottom_with_cotton_pad_short_short_600ms.mp4	81.single_stroke_top_to_bottom_with_cotton_pad_short_short_600ms.mp4	89.77582001368864	90.38413302030472	0.608313006616072				
71.55615234375	0.2	146547	57	12	0	0	0	57	343	stimuli\Videos_short_600ms_vertflip\76.tickle_with_fingers_from_top_to_bottom_short_vertflip_short_600ms.mp4	76.tickle_with_fingers_from_top_to_bottom_short_vertflip_short_600ms.mp4	90.57580247767964	91.18411460456308	0.6083121268834475				
72.3564453125	0.2	148186	58	12	0	0	0	58	314	stimuli\Videos_short_600ms_vertflip\5.repeated_tap_with_finger_moving_from_top_to_bottom_short_vertflip_short_600ms.mp4	5.repeated_tap_with_finger_moving_from_top_to_bottom_short_vertflip_short_600ms.mp4	91.37573245094175	91.98409618882124	0.608363737879472				
73.15625	0.2	149824	59	12	0	0	0	59	192	stimuli\Videos_short_600ms_horvertflip\20.single_touch_with_screwdriver_short_horvertflip_short_600ms.mp4	20.single_touch_with_screwdriver_short_horvertflip_short_600ms.mp4	92.17571462168848	92.78408070552224	0.6083660838337437				
73.9560546875	0.2	151462	60	12	0	0	0	60	73	stimuli\Videos_short_600ms\76.tickle_with_fingers_from_top_to_bottom_short_short_600ms.mp4	76.tickle_with_fingers_from_top_to_bottom_short_short_600ms.mp4	92.97572083846762	93.5840617032918	0.6083408648241857				
74.75634765625	0.2	153101	61	12	0	0	0	61	44	stimuli\Videos_short_600ms\5.repeated_tap_with_finger_moving_from_top_to_bottom_short_short_600ms.mp4	5.repeated_tap_with_finger_moving_from_top_to_bottom_short_short_600ms.mp4	93.77572148360493	94.38404123483996	0.608319751235058				
75.55615234375	0.2	154739	62	12	0	0	0	62	247	stimuli\Videos_short_600ms_horvertflip\70.(long)stroke_with_finger_all_over_the_hand_short_horvertflip_short_600ms.mp4	70.(long)stroke_with_finger_all_over_the_hand_short_horvertflip_short_600ms.mp4	94.5756863529382	95.18400229199732	0.608315939059139				
76.3564453125	0.2	156378	63	12	0	0	0	63	35	stimuli\Videos_short_600ms\41.injection_with_blunt_syringe_short_short_600ms.mp4	41.injection_with_blunt_syringe_short_short_600ms.mp4	95.37568641158714	95.98402170476992	0.6083352931827903				
77.15625	0.2	158016	64	12	0	0	0	64	227	stimuli\Videos_short_600ms_horvertflip\52.touch_top_to_bottom_with_hammer_short_horvertflip_short_600ms.mp4	52.touch_top_to_bottom_with_hammer_short_horvertflip_short_600ms.mp4	96.1756738607312	96.78396487402529	0.6082910132940924				
77.9560546875	0.2	159654	65	12	0	0	1	65	376	stimuli\Targets_short_600ms_horvertflip\hand-pinch_short_vertflip_short_600ms.mp4	hand-pinch_short_vertflip_short_600ms.mp4	96.97564870037058	97.583964932674	0.608316232303423				
78.75634765625	0.2	161293	66	12	0	0	0	66	150	stimuli\Videos_short_600ms_horflip\64.repeated_touch_with_screwdriver_short_horflip_short_600ms.mp4	64.repeated_touch_with_screwdriver_short_horflip_short_600ms.mp4	97.7757443566602	98.38392217765568	0.6081778209954791				
79.55615234375	0.2	162931	67	12	0	0	0	67	289	stimuli\Videos_short_600ms_vertflip\27.single_push_with_a_plastic_whisk_short_vertflip_short_600ms.mp4	27.single_push_with_a_plastic_whisk_short_vertflip_short_600ms.mp4	98.57560717697812	99.18392751470174	0.6083203377236259				
80.35595703125	0.2	164569	68	12	0	0	0	68	166	stimuli\Videos_short_600ms_horflip\79.long_with_soft_brush_all_over_the_hand_short_horflip_short_600ms.mp4	79.long_with_soft_brush_all_over_the_hand_short_horflip_short_600ms.mp4	99.37558993421362	99.98389150430216	0.6083015700885426				
81.15625	0.2	166208	69	12	0	0	0	69	55	stimuli\Videos_short_600ms\6.single_touch_with_flat_hand_short_short_600ms.mp4	6.single_touch_with_flat_hand_short_short_600ms.mp4	100.1755729846932	100.78389420214968	0.6083212174564778				
81.9560546875	0.2	167846	70	12	0	0	0	70	117	stimuli\Videos_short_600ms_horflip\34.repeated_punch_with_hand_short_horflip_short_600ms.mp4	34.repeated_punch_with_hand_short_horflip_short_600ms.mp4	100.97555105001992	101.5838784256066	0.6083273755866685				
82.755859375	0.2	169484	71	12	0	0	0	71	151	stimuli\Videos_short_600ms_horflip\65.stroke_top_to_bottom_with_stanley_knife_short_horflip_short_600ms.mp4	65.stroke_top_to_bottom_with_stanley_knife_short_horflip_short_600ms.mp4	101.77553673969828	102.38385033280292	0.60831359310464				
83.55615234375	0.2	171123	72	12	0	0	0	72	134	stimuli\Videos_short_600ms_horflip\5.repeated_tap_with_finger_moving_from_top_to_bottom_short_horflip_short_600ms.mp4	5.repeated_tap_with_finger_moving_from_top_to_bottom_short_horflip_short_600ms.mp4	102.5755250685752	103.1838330900382	0.6083080214630172				
84.35595703125	0.2	172761	73	12	0	0	0	73	245	stimuli\Videos_short_600ms_horvertflip\69.stroke_with_soft_sock_short_horvertflip_short_600ms.mp4	69.stroke_with_soft_sock_short_horvertflip_short_600ms.mp4	103.37549756226008	103.9838137945635	0.608316232303423				
85.15576171875	0.2	174399	74	12	0	0	0	74	26	stimuli\Videos_short_600ms\33.scratch_top_to_bottom_with_scissors_short_short_600ms.mp4	33.scratch_top_to_bottom_with_scissors_short_short_600ms.mp4	104.17550465877208	104.7837968450433	0.6082921862712283				
85.9560546875	0.2	176038	75	12	0	0	0	75	19	stimuli\Videos_short_600ms\27.single_push_with_a_plastic_whisk_short_short_600ms.mp4	27.single_push_with_a_plastic_whisk_short_short_600ms.mp4	104.97544137665297	105.58377725632432	0.6083358796713583				
86.755859375	0.2	177676	76	12	0	0	0	76	161	stimuli\Videos_short_600ms_horflip\74.fingers_walking_from_top_to_bottom_short_horflip_short_600ms.mp4	74.fingers_walking_from_top_to_bottom_short_horflip_short_600ms.mp4	105.77543850285883	106.38375825409388	0.608319751235058				
87.5556640625	0.2	179314	77	12	0	0	0	77	8	stimuli\Videos_short_600ms\17.repeated_touch_with_rolling_pin_short_short_600ms.mp4	17.repeated_touch_with_rolling_pin_short_short_600ms.mp4	106.57540249245926	107.1837386653749	0.6083361729156422				
88.35595703125	0.2	180953	78	12	0	0	0	78	301	stimuli\Videos_short_600ms_vertflip\38.double_slap_with_pencil_short_vertflip_short_600ms.mp4	38.double_slap_with_pencil_short_vertflip_short_600ms.mp4	107.37538290374027	107.9837214226102	0.608338518869914				
89.15576171875	0.2	182591	79	12	0	0	0	79	34	stimuli\Videos_short_600ms\40.repeated_push_with_finger_short_short_600ms.mp4	40.repeated_push_with_finger_short_short_600ms.mp4	108.1753732853274	108.7837059393114	0.6083326539840073				
89.95556640625	0.2	184229	80	12	0	0	1	80	379	stimuli\Targets_short_600ms_vertflip\chopstick-silver-tap_short_horvertflip_short_600ms.mp4	chopstick-silver-tap_short_horvertflip_short_600ms.mp4	108.9753270113772	109.5836866438367	0.6083596324594964				
90.755859375	0.2	185868	81	12	0	0	0	81	62	stimuli\Videos_short_600ms\66.stroke_top_to_bottom_with_sponge_short_short_600ms.mp4	66.stroke_top_to_bottom_with_sponge_short_short_600ms.mp4	109.77534085250818	110.38366852133912	0.6083276688309525				
91.5556640625	0.2	187506	82	12	0	0	0	82	354	stimuli\Videos_short_600ms_vertflip\86.touch_top_to_bottom_with_hair_brush_short_vertflip_short_600ms.mp4	86.touch_top_to_bottom_with_hair_brush_short_vertflip_short_600ms.mp4	110.57531070699451	111.18364453395566	0.6083338269611431				
92.35546875	0.2	189144	83	12	0	0	0	83	207	stimuli\Videos_short_600ms_horvertflip\34.repeated_punch_with_hand_short_horvertflip_short_600ms.mp4	34.repeated_punch_with_hand_short_horvertflip_short_600ms.mp4	111.37532190892648	111.98358594374508	0.6082640348186032				
93.15576171875	0.2	190783	84	12	0	0	0	84	165	stimuli\Videos_short_600ms_horflip\78.single_stroke_top_to_bottom_with_soft_brush_short_horflip_short_600ms.mp4	78.single_stroke_top_to_bottom_with_soft_brush_short_horflip_short_600ms.mp4	112.17529234990138	112.78356400907182	0.6082716591704411				
93.95556640625	0.2	192421	85	12	0	0	0	85	220	stimuli\Videos_short_600ms_horvertflip\46.scratching_top_to_bottom_with_finger_nails_short_horvertflip_short_600ms.mp4	46.scratching_top_to_bottom_with_finger_nails_short_horvertflip_short_600ms.mp4	112.9752727611824	113.58356612043076	0.6082933592483641				
94.755859375	0.2	194060	86	12	0	0	0	86	296	stimuli\Videos_short_600ms_vertflip\33.scratch_top_to_bottom_with_scissors_short_vertflip_short_600ms.mp4	33.scratch_top_to_bottom_with_scissors_short_vertflip_short_600ms.mp4	113.77525669139504	114.38355591552931	0.6082992241342708				
95.5556640625	0.2	195698	87	12	0	0	0	87	106	stimuli\Videos_short_600ms_horflip\24.single_stroke_top_to_bottom_with_a_spoon_short_horflip_short_600ms.mp4	24.single_stroke_top_to_bottom_with_a_spoon_short_horflip_short_600ms.mp4	114.57523534321012	115.18354013898602	0.6083047957758936				
96.35546875	0.2	197336	88	12	0	0	0	88	185	stimuli\Videos_short_600ms_horvertflip\14.repeated_touch_with_pencil_short_horvertflip_short_600ms.mp4	14.repeated_touch_with_pencil_short_horvertflip_short_600ms.mp4	115.3752163409797	115.98353579897048	0.608319457990774				
97.15576171875	0.2	198975	89	12	0	0	0	89	31	stimuli\Videos_short_600ms\38.double_slap_with_pencil_short_short_600ms.mp4	38.double_slap_with_pencil_short_short_600ms.mp4	116.17519851172663	116.78352471433595	0.6083262026093053				
97.95556640625	0.2	200613	90	12	0	0	0	90	37	stimuli\Videos_short_600ms\43.touch_top_to_bottom_with_sharp_wooden_stick_short_short_600ms.mp4	43.touch_top_to_bottom_with_sharp_wooden_stick_short_short_600ms.mp4	116.97517892300743	117.5834983809982	0.608319457990774				
98.75537109375	0.2	202251	91	12	0	0	0	91	226	stimuli\Videos_short_600ms_horvertflip\51.repeated_touch_with_hammer_short_horvertflip_short_600ms.mp4	51.repeated_touch_with_hammer_short_horvertflip_short_600ms.mp4	117.7751584545556	118.38349052205103	0.6083320674954393				
99.5556640625	0.2	203890	92	12	0	0	0	92	3	stimuli\Videos_short_600ms\12.repeated_touch_with_nail_file_short_short_600ms.mp4	12.repeated_touch_with_nail_file_short_short_600ms.mp4	118.57512009820177	119.18345949680452	0.6083393986027659				
100.35546875	0.2	205528	93	12	0	0	0	93	135	stimuli\Videos_short_600ms_horflip\50.single_(long)hard_push_with_thumb_short_horflip_short_600ms.mp4	50.single_(long)hard_push_with_thumb_short_horflip_short_600ms.mp4	119.37512719471351	119.98344254728408	0.6083153525705711				
101.1552734375	0.2	207166	94	12	0	0	0	94	36	stimuli\Videos_short_600ms\42.single_slap_with_plastic_whisk_short_short_600ms.mp4	42.single_slap_with_plastic_whisk_short_short_600ms.mp4	120.17540818139857	120.78342413154246	0.6080159501439084	5.0	5.0	2.7907329523895896	1.0
135.8876953125	0.2	278298	95	12	1	0	0	0	235	stimuli\Videos_short_600ms_horvertflip\6.single_touch_with_flat_hand_short_horvertflip_short_600ms.mp4	6.single_touch_with_flat_hand_short_horvertflip_short_600ms.mp4	154.9076330317414	155.51594926404482	0.608316232303423				
136.6875	0.2	279936	96	12	1	0	0	1	104	stimuli\Videos_short_600ms_horflip\22.single_touch_with_metal_chopstick_short_horflip_short_600ms.mp4	22.single_touch_with_metal_chopstick_short_horflip_short_600ms.mp4	155.70761285653384	156.3159302618144	0.6083174052805589				
137.48779296875	0.2	281575	97	12	1	0	0	2	357	stimuli\Videos_short_600ms_vertflip\89.single_touch_with_plastic_brush_short_vertflip_short_600ms.mp4	89.single_touch_with_plastic_brush_short_vertflip_short_600ms.mp4	156.50759532052484	157.11591184607255	0.608316525547707				
138.28759765625	0.2	283213	98	12	1	0	0	3	90	stimuli\Videos_short_600ms_horflip\1.repeated_touch_with_finger_fast_short_horflip_short_600ms.mp4	1.repeated_touch_with_finger_fast_short_horflip_short_600ms.mp4	157.30753057218408	157.91589489655212	0.6083643243680399				
139.08740234375	0.2	284851	99	12	1	0	0	4	176	stimuli\Videos_short_600ms_horflip\88.repeated_stroke_with_plastic_brush_short_horflip_short_600ms.mp4	88.repeated_stroke_with_plastic_brush_short_horflip_short_600ms.mp4	158.1075127429308	158.71587618756598	0.608363444635188				
139.8876953125	0.2	286490	100	12	1	0	0	5	250	stimuli\Videos_short_600ms_horvertflip\73.single_stroke_with_flat_hand_short_horvertflip_short_600ms.mp4	73.single_stroke_with_flat_hand_short_horvertflip_short_600ms.mp4	158.9075174934885	159.5158586515572	0.608341158068697				
140.6875	0.2	288128	101	12	1	0	0	6	59	stimuli\Videos_short_600ms\63.stroke_top_to_bottom_with_screwdriver_short_short_600ms.mp4	63.stroke_top_to_bottom_with_screwdriver_short_short_600ms.mp4	159.7075067020985	160.31583876959394	0.6083320674954393				
141.4873046875	0.2	289766	102	12	1	0	0	7	46	stimuli\Videos_short_600ms\51.repeated_touch_with_hammer_short_short_600ms.mp4	51.repeated_touch_with_hammer_short_short_600ms.mp4	160.50747831605054	161.11582064709637	0.6083423310458329				
142.28759765625	0.2	291405	103	12	1	0	0	8	133	stimuli\Videos_short_600ms_horflip\49.repeated_slap_with_hand_short_horflip_short_600ms.mp4	49.repeated_slap_with_hand_short_horflip_short_600ms.mp4	161.30746869763766	161.91580721650757	0.608338518869914				
143.08740234375	0.2	293043	104	12	1	0	0	9	295	stimuli\Videos_short_600ms_vertflip\32.single_(long)pinch_with_fingers_short_vertflip_short_600ms.mp4	32.single_(long)pinch_with_fingers_short_vertflip_short_600ms.mp4	162.10746611708782	162.71578000343675	0.6083138863489239				
143.88720703125	0.2	294681	105	12	1	0	0	10	47	stimuli\Videos_short_600ms\52.touch_top_to_bottom_with_hammer_short_short_600ms.mp4	52.touch_top_to_bottom_with_hammer_short_short_600ms.mp4	162.90745356623188	163.51571789429477	0.6082643280628872				
144.6875	0.2	296320	106	12	1	0	1	11	372	stimuli\Targets_short_600ms_horvertflip\brush-stroke_short_vertflip_short_600ms.mp4	brush-stroke_short_vertflip_short_600ms.mp4	163.7074278193827	164.31572323134105	0.6082954119583519				
145.4873046875	0.2	297958	107	12	1	0	0	12	63	stimuli\Videos_short_600ms\67.single_touch_with_sponge_short_short_600ms.mp4	67.single_touch_with_sponge_short_short_600ms.mp4	164.50741116310655	165.11570158991185	0.6082904268052971				
146.287109375	0.2	299596	108	12	1	0	0	13	300	stimuli\Videos_short_600ms_vertflip\37.single_stab_with_nail_file_short_vertflip_short_600ms.mp4	37.single_stab_with_nail_file_short_vertflip_short_600ms.mp4	165.30739157438757	165.91568903905613	0.608297464668567				
147.08740234375	0.2	301235	109	12	1	0	0	14	298	stimuli\Videos_short_600ms_vertflip\35.single_punch_with_hand_short_vertflip_short_600ms.mp4	35.single_punch_with_hand_short_vertflip_short_600ms.mp4	166.10737051944716	166.71567678144447	0.6083062619973134				
147.88720703125	0.2	302873	110	12	1	0	0	15	205	stimuli\Videos_short_600ms_horvertflip\32.single_(long)pinch_with_fingers_short_horvertflip_short_600ms.mp4	32.single_(long)pinch_with_fingers_short_horvertflip_short_600ms.mp4	166.9073321630931	167.51566745627588	0.6083352931827903				
148.68701171875	0.2	304511	111	12	1	0	0	16	162	stimuli\Videos_short_600ms_horflip\75.(long)stroke_with_fingers_all_over_the_hand_short_horflip_short_600ms.mp4	75.(long)stroke_with_fingers_all_over_the_hand_short_horflip_short_600ms.mp4	167.7073369136508	168.3156657554589	0.6083288418080883				
149.4873046875	0.2	306150	112	12	1	0	0	17	118	stimuli\Videos_short_600ms_horflip\35.single_punch_with_hand_short_horflip_short_600ms.mp4	35.single_punch_with_hand_short_horflip_short_600ms.mp4	168.5073252425277	169.11563297074645	0.6083077282187332				
150.287109375	0.2	307788	113	12	1	0	0	18	94	stimuli\Videos_short_600ms_horflip\13.single_touch_with_pen_short_horflip_short_600ms.mp4	13.single_touch_with_pen_short_horflip_short_600ms.mp4	169.30729656323547	169.91562628477664	0.6083297215411676				
151.08740234375	0.2	309427	114	12	1	0	0	19	130	stimuli\Videos_short_600ms_horflip\46.scratching_top_to_bottom_with_finger_nails_short_horflip_short_600ms.mp4	46.scratching_top_to_bottom_with_finger_nails_short_horflip_short_600ms.mp4	170.1072869448226	170.7155973122401	0.6083103674175163				
151.88720703125	0.2	311065	115	12	1	0	0	20	331	stimuli\Videos_short_600ms_vertflip\65.stroke_top_to_bottom_with_stanley_knife_short_vertflip_short_600ms.mp4	65.stroke_top_to_bottom_with_stanley_knife_short_vertflip_short_600ms.mp4	170.90725943850748	171.51557684378827	0.6083174052807863				
152.68701171875	0.2	312703	116	12	1	0	0	21	81	stimuli\Videos_short_600ms\83.single_stroke_top_to_bottom_with_cotton_bud_short_short_600ms.mp4	83.single_stroke_top_to_bottom_with_cotton_bud_short_short_600ms.mp4	171.70724630116297	172.31556136048926	0.6083150593262872				
153.4873046875	0.2	314342	117	12	1	0	0	22	33	stimuli\Videos_short_600ms\4.repeated_tap_with_finger_slow_short_short_600ms.mp4	4.repeated_tap_with_finger_slow_short_short_600ms.mp4	172.5072874140135	173.11554030554885	0.6082528915353578				
154.287109375	0.2	315980	118	12	1	0	0	23	234	stimuli\Videos_short_600ms_horvertflip\59.single_push_with_long_side_pencil_short_horvertflip_short_600ms.mp4	59.single_push_with_long_side_pencil_short_horvertflip_short_600ms.mp4	173.30718454391422	173.91552335602842	0.6083388121141979				
155.0869140625	0.2	317618	119	12	1	0	0	24	189	stimuli\Videos_short_600ms_horvertflip\18.single_stroke_from_top_to_bottom_with_rolling_pin_short_horvertflip_short_600ms.mp4	18.single_stroke_from_top_to_bottom_with_rolling_pin_short_horvertflip_short_600ms.mp4	174.1071637822181	174.715504353798	0.6083405715799017				
155.88720703125	0.2	319257	120	12	1	0	0	25	274	stimuli\Videos_short_600ms_vertflip\13.single_touch_with_pen_short_vertflip_short_600ms.mp4	13.single_touch_with_pen_short_vertflip_short_600ms.mp4	174.90714507323196	175.51548388534616	0.6083388121141979				
156.68701171875	0.2	320895	121	12	1	0	0	26	311	stimuli\Videos_short_600ms_vertflip\47.(long)scratching_with_finger_nails_short_vertflip_short_600ms.mp4	47.(long)scratching_with_finger_nails_short_vertflip_short_600ms.mp4	175.70712958993295	176.31547016151308	0.6083405715801291				
157.48681640625	0.2	322533	122	12	1	0	0	27	336	stimuli\Videos_short_600ms_vertflip\7.repeated_touch_with_hairbrush_short_vertflip_short_600ms.mp4	7.repeated_touch_with_hairbrush_short_vertflip_short_600ms.mp4	176.507114986367	177.1154344443578	0.608319457990774				
158.287109375	0.2	324172	123	12	1	0	0	28	110	stimuli\Videos_short_600ms_horflip\28.single_injection_with_sharp_needle_short_horflip_short_600ms.mp4	28.single_injection_with_sharp_needle_short_horflip_short_600ms.mp4	177.3070942246709	177.91539755422536	0.6083033295544737				
159.0869140625	0.2	325810	124	12	1	0	0	29	119	stimuli\Videos_short_600ms_horflip\36.single_slap_with_full_hand_short_horflip_short_600ms.mp4	36.single_slap_with_full_hand_short_horflip_short_600ms.mp4	178.10710425362572	178.71536594249005	0.6082616888643315				
159.88671875	0.2	327448	125	12	1	0	0	30	18	stimuli\Videos_short_600ms\26.single_touch_with_a_blunt_syringe_short_short_600ms.mp4	26.single_touch_with_a_blunt_syringe_short_short_600ms.mp4	178.90708114597533	179.51535691056574	0.6082757645904167				
160.68701171875	0.2	329087	126	12	1	0	0	31	350	stimuli\Videos_short_600ms_vertflip\82.repeated_touch_with_cotton_bud_short_vertflip_short_600ms.mp4	82.repeated_touch_with_cotton_bud_short_vertflip_short_600ms.mp4	179.707058331569	180.3153294042509	0.6082710726818732				
161.48681640625	0.2	330725	127	12	1	0	0	32	140	stimuli\Videos_short_600ms_horflip\55.touch_top_to_bottom_with_nail_file_short_horflip_short_600ms.mp4	55.touch_top_to_bottom_with_nail_file_short_horflip_short_600ms.mp4	180.50705809697365	181.1153256507237	0.6082675537500108				
162.28662109375	0.2	332363	128	12	1	0	0	33	233	stimuli\Videos_short_600ms_horvertflip\58.single_slap_with_pencil_short_horvertflip_short_600ms.mp4	58.single_slap_with_pencil_short_horvertflip_short_600ms.mp4	181.30702091359672	181.91532365666265	0.6083027430659058				
163.0869140625	0.2	334002	129	12	1	0	0	34	340	stimuli\Videos_short_600ms_vertflip\73.single_stroke_with_flat_hand_short_vertflip_short_600ms.mp4	73.single_stroke_with_flat_hand_short_vertflip_short_600ms.mp4	182.10699927216777	182.71530113550057	0.6083018633328265				
163.88671875	0.2	335640	130	12	1	0	1	35	383	stimuli\Targets_short_600ms_vertflip\hand-stroke_short_horvertflip_short_600ms.mp4	hand-stroke_short_horvertflip_short_600ms.mp4	182.90698290913588	183.51531057796683	0.6083276688309525				
164.6865234375	0.2	337278	131	12	1	0	0	36	29	stimuli\Videos_short_600ms\36.single_slap_with_full_hand_short_short_600ms.mp4	36.single_slap_with_full_hand_short_short_600ms.mp4	183.70696185419547	184.31529450817948	0.6083326539840073				
165.48681640625	0.2	338917	132	12	1	0	0	37	138	stimuli\Videos_short_600ms_horflip\53.touch_top_to_bottom_with_knife_short_horflip_short_600ms.mp4	53.touch_top_to_bottom_with_knife_short_horflip_short_600ms.mp4	184.5069683642189	185.11526348293296	0.6082951187140679				
166.28662109375	0.2	340555	133	12	1	0	0	38	123	stimuli\Videos_short_600ms_horflip\4.repeated_tap_with_finger_slow_short_horflip_short_600ms.mp4	4.repeated_tap_with_finger_slow_short_horflip_short_600ms.mp4	185.3069162253828	185.91524242799233	0.6083262026095326				
167.0869140625	0.2	342194	134	12	1	0	0	39	219	stimuli\Videos_short_600ms_horvertflip\45.scratching_with_finger_nails_short_horvertflip_short_600ms.mp4	45.scratching_with_finger_nails_short_horvertflip_short_600ms.mp4	186.10690865968013	186.7152257717164	0.6083171120362749				
167.88671875	0.2	343832	135	12	1	0	0	40	182	stimuli\Videos_short_600ms_horvertflip\11.single_touch_with_lighter_short_horvertflip_short_600ms.mp4	11.single_touch_with_lighter_short_horvertflip_short_600ms.mp4	186.90689845477849	187.51520618299745	0.6083077282189606				
168.6865234375	0.2	345470	136	12	1	0	0	41	284	stimuli\Videos_short_600ms_vertflip\22.single_touch_with_metal_chopstick_short_vertflip_short_600ms.mp4	22.single_touch_with_metal_chopstick_short_vertflip_short_600ms.mp4	187.7069002728931	188.31518747401128	0.6082872011181735				
169.48681640625	0.2	347109	137	12	1	0	0	42	168	stimuli\Videos_short_600ms_horflip\80.stroke_with_sharp_stick_all_over_the_hand_short_horflip_short_600ms.mp4	80.stroke_with_sharp_stick_all_over_the_hand_short_horflip_short_600ms.mp4	188.5068531192103	189.1151670055592	0.6083138863489239				
170.28662109375	0.2	348747	138	12	1	0	0	43	218	stimuli\Videos_short_600ms_horvertflip\44.pushing_top_to_bottom_with_finger_short_horvertflip_short_600ms.mp4	44.pushing_top_to_bottom_with_finger_short_horvertflip_short_600ms.mp4	189.30681183041335	189.91514976279473	0.608337932381346				
171.08642578125	0.2	350385	139	12	1	0	0	44	100	stimuli\Videos_short_600ms_horflip\19.single_touch_with_rolling_pin_short_horflip_short_600ms.mp4	19.single_touch_with_rolling_pin_short_horflip_short_600ms.mp4	190.10679312142724	190.7151372119388	0.6083440905115367				
171.88671875	0.2	352024	140	12	1	0	0	45	239	stimuli\Videos_short_600ms_horvertflip\63.stroke_top_to_bottom_with_screwdriver_short_horvertflip_short_600ms.mp4	63.stroke_top_to_bottom_with_screwdriver_short_horvertflip_short_600ms.mp4	190.90677177324233	191.5151135177996	0.608341744557265				
172.6865234375	0.2	353662	141	12	1	0	0	46	160	stimuli\Videos_short_600ms_horflip\73.single_stroke_with_flat_hand_short_horflip_short_600ms.mp4	73.single_stroke_with_flat_hand_short_horflip_short_600ms.mp4	191.70673019120113	192.3150980345008	0.6083678432996749				
173.486328125	0.2	355300	142	12	1	0	0	47	154	stimuli\Videos_short_600ms_horflip\68.stroke_top_to_bottom_with_shawl_short_horflip_short_600ms.mp4	68.stroke_top_to_bottom_with_shawl_short_horflip_short_600ms.mp4	192.50674843099637	193.11506378356697	0.6083153525705711				
174.28662109375	0.2	356939	143	12	1	0	0	48	129	stimuli\Videos_short_600ms_horflip\45.scratching_with_finger_nails_short_horflip_short_600ms.mp4	45.scratching_with_finger_nails_short_horflip_short_600ms.mp4	193.30673675987327	193.91506882736897	0.6083320674956667				
175.08642578125	0.2	358577	144	12	1	0	0	49	183	stimuli\Videos_short_600ms_horvertflip\12.repeated_touch_with_nail_file_short_horvertflip_short_600ms.mp4	12.repeated_touch_with_nail_file_short_horvertflip_short_600ms.mp4	194.106732713102	194.7150149290671	0.6082822159651187				
175.88623046875	0.2	360215	145	12	1	0	0	50	196	stimuli\Videos_short_600ms_horvertflip\24.single_stroke_top_to_bottom_with_a_spoon_short_horvertflip_short_600ms.mp4	24.single_stroke_top_to_bottom_with_a_spoon_short_horvertflip_short_600ms.mp4	194.90670286083264	195.51501117554017	0.6083083147075286				
176.6865234375	0.2	361854	146	12	1	0	0	51	146	stimuli\Videos_short_600ms_horflip\60.single_push_with_tip_of_pencil_short_horflip_short_600ms.mp4	60.single_push_with_tip_of_pencil_short_horflip_short_600ms.mp4	195.70669382890833	196.31498073678225	0.6082869078738895				
177.486328125	0.2	363492	147	12	1	0	0	52	153	stimuli\Videos_short_600ms_horflip\67.single_touch_with_sponge_short_horflip_short_600ms.mp4	67.single_touch_with_sponge_short_horflip_short_600ms.mp4	196.50666573610465	197.1149652534832	0.6082995173785548				
178.2861328125	0.2	365130	148	12	1	0	0	53	88	stimuli\Videos_short_600ms\9.single_touch_with_hammer_short_short_600ms.mp4	9.single_touch_with_hammer_short_short_600ms.mp4	197.3066467338745	197.9149459580085	0.6082992241340435				
179.08642578125	0.2	366769	149	12	1	0	0	54	51	stimuli\Videos_short_600ms\56.repeated_touch_with_nail_file_short_short_600ms.mp4	56.repeated_touch_with_nail_file_short_short_600ms.mp4	198.1066403411487	198.7149512950548	0.6083109539060843				
179.88623046875	0.2	368407	150	12	1	0	0	55	66	stimuli\Videos_short_600ms\7.repeated_touch_with_hairbrush_short_short_600ms.mp4	7.repeated_touch_with_hairbrush_short_short_600ms.mp4	198.9066093159022	199.51494021042024	0.6083308945180761				
180.68603515625	0.2	370045	151	12	1	0	1	56	371	stimuli\Targets_short_600ms_horflip\hand-stroke_short_horflip_short_600ms.mp4	hand-stroke_short_horflip_short_600ms.mp4	199.70659060691605	200.31490889192943	0.6083182850134108				
181.486328125	0.2	371684	152	12	1	0	0	57	321	stimuli\Videos_short_600ms_vertflip\56.repeated_touch_with_nail_file_short_vertflip_short_600ms.mp4	56.repeated_touch_with_nail_file_short_vertflip_short_600ms.mp4	200.50655664922647	201.11488930321048	0.6083326539840073				
182.2861328125	0.2	373322	153	12	1	0	0	58	352	stimuli\Videos_short_600ms_vertflip\84.single_touch_with_cotton_bud_short_vertflip_short_600ms.mp4	84.single_touch_with_cotton_bud_short_vertflip_short_600ms.mp4	201.30655318894375	201.91487088746865	0.6083176985248429				
183.0859375	0.2	374960	154	12	1	0	0	59	307	stimuli\Videos_short_600ms_vertflip\43.touch_top_to_bottom_with_sharp_wooden_stick_short_vertflip_short_600ms.mp4	43.touch_top_to_bottom_with_sharp_wooden_stick_short_vertflip_short_600ms.mp4	202.1065333069805	202.7148518852382	0.6083185782576948				
183.88623046875	0.2	376599	155	12	1	0	0	60	143	stimuli\Videos_short_600ms_horflip\58.single_slap_with_pencil_short_horflip_short_600ms.mp4	58.single_slap_with_pencil_short_horflip_short_600ms.mp4	202.90651870341455	203.51483376274064	0.6083150593260598				
184.68603515625	0.2	378237	156	12	1	0	0	61	87	stimuli\Videos_short_600ms\89.single_touch_with_plastic_brush_short_short_600ms.mp4	89.single_touch_with_plastic_brush_short_short_600ms.mp4	203.70646392537992	204.3148156402433	0.6083517148633746				
185.486328125	0.2	379876	157	12	1	0	1	62	366	stimuli\Targets_short_600ms_horflip\brush-stroke_short_horflip_short_600ms.mp4	brush-stroke_short_horflip_short_600ms.mp4	204.50647512731211	205.1147963447686	0.6083212174564778				
186.2861328125	0.2	381514	158	12	1	0	0	63	184	stimuli\Videos_short_600ms_horvertflip\13.single_touch_with_pen_short_horvertflip_short_600ms.mp4	13.single_touch_with_pen_short_horvertflip_short_600ms.mp4	205.30641595061297	205.9147779290267	0.6083619784137682				
187.0859375	0.2	383152	159	12	1	0	0	64	306	stimuli\Videos_short_600ms_vertflip\42.single_slap_with_plastic_whisk_short_vertflip_short_600ms.mp4	42.single_slap_with_plastic_whisk_short_vertflip_short_600ms.mp4	206.1063978281154	206.71475746057467	0.608359632459269				
187.88623046875	0.2	384791	160	12	1	0	0	65	172	stimuli\Videos_short_600ms_horflip\84.single_touch_with_cotton_bud_short_horflip_short_600ms.mp4	84.single_touch_with_cotton_bud_short_horflip_short_600ms.mp4	206.90640257867312	207.51474051105447	0.608337932381346				
188.68603515625	0.2	386429	161	12	1	0	0	66	169	stimuli\Videos_short_600ms_horflip\81.single_stroke_top_to_bottom_with_cotton_pad_short_horflip_short_600ms.mp4	81.single_stroke_top_to_bottom_with_cotton_pad_short_horflip_short_600ms.mp4	207.7063932535043	208.3147308926416	0.6083376391372894				
189.48583984375	0.2	388067	162	12	1	0	0	67	86	stimuli\Videos_short_600ms\88.repeated_stroke_with_plastic_brush_short_short_600ms.mp4	88.repeated_stroke_with_plastic_brush_short_short_600ms.mp4	208.5063721985639	209.1146667307894	0.6082945322255				
190.2861328125	0.2	389706	163	12	1	0	0	68	0	stimuli\Videos_short_600ms\1.repeated_touch_with_finger_fast_short_short_600ms.mp4	1.repeated_touch_with_finger_fast_short_short_600ms.mp4	209.3063769491216	209.9146691353926	0.6082921862710009				
191.0859375	0.2	391344	164	12	1	0	0	69	302	stimuli\Videos_short_600ms_vertflip\39.single_stab_with_scissors_short_vertflip_short_600ms.mp4	39.single_stab_with_scissors_short_vertflip_short_600ms.mp4	210.1063374197904	210.71464280205487	0.6083053822644615				
191.8857421875	0.2	392982	165	12	1	0	0	70	115	stimuli\Videos_short_600ms_horflip\32.single_(long)pinch_with_fingers_short_horflip_short_600ms.mp4	32.single_(long)pinch_with_fingers_short_horflip_short_600ms.mp4	210.90633102706465	211.5146026862351	0.6082716591704411				
192.68603515625	0.2	394621	166	12	1	0	0	71	175	stimuli\Videos_short_600ms_horflip\87.single_stroke_top_to_bottom_with_plastic_brush_short_horflip_short_600ms.mp4	87.single_stroke_top_to_bottom_with_plastic_brush_short_horflip_short_600ms.mp4	211.70631173158995	212.31461036923565	0.6082986376457029				
193.48583984375	0.2	396259	167	12	1	0	0	72	262	stimuli\Videos_short_600ms_horvertflip\84.single_touch_with_cotton_bud_short_horvertflip_short_600ms.mp4	84.single_touch_with_cotton_bud_short_horvertflip_short_600ms.mp4	212.50628158607628	213.11459899135684	0.6083174052805589				
194.28564453125	0.2	397897	168	12	1	0	0	73	84	stimuli\Videos_short_600ms\86.touch_top_to_bottom_with_hair_brush_short_short_600ms.mp4	86.touch_top_to_bottom_with_hair_brush_short_short_600ms.mp4	213.30627431361768	213.91458937294396	0.6083150593262872				
195.0859375	0.2	399536	169	12	1	0	0	74	111	stimuli\Videos_short_600ms_horflip\29.single_pinch_with_tweezers_short_horflip_short_600ms.mp4	29.single_pinch_with_tweezers_short_horflip_short_600ms.mp4	214.1062567776089	214.71458268697393	0.6083259093650213				
195.8857421875	0.2	401174	170	12	1	0	0	75	349	stimuli\Videos_short_600ms_vertflip\81.single_stroke_top_to_bottom_with_cotton_pad_short_vertflip_short_600ms.mp4	81.single_stroke_top_to_bottom_with_cotton_pad_short_vertflip_short_600ms.mp4	214.90623630915684	215.51455488741476	0.6083185782579221				
196.685546875	0.2	402812	171	12	1	0	0	76	225	stimuli\Videos_short_600ms_horvertflip\50.single_(long)hard_push_with_thumb_short_horvertflip_short_600ms.mp4	50.single_(long)hard_push_with_thumb_short_horvertflip_short_600ms.mp4	215.706217893415	216.31454820144472	0.6083303080297355				
197.48583984375	0.2	404451	172	12	1	0	0	77	155	stimuli\Videos_short_600ms_horflip\69.stroke_with_soft_sock_short_horflip_short_600ms.mp4	69.stroke_with_soft_sock_short_horflip_short_600ms.mp4	216.50619889118457	217.11451600322107	0.6083171120365023				
198.28564453125	0.2	406089	173	12	1	0	0	78	200	stimuli\Videos_short_600ms_horvertflip\28.single_injection_with_sharp_needle_short_horvertflip_short_600ms.mp4	28.single_injection_with_sharp_needle_short_horvertflip_short_600ms.mp4	217.30618634032885	217.91450022667777	0.6083138863489239				
199.08544921875	0.2	407727	174	12	1	0	0	79	312	stimuli\Videos_short_600ms_vertflip\48.single_slap_with_hand_short_vertflip_short_600ms.mp4	48.single_slap_with_hand_short_vertflip_short_600ms.mp4	218.10616733809843	218.71447887849308	0.6083115403946522				
199.8857421875	0.2	409366	175	12	1	0	0	80	223	stimuli\Videos_short_600ms_horvertflip\49.repeated_slap_with_hand_short_horvertflip_short_600ms.mp4	49.repeated_slap_with_hand_short_horvertflip_short_600ms.mp4	218.90613367365313	219.5144610492398	0.6083273755866685				
200.685546875	0.2	411004	176	12	1	0	0	81	231	stimuli\Videos_short_600ms_horvertflip\56.repeated_touch_with_nail_file_short_horvertflip_short_600ms.mp4	56.repeated_touch_with_nail_file_short_horvertflip_short_600ms.mp4	219.70614370260796	220.31444263349795	0.6082989308899869				
201.4853515625	0.2	412642	177	12	1	0	0	82	209	stimuli\Videos_short_600ms_horvertflip\36.single_slap_with_full_hand_short_horvertflip_short_600ms.mp4	36.single_slap_with_full_hand_short_horvertflip_short_600ms.mp4	220.5060854056419	221.11442539073343	0.6083399850915612				
202.28564453125	0.2	414281	178	12	1	0	0	83	67	stimuli\Videos_short_600ms\70.(long)stroke_with_finger_all_over_the_hand_short_short_600ms.mp4	70.(long)stroke_with_finger_all_over_the_hand_short_short_600ms.mp4	221.30607285478595	221.91440521552568	0.6083323607397233				
203.08544921875	0.2	415919	179	12	1	0	0	84	187	stimuli\Videos_short_600ms_horvertflip\16.repeated_touch_with_plastic_brush_short_horvertflip_short_600ms.mp4	16.repeated_touch_with_plastic_brush_short_horvertflip_short_600ms.mp4	222.106024528126	222.71438504031812	0.608360512192121				
203.8857421875	0.2	417558	180	12	1	0	0	85	254	stimuli\Videos_short_600ms_horvertflip\77.tapping_with_all_fingers_short_horvertflip_short_600ms.mp4	77.tapping_with_all_fingers_short_horvertflip_short_600ms.mp4	222.9060330908594	223.5143719029736	0.6083388121141979				
204.685546875	0.2	419196	181	12	1	0	1	86	365	stimuli\Targets_short_600ms\hand-stroke_short_short_600ms.mp4	hand-stroke_short_short_600ms.mp4	223.70602054000344	224.3143593521179	0.6083388121144253				
205.4853515625	0.2	420834	182	12	1	0	0	87	299	stimuli\Videos_short_600ms_vertflip\36.single_slap_with_full_hand_short_vertflip_short_600ms.mp4	36.single_slap_with_full_hand_short_vertflip_short_600ms.mp4	224.5060214783853	225.1143139579008	0.6082924795155122				
206.28564453125	0.2	422473	183	12	1	0	0	88	43	stimuli\Videos_short_600ms\49.repeated_slap_with_hand_short_short_600ms.mp4	49.repeated_slap_with_hand_short_short_600ms.mp4	225.30600013020057	225.91428909078425	0.6082889605836499				
207.08544921875	0.2	424111	184	12	1	0	0	89	333	stimuli\Videos_short_600ms_vertflip\67.single_touch_with_sponge_short_vertflip_short_600ms.mp4	67.single_touch_with_sponge_short_vertflip_short_600ms.mp4	226.10597672930567	226.71427155477545	0.608294825469784				
207.88525390625	0.2	425749	185	12	1	0	0	90	281	stimuli\Videos_short_600ms_vertflip\2.single_touch_with_finger_short_vertflip_short_600ms.mp4	2.single_touch_with_finger_short_vertflip_short_600ms.mp4	226.90595567436503	227.51425108632336	0.6082954119583519				
208.685546875	0.2	427388	186	12	1	0	0	91	265	stimuli\Videos_short_600ms_horvertflip\87.single_stroke_top_to_bottom_with_plastic_brush_short_horvertflip_short_600ms.mp4	87.single_stroke_top_to_bottom_with_plastic_brush_short_horvertflip_short_600ms.mp4	227.70593872484483	228.31423912195623	0.6083003971114067				
209.4853515625	0.2	429026	187	12	1	0	0	92	164	stimuli\Videos_short_600ms_horflip\77.tapping_with_all_fingers_short_horflip_short_600ms.mp4	77.tapping_with_all_fingers_short_horflip_short_600ms.mp4	228.50591854963727	229.11422187919152	0.6083033295542464				
210.28515625	0.2	430664	188	12	1	0	0	93	180	stimuli\Videos_short_600ms_horvertflip\1.repeated_touch_with_finger_fast_short_horvertflip_short_600ms.mp4	1.repeated_touch_with_finger_fast_short_horvertflip_short_600ms.mp4	229.3058998406511	229.9142310284135	0.6083311877623601				
211.08544921875	0.2	432303	189	12	1	0	0	94	315	stimuli\Videos_short_600ms_vertflip\50.single_(long)hard_push_with_thumb_short_vertflip_short_600ms.mp4	50.single_(long)hard_push_with_thumb_short_vertflip_short_600ms.mp4	230.10588787628376	230.71420117614412	0.608313299860356	5.0	5.0	1.818310819013732	1.0
244.2177734375	0.2	500158	190	12	2	0	0	0	261	stimuli\Videos_short_600ms_horvertflip\83.single_stroke_top_to_bottom_with_cotton_bud_short_horvertflip_short_600ms.mp4	83.single_stroke_top_to_bottom_with_cotton_bud_short_horvertflip_short_600ms.mp4	263.23844896053697	263.84676431310754	0.6083153525705711				
245.017578125	0.2	501796	191	12	2	0	0	1	240	stimuli\Videos_short_600ms_horvertflip\64.repeated_touch_with_screwdriver_short_horvertflip_short_600ms.mp4	64.repeated_touch_with_screwdriver_short_horvertflip_short_600ms.mp4	264.0384264393749	264.6467318216394	0.6083053822644615				
245.8173828125	0.2	503434	192	12	2	0	0	2	204	stimuli\Videos_short_600ms_horvertflip\31.hand_grabbing_wrist_short_horvertflip_short_600ms.mp4	31.hand_grabbing_wrist_short_horvertflip_short_600ms.mp4	264.8384053844345	265.44672308295935	0.6083176985248429				
246.61767578125	0.2	505073	193	12	2	0	0	3	329	stimuli\Videos_short_600ms_vertflip\63.stroke_top_to_bottom_with_screwdriver_short_vertflip_short_600ms.mp4	63.stroke_top_to_bottom_with_screwdriver_short_vertflip_short_600ms.mp4	265.6383904876243	266.2467131713022	0.6083226836778977				
247.41748046875	0.2	506711	194	12	2	0	0	4	303	stimuli\Videos_short_600ms_vertflip\4.repeated_tap_with_finger_slow_short_vertflip_short_600ms.mp4	4.repeated_tap_with_finger_slow_short_vertflip_short_600ms.mp4	266.43836737997367	267.04668449200994	0.6083171120362749				
248.21728515625	0.2	508349	195	12	2	0	1	5	380	stimuli\Targets_short_600ms_vertflip\chopstickwood-tap_short_horvertflip_short_600ms.mp4	chopstickwood-tap_short_horvertflip_short_600ms.mp4	267.2383516034304	267.84667927226155	0.6083276688311798				
249.017578125	0.2	509988	196	12	2	0	0	6	212	stimuli\Videos_short_600ms_horvertflip\39.single_stab_with_scissors_short_horvertflip_short_600ms.mp4	39.single_stab_with_scissors_short_horvertflip_short_600ms.mp4	268.03833113497853	268.64665000648074	0.6083188715022061				
249.8173828125	0.2	511626	197	12	2	0	0	7	142	stimuli\Videos_short_600ms_horflip\57.single_touch_with_nail_file_short_horflip_short_600ms.mp4	57.single_touch_with_nail_file_short_horflip_short_600ms.mp4	268.83831183950383	269.44663041776175	0.6083185782579221				
250.6171875	0.2	513264	198	12	2	0	0	8	149	stimuli\Videos_short_600ms_horflip\63.stroke_top_to_bottom_with_screwdriver_short_horflip_short_600ms.mp4	63.stroke_top_to_bottom_with_screwdriver_short_horflip_short_600ms.mp4	269.6383239211689	270.24661288175275	0.6082889605838773				
251.41748046875	0.2	514903	199	12	2	0	0	9	211	stimuli\Videos_short_600ms_horvertflip\38.double_slap_with_pencil_short_horvertflip_short_600ms.mp4	38.double_slap_with_pencil_short_horvertflip_short_600ms.mp4	270.4382852715705	271.0465912403238	0.6083059687532568				
252.21728515625	0.2	516541	200	12	2	0	0	10	27	stimuli\Videos_short_600ms\34.repeated_punch_with_hand_short_short_600ms.mp4	34.repeated_punch_with_hand_short_short_600ms.mp4	271.23823518544486	271.84657986244497	0.6083446770001046				
253.01708984375	0.2	518179	201	12	2	0	0	11	269	stimuli\Videos_short_600ms_horvertflip\90.repeated_touch_with_sponge_short_horvertflip_short_600ms.mp4	90.repeated_touch_with_sponge_short_horvertflip_short_600ms.mp4	272.03822175485607	272.6465552885729	0.6083335337168592				
253.8173828125	0.2	519818	202	12	2	0	0	12	309	stimuli\Videos_short_600ms_vertflip\45.scratching_with_finger_nails_short_vertflip_short_600ms.mp4	45.scratching_with_finger_nails_short_vertflip_short_600ms.mp4	272.8381848647234	273.4465380458082	0.6083531810847944				
254.6171875	0.2	521456	203	12	2	0	0	13	171	stimuli\Videos_short_600ms_horflip\83.single_stroke_top_to_bottom_with_cotton_bud_short_horflip_short_600ms.mp4	83.single_stroke_top_to_bottom_with_cotton_bud_short_horflip_short_600ms.mp4	273.63815735840853	274.24651757735637	0.608360218947837				
255.4169921875	0.2	523094	204	12	2	0	0	14	252	stimuli\Videos_short_600ms_horvertflip\75.(long)stroke_with_fingers_all_over_the_hand_short_horvertflip_short_600ms.mp4	75.(long)stroke_with_fingers_all_over_the_hand_short_horvertflip_short_600ms.mp4	274.4381629886989	275.0464953494386	0.6083323607397233				
256.21728515625	0.2	524733	205	12	2	0	0	15	116	stimuli\Videos_short_600ms_horflip\33.scratch_top_to_bottom_with_scissors_short_horflip_short_600ms.mp4	33.scratch_top_to_bottom_with_scissors_short_horflip_short_600ms.mp4	275.2381436932242	275.84647664045247	0.6083329472282912				
257.01708984375	0.2	526371	206	12	2	0	0	16	76	stimuli\Videos_short_600ms\79.long_with_soft_brush_all_over_the_hand_short_short_600ms.mp4	79.long_with_soft_brush_all_over_the_hand_short_short_600ms.mp4	276.03815078973616	276.6464629166196	0.6083121268834475				
257.81689453125	0.2	528009	207	12	2	0	0	17	237	stimuli\Videos_short_600ms_horvertflip\61.single_hit_with_rolling_pin_short_horvertflip_short_600ms.mp4	61.single_hit_with_rolling_pin_short_horvertflip_short_600ms.mp4	276.83810099685456	277.44642778595266	0.6083267890981006				
258.6171875	0.2	529648	208	12	2	0	0	18	278	stimuli\Videos_short_600ms_vertflip\17.repeated_touch_with_rolling_pin_short_vertflip_short_600ms.mp4	17.repeated_touch_with_rolling_pin_short_vertflip_short_600ms.mp4	277.6381095595882	278.24640115937063	0.608291599782433				
259.4169921875	0.2	531286	209	12	2	0	0	19	61	stimuli\Videos_short_600ms\65.stroke_top_to_bottom_with_stanley_knife_short_short_600ms.mp4	65.stroke_top_to_bottom_with_stanley_knife_short_short_600ms.mp4	278.438085865449	279.04638362336163	0.6082977579126236				
260.21728515625	0.2	532925	210	12	2	0	0	20	60	stimuli\Videos_short_600ms\64.repeated_touch_with_screwdriver_short_short_600ms.mp4	64.repeated_touch_with_screwdriver_short_short_600ms.mp4	279.2380765402804	279.84636989952855	0.6082933592481368				
261.01708984375	0.2	534563	211	12	2	0	0	21	359	stimuli\Videos_short_600ms_vertflip\90.repeated_touch_with_sponge_short_vertflip_short_600ms.mp4	90.repeated_touch_with_sponge_short_vertflip_short_600ms.mp4	280.03805020694244	280.6463699581775	0.608319751235058				
261.81689453125	0.2	536201	212	12	2	0	0	22	215	stimuli\Videos_short_600ms_horvertflip\41.injection_with_blunt_syringe_short_horvertflip_short_600ms.mp4	41.injection_with_blunt_syringe_short_horvertflip_short_600ms.mp4	280.838031204712	281.44635594110014	0.6083247363881128				
262.6171875	0.2	537840	213	12	2	0	0	23	332	stimuli\Videos_short_600ms_vertflip\66.stroke_top_to_bottom_with_sponge_short_vertflip_short_600ms.mp4	66.stroke_top_to_bottom_with_sponge_short_vertflip_short_600ms.mp4	281.6380127889702	282.2463299010067	0.6083171120365023				
263.4169921875	0.2	539478	214	12	2	0	0	24	288	stimuli\Videos_short_600ms_vertflip\26.single_touch_with_a_blunt_syringe_short_vertflip_short_600ms.mp4	26.single_touch_with_a_blunt_syringe_short_vertflip_short_600ms.mp4	282.43799789215996	283.0463158839293	0.6083179917693542				
264.216796875	0.2	541116	215	12	2	0	0	25	48	stimuli\Videos_short_600ms\53.touch_top_to_bottom_with_knife_short_short_600ms.mp4	53.touch_top_to_bottom_with_knife_short_short_600ms.mp4	283.23799472512155	283.84629160330155	0.6082968781799991				
265.01708984375	0.2	542755	216	12	2	0	0	26	11	stimuli\Videos_short_600ms\2.single_touch_with_finger_short_short_600ms.mp4	2.single_touch_with_finger_short_short_600ms.mp4	284.03796516609646	284.6462731875597	0.6083080214632446				
265.81689453125	0.2	544393	217	12	2	0	0	27	285	stimuli\Videos_short_600ms_vertflip\23.single_push_with_a_spoon_short_vertflip_short_600ms.mp4	23.single_push_with_a_spoon_short_vertflip_short_600ms.mp4	284.83789308664836	285.44625330559643	0.6083602189480644				
266.61669921875	0.2	546031	218	12	2	0	0	28	170	stimuli\Videos_short_600ms_horflip\82.repeated_touch_with_cotton_bud_short_horflip_short_600ms.mp4	82.repeated_touch_with_cotton_bud_short_horflip_short_600ms.mp4	285.6379239359485	286.2462348898546	0.6083109539060843				
267.4169921875	0.2	547670	219	12	2	0	0	29	229	stimuli\Videos_short_600ms_horvertflip\54.repeated_touch_with_knife_short_horvertflip_short_600ms.mp4	54.repeated_touch_with_knife_short_horvertflip_short_600ms.mp4	286.4379058134509	287.04621618086844	0.6083103674175163				
268.216796875	0.2	549308	220	12	2	0	0	30	258	stimuli\Videos_short_600ms_horvertflip\80.stroke_with_sharp_stick_all_over_the_hand_short_horvertflip_short_600ms.mp4	80.stroke_with_sharp_stick_all_over_the_hand_short_horvertflip_short_600ms.mp4	287.23783695968996	287.846197178638	0.6083602189480644				
269.0166015625	0.2	550946	221	12	2	0	0	31	199	stimuli\Videos_short_600ms_horvertflip\27.single_push_with_a_plastic_whisk_short_horvertflip_short_600ms.mp4	27.single_push_with_a_plastic_whisk_short_horvertflip_short_600ms.mp4	288.0378396575377	288.6461781764076	0.608338518869914				
269.81689453125	0.2	552585	222	12	2	0	0	32	246	stimuli\Videos_short_600ms_horvertflip\7.repeated_touch_with_hairbrush_short_horvertflip_short_600ms.mp4	7.repeated_touch_with_hairbrush_short_horvertflip_short_600ms.mp4	288.83782300126154	289.44615946742147	0.6083364661599262				
270.61669921875	0.2	554223	223	12	2	0	0	33	310	stimuli\Videos_short_600ms_vertflip\46.scratching_top_to_bottom_with_finger_nails_short_vertflip_short_600ms.mp4	46.scratching_top_to_bottom_with_finger_nails_short_vertflip_short_600ms.mp4	289.6377925625036	290.2461428111453	0.6083502486417274				
271.41650390625	0.2	555861	224	12	2	0	0	34	341	stimuli\Videos_short_600ms_vertflip\74.fingers_walking_from_top_to_bottom_short_vertflip_short_600ms.mp4	74.fingers_walking_from_top_to_bottom_short_vertflip_short_600ms.mp4	290.4378014184813	291.04611882376184	0.6083174052805589				
272.216796875	0.2	557500	225	12	2	0	0	35	208	stimuli\Videos_short_600ms_horvertflip\35.single_punch_with_hand_short_horvertflip_short_600ms.mp4	35.single_punch_with_hand_short_horvertflip_short_600ms.mp4	291.2377803635409	291.8460819336294	0.6083015700885426				
273.0166015625	0.2	559138	226	12	2	0	0	36	291	stimuli\Videos_short_600ms_vertflip\29.single_pinch_with_tweezers_short_vertflip_short_600ms.mp4	29.single_pinch_with_tweezers_short_vertflip_short_600ms.mp4	292.0377710383723	292.6460632246433	0.6082921862710009				
273.81640625	0.2	560776	227	12	2	0	0	37	107	stimuli\Videos_short_600ms_horflip\25.single_touch_with_stanley_knife_short_horflip_short_600ms.mp4	25.single_touch_with_stanley_knife_short_horflip_short_600ms.mp4	292.8377596604935	293.4460538994747	0.608294238981216				
274.61669921875	0.2	562415	228	12	2	0	0	38	320	stimuli\Videos_short_600ms_vertflip\55.touch_top_to_bottom_with_nail_file_short_vertflip_short_600ms.mp4	55.touch_top_to_bottom_with_nail_file_short_vertflip_short_600ms.mp4	293.6377318609341	294.2460246336939	0.6082927727597962				
275.41650390625	0.2	564053	229	12	2	0	0	39	194	stimuli\Videos_short_600ms_horvertflip\22.single_touch_with_metal_chopstick_short_horvertflip_short_600ms.mp4	22.single_touch_with_metal_chopstick_short_horvertflip_short_600ms.mp4	294.4377178438567	295.04603202345015	0.6083141795934353				
276.216796875	0.2	565692	230	12	2	0	0	40	141	stimuli\Videos_short_600ms_horflip\56.repeated_touch_with_nail_file_short_horflip_short_600ms.mp4	56.repeated_touch_with_nail_file_short_horflip_short_600ms.mp4	295.23769356322896	295.84600510362384	0.6083115403948796				
277.0166015625	0.2	567330	231	12	2	0	0	41	56	stimuli\Videos_short_600ms\60.single_push_with_tip_of_pencil_short_short_600ms.mp4	60.single_push_with_tip_of_pencil_short_short_600ms.mp4	296.0376760272202	296.64602539612906	0.6083493689088755				
277.81640625	0.2	568968	232	12	2	0	0	42	339	stimuli\Videos_short_600ms_vertflip\72.(short)stroke_with_finger_all_over_the_hand_short_vertflip_short_600ms.mp4	72.(short)stroke_with_finger_all_over_the_hand_short_vertflip_short_600ms.mp4	296.8376564385012	297.4460110858074	0.6083546473062142				
278.61669921875	0.2	570607	233	12	2	0	0	43	95	stimuli\Videos_short_600ms_horflip\14.repeated_touch_with_pencil_short_horflip_short_600ms.mp4	14.repeated_touch_with_pencil_short_horflip_short_600ms.mp4	297.6376371430265	298.2459733159419	0.6083361729154149				
279.41650390625	0.2	572245	234	12	2	0	0	44	358	stimuli\Videos_short_600ms_vertflip\9.single_touch_with_hammer_short_vertflip_short_600ms.mp4	9.single_touch_with_hammer_short_vertflip_short_600ms.mp4	298.437617261063	299.0459425839397	0.6083253228766807				
280.21630859375	0.2	573883	235	12	2	0	0	45	342	stimuli\Videos_short_600ms_vertflip\75.(long)stroke_with_fingers_all_over_the_hand_short_vertflip_short_600ms.mp4	75.(long)stroke_with_fingers_all_over_the_hand_short_vertflip_short_600ms.mp4	299.23760295074135	299.84592387495354	0.6083209242121939				
281.0166015625	0.2	575522	236	12	2	0	0	46	272	stimuli\Videos_short_600ms_vertflip\11.single_touch_with_lighter_short_vertflip_short_600ms.mp4	11.single_touch_with_lighter_short_vertflip_short_600ms.mp4	300.037586880954	300.6459054592117	0.6083185782576948				
281.81640625	0.2	577160	237	12	2	0	0	47	69	stimuli\Videos_short_600ms\72.(short)stroke_with_finger_all_over_the_hand_short_short_600ms.mp4	72.(short)stroke_with_finger_all_over_the_hand_short_short_600ms.mp4	300.8375590813946	301.4458855772484	0.6083264958538166				
282.6162109375	0.2	578798	238	12	2	0	0	48	12	stimuli\Videos_short_600ms\20.single_touch_with_screwdriver_short_short_600ms.mp4	20.single_touch_with_screwdriver_short_short_600ms.mp4	301.6375177925977	302.24586950746107	0.6083517148633746				
283.41650390625	0.2	580437	239	12	2	0	0	49	136	stimuli\Videos_short_600ms_horflip\51.repeated_touch_with_hammer_short_horflip_short_600ms.mp4	51.repeated_touch_with_hammer_short_horflip_short_600ms.mp4	302.43748148895384	303.0458475727876	0.6083660838337437				
284.21630859375	0.2	582075	240	12	2	0	0	50	159	stimuli\Videos_short_600ms_horflip\72.(short)stroke_with_finger_all_over_the_hand_short_horflip_short_600ms.mp4	72.(short)stroke_with_finger_all_over_the_hand_short_horflip_short_600ms.mp4	303.23748565302276	303.84582886380144	0.6083432107786848				
285.01611328125	0.2	583713	241	12	2	0	0	51	78	stimuli\Videos_short_600ms\80.stroke_with_sharp_stick_all_over_the_hand_short_short_600ms.mp4	80.stroke_with_sharp_stick_all_over_the_hand_short_short_600ms.mp4	304.0374390858285	304.64581338050266	0.6083742946741495				
285.81640625	0.2	585352	242	12	2	0	0	52	297	stimuli\Videos_short_600ms_vertflip\34.repeated_punch_with_hand_short_vertflip_short_600ms.mp4	34.repeated_punch_with_hand_short_vertflip_short_600ms.mp4	304.8374464755848	305.4457905660963	0.6083440905115367				
286.6162109375	0.2	586990	243	12	2	0	0	53	236	stimuli\Videos_short_600ms_horvertflip\60.single_push_with_tip_of_pencil_short_horvertflip_short_600ms.mp4	60.single_push_with_tip_of_pencil_short_horvertflip_short_600ms.mp4	305.63743539095026	306.2457753760418	0.6083399850915612				
287.416015625	0.2	588628	244	12	2	0	0	54	157	stimuli\Videos_short_600ms_horflip\70.(long)stroke_with_finger_all_over_the_hand_short_horflip_short_600ms.mp4	70.(long)stroke_with_finger_all_over_the_hand_short_horflip_short_600ms.mp4	306.43743222391186	307.0457502156812	0.6083179917693542				
288.21630859375	0.2	590267	245	12	2	0	0	55	152	stimuli\Videos_short_600ms_horflip\66.stroke_top_to_bottom_with_sponge_short_horflip_short_600ms.mp4	66.stroke_top_to_bottom_with_sponge_short_horflip_short_600ms.mp4	307.2374220190104	307.8456983700896	0.608276351079212				
289.01611328125	0.2	591905	246	12	2	0	0	56	327	stimuli\Videos_short_600ms_vertflip\61.single_hit_with_rolling_pin_short_vertflip_short_600ms.mp4	61.single_hit_with_rolling_pin_short_vertflip_short_600ms.mp4	308.03739187349674	308.64567203675165	0.6082801632549035				
289.81591796875	0.2	593543	247	12	2	0	0	57	92	stimuli\Videos_short_600ms_horflip\11.single_touch_with_lighter_short_horflip_short_600ms.mp4	11.single_touch_with_lighter_short_horflip_short_600ms.mp4	308.8373857740153	309.44566916295753	0.6082833889422545				
290.6162109375	0.2	595182	248	12	2	0	0	58	74	stimuli\Videos_short_600ms\77.tapping_with_all_fingers_short_short_600ms.mp4	77.tapping_with_all_fingers_short_short_600ms.mp4	309.637356801479	310.2456281674049	0.6082713659259298				
291.416015625	0.2	596820	249	12	2	0	0	59	139	stimuli\Videos_short_600ms_horflip\54.repeated_touch_with_knife_short_horflip_short_600ms.mp4	54.repeated_touch_with_knife_short_horflip_short_600ms.mp4	310.43733779924855	311.04561385708325	0.6082760578347006				
292.2158203125	0.2	598458	250	12	2	0	0	60	351	stimuli\Videos_short_600ms_vertflip\83.single_stroke_top_to_bottom_with_cotton_bud_short_vertflip_short_600ms.mp4	83.single_stroke_top_to_bottom_with_cotton_bud_short_vertflip_short_600ms.mp4	311.2373226091938	311.84559690756305	0.6082742983692242				
293.01611328125	0.2	600097	251	12	2	0	0	61	77	stimuli\Videos_short_600ms\8.single_touch_with_hairbrush_short_short_600ms.mp4	8.single_touch_with_hairbrush_short_short_600ms.mp4	312.0373003812763	312.64555913769755	0.6082587564212645				
293.81591796875	0.2	601735	252	12	2	0	0	62	214	stimuli\Videos_short_600ms_horvertflip\40.repeated_push_with_finger_short_horvertflip_short_600ms.mp4	40.repeated_push_with_finger_short_horvertflip_short_600ms.mp4	312.83728783042034	313.4455328043598	0.6082449739394633				
294.6162109375	0.2	603374	253	12	2	0	0	63	213	stimuli\Videos_short_600ms_horvertflip\4.repeated_tap_with_finger_slow_short_horvertflip_short_600ms.mp4	4.repeated_tap_with_finger_slow_short_horvertflip_short_600ms.mp4	313.63726677547993	314.24551790754936	0.6082511320694266				
295.416015625	0.2	605012	254	12	2	0	0	64	293	stimuli\Videos_short_600ms_vertflip\30.finger_pulling_back_another_finger_short_vertflip_short_600ms.mp4	30.finger_pulling_back_another_finger_short_vertflip_short_600ms.mp4	314.43724718676094	315.04548834852426	0.608241161763317				
296.2158203125	0.2	606650	255	12	2	0	0	65	112	stimuli\Videos_short_600ms_horflip\3.single_push_with_finger_short_horflip_short_600ms.mp4	3.single_push_with_finger_short_horflip_short_600ms.mp4	315.23722730479744	315.8454898733946	0.6082625685971834				
297.01611328125	0.2	608289	256	12	2	0	0	66	335	stimuli\Videos_short_600ms_vertflip\69.stroke_with_soft_sock_short_vertflip_short_600ms.mp4	69.stroke_with_soft_sock_short_vertflip_short_600ms.mp4	316.03721622016315	316.64547233738585	0.6082561172227088				
297.81591796875	0.2	609927	257	12	2	0	0	67	270	stimuli\Videos_short_600ms_vertflip\1.repeated_touch_with_finger_fast_short_vertflip_short_600ms.mp4	1.repeated_touch_with_finger_fast_short_vertflip_short_600ms.mp4	316.8371898868254	317.4454542148883	0.6082643280628872				
298.61572265625	0.2	611565	258	12	2	0	0	68	248	stimuli\Videos_short_600ms_horvertflip\71.single_stroke_with_finger_top_to_bottom_short_horvertflip_short_600ms.mp4	71.single_stroke_with_finger_top_to_bottom_short_horvertflip_short_600ms.mp4	317.63713686825645	318.24543403968073	0.6082971714242831				
299.416015625	0.2	613204	259	12	2	0	0	69	30	stimuli\Videos_short_600ms\37.single_stab_with_nail_file_short_short_600ms.mp4	37.single_stab_with_nail_file_short_short_600ms.mp4	318.43712578362215	319.04541621042745	0.6082904268052971				
300.2158203125	0.2	614842	260	12	2	0	0	70	64	stimuli\Videos_short_600ms\68.stroke_top_to_bottom_with_shawl_short_short_600ms.mp4	68.stroke_top_to_bottom_with_shawl_short_short_600ms.mp4	319.2370865475352	319.84539896766273	0.6083124201275041				
301.015625	0.2	616480	261	12	2	0	0	71	308	stimuli\Videos_short_600ms_vertflip\44.pushing_top_to_bottom_with_finger_short_vertflip_short_600ms.mp4	44.pushing_top_to_bottom_with_finger_short_vertflip_short_600ms.mp4	320.03709041835987	320.6453784992109	0.6082880808510254				
301.81591796875	0.2	618119	262	12	2	0	0	72	70	stimuli\Videos_short_600ms\73.single_stroke_with_flat_hand_short_short_600ms.mp4	73.single_stroke_with_flat_hand_short_short_600ms.mp4	320.83716642728155	321.4453592037362	0.6081927764546435				
302.61572265625	0.2	619757	263	12	2	0	0	73	203	stimuli\Videos_short_600ms_horvertflip\30.finger_pulling_back_another_finger_short_horvertflip_short_600ms.mp4	30.finger_pulling_back_another_finger_short_horvertflip_short_600ms.mp4	321.6370597450066	322.2453308176882	0.6082710726816458				
303.41552734375	0.2	621395	264	12	2	0	0	74	282	stimuli\Videos_short_600ms_vertflip\20.single_touch_with_screwdriver_short_vertflip_short_600ms.mp4	20.single_touch_with_screwdriver_short_vertflip_short_600ms.mp4	322.4370659617855	323.04530272488455	0.6082367630990575				
304.2158203125	0.2	623034	265	12	2	0	0	75	181	stimuli\Videos_short_600ms_horvertflip\10.single_touch_with_knife_short_horvertflip_short_600ms.mp4	10.single_touch_with_knife_short_horvertflip_short_600ms.mp4	323.2370390419592	323.84528401589864	0.6082449739394633				
305.015625	0.2	624672	266	12	2	0	0	76	71	stimuli\Videos_short_600ms\74.fingers_walking_from_top_to_bottom_short_short_600ms.mp4	74.fingers_walking_from_top_to_bottom_short_short_600ms.mp4	324.0370232654159	324.6452650136682	0.6082417482523397				
305.8154296875	0.2	626310	267	12	2	0	0	77	7	stimuli\Videos_short_600ms\16.repeated_touch_with_plastic_brush_short_short_600ms.mp4	16.repeated_touch_with_plastic_brush_short_short_600ms.mp4	324.83698461581776	325.44525510201083	0.6082704861930779				
306.61572265625	0.2	627949	268	12	2	0	0	78	80	stimuli\Videos_short_600ms\82.repeated_touch_with_cotton_bud_short_short_600ms.mp4	82.repeated_touch_with_cotton_bud_short_short_600ms.mp4	325.6369808622908	326.2452428443994	0.6082619821086155				
307.41552734375	0.2	629587	269	12	2	0	0	79	338	stimuli\Videos_short_600ms_vertflip\71.single_stroke_with_finger_top_to_bottom_short_vertflip_short_600ms.mp4	71.single_stroke_with_finger_top_to_bottom_short_vertflip_short_600ms.mp4	326.4369627397932	327.0454091725644	0.6084464327711885				
308.21533203125	0.2	631225	270	12	2	0	0	80	249	stimuli\Videos_short_600ms_horvertflip\72.(short)stroke_with_finger_all_over_the_hand_short_horvertflip_short_600ms.mp4	72.(short)stroke_with_finger_all_over_the_hand_short_horvertflip_short_600ms.mp4	327.23694842947157	327.8452092386028	0.6082608091312522				
309.015625	0.2	632864	271	12	2	0	0	81	222	stimuli\Videos_short_600ms_horvertflip\48.single_slap_with_hand_short_horvertflip_short_600ms.mp4	48.single_slap_with_hand_short_horvertflip_short_600ms.mp4	328.0369238555995	328.64520167290016	0.6082778173006318				
309.8154296875	0.2	634502	272	12	2	0	0	82	190	stimuli\Videos_short_600ms_horvertflip\19.single_touch_with_rolling_pin_short_horvertflip_short_600ms.mp4	19.single_touch_with_rolling_pin_short_horvertflip_short_600ms.mp4	328.8369063195905	329.44517240711934	0.6082660875288184				
310.615234375	0.2	636140	273	12	2	0	0	83	128	stimuli\Videos_short_600ms_horflip\44.pushing_top_to_bottom_with_finger_short_horflip_short_600ms.mp4	44.pushing_top_to_bottom_with_finger_short_horflip_short_600ms.mp4	329.63688849033724	330.24515311164464	0.6082646213073986				
311.41552734375	0.2	637779	274	12	2	0	0	84	113	stimuli\Videos_short_600ms_horflip\30.finger_pulling_back_another_finger_short_horflip_short_600ms.mp4	30.finger_pulling_back_another_finger_short_horflip_short_600ms.mp4	330.4368759394815	331.0451361621242	0.6082602226426843				
312.21533203125	0.2	639417	275	12	2	0	0	85	273	stimuli\Videos_short_600ms_vertflip\12.repeated_touch_with_nail_file_short_vertflip_short_600ms.mp4	12.repeated_touch_with_nail_file_short_vertflip_short_600ms.mp4	331.23684931289927	331.84511628016094	0.6082669672616703				
313.015625	0.2	641056	276	12	2	0	1	86	381	stimuli\Targets_short_600ms_vertflip\finger-tap_short_horvertflip_short_600ms.mp4	finger-tap_short_horvertflip_short_600ms.mp4	332.0368291376917	332.6450961049534	0.6082669672616703				
313.8154296875	0.2	642694	277	12	2	0	0	87	260	stimuli\Videos_short_600ms_horvertflip\82.repeated_touch_with_cotton_bud_short_horvertflip_short_600ms.mp4	82.repeated_touch_with_cotton_bud_short_horvertflip_short_600ms.mp4	332.8367740664128	333.4450768094787	0.6083027430659058				
314.615234375	0.2	644332	278	12	2	0	0	88	325	stimuli\Videos_short_600ms_vertflip\6.single_touch_with_flat_hand_short_vertflip_short_600ms.mp4	6.single_touch_with_flat_hand_short_vertflip_short_600ms.mp4	333.6368307212108	334.24506015320253	0.608229431991731				
315.41552734375	0.2	645971	279	12	2	0	0	89	353	stimuli\Videos_short_600ms_vertflip\85.touch_top_to_bottom_with_fabric_short_vertflip_short_600ms.mp4	85.touch_top_to_bottom_with_fabric_short_vertflip_short_600ms.mp4	334.43677652966494	335.0450455496366	0.608269019971658				
316.21533203125	0.2	647609	280	12	2	0	0	90	41	stimuli\Videos_short_600ms\47.(long)scratching_with_finger_nails_short_short_600ms.mp4	47.(long)scratching_with_finger_nails_short_short_600ms.mp4	335.23671060834704	335.84503153255923	0.6083209242121939				
317.01513671875	0.2	649247	281	12	2	0	0	91	21	stimuli\Videos_short_600ms\29.single_pinch_with_tweezers_short_short_600ms.mp4	29.single_pinch_with_tweezers_short_short_600ms.mp4	336.0367223967678	336.6450204479247	0.6082980511569076	2.0	2.0	1.646086390942628	1.0
349.7724609375	0.2	716334	282	12	3	0	0	0	2	stimuli\Videos_short_600ms\11.single_touch_with_lighter_short_short_600ms.mp4	11.single_touch_with_lighter_short_short_600ms.mp4	368.7943460153672	369.4026138623617	0.6082678469945222				
350.57275390625	0.2	717973	283	12	3	0	0	1	337	stimuli\Videos_short_600ms_vertflip\70.(long)stroke_with_finger_all_over_the_hand_short_vertflip_short_600ms.mp4	70.(long)stroke_with_finger_all_over_the_hand_short_vertflip_short_600ms.mp4	369.5942542885512	370.2025992587958	0.608344970244616				
351.37255859375	0.2	719611	284	12	3	0	0	2	267	stimuli\Videos_short_600ms_horvertflip\89.single_touch_with_plastic_brush_short_horvertflip_short_600ms.mp4	89.single_touch_with_plastic_brush_short_horvertflip_short_600ms.mp4	370.3942382187638	371.0025787903437	0.6083405715799017				
352.17236328125	0.2	721249	285	12	3	0	0	3	125	stimuli\Videos_short_600ms_horflip\41.injection_with_blunt_syringe_short_horflip_short_600ms.mp4	41.injection_with_blunt_syringe_short_horflip_short_600ms.mp4	371.1942171638232	371.802557442159	0.6083402783358451				
352.97265625	0.2	722888	286	12	3	0	0	4	102	stimuli\Videos_short_600ms_horflip\20.single_touch_with_screwdriver_short_horflip_short_600ms.mp4	20.single_touch_with_screwdriver_short_horflip_short_600ms.mp4	371.9942116508305	372.60254313183736	0.6083314810068714				
353.7724609375	0.2	724526	287	12	3	0	0	5	156	stimuli\Videos_short_600ms_horflip\7.repeated_touch_with_hairbrush_short_horflip_short_600ms.mp4	7.repeated_touch_with_hairbrush_short_horflip_short_600ms.mp4	372.7942037918833	373.40250360250616	0.6082998106228388				
354.572265625	0.2	726164	288	12	3	0	0	6	195	stimuli\Videos_short_600ms_horvertflip\23.single_push_with_a_spoon_short_horvertflip_short_600ms.mp4	23.single_push_with_a_spoon_short_horvertflip_short_600ms.mp4	373.5943185090521	374.2025215490571	0.6082030400050371				
355.37255859375	0.2	727803	289	12	3	0	0	7	330	stimuli\Videos_short_600ms_vertflip\64.repeated_touch_with_screwdriver_short_vertflip_short_600ms.mp4	64.repeated_touch_with_screwdriver_short_vertflip_short_600ms.mp4	374.3941649076896	375.0024579736937	0.6082930660040802				
356.17236328125	0.2	729441	290	12	3	0	0	8	206	stimuli\Videos_short_600ms_horvertflip\33.scratch_top_to_bottom_with_scissors_short_horvertflip_short_600ms.mp4	33.scratch_top_to_bottom_with_scissors_short_horvertflip_short_600ms.mp4	375.1941482514135	375.8024521674565	0.6083039160430417				
356.97216796875	0.2	731079	291	12	3	0	0	9	197	stimuli\Videos_short_600ms_horvertflip\25.single_touch_with_stanley_knife_short_horvertflip_short_600ms.mp4	25.single_touch_with_stanley_knife_short_horvertflip_short_600ms.mp4	375.9941248505188	376.6024273003402	0.6083024498213945				
357.7724609375	0.2	732718	292	12	3	0	0	10	317	stimuli\Videos_short_600ms_vertflip\52.touch_top_to_bottom_with_hammer_short_vertflip_short_600ms.mp4	52.touch_top_to_bottom_with_hammer_short_vertflip_short_600ms.mp4	376.79411024695264	377.40241269677426	0.6083024498216218				
358.572265625	0.2	734356	293	12	3	0	0	11	103	stimuli\Videos_short_600ms_horflip\21.repeated_touch_with_metal_chopstick_short_horflip_short_600ms.mp4	21.repeated_touch_with_metal_chopstick_short_horflip_short_600ms.mp4	377.59408860552367	378.2024007324069	0.6083121268832201				
359.3720703125	0.2	735994	294	12	3	0	0	12	355	stimuli\Videos_short_600ms_vertflip\87.single_stroke_top_to_bottom_with_plastic_brush_short_vertflip_short_600ms.mp4	87.single_stroke_top_to_bottom_with_plastic_brush_short_vertflip_short_600ms.mp4	378.3940704830261	379.0023946329256	0.6083241498995449				
360.17236328125	0.2	737633	295	12	3	0	0	13	259	stimuli\Videos_short_600ms_horvertflip\81.single_stroke_top_to_bottom_with_cotton_pad_short_horvertflip_short_600ms.mp4	81.single_stroke_top_to_bottom_with_cotton_pad_short_horvertflip_short_600ms.mp4	379.1940514807957	379.8023685928319	0.6083171120362749				
360.97216796875	0.2	739271	296	12	3	0	0	14	23	stimuli\Videos_short_600ms\30.finger_pulling_back_another_finger_short_short_600ms.mp4	30.finger_pulling_back_another_finger_short_short_600ms.mp4	379.994032185321	380.6023610271293	0.6083288418083157				
361.77197265625	0.2	740909	297	12	3	0	0	15	275	stimuli\Videos_short_600ms_vertflip\14.repeated_touch_with_pencil_short_vertflip_short_600ms.mp4	14.repeated_touch_with_pencil_short_vertflip_short_600ms.mp4	380.7940134763349	381.4023335208142	0.608320044479342				
362.572265625	0.2	742548	298	12	3	0	0	16	57	stimuli\Videos_short_600ms\61.single_hit_with_rolling_pin_short_short_600ms.mp4	61.single_hit_with_rolling_pin_short_short_600ms.mp4	381.593990955173	382.2023112928964	0.6083203377233986				
363.3720703125	0.2	744186	299	12	3	0	0	17	228	stimuli\Videos_short_600ms_horvertflip\53.touch_top_to_bottom_with_knife_short_horvertflip_short_600ms.mp4	53.touch_top_to_bottom_with_knife_short_horvertflip_short_600ms.mp4	382.39397840431707	383.002292290666	0.6083138863489239				
364.171875	0.2	745824	300	12	3	0	0	18	25	stimuli\Videos_short_600ms\32.single_(long)pinch_with_fingers_short_short_600ms.mp4	32.single_(long)pinch_with_fingers_short_short_600ms.mp4	383.19395969533093	383.8022729951913	0.608313299860356				
364.97216796875	0.2	747463	301	12	3	0	0	19	28	stimuli\Videos_short_600ms\35.single_punch_with_hand_short_short_600ms.mp4	35.single_punch_with_hand_short_short_600ms.mp4	383.99389318752446	384.60225399296087	0.6083608054364049				
365.77197265625	0.2	749101	302	12	3	0	0	20	177	stimuli\Videos_short_600ms_horflip\89.single_touch_with_plastic_brush_short_horflip_short_600ms.mp4	89.single_touch_with_plastic_brush_short_horflip_short_600ms.mp4	384.7938744785383	385.4022367501964	0.6083622716580521				
366.57177734375	0.2	750739	303	12	3	0	1	21	369	stimuli\Targets_short_600ms_horflip\finger-tap_short_horflip_short_600ms.mp4	finger-tap_short_horflip_short_600ms.mp4	385.59385459657506	386.2022174547217	0.6083628581466201				
367.3720703125	0.2	752378	304	12	3	0	0	22	174	stimuli\Videos_short_600ms_horflip\86.touch_top_to_bottom_with_hair_brush_short_horflip_short_600ms.mp4	86.touch_top_to_bottom_with_hair_brush_short_horflip_short_600ms.mp4	386.393842925452	387.00219874573554	0.6083558202835775				
368.171875	0.2	754016	305	12	3	0	0	23	356	stimuli\Videos_short_600ms_vertflip\88.repeated_stroke_with_plastic_brush_short_vertflip_short_600ms.mp4	88.repeated_stroke_with_plastic_brush_short_vertflip_short_600ms.mp4	387.1938494354754	387.8021800367494	0.6083306012740195				
368.97216796875	0.2	755655	306	12	3	0	1	24	373	stimuli\Targets_short_600ms_horvertflip\chopstick-silver-tap_short_vertflip_short_600ms.mp4	chopstick-silver-tap_short_vertflip_short_600ms.mp4	387.9938339521766	388.60215223719	0.6083182850134108				
369.77197265625	0.2	757293	307	12	3	0	0	25	348	stimuli\Videos_short_600ms_vertflip\80.stroke_with_sharp_stick_all_over_the_hand_short_vertflip_short_600ms.mp4	80.stroke_with_sharp_stick_all_over_the_hand_short_vertflip_short_600ms.mp4	388.7938237472749	389.4021285430508	0.6083047957758936				
370.57177734375	0.2	758931	308	12	3	0	0	26	286	stimuli\Videos_short_600ms_vertflip\24.single_stroke_top_to_bottom_with_a_spoon_short_vertflip_short_600ms.mp4	24.single_stroke_top_to_bottom_with_a_spoon_short_vertflip_short_600ms.mp4	389.5938076774876	390.20210455566735	0.6082968781797717				
371.3720703125	0.2	760570	309	12	3	0	0	27	105	stimuli\Videos_short_600ms_horflip\23.single_push_with_a_spoon_short_horflip_short_600ms.mp4	23.single_push_with_a_spoon_short_horflip_short_600ms.mp4	390.39378691579145	391.00205974793903	0.608272832147577				
372.171875	0.2	762208	310	12	3	0	0	28	22	stimuli\Videos_short_600ms\3.single_push_with_finger_short_short_600ms.mp4	3.single_push_with_finger_short_short_600ms.mp4	391.1937676203167	391.80206596471794	0.6082983444011916				
372.9716796875	0.2	763846	311	12	3	0	0	29	323	stimuli\Videos_short_600ms_vertflip\58.single_slap_with_pencil_short_vertflip_short_600ms.mp4	58.single_slap_with_pencil_short_vertflip_short_600ms.mp4	391.9937468586204	392.602049308442	0.6083024498216218				
373.77197265625	0.2	765485	312	12	3	0	0	30	193	stimuli\Videos_short_600ms_horvertflip\21.repeated_touch_with_metal_chopstick_short_horvertflip_short_600ms.mp4	21.repeated_touch_with_metal_chopstick_short_horvertflip_short_600ms.mp4	392.7937260969243	393.40204995357954	0.6083238566552609				
374.57177734375	0.2	767123	313	12	3	0	0	31	97	stimuli\Videos_short_600ms_horflip\16.repeated_touch_with_plastic_brush_short_horflip_short_600ms.mp4	16.repeated_touch_with_plastic_brush_short_horflip_short_600ms.mp4	393.5937117866026	394.20203974867786	0.6083279620752364				
375.37158203125	0.2	768761	314	12	3	0	1	32	374	stimuli\Targets_short_600ms_horvertflip\chopstickwood-tap_short_vertflip_short_600ms.mp4	chopstickwood-tap_short_vertflip_short_600ms.mp4	394.3936751897145	395.0020093099199	0.6083341202054271				
376.171875	0.2	770400	315	12	3	0	0	33	126	stimuli\Videos_short_600ms_horflip\42.single_slap_with_plastic_whisk_short_horflip_short_600ms.mp4	42.single_slap_with_plastic_whisk_short_horflip_short_600ms.mp4	395.1936717294318	395.8019944131097	0.6083226836778977				
376.9716796875	0.2	772038	316	12	3	0	0	34	221	stimuli\Videos_short_600ms_horvertflip\47.(long)scratching_with_finger_nails_short_horvertflip_short_600ms.mp4	47.(long)scratching_with_finger_nails_short_horvertflip_short_600ms.mp4	395.9936497947583	396.60197335816906	0.6083235634107496				
377.771484375	0.2	773676	317	12	3	0	0	35	89	stimuli\Videos_short_600ms\90.repeated_touch_with_sponge_short_short_600ms.mp4	90.repeated_touch_with_sponge_short_short_600ms.mp4	396.7936340182152	397.4019508370072	0.608316818791991				
378.57177734375	0.2	775315	318	12	3	0	0	36	326	stimuli\Videos_short_600ms_vertflip\60.single_push_with_tip_of_pencil_short_vertflip_short_600ms.mp4	60.single_push_with_tip_of_pencil_short_vertflip_short_600ms.mp4	397.59361648220624	398.2019335942425	0.6083171120362749				
379.37158203125	0.2	776953	319	12	3	0	0	37	201	stimuli\Videos_short_600ms_horvertflip\29.single_pinch_with_tweezers_short_horvertflip_short_600ms.mp4	29.single_pinch_with_tweezers_short_horvertflip_short_600ms.mp4	398.3935939610442	399.00191400552353	0.608320044479342				
380.17138671875	0.2	778591	320	12	3	0	0	38	251	stimuli\Videos_short_600ms_horvertflip\74.fingers_walking_from_top_to_bottom_short_horvertflip_short_600ms.mp4	74.fingers_walking_from_top_to_bottom_short_horvertflip_short_600ms.mp4	399.1935884480515	399.8018947100488	0.6083062619973134				
380.9716796875	0.2	780230	321	12	3	0	0	39	9	stimuli\Videos_short_600ms\18.single_stroke_from_top_to_bottom_with_rolling_pin_short_short_600ms.mp4	18.single_stroke_from_top_to_bottom_with_rolling_pin_short_short_600ms.mp4	399.9935371889485	400.6018754145741	0.60833822562563				
381.771484375	0.2	781868	322	12	3	0	0	40	52	stimuli\Videos_short_600ms\57.single_touch_with_nail_file_short_short_600ms.mp4	57.single_touch_with_nail_file_short_short_600ms.mp4	400.7935173069852	401.40185905154226	0.6083417445570376				
382.5712890625	0.2	783506	323	12	3	0	0	41	313	stimuli\Videos_short_600ms_vertflip\49.repeated_slap_with_hand_short_vertflip_short_600ms.mp4	49.repeated_slap_with_hand_short_vertflip_short_600ms.mp4	401.59349889124337	402.2018374101133	0.608338518869914				
383.37158203125	0.2	785145	324	12	3	0	0	42	72	stimuli\Videos_short_600ms\75.(long)stroke_with_fingers_all_over_the_hand_short_short_600ms.mp4	75.(long)stroke_with_fingers_all_over_the_hand_short_short_600ms.mp4	402.3934936714947	403.0018230997917	0.6083294282968836				
384.17138671875	0.2	786783	325	12	3	0	0	43	318	stimuli\Videos_short_600ms_vertflip\53.touch_top_to_bottom_with_knife_short_vertflip_short_600ms.mp4	53.touch_top_to_bottom_with_knife_short_vertflip_short_600ms.mp4	403.1934629394925	403.80177565286454	0.6083127133720154				
384.9716796875	0.2	788422	326	12	3	0	0	44	83	stimuli\Videos_short_600ms\85.touch_top_to_bottom_with_fabric_short_short_600ms.mp4	85.touch_top_to_bottom_with_fabric_short_short_600ms.mp4	403.99346769005024	404.6017915467053	0.6083238566550335				
385.771484375	0.2	790060	327	12	3	0	0	45	287	stimuli\Videos_short_600ms_vertflip\25.single_touch_with_stanley_knife_short_vertflip_short_600ms.mp4	25.single_touch_with_stanley_knife_short_vertflip_short_600ms.mp4	404.79344986079695	405.40173823489226	0.6082883740953093				
386.5712890625	0.2	791698	328	12	3	0	0	46	158	stimuli\Videos_short_600ms_horflip\71.single_stroke_with_finger_top_to_bottom_short_horflip_short_600ms.mp4	71.single_stroke_with_finger_top_to_bottom_short_horflip_short_600ms.mp4	405.5934293923451	406.2016998785382	0.6082704861930779				
387.37158203125	0.2	793337	329	12	3	0	0	47	50	stimuli\Videos_short_600ms\55.touch_top_to_bottom_with_nail_file_short_short_600ms.mp4	55.touch_top_to_bottom_with_nail_file_short_short_600ms.mp4	406.39340716442734	407.00170198989713	0.608294825469784				
388.17138671875	0.2	794975	330	12	3	0	0	48	217	stimuli\Videos_short_600ms_horvertflip\43.touch_top_to_bottom_with_sharp_wooden_stick_short_horvertflip_short_600ms.mp4	43.touch_top_to_bottom_with_sharp_wooden_stick_short_horvertflip_short_600ms.mp4	407.1933869892198	407.8016853336212	0.6082983444014189				
388.97119140625	0.2	796613	331	12	3	0	0	49	122	stimuli\Videos_short_600ms_horflip\39.single_stab_with_scissors_short_horflip_short_600ms.mp4	39.single_stab_with_scissors_short_horflip_short_600ms.mp4	407.9933703329437	408.6016677976122	0.608297464668567				
389.771484375	0.2	798252	332	12	3	0	0	50	216	stimuli\Videos_short_600ms_horvertflip\42.single_slap_with_plastic_whisk_short_horvertflip_short_600ms.mp4	42.single_slap_with_plastic_whisk_short_horvertflip_short_600ms.mp4	408.79335074422465	409.4016743076356	0.6083235634109769				
390.5712890625	0.2	799890	333	12	3	0	0	51	347	stimuli\Videos_short_600ms_vertflip\8.single_touch_with_hairbrush_short_vertflip_short_600ms.mp4	8.single_touch_with_hairbrush_short_vertflip_short_600ms.mp4	409.5933299825286	410.201649147275	0.6083191647464901				
391.37109375	0.2	801528	334	12	3	0	0	52	271	stimuli\Videos_short_600ms_vertflip\10.single_touch_with_knife_short_vertflip_short_600ms.mp4	10.single_touch_with_knife_short_vertflip_short_600ms.mp4	410.3933153789626	411.0016298518001	0.6083144728374918				
392.17138671875	0.2	803167	335	12	3	0	0	53	179	stimuli\Videos_short_600ms_horflip\90.repeated_touch_with_sponge_short_horflip_short_600ms.mp4	90.repeated_touch_with_sponge_short_horflip_short_600ms.mp4	411.1933013618852	411.8016105563254	0.6083091944401531				
392.97119140625	0.2	804805	336	12	3	0	0	54	39	stimuli\Videos_short_600ms\45.scratching_with_finger_nails_short_short_600ms.mp4	45.scratching_with_finger_nails_short_short_600ms.mp4	411.9932706298828	412.6015906743621	0.608320044479342				
393.77099609375	0.2	806443	337	12	3	0	1	55	360	stimuli\Targets_short_600ms\brush-stroke_short_short_600ms.mp4	brush-stroke_short_short_600ms.mp4	412.7932545600954	413.40157225862026	0.6083176985248429				
394.5712890625	0.2	808082	338	12	3	0	0	56	45	stimuli\Videos_short_600ms\50.single_(long)hard_push_with_thumb_short_short_600ms.mp4	50.single_(long)hard_push_with_thumb_short_short_600ms.mp4	413.59323467813215	414.2015517901684	0.6083171120362749				
395.37109375	0.2	809720	339	12	3	0	0	57	15	stimuli\Videos_short_600ms\23.single_push_with_a_spoon_short_short_600ms.mp4	23.single_push_with_a_spoon_short_short_600ms.mp4	414.3931799000975	415.0015345474037	0.6083546473062142				
396.1708984375	0.2	811358	340	12	3	0	0	58	24	stimuli\Videos_short_600ms\31.hand_grabbing_wrist_short_short_600ms.mp4	31.hand_grabbing_wrist_short_short_600ms.mp4	415.1931802519907	415.8015164249064	0.6083361729156422				
396.97119140625	0.2	812997	341	12	3	0	0	59	40	stimuli\Videos_short_600ms\46.scratching_top_to_bottom_with_finger_nails_short_short_600ms.mp4	46.scratching_top_to_bottom_with_finger_nails_short_short_600ms.mp4	415.9931333915522	416.6014983024088	0.6083649108566078				
397.77099609375	0.2	814635	342	12	3	0	0	60	14	stimuli\Videos_short_600ms\22.single_touch_with_metal_chopstick_short_short_600ms.mp4	22.single_touch_with_metal_chopstick_short_short_600ms.mp4	416.7931396083311	417.4014784204455	0.6083388121144253				
398.57080078125	0.2	816273	343	12	3	0	0	61	276	stimuli\Videos_short_600ms_vertflip\15.single_stroke_top_to_bottom_with_a_plastic_whisk_short_vertflip_short_600ms.mp4	15.single_stroke_top_to_bottom_with_a_plastic_whisk_short_vertflip_short_600ms.mp4	417.5931170871693	418.2014591249708	0.6083420378015489				
399.37109375	0.2	817912	344	12	3	0	0	62	345	stimuli\Videos_short_600ms_vertflip\78.single_stroke_top_to_bottom_with_soft_brush_short_vertflip_short_600ms.mp4	78.single_stroke_top_to_bottom_with_soft_brush_short_vertflip_short_600ms.mp4	418.3931095214664	419.0014418822061	0.6083323607397233				
400.1708984375	0.2	819550	345	12	3	0	0	63	243	stimuli\Videos_short_600ms_horvertflip\67.single_touch_with_sponge_short_horvertflip_short_600ms.mp4	67.single_touch_with_sponge_short_horvertflip_short_600ms.mp4	419.19310254225206	419.8014284516173	0.6083259093652487				
400.970703125	0.2	821188	346	12	3	0	0	64	304	stimuli\Videos_short_600ms_vertflip\40.repeated_push_with_finger_short_vertflip_short_600ms.mp4	40.repeated_push_with_finger_short_vertflip_short_600ms.mp4	419.993088818419	420.6013783654914	0.6082895470724452				
401.77099609375	0.2	822827	347	12	3	0	0	65	328	stimuli\Videos_short_600ms_vertflip\62.touch_top_to_bottom_with_scissors_short_vertflip_short_600ms.mp4	62.touch_top_to_bottom_with_scissors_short_vertflip_short_600ms.mp4	420.7930624850813	421.4013191887925	0.6082567037112767				
402.57080078125	0.2	824465	348	12	3	0	0	66	137	stimuli\Videos_short_600ms_horflip\52.touch_top_to_bottom_with_hammer_short_horflip_short_600ms.mp4	52.touch_top_to_bottom_with_hammer_short_horflip_short_600ms.mp4	421.5929992029619	422.2012808324384	0.6082816294765507				
403.37109375	0.2	826104	349	12	3	0	0	67	96	stimuli\Videos_short_600ms_horflip\15.single_stroke_top_to_bottom_with_a_plastic_whisk_short_horflip_short_600ms.mp4	15.single_stroke_top_to_bottom_with_a_plastic_whisk_short_horflip_short_600ms.mp4	422.39302506710897	423.0013281034192	0.6083030363101898				
404.1708984375	0.2	827742	350	12	3	0	0	68	82	stimuli\Videos_short_600ms\84.single_touch_with_cotton_bud_short_short_600ms.mp4	84.single_touch_with_cotton_bud_short_short_600ms.mp4	423.1930107567873	423.80131496607464	0.6083042092873256				
404.970703125	0.2	829380	351	12	3	0	0	69	131	stimuli\Videos_short_600ms_horflip\47.(long)scratching_with_finger_nails_short_horflip_short_600ms.mp4	47.(long)scratching_with_finger_nails_short_horflip_short_600ms.mp4	423.9929873558924	424.60131179903624	0.6083244431438288				
405.77099609375	0.2	831019	352	12	3	0	0	70	65	stimuli\Videos_short_600ms\69.stroke_with_soft_sock_short_short_600ms.mp4	69.stroke_with_soft_sock_short_short_600ms.mp4	424.79296894015056	425.4012933832944	0.6083244431438288				
406.57080078125	0.2	832657	353	12	3	0	0	71	319	stimuli\Videos_short_600ms_vertflip\54.repeated_touch_with_knife_short_vertflip_short_600ms.mp4	54.repeated_touch_with_knife_short_vertflip_short_600ms.mp4	425.5929534568518	426.2012699823995	0.608316525547707				
407.37060546875	0.2	834295	354	12	3	0	0	72	264	stimuli\Videos_short_600ms_horvertflip\86.touch_top_to_bottom_with_hair_brush_short_horvertflip_short_600ms.mp4	86.touch_top_to_bottom_with_hair_brush_short_horvertflip_short_600ms.mp4	426.3929288829798	427.0012506869248	0.6083218039450458				
408.1708984375	0.2	835934	355	12	3	0	0	73	132	stimuli\Videos_short_600ms_horflip\48.single_slap_with_hand_short_horflip_short_600ms.mp4	48.single_slap_with_hand_short_horflip_short_600ms.mp4	427.19291926456685	427.8012310982058	0.6083118336389362				
408.970703125	0.2	837572	356	12	3	0	0	74	53	stimuli\Videos_short_600ms\58.single_slap_with_pencil_short_short_600ms.mp4	58.single_slap_with_pencil_short_short_600ms.mp4	427.99289146500746	428.6012106297539	0.6083191647464901				
409.7705078125	0.2	839210	357	12	3	0	0	75	280	stimuli\Videos_short_600ms_vertflip\19.single_touch_with_rolling_pin_short_vertflip_short_600ms.mp4	19.single_touch_with_rolling_pin_short_vertflip_short_600ms.mp4	428.7928736357542	429.4011907477905	0.6083171120362749				
410.57080078125	0.2	840849	358	12	3	0	0	76	54	stimuli\Videos_short_600ms\59.single_push_with_long_side_pencil_short_short_600ms.mp4	59.single_push_with_long_side_pencil_short_short_600ms.mp4	429.5928584456997	430.2011749712474	0.608316525547707				
411.37060546875	0.2	842487	359	12	3	0	0	77	290	stimuli\Videos_short_600ms_vertflip\28.single_injection_with_sharp_needle_short_vertflip_short_600ms.mp4	28.single_injection_with_sharp_needle_short_vertflip_short_600ms.mp4	430.3927910581603	431.00115450279554	0.608363444635188				
412.17041015625	0.2	844125	360	12	3	0	0	78	145	stimuli\Videos_short_600ms_horflip\6.single_touch_with_flat_hand_short_horflip_short_600ms.mp4	6.single_touch_with_flat_hand_short_horflip_short_600ms.mp4	431.1927820262361	431.8011360870537	0.6083540608176463				
412.970703125	0.2	845764	361	12	3	0	0	79	210	stimuli\Videos_short_600ms_horvertflip\37.single_stab_with_nail_file_short_horvertflip_short_600ms.mp4	37.single_stab_with_nail_file_short_horvertflip_short_600ms.mp4	431.9927533469438	432.60111943077754	0.6083660838337437				
413.7705078125	0.2	847402	362	12	3	0	0	80	144	stimuli\Videos_short_600ms_horflip\59.single_push_with_long_side_pencil_short_horflip_short_600ms.mp4	59.single_push_with_long_side_pencil_short_horflip_short_600ms.mp4	432.792764548876	433.40109808259285	0.6083335337168592				
414.5703125	0.2	849040	363	12	3	0	0	81	6	stimuli\Videos_short_600ms\15.single_stroke_top_to_bottom_with_a_plastic_whisk_short_short_600ms.mp4	15.single_stroke_top_to_bottom_with_a_plastic_whisk_short_short_600ms.mp4	433.5927432006911	434.20105503433	0.6083118336389362				
415.37060546875	0.2	850679	364	12	3	0	0	82	230	stimuli\Videos_short_600ms_horvertflip\55.touch_top_to_bottom_with_nail_file_short_horvertflip_short_600ms.mp4	55.touch_top_to_bottom_with_nail_file_short_horvertflip_short_600ms.mp4	434.3927414998741	435.00105773217774	0.6083162323036504				
416.17041015625	0.2	852317	365	12	3	0	0	83	20	stimuli\Videos_short_600ms\28.single_injection_with_sharp_needle_short_short_600ms.mp4	28.single_injection_with_sharp_needle_short_short_600ms.mp4	435.19272513684245	435.8010466475432	0.6083215107007618				
416.97021484375	0.2	853955	366	12	3	0	0	84	163	stimuli\Videos_short_600ms_horflip\76.tickle_with_fingers_from_top_to_bottom_short_horflip_short_600ms.mp4	76.tickle_with_fingers_from_top_to_bottom_short_horflip_short_600ms.mp4	435.9927017359475	436.6009766208051	0.6082748848575648				
417.7705078125	0.2	855594	367	12	3	0	0	85	241	stimuli\Videos_short_600ms_horvertflip\65.stroke_top_to_bottom_with_stanley_knife_short_horvertflip_short_600ms.mp4	65.stroke_top_to_bottom_with_stanley_knife_short_horvertflip_short_600ms.mp4	436.7926929972675	437.4009796118971	0.6082866146296055				
418.5703125	0.2	857232	368	12	3	0	0	86	108	stimuli\Videos_short_600ms_horflip\26.single_touch_with_a_blunt_syringe_short_horflip_short_600ms.mp4	26.single_touch_with_a_blunt_syringe_short_horflip_short_600ms.mp4	437.5926473098061	438.20096735428547	0.608320044479342				
419.3701171875	0.2	858870	369	12	3	0	0	87	316	stimuli\Videos_short_600ms_vertflip\51.repeated_touch_with_hammer_short_vertflip_short_600ms.mp4	51.repeated_touch_with_hammer_short_vertflip_short_600ms.mp4	438.39265411307383	439.0009474723222	0.6082933592483641				
420.17041015625	0.2	860509	370	12	3	0	0	88	42	stimuli\Videos_short_600ms\48.single_slap_with_hand_short_short_600ms.mp4	48.single_slap_with_hand_short_short_600ms.mp4	439.1926280729804	439.800952516124	0.6083244431436015				
420.97021484375	0.2	862147	371	12	3	0	0	89	4	stimuli\Videos_short_600ms\13.single_touch_with_pen_short_short_600ms.mp4	13.single_touch_with_pen_short_short_600ms.mp4	439.9926058450626	440.60093761931375	0.6083317742511554				
421.7705078125	0.2	863786	372	12	3	0	0	90	253	stimuli\Videos_short_600ms_horvertflip\76.tickle_with_fingers_from_top_to_bottom_short_horvertflip_short_600ms.mp4	76.tickle_with_fingers_from_top_to_bottom_short_horvertflip_short_600ms.mp4	440.79258948203096	441.4009098197544	0.6083203377233986				
422.5703125	0.2	865424	373	12	3	0	0	91	109	stimuli\Videos_short_600ms_horflip\27.single_push_with_a_plastic_whisk_short_horflip_short_600ms.mp4	27.single_push_with_a_plastic_whisk_short_horflip_short_600ms.mp4	441.5925675473575	442.2008864188597	0.6083188715022061				
