onset	duration	onsetsample	eventnumber	subjectnr	sequencenumber	blocksequencenumber	istarget	presentationnumber	stimnumber	stim	stimname	time_stimon	time_stimoff	stimdur	cresp	resp	rt	correct
15.5224609375	0.2	31790	0	78	0	0	0	0	242	stimuli\Videos_short_600ms_horvertflip\66.stroke_top_to_bottom_with_sponge_short_horvertflip_short_600ms.mp4	66.stroke_top_to_bottom_with_sponge_short_horvertflip_short_600ms.mp4	43.39991120539298	44.00819737270013	0.608286167307142	n/a	n/a	n/a	n/a
16.322265625	0.2	33428	1	78	0	0	0	1	255	stimuli\Videos_short_600ms_horvertflip\78.single_stroke_top_to_bottom_with_soft_brush_short_horvertflip_short_600ms.mp4	78.single_stroke_top_to_bottom_with_soft_brush_short_horvertflip_short_600ms.mp4	44.19986293725424	44.80818839940093	0.6083254621466949	n/a	n/a	n/a	n/a
17.12255859375	0.2	35067	2	78	0	0	0	2	112	stimuli\Videos_short_600ms_horflip\3.single_push_with_finger_short_horflip_short_600ms.mp4	3.single_push_with_finger_short_horflip_short_600ms.mp4	44.99985103150448	45.60815362053563	0.6083025890311546	n/a	n/a	n/a	n/a
17.92236328125	0.2	36705	3	78	0	0	0	3	91	stimuli\Videos_short_600ms_horflip\10.single_touch_with_knife_short_horflip_short_600ms.mp4	10.single_touch_with_knife_short_horflip_short_600ms.mp4	45.79982944866697	46.408088637428136	0.608259188761167	n/a	n/a	n/a	n/a
18.72265625	0.2	38344	4	78	0	0	0	4	183	stimuli\Videos_short_600ms_horvertflip\12.repeated_touch_with_nail_file_short_horvertflip_short_600ms.mp4	12.repeated_touch_with_nail_file_short_horvertflip_short_600ms.mp4	46.59982282132842	47.2081301022813	0.6083072809528858	n/a	n/a	n/a	n/a
19.5224609375	0.2	39982	5	78	0	0	0	5	209	stimuli\Videos_short_600ms_horvertflip\36.single_slap_with_full_hand_short_horvertflip_short_600ms.mp4	36.single_slap_with_full_hand_short_horvertflip_short_600ms.mp4	47.39977865862102	48.008093563945295	0.6083149053242778	n/a	n/a	n/a	n/a
20.322265625	0.2	41620	6	78	0	0	0	6	249	stimuli\Videos_short_600ms_horvertflip\72.(short)stroke_with_finger_all_over_the_hand_short_horvertflip_short_600ms.mp4	72.(short)stroke_with_finger_all_over_the_hand_short_horvertflip_short_600ms.mp4	48.19978170836976	48.8080790189897	0.6082973106199461	n/a	n/a	n/a	n/a
21.12255859375	0.2	43259	7	78	0	0	0	7	215	stimuli\Videos_short_600ms_horvertflip\41.injection_with_blunt_syringe_short_horvertflip_short_600ms.mp4	41.injection_with_blunt_syringe_short_horvertflip_short_600ms.mp4	48.999758952552384	49.60806769973033	0.6083087471779436	n/a	n/a	n/a	n/a
21.92236328125	0.2	44897	8	78	0	0	1	8	377	stimuli\Targets_short_600ms_horvertflip\hand-stroke_short_vertflip_short_600ms.mp4	hand-stroke_short_vertflip_short_600ms.mp4	49.79974734004736	50.40807045623387	0.6083231161865115	n/a	n/a	n/a	n/a
22.72216796875	0.2	46535	9	78	0	0	0	9	37	stimuli\Videos_short_600ms\43.touch_top_to_bottom_with_sharp_wooden_stick_short_short_600ms.mp4	43.touch_top_to_bottom_with_sharp_wooden_stick_short_short_600ms.mp4	50.59972722343582	51.20804945988675	0.6083222364509311	n/a	n/a	n/a	n/a
23.5224609375	0.2	48174	10	78	0	0	0	10	159	stimuli\Videos_short_600ms_horflip\72.(short)stroke_with_finger_all_over_the_hand_short_horflip_short_600ms.mp4	72.(short)stroke_with_finger_all_over_the_hand_short_horflip_short_600ms.mp4	51.3997097460292	52.00803256897052	0.608322822941318	n/a	n/a	n/a	n/a
24.322265625	0.2	49812	11	78	0	0	1	11	362	stimuli\Targets_short_600ms\chopstickwood-tap_short_short_600ms.mp4	chopstickwood-tap_short_short_600ms.mp4	52.199695201074064	52.80801215911379	0.6083169580397225	n/a	n/a	n/a	n/a
25.1220703125	0.2	51450	12	78	0	0	0	12	34	stimuli\Videos_short_600ms\40.repeated_push_with_finger_short_short_600ms.mp4	40.repeated_push_with_finger_short_short_600ms.mp4	52.99967537770726	53.60799820064858	0.608322822941318	n/a	n/a	n/a	n/a
25.92236328125	0.2	53089	13	78	0	0	0	13	295	stimuli\Videos_short_600ms_vertflip\32.single_(long)pinch_with_fingers_short_vertflip_short_600ms.mp4	32.single_(long)pinch_with_fingers_short_vertflip_short_600ms.mp4	53.79965731381071	54.407976324566334	0.608319010755622	n/a	n/a	n/a	n/a
26.72216796875	0.2	54727	14	78	0	0	0	14	348	stimuli\Videos_short_600ms_vertflip\80.stroke_with_sharp_stick_all_over_the_hand_short_vertflip_short_600ms.mp4	80.stroke_with_sharp_stick_all_over_the_hand_short_vertflip_short_600ms.mp4	54.599637783689104	55.20796177961074	0.6083239959216371	n/a	n/a	n/a	n/a
27.52197265625	0.2	56365	15	78	0	0	1	15	367	stimuli\Targets_short_600ms_horflip\chopstick-silver-tap_short_horflip_short_600ms.mp4	chopstick-silver-tap_short_horflip_short_600ms.mp4	55.39958130468858	56.00794576842963	0.6083644637410544	n/a	n/a	n/a	n/a
28.322265625	0.2	58004	16	78	0	0	0	16	43	stimuli\Videos_short_600ms\49.repeated_slap_with_hand_short_short_600ms.mp4	49.repeated_slap_with_hand_short_short_600ms.mp4	56.19958435443732	56.80788840969399	0.6083040552566672	n/a	n/a	n/a	n/a
29.1220703125	0.2	59642	17	78	0	0	0	17	89	stimuli\Videos_short_600ms\90.repeated_touch_with_sponge_short_short_600ms.mp4	90.repeated_touch_with_sponge_short_short_600ms.mp4	56.9995689297466	57.60806945920058	0.6085005294539769	n/a	n/a	n/a	n/a
29.921875	0.2	61280	18	78	0	0	0	18	194	stimuli\Videos_short_600ms_horvertflip\22.single_touch_with_metal_chopstick_short_horvertflip_short_600ms.mp4	22.single_touch_with_metal_chopstick_short_horvertflip_short_600ms.mp4	57.79955262532076	58.40789597541698	0.6083433500962201	n/a	n/a	n/a	n/a
30.72216796875	0.2	62919	19	78	0	0	0	19	51	stimuli\Videos_short_600ms\56.repeated_touch_with_nail_file_short_short_600ms.mp4	56.repeated_touch_with_nail_file_short_short_600ms.mp4	58.59954189255086	59.20787761827523	0.6083357257243733	n/a	n/a	n/a	n/a
31.52197265625	0.2	64557	20	78	0	0	0	20	59	stimuli\Videos_short_600ms\63.stroke_top_to_bottom_with_screwdriver_short_short_600ms.mp4	63.stroke_top_to_bottom_with_screwdriver_short_short_600ms.mp4	59.39952822733085	60.007852223252485	0.6083239959216371	n/a	n/a	n/a	n/a
32.32177734375	0.2	66195	21	78	0	0	0	21	153	stimuli\Videos_short_600ms_horflip\67.single_touch_with_sponge_short_horflip_short_600ms.mp4	67.single_touch_with_sponge_short_horflip_short_600ms.mp4	60.19953391628496	60.80779867670253	0.608264760417569	n/a	n/a	n/a	n/a
33.1220703125	0.2	67834	22	78	0	0	0	22	150	stimuli\Videos_short_600ms_horflip\64.repeated_touch_with_screwdriver_short_horflip_short_600ms.mp4	64.repeated_touch_with_screwdriver_short_horflip_short_600ms.mp4	60.99950910775215	61.60780319267633	0.6082940849241822	n/a	n/a	n/a	n/a
33.921875	0.2	69472	23	78	0	0	0	23	152	stimuli\Videos_short_600ms_horflip\66.stroke_top_to_bottom_with_sponge_short_horflip_short_600ms.mp4	66.stroke_top_to_bottom_with_sponge_short_horflip_short_600ms.mp4	61.799492216835915	62.40778688825048	0.6082946714145692	n/a	n/a	n/a	n/a
34.7216796875	0.2	71110	24	78	0	0	0	24	241	stimuli\Videos_short_600ms_horvertflip\65.stroke_top_to_bottom_with_stanley_knife_short_horvertflip_short_600ms.mp4	65.stroke_top_to_bottom_with_stanley_knife_short_horvertflip_short_600ms.mp4	62.59947825837071	63.20777586223585	0.6082976038651395	n/a	n/a	n/a	n/a
35.52197265625	0.2	72749	25	78	0	0	0	25	307	stimuli\Videos_short_600ms_vertflip\43.touch_top_to_bottom_with_sharp_wooden_stick_short_vertflip_short_600ms.mp4	43.touch_top_to_bottom_with_sharp_wooden_stick_short_vertflip_short_600ms.mp4	63.39944963765174	64.00775691860463	0.6083072809528858	n/a	n/a	n/a	n/a
36.32177734375	0.2	74387	26	78	0	0	0	26	172	stimuli\Videos_short_600ms_horflip\84.single_touch_with_cotton_bud_short_horflip_short_600ms.mp4	84.single_touch_with_cotton_bud_short_horflip_short_600ms.mp4	64.19943949137223	64.8077602615981	0.6083207702258733	n/a	n/a	n/a	n/a
37.1220703125	0.2	76026	27	78	0	0	0	27	124	stimuli\Videos_short_600ms_horflip\40.repeated_push_with_finger_short_horflip_short_600ms.mp4	40.repeated_push_with_finger_short_horflip_short_600ms.mp4	64.99942318694639	65.60775480723987	0.6083316202934839	n/a	n/a	n/a	n/a
37.921875	0.2	77664	28	78	0	0	0	28	144	stimuli\Videos_short_600ms_horflip\59.single_push_with_long_side_pencil_short_horflip_short_600ms.mp4	59.single_push_with_long_side_pencil_short_horflip_short_600ms.mp4	65.79940717576574	66.40773732983371	0.6083301540679713	n/a	n/a	n/a	n/a
38.7216796875	0.2	79302	29	78	0	0	0	29	49	stimuli\Videos_short_600ms\54.repeated_touch_with_knife_short_short_600ms.mp4	54.repeated_touch_with_knife_short_short_600ms.mp4	66.59938793888887	67.2077216118978	0.6083336730089286	n/a	n/a	n/a	n/a
39.52197265625	0.2	80941	30	78	0	0	0	30	78	stimuli\Videos_short_600ms\80.stroke_with_sharp_stick_all_over_the_hand_short_short_600ms.mp4	80.stroke_with_sharp_stick_all_over_the_hand_short_short_600ms.mp4	67.39937310068854	68.00769533713947	0.6083222364509311	n/a	n/a	n/a	n/a
40.32177734375	0.2	82579	31	78	0	0	0	31	171	stimuli\Videos_short_600ms_horflip\83.single_stroke_top_to_bottom_with_cotton_bud_short_horflip_short_600ms.mp4	83.single_stroke_top_to_bottom_with_cotton_bud_short_horflip_short_600ms.mp4	68.19935474354725	68.80767287456729	0.6083181310200416	n/a	n/a	n/a	n/a
41.12158203125	0.2	84217	32	78	0	0	0	32	85	stimuli\Videos_short_600ms\87.single_stroke_top_to_bottom_with_plastic_brush_short_short_600ms.mp4	87.single_stroke_top_to_bottom_with_plastic_brush_short_short_600ms.mp4	68.99934049183685	69.60766126206227	0.6083207702254185	n/a	n/a	n/a	n/a
41.921875	0.2	85856	33	78	0	0	0	33	286	stimuli\Videos_short_600ms_vertflip\24.single_stroke_top_to_bottom_with_a_spoon_short_vertflip_short_600ms.mp4	24.single_stroke_top_to_bottom_with_a_spoon_short_vertflip_short_600ms.mp4	69.79932301443023	70.4076437846561	0.6083207702258733	n/a	n/a	n/a	n/a
42.7216796875	0.2	87494	34	78	0	0	1	34	375	stimuli\Targets_short_600ms_horvertflip\finger-tap_short_vertflip_short_600ms.mp4	finger-tap_short_vertflip_short_600ms.mp4	70.59930465728894	71.20758583943052	0.6082811821415817	n/a	n/a	n/a	n/a
43.521484375	0.2	89132	35	78	0	0	0	35	359	stimuli\Videos_short_600ms_vertflip\90.repeated_touch_with_sponge_short_vertflip_short_600ms.mp4	90.repeated_touch_with_sponge_short_vertflip_short_600ms.mp4	71.39926606623794	72.00760941633416	0.6083433500962201	n/a	n/a	n/a	n/a
44.32177734375	0.2	90771	36	78	0	0	0	36	301	stimuli\Videos_short_600ms_vertflip\38.double_slap_with_pencil_short_vertflip_short_600ms.mp4	38.double_slap_with_pencil_short_vertflip_short_600ms.mp4	72.19924917532171	72.8075711185279	0.6083219432061924	n/a	n/a	n/a	n/a
45.12158203125	0.2	92409	37	78	0	0	0	37	320	stimuli\Videos_short_600ms_vertflip\55.touch_top_to_bottom_with_nail_file_short_vertflip_short_600ms.mp4	55.touch_top_to_bottom_with_nail_file_short_vertflip_short_600ms.mp4	72.9992352168565	73.60757504801177	0.6083398311552628	n/a	n/a	n/a	n/a
45.92138671875	0.2	94047	38	78	0	0	0	38	312	stimuli\Videos_short_600ms_vertflip\48.single_slap_with_hand_short_vertflip_short_600ms.mp4	48.single_slap_with_hand_short_vertflip_short_600ms.mp4	73.79921979216579	74.40756108954656	0.6083412973807754	n/a	n/a	n/a	n/a
46.7216796875	0.2	95686	39	78	0	0	0	39	41	stimuli\Videos_short_600ms\47.(long)scratching_with_finger_nails_short_short_600ms.mp4	47.(long)scratching_with_finger_nails_short_short_600ms.mp4	74.59930113834798	75.2075359877681	0.6082348494201142	n/a	n/a	n/a	n/a
47.521484375	0.2	97324	40	78	0	0	0	40	232	stimuli\Videos_short_600ms_horvertflip\57.single_touch_with_nail_file_short_horvertflip_short_600ms.mp4	57.single_touch_with_nail_file_short_horvertflip_short_600ms.mp4	75.39921650782071	76.00754050374235	0.6083239959216371	n/a	n/a	n/a	n/a
48.3212890625	0.2	98962	41	78	0	0	0	41	65	stimuli\Videos_short_600ms\69.stroke_with_soft_sock_short_short_600ms.mp4	69.stroke_with_soft_sock_short_short_600ms.mp4	76.19919404524853	76.80766055827416	0.6084665130256326	n/a	n/a	n/a	n/a
49.12158203125	0.2	100601	42	78	0	0	0	42	358	stimuli\Videos_short_600ms_vertflip\9.single_touch_with_hammer_short_vertflip_short_600ms.mp4	9.single_touch_with_hammer_short_vertflip_short_600ms.mp4	76.99917510161686	77.60747094601174	0.6082958443948883	n/a	n/a	n/a	n/a
49.92138671875	0.2	102239	43	78	0	0	0	43	251	stimuli\Videos_short_600ms_horvertflip\74.fingers_walking_from_top_to_bottom_short_horvertflip_short_600ms.mp4	74.fingers_walking_from_top_to_bottom_short_horvertflip_short_600ms.mp4	77.7991535187798	78.4074546415859	0.6083011228060968	n/a	n/a	n/a	n/a
50.72119140625	0.2	103877	44	78	0	0	0	44	147	stimuli\Videos_short_600ms_horflip\61.single_hit_with_rolling_pin_short_horflip_short_600ms.mp4	61.single_hit_with_rolling_pin_short_horflip_short_600ms.mp4	78.5991433725003	79.20744068312024	0.6082973106199461	n/a	n/a	n/a	n/a
51.521484375	0.2	105516	45	78	0	0	0	45	22	stimuli\Videos_short_600ms\3.single_push_with_finger_short_short_600ms.mp4	3.single_push_with_finger_short_short_600ms.mp4	79.39912032343773	80.00742261922414	0.6083022957864159	n/a	n/a	n/a	n/a
52.3212890625	0.2	107154	46	78	0	0	0	46	23	stimuli\Videos_short_600ms\30.finger_pulling_back_another_finger_short_short_600ms.mp4	30.finger_pulling_back_another_finger_short_short_600ms.mp4	80.19910431225708	80.80742713519794	0.6083228229408633	n/a	n/a	n/a	n/a
53.12109375	0.2	108792	47	78	0	0	1	47	360	stimuli\Targets_short_600ms\brush-stroke_short_short_600ms.mp4	brush-stroke_short_short_600ms.mp4	80.99908888756636	81.60741024428216	0.6083213567158055	n/a	n/a	n/a	n/a
53.92138671875	0.2	110431	48	78	0	0	0	48	292	stimuli\Videos_short_600ms_vertflip\3.single_push_with_finger_short_vertflip_short_600ms.mp4	3.single_push_with_finger_short_vertflip_short_600ms.mp4	81.79907023717988	82.40739042091536	0.6083201837354864	n/a	n/a	n/a	n/a
54.72119140625	0.2	112069	49	78	0	0	0	49	300	stimuli\Videos_short_600ms_vertflip\37.single_stab_with_nail_file_short_vertflip_short_600ms.mp4	37.single_stab_with_nail_file_short_vertflip_short_600ms.mp4	82.5990512935482	83.20737382324432	0.6083225296961245	n/a	n/a	n/a	n/a
55.52099609375	0.2	113707	50	78	0	0	1	50	370	stimuli\Targets_short_600ms_horflip\hand-pinch_short_horflip_short_600ms.mp4	hand-pinch_short_horflip_short_600ms.mp4	83.39903762832773	84.0073586917988	0.6083210634710667	n/a	n/a	n/a	n/a
56.3212890625	0.2	115346	51	78	0	0	0	51	339	stimuli\Videos_short_600ms_vertflip\72.(short)stroke_with_finger_all_over_the_hand_short_vertflip_short_600ms.mp4	72.(short)stroke_with_finger_all_over_the_hand_short_vertflip_short_600ms.mp4	84.19902161714708	84.80734121439264	0.6083195972455542	n/a	n/a	n/a	n/a
57.12109375	0.2	116984	52	78	0	0	0	52	278	stimuli\Videos_short_600ms_vertflip\17.repeated_touch_with_rolling_pin_short_vertflip_short_600ms.mp4	17.repeated_touch_with_rolling_pin_short_vertflip_short_600ms.mp4	84.9990032600058	85.60732139102583	0.6083181310200416	n/a	n/a	n/a	n/a
57.92138671875	0.2	118623	53	78	0	0	0	53	274	stimuli\Videos_short_600ms_vertflip\13.single_touch_with_pen_short_vertflip_short_600ms.mp4	13.single_touch_with_pen_short_vertflip_short_600ms.mp4	85.79897287981612	86.40730567308992	0.608332793273803	n/a	n/a	n/a	n/a
58.72119140625	0.2	120261	54	78	0	0	0	54	113	stimuli\Videos_short_600ms_horflip\30.finger_pulling_back_another_finger_short_horflip_short_600ms.mp4	30.finger_pulling_back_another_finger_short_horflip_short_600ms.mp4	86.59894719154818	87.2072905416444	0.6083433500962201	n/a	n/a	n/a	n/a
59.52099609375	0.2	121899	55	78	0	0	0	55	240	stimuli\Videos_short_600ms_horvertflip\64.repeated_touch_with_screwdriver_short_horvertflip_short_600ms.mp4	64.repeated_touch_with_screwdriver_short_horvertflip_short_600ms.mp4	87.39893030063195	88.00727570344361	0.6083454028116648	n/a	n/a	n/a	n/a
60.3212890625	0.2	123538	56	78	0	0	0	56	336	stimuli\Videos_short_600ms_vertflip\7.repeated_touch_with_hairbrush_short_vertflip_short_600ms.mp4	7.repeated_touch_with_hairbrush_short_vertflip_short_600ms.mp4	88.19891604892155	88.80725851928264	0.6083424703610945	n/a	n/a	n/a	n/a
61.12109375	0.2	125176	57	78	0	0	0	57	54	stimuli\Videos_short_600ms\59.single_push_with_long_side_pencil_short_short_600ms.mp4	59.single_push_with_long_side_pencil_short_short_600ms.mp4	88.9988997444957	89.60724016214135	0.6083404176456497	n/a	n/a	n/a	n/a
61.9208984375	0.2	126814	58	78	0	0	0	58	33	stimuli\Videos_short_600ms\4.repeated_tap_with_finger_slow_short_short_600ms.mp4	4.repeated_tap_with_finger_slow_short_short_600ms.mp4	89.79888725225555	90.40722444420544	0.6083371919498859	n/a	n/a	n/a	n/a
62.72119140625	0.2	128453	59	78	0	0	0	59	331	stimuli\Videos_short_600ms_vertflip\65.stroke_top_to_bottom_with_stanley_knife_short_vertflip_short_600ms.mp4	65.stroke_top_to_bottom_with_stanley_knife_short_vertflip_short_600ms.mp4	90.59887769246644	91.20716972467515	0.6082920322087375	n/a	n/a	n/a	n/a
63.52099609375	0.2	130091	60	78	0	0	0	60	191	stimuli\Videos_short_600ms_horvertflip\2.single_touch_with_finger_short_horvertflip_short_600ms.mp4	2.single_touch_with_finger_short_horvertflip_short_600ms.mp4	91.39888044896998	92.007147262103	0.6082668131330138	n/a	n/a	n/a	n/a
64.32080078125	0.2	131729	61	78	0	0	0	61	7	stimuli\Videos_short_600ms\16.repeated_touch_with_plastic_brush_short_short_600ms.mp4	16.repeated_touch_with_plastic_brush_short_short_600ms.mp4	92.19885417421165	92.8071274387362	0.6082732645245414	n/a	n/a	n/a	n/a
65.12109375	0.2	133368	62	78	0	0	0	62	315	stimuli\Videos_short_600ms_vertflip\50.single_(long)hard_push_with_thumb_short_vertflip_short_600ms.mp4	50.single_(long)hard_push_with_thumb_short_vertflip_short_600ms.mp4	92.99884109548157	93.60715306835527	0.6083119728737074	n/a	n/a	n/a	n/a
65.9208984375	0.2	135006	63	78	0	0	0	63	131	stimuli\Videos_short_600ms_horflip\47.(long)scratching_with_finger_nails_short_horflip_short_600ms.mp4	47.(long)scratching_with_finger_nails_short_horflip_short_600ms.mp4	93.7988186329094	94.40712591386182	0.608307280952431	n/a	n/a	n/a	n/a
66.720703125	0.2	136644	64	78	0	0	0	64	309	stimuli\Videos_short_600ms_vertflip\45.scratching_with_finger_nails_short_vertflip_short_600ms.mp4	45.scratching_with_finger_nails_short_vertflip_short_600ms.mp4	94.59880291497348	95.2071101959259	0.608307280952431	n/a	n/a	n/a	n/a
67.52099609375	0.2	138283	65	78	0	0	0	65	234	stimuli\Videos_short_600ms_horvertflip\59.single_push_with_long_side_pencil_short_horvertflip_short_600ms.mp4	59.single_push_with_long_side_pencil_short_horvertflip_short_600ms.mp4	95.39879071597852	96.00711383216505	0.6083231161865115	n/a	n/a	n/a	n/a
68.32080078125	0.2	139921	66	78	0	0	0	66	205	stimuli\Videos_short_600ms_horvertflip\32.single_(long)pinch_with_fingers_short_horvertflip_short_600ms.mp4	32.single_(long)pinch_with_fingers_short_horvertflip_short_600ms.mp4	96.19877265208196	96.80708961012216	0.6083169580401773	n/a	n/a	n/a	n/a
69.12060546875	0.2	141559	67	78	0	0	0	67	212	stimuli\Videos_short_600ms_horvertflip\39.single_stab_with_scissors_short_horvertflip_short_600ms.mp4	39.single_stab_with_scissors_short_horvertflip_short_600ms.mp4	96.99875458818588	97.60707389218624	0.6083193040003607	n/a	n/a	n/a	n/a
69.9208984375	0.2	143198	68	78	0	0	0	68	273	stimuli\Videos_short_600ms_vertflip\12.repeated_touch_with_nail_file_short_vertflip_short_600ms.mp4	12.repeated_touch_with_nail_file_short_vertflip_short_600ms.mp4	97.7987362310446	98.40705700127	0.6083207702254185	n/a	n/a	n/a	n/a
70.720703125	0.2	144836	69	78	0	0	0	69	164	stimuli\Videos_short_600ms_horflip\77.tapping_with_all_fingers_short_horflip_short_600ms.mp4	77.tapping_with_all_fingers_short_horflip_short_600ms.mp4	98.59871846039324	99.20704128333456	0.608322822941318	n/a	n/a	n/a	n/a
71.5205078125	0.2	146474	70	78	0	0	0	70	197	stimuli\Videos_short_600ms_horvertflip\25.single_touch_with_stanley_knife_short_horvertflip_short_600ms.mp4	25.single_touch_with_stanley_knife_short_horvertflip_short_600ms.mp4	99.39870362219244	100.0070235126832	0.6083198904907476	n/a	n/a	n/a	n/a
72.32080078125	0.2	148113	71	78	0	0	0	71	351	stimuli\Videos_short_600ms_vertflip\83.single_stroke_top_to_bottom_with_cotton_bud_short_vertflip_short_600ms.mp4	83.single_stroke_top_to_bottom_with_cotton_bud_short_vertflip_short_600ms.mp4	100.19868438531604	100.80700603527704	0.6083216499609989	n/a	n/a	n/a	n/a
73.12060546875	0.2	149751	72	78	0	0	0	72	276	stimuli\Videos_short_600ms_vertflip\15.single_stroke_top_to_bottom_with_a_plastic_whisk_short_vertflip_short_600ms.mp4	15.single_stroke_top_to_bottom_with_a_plastic_whisk_short_vertflip_short_600ms.mp4	100.9986674943998	101.60699149032143	0.6083239959216371	n/a	n/a	n/a	n/a
73.92041015625	0.2	151389	73	78	0	0	1	73	380	stimuli\Targets_short_600ms_vertflip\chopstickwood-tap_short_horvertflip_short_600ms.mp4	chopstickwood-tap_short_horvertflip_short_600ms.mp4	101.79863124930898	102.40697254668976	0.6083412973807754	n/a	n/a	n/a	n/a
74.720703125	0.2	153028	74	78	0	0	0	74	32	stimuli\Videos_short_600ms\39.single_stab_with_scissors_short_short_600ms.mp4	39.single_stab_with_scissors_short_short_600ms.mp4	102.59861377190282	103.2069568287543	0.6083430568514814	n/a	n/a	n/a	n/a
75.5205078125	0.2	154666	75	78	0	0	1	75	382	stimuli\Targets_short_600ms_vertflip\hand-pinch_short_horvertflip_short_600ms.mp4	hand-pinch_short_horvertflip_short_600ms.mp4	103.39859658774184	104.00694023108326	0.6083436433414136	n/a	n/a	n/a	n/a
76.32080078125	0.2	156305	76	78	0	0	0	76	177	stimuli\Videos_short_600ms_horflip\89.single_touch_with_plastic_brush_short_horflip_short_600ms.mp4	89.single_touch_with_plastic_brush_short_horflip_short_600ms.mp4	104.19858468199207	104.8069224604319	0.6083377784398181	n/a	n/a	n/a	n/a
77.12060546875	0.2	157943	77	78	0	0	0	77	253	stimuli\Videos_short_600ms_horvertflip\76.tickle_with_fingers_from_top_to_bottom_short_horvertflip_short_600ms.mp4	76.tickle_with_fingers_from_top_to_bottom_short_horvertflip_short_600ms.mp4	104.9985754154477	105.60690879521144	0.6083333797637351	n/a	n/a	n/a	n/a
77.92041015625	0.2	159581	78	78	0	0	0	78	111	stimuli\Videos_short_600ms_horflip\29.single_pinch_with_tweezers_short_horflip_short_600ms.mp4	29.single_pinch_with_tweezers_short_horflip_short_600ms.mp4	105.79856878810916	106.406903047608	0.6083342594988608	n/a	n/a	n/a	n/a
78.720703125	0.2	161220	79	78	0	0	0	79	283	stimuli\Videos_short_600ms_vertflip\21.repeated_touch_with_metal_chopstick_short_vertflip_short_600ms.mp4	21.repeated_touch_with_metal_chopstick_short_vertflip_short_600ms.mp4	106.59856040130036	107.20685067403883	0.6082902727384862	n/a	n/a	n/a	n/a
79.5205078125	0.2	162858	80	78	0	0	0	80	100	stimuli\Videos_short_600ms_horflip\19.single_touch_with_rolling_pin_short_horflip_short_600ms.mp4	19.single_touch_with_rolling_pin_short_horflip_short_600ms.mp4	107.39854878879532	108.00681384245765	0.6082650536623078	n/a	n/a	n/a	n/a
80.3203125	0.2	164496	81	78	0	0	1	81	368	stimuli\Targets_short_600ms_horflip\chopstickwood-tap_short_horflip_short_600ms.mp4	chopstickwood-tap_short_horflip_short_600ms.mp4	108.19852984516363	108.80679607180627	0.6082662266426269	n/a	n/a	n/a	n/a
81.12060546875	0.2	166135	82	78	0	0	0	82	357	stimuli\Videos_short_600ms_vertflip\89.single_touch_with_plastic_brush_short_vertflip_short_600ms.mp4	89.single_touch_with_plastic_brush_short_vertflip_short_600ms.mp4	108.998502397425	109.606824047386	0.6083216499609989	n/a	n/a	n/a	n/a
81.92041015625	0.2	167773	83	78	0	0	0	83	130	stimuli\Videos_short_600ms_horflip\46.scratching_top_to_bottom_with_finger_nails_short_horflip_short_600ms.mp4	46.scratching_top_to_bottom_with_finger_nails_short_horflip_short_600ms.mp4	109.79848638624436	110.4067965996478	0.6083102134034561	n/a	n/a	n/a	n/a
82.72021484375	0.2	169411	84	78	0	0	0	84	347	stimuli\Videos_short_600ms_vertflip\8.single_touch_with_hairbrush_short_vertflip_short_600ms.mp4	8.single_touch_with_hairbrush_short_vertflip_short_600ms.mp4	110.59849207519892	111.20678264118214	0.608290565983225	n/a	n/a	n/a	n/a
83.5205078125	0.2	171050	85	78	0	0	0	85	123	stimuli\Videos_short_600ms_horflip\4.repeated_tap_with_finger_slow_short_horflip_short_600ms.mp4	4.repeated_tap_with_finger_slow_short_horflip_short_600ms.mp4	111.3984546571278	112.00678393146065	0.6083292743328457	n/a	n/a	n/a	n/a
84.3203125	0.2	172688	86	78	0	0	0	86	210	stimuli\Videos_short_600ms_horvertflip\37.single_stab_with_nail_file_short_horvertflip_short_600ms.mp4	37.single_stab_with_nail_file_short_horvertflip_short_600ms.mp4	112.19843659323124	112.8067576567023	0.6083210634710667	n/a	n/a	n/a	n/a
85.1201171875	0.2	174326	87	78	0	0	0	87	148	stimuli\Videos_short_600ms_horflip\62.touch_top_to_bottom_with_scissors_short_horflip_short_600ms.mp4	62.touch_top_to_bottom_with_scissors_short_horflip_short_600ms.mp4	112.99842527397186	113.60674017929614	0.6083149053242778	n/a	n/a	n/a	n/a
85.92041015625	0.2	175965	88	78	0	0	0	88	318	stimuli\Videos_short_600ms_vertflip\53.touch_top_to_bottom_with_knife_short_vertflip_short_600ms.mp4	53.touch_top_to_bottom_with_knife_short_vertflip_short_600ms.mp4	113.79840955603596	114.4067235816251	0.6083140255891522	n/a	n/a	n/a	n/a
86.72021484375	0.2	177603	89	78	0	0	0	89	294	stimuli\Videos_short_600ms_vertflip\31.hand_grabbing_wrist_short_vertflip_short_600ms.mp4	31.hand_grabbing_wrist_short_vertflip_short_600ms.mp4	114.59838680021858	115.2067096231599	0.608322822941318	n/a	n/a	n/a	n/a
87.52001953125	0.2	179241	90	78	0	0	0	90	355	stimuli\Videos_short_600ms_vertflip\87.single_stroke_top_to_bottom_with_plastic_brush_short_vertflip_short_600ms.mp4	87.single_stroke_top_to_bottom_with_plastic_brush_short_vertflip_short_600ms.mp4	115.39837020254754	116.00669214575372	0.6083219432061924	n/a	n/a	n/a	n/a
88.3203125	0.2	180880	91	78	0	0	0	91	193	stimuli\Videos_short_600ms_horvertflip\21.repeated_touch_with_metal_chopstick_short_horvertflip_short_600ms.mp4	21.repeated_touch_with_metal_chopstick_short_horvertflip_short_600ms.mp4	116.19835477785682	116.806676721063	0.6083219432061924	n/a	n/a	n/a	n/a
89.1201171875	0.2	182518	92	78	0	0	0	92	268	stimuli\Videos_short_600ms_horvertflip\9.single_touch_with_hammer_short_horvertflip_short_600ms.mp4	9.single_touch_with_hammer_short_horvertflip_short_600ms.mp4	116.9983135476	117.60665601796065	0.6083424703606397	n/a	n/a	n/a	n/a
89.919921875	0.2	184156	93	78	0	0	0	93	38	stimuli\Videos_short_600ms\44.pushing_top_to_bottom_with_finger_short_short_600ms.mp4	44.pushing_top_to_bottom_with_finger_short_short_600ms.mp4	117.79830222834016	118.4066397135348	0.6083374851946246	n/a	n/a	n/a	n/a
90.72021484375	0.2	185795	94	78	0	0	0	94	56	stimuli\Videos_short_600ms\60.single_push_with_tip_of_pencil_short_short_600ms.mp4	60.single_push_with_tip_of_pencil_short_short_600ms.mp4	118.59828240497336	119.20662487533446	0.6083424703610945	n/a	n/a	n/a	n/a
91.52001953125	0.2	187433	95	78	0	0	0	95	101	stimuli\Videos_short_600ms_horflip\2.single_touch_with_finger_short_horflip_short_600ms.mp4	2.single_touch_with_finger_short_horflip_short_600ms.mp4	119.39824528014742	120.0066068114379	0.608361531290484	n/a	n/a	n/a	n/a
92.31982421875	0.2	189071	96	78	0	0	0	96	190	stimuli\Videos_short_600ms_horvertflip\19.single_touch_with_rolling_pin_short_horvertflip_short_600ms.mp4	19.single_touch_with_rolling_pin_short_horvertflip_short_600ms.mp4	120.19825712724833	120.8065720325726	0.6083149053242778	n/a	n/a	n/a	n/a
93.1201171875	0.2	190710	97	78	0	0	0	97	30	stimuli\Videos_short_600ms\37.single_stab_with_nail_file_short_short_600ms.mp4	37.single_stab_with_nail_file_short_short_600ms.mp4	120.9982361309012	121.60655895384252	0.608322822941318	n/a	n/a	n/a	n/a
93.919921875	0.2	192348	98	78	0	0	0	98	243	stimuli\Videos_short_600ms_horvertflip\67.single_touch_with_sponge_short_horvertflip_short_600ms.mp4	67.single_touch_with_sponge_short_horvertflip_short_600ms.mp4	121.79825003071755	122.4065133249096	0.6082632941920565	9.0	9.0	3.7529545173965744	1.0
130.0107421875	0.2	266262	99	78	1	0	0	0	103	stimuli\Videos_short_600ms_horflip\21.repeated_touch_with_metal_chopstick_short_horflip_short_600ms.mp4	21.repeated_touch_with_metal_chopstick_short_horflip_short_600ms.mp4	157.88915746879093	158.49747501332104	0.6083175445301094	n/a	n/a	n/a	n/a
130.810546875	0.2	267900	100	78	1	0	0	1	244	stimuli\Videos_short_600ms_horvertflip\68.stroke_top_to_bottom_with_shawl_short_horvertflip_short_600ms.mp4	68.stroke_top_to_bottom_with_shawl_short_horvertflip_short_600ms.mp4	158.6891162385341	159.29745958863032	0.6083433500962201	n/a	n/a	n/a	n/a
131.6103515625	0.2	269538	101	78	1	0	0	2	262	stimuli\Videos_short_600ms_horvertflip\84.single_touch_with_cotton_bud_short_horvertflip_short_600ms.mp4	84.single_touch_with_cotton_bud_short_horvertflip_short_600ms.mp4	159.4891069719897	160.09744123148857	0.6083342594988608	n/a	n/a	n/a	n/a
132.41064453125	0.2	271177	102	78	1	0	0	3	115	stimuli\Videos_short_600ms_horflip\32.single_(long)pinch_with_fingers_short_horflip_short_600ms.mp4	32.single_(long)pinch_with_fingers_short_horflip_short_600ms.mp4	160.28908656213298	160.8974278595133	0.6083412973803206	n/a	n/a	n/a	n/a
133.21044921875	0.2	272815	103	78	1	0	0	4	196	stimuli\Videos_short_600ms_horvertflip\24.single_stroke_top_to_bottom_with_a_spoon_short_horvertflip_short_600ms.mp4	24.single_stroke_top_to_bottom_with_a_spoon_short_horvertflip_short_600ms.mp4	161.08914796765066	161.69741331455816	0.6082653469075012	n/a	n/a	n/a	n/a
134.01025390625	0.2	274453	104	78	1	0	0	5	224	stimuli\Videos_short_600ms_horvertflip\5.repeated_tap_with_finger_moving_from_top_to_bottom_short_horvertflip_short_600ms.mp4	5.repeated_tap_with_finger_moving_from_top_to_bottom_short_horvertflip_short_600ms.mp4	161.8890612844075	162.49739613039674	0.6083348459892477	n/a	n/a	n/a	n/a
134.810546875	0.2	276092	105	78	1	0	0	6	1	stimuli\Videos_short_600ms\10.single_touch_with_knife_short_short_600ms.mp4	10.single_touch_with_knife_short_short_600ms.mp4	162.6890637476663	163.2973645772272	0.6083008295609034	n/a	n/a	n/a	n/a
135.6103515625	0.2	277730	106	78	1	0	0	7	77	stimuli\Videos_short_600ms\8.single_touch_with_hairbrush_short_short_600ms.mp4	8.single_touch_with_hairbrush_short_short_600ms.mp4	163.48904627026013	164.09731396312827	0.6082676928681394	n/a	n/a	n/a	n/a
136.41015625	0.2	279368	107	78	1	0	0	8	288	stimuli\Videos_short_600ms_vertflip\26.single_touch_with_a_blunt_syringe_short_vertflip_short_600ms.mp4	26.single_touch_with_a_blunt_syringe_short_vertflip_short_600ms.mp4	164.28902468742308	164.8973527887756	0.6083281013525266	n/a	n/a	n/a	n/a
137.21044921875	0.2	281007	108	78	1	0	0	9	291	stimuli\Videos_short_600ms_vertflip\29.single_pinch_with_tweezers_short_vertflip_short_600ms.mp4	29.single_pinch_with_tweezers_short_vertflip_short_600ms.mp4	165.08900808975204	165.6973027611666	0.6082946714145692	n/a	n/a	n/a	n/a
138.01025390625	0.2	282645	109	78	1	0	0	10	259	stimuli\Videos_short_600ms_horvertflip\81.single_stroke_top_to_bottom_with_cotton_pad_short_horvertflip_short_600ms.mp4	81.single_stroke_top_to_bottom_with_cotton_pad_short_horvertflip_short_600ms.mp4	165.88899031910069	166.49729349462223	0.6083031755215416	n/a	n/a	n/a	n/a
138.81005859375	0.2	284283	110	78	1	0	0	11	126	stimuli\Videos_short_600ms_horflip\42.single_slap_with_plastic_whisk_short_horflip_short_600ms.mp4	42.single_slap_with_plastic_whisk_short_horflip_short_600ms.mp4	166.68897108222382	167.29730006331192	0.608328981088107	n/a	n/a	n/a	n/a
139.6103515625	0.2	285922	111	78	1	0	0	12	5	stimuli\Videos_short_600ms\14.repeated_touch_with_pencil_short_short_600ms.mp4	14.repeated_touch_with_pencil_short_short_600ms.mp4	167.4889104977924	168.09728669133665	0.6083761935442453	n/a	n/a	n/a	n/a
140.41015625	0.2	287560	112	78	1	0	1	13	365	stimuli\Targets_short_600ms\hand-stroke_short_short_600ms.mp4	hand-stroke_short_short_600ms.mp4	168.28894052608757	168.89725983008793	0.6083193040003607	n/a	n/a	n/a	n/a
141.2099609375	0.2	289198	113	78	1	0	0	14	267	stimuli\Videos_short_600ms_horvertflip\89.single_touch_with_plastic_brush_short_horvertflip_short_600ms.mp4	89.single_touch_with_plastic_brush_short_horvertflip_short_600ms.mp4	169.08892216894628	169.69725085678874	0.6083286878424587	n/a	n/a	n/a	n/a
142.01025390625	0.2	290837	114	78	1	0	0	15	157	stimuli\Videos_short_600ms_horflip\70.(long)stroke_with_finger_all_over_the_hand_short_horflip_short_600ms.mp4	70.(long)stroke_with_finger_all_over_the_hand_short_horflip_short_600ms.mp4	169.8889073307455	170.49722810097137	0.6083207702258733	n/a	n/a	n/a	n/a
142.81005859375	0.2	292475	115	78	1	0	0	16	296	stimuli\Videos_short_600ms_vertflip\33.scratch_top_to_bottom_with_scissors_short_vertflip_short_600ms.mp4	33.scratch_top_to_bottom_with_scissors_short_vertflip_short_600ms.mp4	170.68888809386908	171.2972161952216	0.6083281013525266	n/a	n/a	n/a	n/a
143.60986328125	0.2	294113	116	78	1	0	0	17	280	stimuli\Videos_short_600ms_vertflip\19.single_touch_with_rolling_pin_short_vertflip_short_600ms.mp4	19.single_touch_with_rolling_pin_short_vertflip_short_600ms.mp4	171.48887149619804	172.09719431913936	0.608322822941318	n/a	n/a	n/a	n/a
144.41015625	0.2	295752	117	78	1	0	0	18	238	stimuli\Videos_short_600ms_horvertflip\62.touch_top_to_bottom_with_scissors_short_horvertflip_short_600ms.mp4	62.touch_top_to_bottom_with_scissors_short_horvertflip_short_600ms.mp4	172.28883173216673	172.8971768417332	0.6083451095664714	n/a	n/a	n/a	n/a
145.2099609375	0.2	297390	118	78	1	0	0	19	299	stimuli\Videos_short_600ms_vertflip\36.single_slap_with_full_hand_short_vertflip_short_600ms.mp4	36.single_slap_with_full_hand_short_vertflip_short_600ms.mp4	173.08884563198308	173.6971209492226	0.6082753172395314	n/a	n/a	n/a	n/a
146.009765625	0.2	299028	119	78	1	0	0	20	337	stimuli\Videos_short_600ms_vertflip\70.(long)stroke_with_finger_all_over_the_hand_short_vertflip_short_600ms.mp4	70.(long)stroke_with_finger_all_over_the_hand_short_vertflip_short_600ms.mp4	173.88884340332015	174.4971430599012	0.608299656581039	n/a	n/a	n/a	n/a
146.81005859375	0.2	300667	120	78	1	0	0	21	20	stimuli\Videos_short_600ms\28.single_injection_with_sharp_needle_short_short_600ms.mp4	28.single_injection_with_sharp_needle_short_short_600ms.mp4	174.68876317146896	175.2971288081908	0.6083656367218282	n/a	n/a	n/a	n/a
147.60986328125	0.2	302305	121	78	1	0	0	22	114	stimuli\Videos_short_600ms_horflip\31.hand_grabbing_wrist_short_horflip_short_600ms.mp4	31.hand_grabbing_wrist_short_horflip_short_600ms.mp4	175.48874657379793	176.09711191727456	0.6083653434766347	n/a	n/a	n/a	n/a
148.41015625	0.2	303944	122	78	1	0	0	23	128	stimuli\Videos_short_600ms_horflip\44.pushing_top_to_bottom_with_finger_short_horflip_short_600ms.mp4	44.pushing_top_to_bottom_with_finger_short_horflip_short_600ms.mp4	176.28875402222275	176.8970944398684	0.6083404176456497	n/a	n/a	n/a	n/a
149.2099609375	0.2	305582	123	78	1	0	0	24	165	stimuli\Videos_short_600ms_horflip\78.single_stroke_top_to_bottom_with_soft_brush_short_horflip_short_600ms.mp4	78.single_stroke_top_to_bottom_with_soft_brush_short_horflip_short_600ms.mp4	177.08874651514907	177.69707637597185	0.6083298608227778	n/a	n/a	n/a	n/a
150.009765625	0.2	307220	124	78	1	0	0	25	166	stimuli\Videos_short_600ms_horflip\79.long_with_soft_brush_all_over_the_hand_short_horflip_short_600ms.mp4	79.long_with_soft_brush_all_over_the_hand_short_horflip_short_600ms.mp4	177.8887290377429	178.49705655260504	0.6083275148621397	n/a	n/a	n/a	n/a
150.81005859375	0.2	308859	125	78	1	0	0	26	83	stimuli\Videos_short_600ms\85.touch_top_to_bottom_with_fabric_short_short_600ms.mp4	85.touch_top_to_bottom_with_fabric_short_short_600ms.mp4	178.68873619292253	179.29705021851169	0.6083140255891522	n/a	n/a	n/a	n/a
151.60986328125	0.2	310497	126	78	1	0	0	27	122	stimuli\Videos_short_600ms_horflip\39.single_stab_with_scissors_short_horflip_short_600ms.mp4	39.single_stab_with_scissors_short_horflip_short_600ms.mp4	179.48870757220357	180.09700752202934	0.6082999498257777	n/a	n/a	n/a	n/a
152.40966796875	0.2	312135	127	78	1	0	0	28	92	stimuli\Videos_short_600ms_horflip\11.single_touch_with_lighter_short_horflip_short_600ms.mp4	11.single_touch_with_lighter_short_horflip_short_600ms.mp4	180.28869214751285	180.89699033786837	0.6082981903555265	n/a	n/a	n/a	n/a
153.2099609375	0.2	313774	128	78	1	0	0	29	269	stimuli\Videos_short_600ms_horvertflip\90.repeated_touch_with_sponge_short_horvertflip_short_600ms.mp4	90.repeated_touch_with_sponge_short_horvertflip_short_600ms.mp4	181.08868376070404	181.6969801915889	0.6082964308848204	n/a	n/a	n/a	n/a
154.009765625	0.2	315412	129	78	1	0	0	30	353	stimuli\Videos_short_600ms_vertflip\85.touch_top_to_bottom_with_fabric_short_vertflip_short_600ms.mp4	85.touch_top_to_bottom_with_fabric_short_vertflip_short_600ms.mp4	181.88864194395683	182.49698148186735	0.6083395379105241	n/a	n/a	n/a	n/a
154.8095703125	0.2	317050	130	78	1	0	0	31	252	stimuli\Videos_short_600ms_horvertflip\75.(long)stroke_with_fingers_all_over_the_hand_short_horvertflip_short_600ms.mp4	75.(long)stroke_with_fingers_all_over_the_hand_short_horvertflip_short_600ms.mp4	182.68864264774493	183.29696517744105	0.6083225296961245	n/a	n/a	n/a	n/a
155.60986328125	0.2	318689	131	78	1	0	0	32	151	stimuli\Videos_short_600ms_horflip\65.stroke_top_to_bottom_with_stanley_knife_short_horflip_short_600ms.mp4	65.stroke_top_to_bottom_with_stanley_knife_short_horflip_short_600ms.mp4	183.48862487709405	184.0969494595056	0.6083245824115693	n/a	n/a	n/a	n/a
156.40966796875	0.2	320327	132	78	1	0	0	33	45	stimuli\Videos_short_600ms\50.single_(long)hard_push_with_thumb_short_short_600ms.mp4	50.single_(long)hard_push_with_thumb_short_short_600ms.mp4	184.2886091591581	184.8969290496484	0.6083198904902929	n/a	n/a	n/a	n/a
157.20947265625	0.2	321965	133	78	1	0	0	34	134	stimuli\Videos_short_600ms_horflip\5.repeated_tap_with_finger_moving_from_top_to_bottom_short_horflip_short_600ms.mp4	5.repeated_tap_with_finger_moving_from_top_to_bottom_short_horflip_short_600ms.mp4	185.08854183009	185.6969112789975	0.6083694489075242	n/a	n/a	n/a	n/a
158.009765625	0.2	323604	134	78	1	0	0	35	285	stimuli\Videos_short_600ms_vertflip\23.single_push_with_a_spoon_short_vertflip_short_600ms.mp4	23.single_push_with_a_spoon_short_vertflip_short_600ms.mp4	185.88857713679636	186.4968967340419	0.6083195972455542	n/a	n/a	n/a	n/a
158.8095703125	0.2	325242	135	78	1	0	0	36	206	stimuli\Videos_short_600ms_horvertflip\33.scratch_top_to_bottom_with_scissors_short_horvertflip_short_600ms.mp4	33.scratch_top_to_bottom_with_scissors_short_horvertflip_short_600ms.mp4	186.68856288508596	187.2968772039203	0.6083143188343456	n/a	n/a	n/a	n/a
159.609375	0.2	326880	136	78	1	0	0	37	170	stimuli\Videos_short_600ms_horflip\82.repeated_touch_with_cotton_bud_short_horflip_short_600ms.mp4	82.repeated_touch_with_cotton_bud_short_horflip_short_600ms.mp4	187.48854159549364	188.09685943326895	0.6083178377753029	n/a	n/a	n/a	n/a
160.40966796875	0.2	328519	137	78	1	0	0	38	184	stimuli\Videos_short_600ms_horvertflip\13.single_touch_with_pen_short_horvertflip_short_600ms.mp4	13.single_touch_with_pen_short_horvertflip_short_600ms.mp4	188.28852793027363	188.8968428355979	0.6083149053242778	n/a	n/a	n/a	n/a
161.20947265625	0.2	330157	138	78	1	0	0	39	68	stimuli\Videos_short_600ms\71.single_stroke_with_finger_top_to_bottom_short_short_600ms.mp4	71.single_stroke_with_finger_top_to_bottom_short_short_600ms.mp4	189.088491978428	189.69677286732392	0.6082808888959335	n/a	n/a	n/a	n/a
162.00927734375	0.2	331795	139	78	1	0	0	40	6	stimuli\Videos_short_600ms\15.single_stroke_top_to_bottom_with_a_plastic_whisk_short_short_600ms.mp4	15.single_stroke_top_to_bottom_with_a_plastic_whisk_short_short_600ms.mp4	189.88846746313993	190.49681051999096	0.6083430568510266	n/a	n/a	n/a	n/a
162.8095703125	0.2	333434	140	78	1	0	0	41	140	stimuli\Videos_short_600ms_horflip\55.touch_top_to_bottom_with_nail_file_short_horflip_short_600ms.mp4	55.touch_top_to_bottom_with_nail_file_short_horflip_short_600ms.mp4	190.68845027897896	191.29675668019627	0.6083064012173054	n/a	n/a	n/a	n/a
163.609375	0.2	335072	141	78	1	0	0	42	237	stimuli\Videos_short_600ms_horvertflip\61.single_hit_with_rolling_pin_short_horvertflip_short_600ms.mp4	61.single_hit_with_rolling_pin_short_horvertflip_short_600ms.mp4	191.4884571409134	192.0967782043845	0.6083210634710667	n/a	n/a	n/a	n/a
164.4091796875	0.2	336710	142	78	1	0	0	43	316	stimuli\Videos_short_600ms_vertflip\51.repeated_touch_with_hammer_short_vertflip_short_600ms.mp4	51.repeated_touch_with_hammer_short_vertflip_short_600ms.mp4	192.28843145264543	192.89676189995865	0.6083304473131648	n/a	n/a	n/a	n/a
165.20947265625	0.2	338349	143	78	1	0	0	44	136	stimuli\Videos_short_600ms_horflip\51.repeated_touch_with_hammer_short_horflip_short_600ms.mp4	51.repeated_touch_with_hammer_short_horflip_short_600ms.mp4	193.0884283442474	193.6967464752679	0.6083181310204964	n/a	n/a	n/a	n/a
166.00927734375	0.2	339987	144	78	1	0	0	45	69	stimuli\Videos_short_600ms\72.(short)stroke_with_finger_all_over_the_hand_short_short_600ms.mp4	72.(short)stroke_with_finger_all_over_the_hand_short_short_600ms.mp4	193.88841555876252	194.49670524501065	0.6082896862480993	n/a	n/a	n/a	n/a
166.8095703125	0.2	341626	145	78	1	0	0	46	279	stimuli\Videos_short_600ms_vertflip\18.single_stroke_from_top_to_bottom_with_rolling_pin_short_vertflip_short_600ms.mp4	18.single_stroke_from_top_to_bottom_with_rolling_pin_short_vertflip_short_600ms.mp4	194.68882973810017	195.2966666539596	0.6078369158594796	n/a	n/a	n/a	n/a
167.609375	0.2	343264	146	78	1	0	0	47	284	stimuli\Videos_short_600ms_vertflip\22.single_touch_with_metal_chopstick_short_vertflip_short_600ms.mp4	22.single_touch_with_metal_chopstick_short_vertflip_short_600ms.mp4	195.48835802407984	196.09666501178708	0.6083069877072376	n/a	n/a	n/a	n/a
168.4091796875	0.2	344902	147	78	1	0	0	48	211	stimuli\Videos_short_600ms_horvertflip\38.double_slap_with_pencil_short_horvertflip_short_600ms.mp4	38.double_slap_with_pencil_short_horvertflip_short_600ms.mp4	196.28834875753543	196.8966619033895	0.6083131458540265	n/a	n/a	n/a	n/a
169.20947265625	0.2	346541	148	78	1	0	0	49	25	stimuli\Videos_short_600ms\32.single_(long)pinch_with_fingers_short_short_600ms.mp4	32.single_(long)pinch_with_fingers_short_short_600ms.mp4	197.0883048880728	197.69664501247323	0.6083401244004563	n/a	n/a	n/a	n/a
170.00927734375	0.2	348179	149	78	1	0	0	50	102	stimuli\Videos_short_600ms_horflip\20.single_touch_with_screwdriver_short_horflip_short_600ms.mp4	20.single_touch_with_screwdriver_short_horflip_short_600ms.mp4	197.88832905146683	198.49663017427292	0.6083011228060968	n/a	n/a	n/a	n/a
170.80908203125	0.2	349817	150	78	1	0	0	51	343	stimuli\Videos_short_600ms_vertflip\76.tickle_with_fingers_from_top_to_bottom_short_vertflip_short_600ms.mp4	76.tickle_with_fingers_from_top_to_bottom_short_vertflip_short_600ms.mp4	198.6883136267761	199.29663703620736	0.6083234094312502	n/a	n/a	n/a	n/a
171.609375	0.2	351456	151	78	1	0	0	52	350	stimuli\Videos_short_600ms_vertflip\82.repeated_touch_with_cotton_bud_short_vertflip_short_600ms.mp4	82.repeated_touch_with_cotton_bud_short_vertflip_short_600ms.mp4	199.48826008022615	200.0965688274041	0.6083087471779436	n/a	n/a	n/a	n/a
172.4091796875	0.2	353094	152	78	1	0	0	53	4	stimuli\Videos_short_600ms\13.single_touch_with_pen_short_short_600ms.mp4	13.single_touch_with_pen_short_short_600ms.mp4	200.28828483011011	200.8966014949051	0.6083166647949838	n/a	n/a	n/a	n/a
173.208984375	0.2	354732	153	78	1	0	0	54	189	stimuli\Videos_short_600ms_horvertflip\18.single_stroke_from_top_to_bottom_with_rolling_pin_short_horvertflip_short_600ms.mp4	18.single_stroke_from_top_to_bottom_with_rolling_pin_short_horvertflip_short_600ms.mp4	201.08826999190933	201.6965813782931	0.6083113863837752	n/a	n/a	n/a	n/a
174.00927734375	0.2	356371	154	78	1	0	0	55	180	stimuli\Videos_short_600ms_horvertflip\1.repeated_touch_with_finger_fast_short_horvertflip_short_600ms.mp4	1.repeated_touch_with_finger_fast_short_horvertflip_short_600ms.mp4	201.8882451833765	202.49655393055448	0.6083087471779436	n/a	n/a	n/a	n/a
174.80908203125	0.2	358009	155	78	1	0	0	56	176	stimuli\Videos_short_600ms_horflip\88.repeated_stroke_with_plastic_brush_short_horflip_short_600ms.mp4	88.repeated_stroke_with_plastic_brush_short_horflip_short_600ms.mp4	202.68819280980688	203.2964537580383	0.6082609482314183	n/a	n/a	n/a	n/a
175.60888671875	0.2	359647	156	78	1	0	0	57	44	stimuli\Videos_short_600ms\5.repeated_tap_with_finger_moving_from_top_to_bottom_short_short_600ms.mp4	5.repeated_tap_with_finger_moving_from_top_to_bottom_short_short_600ms.mp4	203.48813662405155	204.0965312920348	0.6083946679832479	n/a	n/a	n/a	n/a
176.4091796875	0.2	361286	157	78	1	0	0	58	200	stimuli\Videos_short_600ms_horvertflip\28.single_injection_with_sharp_needle_short_horvertflip_short_600ms.mp4	28.single_injection_with_sharp_needle_short_horvertflip_short_600ms.mp4	204.28819861605916	204.8965020848259	0.608303468766735	n/a	n/a	n/a	n/a
177.208984375	0.2	362924	158	78	1	0	0	59	119	stimuli\Videos_short_600ms_horflip\36.single_slap_with_full_hand_short_horflip_short_600ms.mp4	36.single_slap_with_full_hand_short_horflip_short_600ms.mp4	205.08815034792087	205.6964834344394	0.6083330865185417	n/a	n/a	n/a	n/a
178.0087890625	0.2	364562	159	78	1	0	0	60	110	stimuli\Videos_short_600ms_horflip\28.single_injection_with_sharp_needle_short_horflip_short_600ms.mp4	28.single_injection_with_sharp_needle_short_horflip_short_600ms.mp4	205.888158969326	206.4964545204757	0.6082955511496948	n/a	n/a	n/a	n/a
178.80908203125	0.2	366201	160	78	1	0	0	61	219	stimuli\Videos_short_600ms_horvertflip\45.scratching_with_finger_nails_short_horvertflip_short_600ms.mp4	45.scratching_with_finger_nails_short_horvertflip_short_600ms.mp4	206.68832799578468	207.29643205790308	0.6081040621184002	n/a	n/a	n/a	n/a
179.60888671875	0.2	367839	161	78	1	0	0	62	325	stimuli\Videos_short_600ms_vertflip\6.single_touch_with_flat_hand_short_vertflip_short_600ms.mp4	6.single_touch_with_flat_hand_short_vertflip_short_600ms.mp4	207.48808999808537	208.0964380401024	0.6083480420170417	n/a	n/a	n/a	n/a
180.40869140625	0.2	369477	162	78	1	0	0	63	270	stimuli\Videos_short_600ms_vertflip\1.repeated_touch_with_finger_fast_short_vertflip_short_600ms.mp4	1.repeated_touch_with_finger_fast_short_vertflip_short_600ms.mp4	208.2880789720707	208.89642349514725	0.6083445230765392	n/a	n/a	n/a	n/a
181.208984375	0.2	371116	163	78	1	0	0	64	64	stimuli\Videos_short_600ms\68.stroke_top_to_bottom_with_shawl_short_short_600ms.mp4	68.stroke_top_to_bottom_with_shawl_short_short_600ms.mp4	209.0880180943941	209.6963846108506	0.6083665164564991	n/a	n/a	n/a	n/a
182.0087890625	0.2	372754	164	78	1	0	0	65	195	stimuli\Videos_short_600ms_horvertflip\23.single_push_with_a_spoon_short_horvertflip_short_600ms.mp4	23.single_push_with_a_spoon_short_horvertflip_short_600ms.mp4	209.888076274216	210.49636713344444	0.6082908592284184	n/a	n/a	n/a	n/a
182.80859375	0.2	374392	165	78	1	0	0	66	141	stimuli\Videos_short_600ms_horflip\56.repeated_touch_with_nail_file_short_horflip_short_600ms.mp4	56.repeated_touch_with_nail_file_short_horflip_short_600ms.mp4	210.68801334382397	211.2963308883536	0.6083175445296547	n/a	n/a	n/a	n/a
183.60888671875	0.2	376031	166	78	1	0	0	67	229	stimuli\Videos_short_600ms_horvertflip\54.repeated_touch_with_knife_short_horvertflip_short_600ms.mp4	54.repeated_touch_with_knife_short_horvertflip_short_600ms.mp4	211.48805275596123	212.09626795796157	0.6082152020003377	n/a	n/a	n/a	n/a
184.40869140625	0.2	377669	167	78	1	0	0	68	263	stimuli\Videos_short_600ms_horvertflip\85.touch_top_to_bottom_with_fabric_short_horvertflip_short_600ms.mp4	85.touch_top_to_bottom_with_fabric_short_horvertflip_short_600ms.mp4	212.2879341090056	212.89629094837528	0.6083568393696623	n/a	n/a	n/a	n/a
185.20849609375	0.2	379307	168	78	1	0	0	69	82	stimuli\Videos_short_600ms\84.single_touch_with_cotton_bud_short_short_600ms.mp4	84.single_touch_with_cotton_bud_short_short_600ms.mp4	213.08796765624177	213.69630162249587	0.6083339662541221	n/a	n/a	n/a	n/a
186.0087890625	0.2	380946	169	78	1	0	0	70	2	stimuli\Videos_short_600ms\11.single_touch_with_lighter_short_short_600ms.mp4	11.single_touch_with_lighter_short_short_600ms.mp4	213.88795809645265	214.4962375191235	0.6082794226708756	n/a	n/a	n/a	n/a
186.80859375	0.2	382584	170	78	1	0	0	71	97	stimuli\Videos_short_600ms_horflip\16.repeated_touch_with_plastic_brush_short_horflip_short_600ms.mp4	16.repeated_touch_with_plastic_brush_short_horflip_short_600ms.mp4	214.68794882990824	215.29628719483844	0.608338364930205	n/a	n/a	n/a	n/a
187.60888671875	0.2	384223	171	78	1	0	1	72	371	stimuli\Targets_short_600ms_horflip\hand-stroke_short_horflip_short_600ms.mp4	hand-stroke_short_horflip_short_600ms.mp4	215.4887228209473	216.0962805674999	0.6075577465526294	n/a	n/a	n/a	n/a
188.40869140625	0.2	385861	172	78	1	0	0	73	27	stimuli\Videos_short_600ms\34.repeated_punch_with_hand_short_short_600ms.mp4	34.repeated_punch_with_hand_short_short_600ms.mp4	216.28794906450457	216.89625370625117	0.6083046417465994	n/a	n/a	n/a	n/a
189.20849609375	0.2	387499	173	78	1	0	0	74	90	stimuli\Videos_short_600ms_horflip\1.repeated_touch_with_finger_fast_short_horflip_short_600ms.mp4	1.repeated_touch_with_finger_fast_short_horflip_short_600ms.mp4	217.0878876003376	217.69623329639444	0.6083456960568583	n/a	n/a	n/a	n/a
190.0087890625	0.2	389138	174	78	1	0	0	75	70	stimuli\Videos_short_600ms\73.single_stroke_with_flat_hand_short_short_600ms.mp4	73.single_stroke_with_flat_hand_short_short_600ms.mp4	217.8878991541933	218.49622109739948	0.6083219432061924	n/a	n/a	n/a	n/a
190.80859375	0.2	390776	175	78	1	0	0	76	326	stimuli\Videos_short_600ms_vertflip\60.single_push_with_tip_of_pencil_short_vertflip_short_600ms.mp4	60.single_push_with_tip_of_pencil_short_vertflip_short_600ms.mp4	218.68789369983503	219.29620010105236	0.6083064012173054	n/a	n/a	n/a	n/a
191.6083984375	0.2	392414	176	78	1	0	0	77	149	stimuli\Videos_short_600ms_horflip\63.stroke_top_to_bottom_with_screwdriver_short_horflip_short_600ms.mp4	63.stroke_top_to_bottom_with_screwdriver_short_horflip_short_600ms.mp4	219.48788443329067	220.09618467636164	0.6083002430709712	n/a	n/a	n/a	n/a
192.40869140625	0.2	394053	177	78	1	0	0	78	333	stimuli\Videos_short_600ms_vertflip\67.single_touch_with_sponge_short_vertflip_short_600ms.mp4	67.single_touch_with_sponge_short_vertflip_short_600ms.mp4	220.28782678130983	220.8961680786906	0.6083412973807754	n/a	n/a	n/a	n/a
193.20849609375	0.2	395691	178	78	1	0	0	79	239	stimuli\Videos_short_600ms_horvertflip\63.stroke_top_to_bottom_with_screwdriver_short_horvertflip_short_600ms.mp4	63.stroke_top_to_bottom_with_screwdriver_short_horvertflip_short_600ms.mp4	221.0877673698587	221.696132126845	0.6083647569862478	n/a	n/a	n/a	n/a
194.00830078125	0.2	397329	179	78	1	0	0	80	75	stimuli\Videos_short_600ms\78.single_stroke_top_to_bottom_with_soft_brush_short_short_600ms.mp4	78.single_stroke_top_to_bottom_with_soft_brush_short_short_600ms.mp4	221.88778361563573	222.49613634957404	0.6083527339383181	n/a	n/a	n/a	n/a
194.80859375	0.2	398968	180	78	1	0	0	81	213	stimuli\Videos_short_600ms_horvertflip\4.repeated_tap_with_finger_slow_short_horvertflip_short_600ms.mp4	4.repeated_tap_with_finger_slow_short_horvertflip_short_600ms.mp4	222.6877764018068	223.29611740594237	0.6083410041355819	n/a	n/a	n/a	n/a
195.6083984375	0.2	400606	181	78	1	0	0	82	24	stimuli\Videos_short_600ms\31.hand_grabbing_wrist_short_short_600ms.mp4	31.hand_grabbing_wrist_short_short_600ms.mp4	223.4877835569864	224.09606180667697	0.6082782496905565	n/a	n/a	n/a	n/a
196.408203125	0.2	402244	182	78	1	0	0	83	117	stimuli\Videos_short_600ms_horflip\34.repeated_punch_with_hand_short_horflip_short_600ms.mp4	34.repeated_punch_with_hand_short_horflip_short_600ms.mp4	224.2877077238113	224.8960853835806	0.6083776597693031	n/a	n/a	n/a	n/a
197.20849609375	0.2	403883	183	78	1	0	0	84	223	stimuli\Videos_short_600ms_horvertflip\49.repeated_slap_with_hand_short_horvertflip_short_600ms.mp4	49.repeated_slap_with_hand_short_horvertflip_short_600ms.mp4	225.08774772243896	225.69604825875513	0.6083005363161647	n/a	n/a	n/a	n/a
198.00830078125	0.2	405521	184	78	1	0	1	85	381	stimuli\Targets_short_600ms_vertflip\finger-tap_short_horvertflip_short_600ms.mp4	finger-tap_short_horvertflip_short_600ms.mp4	225.88773317748337	226.4960161190952	0.6082829416118329	n/a	n/a	n/a	n/a
198.80810546875	0.2	407159	185	78	1	0	0	86	158	stimuli\Videos_short_600ms_horflip\71.single_stroke_with_finger_top_to_bottom_short_horflip_short_600ms.mp4	71.single_stroke_with_finger_top_to_bottom_short_horflip_short_600ms.mp4	226.68802800607727	227.29604409467493	0.6080160885976511	n/a	n/a	n/a	n/a
199.6083984375	0.2	408798	186	78	1	0	0	87	335	stimuli\Videos_short_600ms_vertflip\69.stroke_with_soft_sock_short_vertflip_short_600ms.mp4	69.stroke_with_soft_sock_short_vertflip_short_600ms.mp4	227.48770907273865	228.09601606044637	0.6083069877076923	n/a	n/a	n/a	n/a
200.408203125	0.2	410436	187	78	1	0	0	88	55	stimuli\Videos_short_600ms\6.single_touch_with_flat_hand_short_short_600ms.mp4	6.single_touch_with_flat_hand_short_short_600ms.mp4	228.28769218182288	228.8959953573444	0.6083031755215416	n/a	n/a	n/a	n/a
201.2080078125	0.2	412074	188	78	1	0	1	89	369	stimuli\Targets_short_600ms_horflip\finger-tap_short_horflip_short_600ms.mp4	finger-tap_short_horflip_short_600ms.mp4	229.08764391368413	229.6960042719943	0.6083603583101649	n/a	n/a	n/a	n/a
202.00830078125	0.2	413713	189	78	1	0	0	90	133	stimuli\Videos_short_600ms_horflip\49.repeated_slap_with_hand_short_horflip_short_600ms.mp4	49.repeated_slap_with_hand_short_horflip_short_600ms.mp4	229.88766015946112	230.49598239591205	0.6083222364509311	n/a	n/a	n/a	n/a
202.80810546875	0.2	415351	190	78	1	0	0	91	324	stimuli\Videos_short_600ms_vertflip\59.single_push_with_long_side_pencil_short_vertflip_short_600ms.mp4	59.single_push_with_long_side_pencil_short_vertflip_short_600ms.mp4	230.68764209556457	231.2959663847314	0.6083242891668306	n/a	n/a	n/a	n/a
203.60791015625	0.2	416989	191	78	1	0	0	92	203	stimuli\Videos_short_600ms_horvertflip\30.finger_pulling_back_another_finger_short_horvertflip_short_600ms.mp4	30.finger_pulling_back_another_finger_short_horvertflip_short_600ms.mp4	231.48762696411904	232.095952133021	0.6083251689019562	n/a	n/a	n/a	n/a
204.408203125	0.2	418628	192	78	1	0	0	93	341	stimuli\Videos_short_600ms_vertflip\74.fingers_walking_from_top_to_bottom_short_vertflip_short_600ms.mp4	74.fingers_walking_from_top_to_bottom_short_vertflip_short_600ms.mp4	232.2876106596932	232.8959267379978	0.6083160783045969	4.0	4.0	2.2061486453399084	1.0
238.82373046875	0.2	489111	193	78	2	0	0	0	332	stimuli\Videos_short_600ms_vertflip\66.stroke_top_to_bottom_with_sponge_short_vertflip_short_600ms.mp4	66.stroke_top_to_bottom_with_sponge_short_vertflip_short_600ms.mp4	266.7035342189142	267.31185234993427	0.6083181310200416	n/a	n/a	n/a	n/a
239.62353515625	0.2	490749	194	78	2	0	0	1	13	stimuli\Videos_short_600ms\21.repeated_touch_with_metal_chopstick_short_short_600ms.mp4	21.repeated_touch_with_metal_chopstick_short_short_600ms.mp4	267.50351644826287	268.1118181575589	0.608301709296029	n/a	n/a	n/a	n/a
240.423828125	0.2	492388	195	78	2	0	0	2	330	stimuli\Videos_short_600ms_vertflip\64.repeated_touch_with_screwdriver_short_vertflip_short_600ms.mp4	64.repeated_touch_with_screwdriver_short_vertflip_short_600ms.mp4	268.3034986776115	268.91182238028796	0.6083237026764436	n/a	n/a	n/a	n/a
241.2236328125	0.2	494026	196	78	2	0	0	3	201	stimuli\Videos_short_600ms_horvertflip\29.single_pinch_with_tweezers_short_horvertflip_short_600ms.mp4	29.single_pinch_with_tweezers_short_horvertflip_short_600ms.mp4	269.10350729901666	269.7118075420876	0.6083002430709712	n/a	n/a	n/a	n/a
242.0234375	0.2	495664	197	78	2	0	0	4	63	stimuli\Videos_short_600ms\67.single_touch_with_sponge_short_short_600ms.mp4	67.single_touch_with_sponge_short_short_600ms.mp4	269.90349011485523	270.5118061931603	0.6083160783050516	n/a	n/a	n/a	n/a
242.82373046875	0.2	497303	198	78	2	0	0	5	66	stimuli\Videos_short_600ms\7.repeated_touch_with_hairbrush_short_short_600ms.mp4	7.repeated_touch_with_hairbrush_short_short_600ms.mp4	270.7034699982437	271.31179927257654	0.6083292743328457	n/a	n/a	n/a	n/a
243.62353515625	0.2	498941	199	78	2	0	0	6	3	stimuli\Videos_short_600ms\12.repeated_touch_with_nail_file_short_short_600ms.mp4	12.repeated_touch_with_nail_file_short_short_600ms.mp4	271.5034302342119	272.111784141131	0.608353906919092	n/a	n/a	n/a	n/a
244.42333984375	0.2	500579	200	78	2	0	0	7	302	stimuli\Videos_short_600ms_vertflip\39.single_stab_with_scissors_short_vertflip_short_600ms.mp4	39.single_stab_with_scissors_short_vertflip_short_600ms.mp4	272.30339780130726	272.91175903935255	0.6083612380452905	n/a	n/a	n/a	n/a
245.2236328125	0.2	502218	201	78	2	0	0	8	329	stimuli\Videos_short_600ms_vertflip\63.stroke_top_to_bottom_with_screwdriver_short_vertflip_short_600ms.mp4	63.stroke_top_to_bottom_with_screwdriver_short_vertflip_short_600ms.mp4	273.1033803239011	273.7117444943974	0.6083641704963156	n/a	n/a	n/a	n/a
246.0234375	0.2	503856	202	78	2	0	0	9	31	stimuli\Videos_short_600ms\38.double_slap_with_pencil_short_short_600ms.mp4	38.double_slap_with_pencil_short_short_600ms.mp4	273.90338454663015	274.51172525752054	0.6083407108903884	n/a	n/a	n/a	n/a
246.8232421875	0.2	505494	203	78	2	0	0	10	256	stimuli\Videos_short_600ms_horvertflip\79.long_with_soft_brush_all_over_the_hand_short_horvertflip_short_600ms.mp4	79.long_with_soft_brush_all_over_the_hand_short_horvertflip_short_600ms.mp4	274.7033711746549	275.3117077801144	0.608336605459499	n/a	n/a	n/a	n/a
247.62353515625	0.2	507133	204	78	2	0	0	11	311	stimuli\Videos_short_600ms_vertflip\47.(long)scratching_with_finger_nails_short_vertflip_short_600ms.mp4	47.(long)scratching_with_finger_nails_short_vertflip_short_600ms.mp4	275.5033226132714	276.11169147568853	0.6083688624171373	n/a	n/a	n/a	n/a
248.42333984375	0.2	508771	205	78	2	0	0	12	48	stimuli\Videos_short_600ms\53.touch_top_to_bottom_with_knife_short_short_600ms.mp4	53.touch_top_to_bottom_with_knife_short_short_600ms.mp4	276.30330542910997	276.9116775172233	0.6083720881133559	n/a	n/a	n/a	n/a
249.22314453125	0.2	510409	206	78	2	0	1	13	361	stimuli\Targets_short_600ms\chopstick-silver-tap_short_short_600ms.mp4	chopstick-silver-tap_short_short_600ms.mp4	277.10330554640814	277.7116594533268	0.6083539069186372	n/a	n/a	n/a	n/a
250.0234375	0.2	512048	207	78	2	0	0	14	127	stimuli\Videos_short_600ms_horflip\43.touch_top_to_bottom_with_sharp_wooden_stick_short_horflip_short_600ms.mp4	43.touch_top_to_bottom_with_sharp_wooden_stick_short_horflip_short_600ms.mp4	277.903279564895	278.51164578810676	0.6083662232117604	n/a	n/a	n/a	n/a
250.8232421875	0.2	513686	208	78	2	0	0	15	342	stimuli\Videos_short_600ms_vertflip\75.(long)stroke_with_fingers_all_over_the_hand_short_vertflip_short_600ms.mp4	75.(long)stroke_with_fingers_all_over_the_hand_short_vertflip_short_600ms.mp4	278.70326795239	279.31162449851445	0.6083565461244689	n/a	n/a	n/a	n/a
251.623046875	0.2	515324	209	78	2	0	0	16	246	stimuli\Videos_short_600ms_horvertflip\7.repeated_touch_with_hairbrush_short_horvertflip_short_600ms.mp4	7.repeated_touch_with_hairbrush_short_horvertflip_short_600ms.mp4	279.5032504749838	280.1116067278631	0.6083562528792754	n/a	n/a	n/a	n/a
252.42333984375	0.2	516963	210	78	2	0	1	17	373	stimuli\Targets_short_600ms_horvertflip\chopstick-silver-tap_short_vertflip_short_600ms.mp4	chopstick-silver-tap_short_vertflip_short_600ms.mp4	280.3032450206256	280.9115675503217	0.6083225296961245	n/a	n/a	n/a	n/a
253.22314453125	0.2	518601	211	78	2	0	0	18	174	stimuli\Videos_short_600ms_horflip\86.touch_top_to_bottom_with_hair_brush_short_horflip_short_600ms.mp4	86.touch_top_to_bottom_with_hair_brush_short_horflip_short_600ms.mp4	281.1032424987179	281.71152954576064	0.6082870470427224	n/a	n/a	n/a	n/a
254.0234375	0.2	520240	212	78	2	0	0	19	105	stimuli\Videos_short_600ms_horflip\23.single_push_with_a_spoon_short_horflip_short_600ms.mp4	23.single_push_with_a_spoon_short_horflip_short_600ms.mp4	281.9032171036947	282.5115334752445	0.6083163715497903	n/a	n/a	n/a	n/a
254.8232421875	0.2	521878	213	78	2	0	0	20	338	stimuli\Videos_short_600ms_vertflip\71.single_stroke_with_finger_top_to_bottom_short_vertflip_short_600ms.mp4	71.single_stroke_with_finger_top_to_bottom_short_vertflip_short_600ms.mp4	282.703201679004	283.31149693690895	0.6082952579049561	n/a	n/a	n/a	n/a
255.623046875	0.2	523516	214	78	2	0	0	21	202	stimuli\Videos_short_600ms_horvertflip\3.single_push_with_finger_short_horvertflip_short_600ms.mp4	3.single_push_with_finger_short_horvertflip_short_600ms.mp4	283.5031806826569	284.11150585155883	0.6083251689019562	n/a	n/a	n/a	n/a
256.42333984375	0.2	525155	215	78	2	0	0	22	218	stimuli\Videos_short_600ms_horvertflip\44.pushing_top_to_bottom_with_finger_short_horvertflip_short_600ms.mp4	44.pushing_top_to_bottom_with_finger_short_horvertflip_short_600ms.mp4	284.3031851986311	284.9114901336229	0.6083049349917928	n/a	n/a	n/a	n/a
257.22314453125	0.2	526793	216	78	2	0	0	23	88	stimuli\Videos_short_600ms\9.single_touch_with_hammer_short_short_600ms.mp4	9.single_touch_with_hammer_short_short_600ms.mp4	285.10317211990105	285.71149347661685	0.6083213567158055	n/a	n/a	n/a	n/a
258.02294921875	0.2	528431	217	78	2	0	0	24	167	stimuli\Videos_short_600ms_horflip\8.single_touch_with_hairbrush_short_horflip_short_600ms.mp4	8.single_touch_with_hairbrush_short_horflip_short_600ms.mp4	285.9031080165287	286.5114871425235	0.6083791259948157	n/a	n/a	n/a	n/a
258.8232421875	0.2	530070	218	78	2	0	0	25	72	stimuli\Videos_short_600ms\75.(long)stroke_with_fingers_all_over_the_hand_short_short_600ms.mp4	75.(long)stroke_with_fingers_all_over_the_hand_short_short_600ms.mp4	286.7031195703844	287.3114588150497	0.6083392446653306	n/a	n/a	n/a	n/a
259.623046875	0.2	531708	219	78	2	0	0	26	76	stimuli\Videos_short_600ms\79.long_with_soft_brush_all_over_the_hand_short_short_600ms.mp4	79.long_with_soft_brush_all_over_the_hand_short_short_600ms.mp4	287.50307804688237	288.1114624512884	0.6083844044060243	n/a	n/a	n/a	n/a
260.4228515625	0.2	533346	220	78	2	0	0	27	146	stimuli\Videos_short_600ms_horflip\60.single_push_with_tip_of_pencil_short_horflip_short_600ms.mp4	60.single_push_with_tip_of_pencil_short_horflip_short_600ms.mp4	288.30306115596613	288.91142561970764	0.6083644637415091	n/a	n/a	n/a	n/a
261.22314453125	0.2	534985	221	78	2	0	0	28	314	stimuli\Videos_short_600ms_vertflip\5.repeated_tap_with_finger_moving_from_top_to_bottom_short_vertflip_short_600ms.mp4	5.repeated_tap_with_finger_moving_from_top_to_bottom_short_vertflip_short_600ms.mp4	289.1030697773713	289.71140433011533	0.6083345527440542	n/a	n/a	n/a	n/a
262.02294921875	0.2	536623	222	78	2	0	0	29	138	stimuli\Videos_short_600ms_horflip\53.touch_top_to_bottom_with_knife_short_horflip_short_600ms.mp4	53.touch_top_to_bottom_with_knife_short_horflip_short_600ms.mp4	289.90340917921594	290.5113909581405	0.6079817789245681	n/a	n/a	n/a	n/a
262.82275390625	0.2	538261	223	78	2	0	0	30	306	stimuli\Videos_short_600ms_vertflip\42.single_slap_with_plastic_whisk_short_vertflip_short_600ms.mp4	42.single_slap_with_plastic_whisk_short_vertflip_short_600ms.mp4	290.70302543871685	291.311372307754	0.6083468690371774	n/a	n/a	n/a	n/a
263.623046875	0.2	539900	224	78	2	0	0	31	121	stimuli\Videos_short_600ms_horflip\38.double_slap_with_pencil_short_horflip_short_600ms.mp4	38.double_slap_with_pencil_short_horflip_short_600ms.mp4	291.50300561535005	292.11135453710267	0.6083489217526221	n/a	n/a	n/a	n/a
264.4228515625	0.2	541538	225	78	2	0	0	32	16	stimuli\Videos_short_600ms\24.single_stroke_top_to_bottom_with_a_spoon_short_short_600ms.mp4	24.single_stroke_top_to_bottom_with_a_spoon_short_short_600ms.mp4	292.3029793405917	292.9113394056567	0.6083600650649714	n/a	n/a	n/a	n/a
265.22265625	0.2	543176	226	78	2	0	0	33	28	stimuli\Videos_short_600ms\35.single_punch_with_hand_short_short_600ms.mp4	35.single_punch_with_hand_short_short_600ms.mp4	293.1029694875574	293.7113228079861	0.608353320428705	n/a	n/a	n/a	n/a
266.02294921875	0.2	544815	227	78	2	0	0	34	29	stimuli\Videos_short_600ms\36.single_slap_with_full_hand_short_short_600ms.mp4	36.single_slap_with_full_hand_short_short_600ms.mp4	293.9029446790246	294.51130445084436	0.608359771819778	n/a	n/a	n/a	n/a
266.82275390625	0.2	546453	228	78	2	0	0	35	204	stimuli\Videos_short_600ms_horvertflip\31.hand_grabbing_wrist_short_horvertflip_short_600ms.mp4	31.hand_grabbing_wrist_short_horvertflip_short_600ms.mp4	294.70292778810835	295.3112916653595	0.6083638772511222	n/a	n/a	n/a	n/a
267.62255859375	0.2	548091	229	78	2	0	1	36	378	stimuli\Targets_short_600ms_vertflip\brush-stroke_short_horvertflip_short_600ms.mp4	brush-stroke_short_horvertflip_short_600ms.mp4	295.50291265666283	296.1112826920603	0.6083700353974564	n/a	n/a	n/a	n/a
268.4228515625	0.2	549730	230	78	2	0	0	37	143	stimuli\Videos_short_600ms_horflip\58.single_slap_with_pencil_short_horflip_short_600ms.mp4	58.single_slap_with_pencil_short_horflip_short_600ms.mp4	296.3029077887945	296.9112520186259	0.6083442298313457	n/a	n/a	n/a	n/a
269.22265625	0.2	551368	231	78	2	0	0	38	169	stimuli\Videos_short_600ms_horflip\81.single_stroke_top_to_bottom_with_cotton_pad_short_horflip_short_600ms.mp4	81.single_stroke_top_to_bottom_with_cotton_pad_short_horflip_short_600ms.mp4	297.1028955897996	297.71121489379993	0.6083193040003607	n/a	n/a	n/a	n/a
270.0224609375	0.2	553006	232	78	2	0	0	39	220	stimuli\Videos_short_600ms_horvertflip\46.scratching_top_to_bottom_with_finger_nails_short_horvertflip_short_600ms.mp4	46.scratching_top_to_bottom_with_finger_nails_short_horvertflip_short_600ms.mp4	297.9028822178243	298.5111997623544	0.6083175445301094	n/a	n/a	n/a	n/a
270.82275390625	0.2	554645	233	78	2	0	0	40	106	stimuli\Videos_short_600ms_horflip\24.single_stroke_top_to_bottom_with_a_spoon_short_horflip_short_600ms.mp4	24.single_stroke_top_to_bottom_with_a_spoon_short_horflip_short_600ms.mp4	298.7028615147224	299.31116586322423	0.6083043485018607	n/a	n/a	n/a	n/a
271.62255859375	0.2	556283	234	78	2	0	0	41	228	stimuli\Videos_short_600ms_horvertflip\53.touch_top_to_bottom_with_knife_short_horvertflip_short_600ms.mp4	53.touch_top_to_bottom_with_knife_short_horvertflip_short_600ms.mp4	299.5028466765216	300.11116803323785	0.6083213567162602	n/a	n/a	n/a	n/a
272.42236328125	0.2	557921	235	78	2	0	0	42	199	stimuli\Videos_short_600ms_horvertflip\27.single_push_with_a_plastic_whisk_short_horvertflip_short_600ms.mp4	27.single_push_with_a_plastic_whisk_short_horvertflip_short_600ms.mp4	300.3028289058707	300.9111760681526	0.6083471622819161	n/a	n/a	n/a	n/a
273.22265625	0.2	559560	236	78	2	0	0	43	18	stimuli\Videos_short_600ms\26.single_touch_with_a_blunt_syringe_short_short_600ms.mp4	26.single_touch_with_a_blunt_syringe_short_short_600ms.mp4	301.1028111352193	301.7111632826677	0.608352147448386	n/a	n/a	n/a	n/a
274.0224609375	0.2	561198	237	78	2	0	0	44	305	stimuli\Videos_short_600ms_vertflip\41.injection_with_blunt_syringe_short_vertflip_short_600ms.mp4	41.injection_with_blunt_syringe_short_vertflip_short_600ms.mp4	301.90280597410583	302.51113847413444	0.6083325000286095	n/a	n/a	n/a	n/a
274.82275390625	0.2	562837	238	78	2	0	1	45	374	stimuli\Targets_short_600ms_horvertflip\chopstickwood-tap_short_vertflip_short_600ms.mp4	chopstickwood-tap_short_vertflip_short_600ms.mp4	302.70277676689693	303.3111221697086	0.6083454028116648	n/a	n/a	n/a	n/a
275.62255859375	0.2	564475	239	78	2	0	0	46	94	stimuli\Videos_short_600ms_horflip\13.single_touch_with_pen_short_horflip_short_600ms.mp4	13.single_touch_with_pen_short_horflip_short_600ms.mp4	303.50274198803163	304.1111032260769	0.6083612380452905	n/a	n/a	n/a	n/a
276.42236328125	0.2	566113	240	78	2	0	0	47	260	stimuli\Videos_short_600ms_horvertflip\82.repeated_touch_with_cotton_bud_short_horvertflip_short_600ms.mp4	82.repeated_touch_with_cotton_bud_short_horvertflip_short_600ms.mp4	304.30272451062547	304.9110869216511	0.6083624110256096	n/a	n/a	n/a	n/a
277.22265625	0.2	567752	241	78	2	0	0	48	328	stimuli\Videos_short_600ms_vertflip\62.touch_top_to_bottom_with_scissors_short_vertflip_short_600ms.mp4	62.touch_top_to_bottom_with_scissors_short_vertflip_short_600ms.mp4	305.102727267129	305.7110694442449	0.608342177115901	n/a	n/a	n/a	n/a
278.0224609375	0.2	569390	242	78	2	0	0	49	265	stimuli\Videos_short_600ms_horvertflip\87.single_stroke_top_to_bottom_with_plastic_brush_short_horvertflip_short_600ms.mp4	87.single_stroke_top_to_bottom_with_plastic_brush_short_horvertflip_short_600ms.mp4	305.9027171208495	306.51105372630946	0.6083366054599537	n/a	n/a	n/a	n/a
278.822265625	0.2	571028	243	78	2	0	0	50	108	stimuli\Videos_short_600ms_horflip\26.single_touch_with_a_blunt_syringe_short_horflip_short_600ms.mp4	26.single_touch_with_a_blunt_syringe_short_horflip_short_600ms.mp4	306.7026978839731	307.3110371286384	0.6083392446653306	n/a	n/a	n/a	n/a
279.62255859375	0.2	572667	244	78	2	0	0	51	87	stimuli\Videos_short_600ms\89.single_touch_with_plastic_brush_short_short_600ms.mp4	89.single_touch_with_plastic_brush_short_short_600ms.mp4	307.5026543077556	308.1110214107025	0.608367102946886	n/a	n/a	n/a	n/a
280.42236328125	0.2	574305	245	78	2	0	1	52	379	stimuli\Targets_short_600ms_vertflip\chopstick-silver-tap_short_horvertflip_short_600ms.mp4	chopstick-silver-tap_short_horvertflip_short_600ms.mp4	308.3026494398873	308.9110015873357	0.608352147448386	n/a	n/a	n/a	n/a
281.22216796875	0.2	575943	246	78	2	0	0	53	217	stimuli\Videos_short_600ms_horvertflip\43.touch_top_to_bottom_with_sharp_wooden_stick_short_horvertflip_short_600ms.mp4	43.touch_top_to_bottom_with_sharp_wooden_stick_short_horvertflip_short_600ms.mp4	309.1026243381093	309.7109858693998	0.608361531290484	n/a	n/a	n/a	n/a
282.0224609375	0.2	577582	247	78	2	0	0	54	162	stimuli\Videos_short_600ms_horflip\75.(long)stroke_with_fingers_all_over_the_hand_short_horflip_short_600ms.mp4	75.(long)stroke_with_fingers_all_over_the_hand_short_horflip_short_600ms.mp4	309.9026130188495	310.51097484338516	0.6083618245356774	n/a	n/a	n/a	n/a
282.822265625	0.2	579220	248	78	2	0	1	55	364	stimuli\Targets_short_600ms\hand-pinch_short_short_600ms.mp4	hand-pinch_short_short_600ms.mp4	310.7025920225028	311.3109482753821	0.6083562528792754	n/a	n/a	n/a	n/a
283.6220703125	0.2	580858	249	78	2	0	0	56	173	stimuli\Videos_short_600ms_horflip\85.touch_top_to_bottom_with_fabric_short_horflip_short_600ms.mp4	85.touch_top_to_bottom_with_fabric_short_horflip_short_600ms.mp4	311.50271676895545	312.1109384223473	0.6082216533918654	n/a	n/a	n/a	n/a
284.42236328125	0.2	582497	250	78	2	0	0	57	254	stimuli\Videos_short_600ms_horvertflip\77.tapping_with_all_fingers_short_horvertflip_short_600ms.mp4	77.tapping_with_all_fingers_short_horvertflip_short_600ms.mp4	312.30257466239436	312.9109273963327	0.6083527339383181	n/a	n/a	n/a	n/a
285.22216796875	0.2	584135	251	78	2	0	0	58	297	stimuli\Videos_short_600ms_vertflip\34.repeated_punch_with_hand_short_vertflip_short_600ms.mp4	34.repeated_punch_with_hand_short_vertflip_short_600ms.mp4	313.10256891479094	313.7108797146843	0.6083107998933883	n/a	n/a	n/a	n/a
286.02197265625	0.2	585773	252	78	2	0	0	59	125	stimuli\Videos_short_600ms_horflip\41.injection_with_blunt_syringe_short_horflip_short_600ms.mp4	41.injection_with_blunt_syringe_short_horflip_short_600ms.mp4	313.9025429332778	314.51086223727816	0.6083193040003607	n/a	n/a	n/a	n/a
286.822265625	0.2	587412	253	78	2	0	0	60	248	stimuli\Videos_short_600ms_horvertflip\71.single_stroke_with_finger_top_to_bottom_short_horvertflip_short_600ms.mp4	71.single_stroke_with_finger_top_to_bottom_short_horvertflip_short_600ms.mp4	314.70253483971373	315.31085326397897	0.6083184242652351	n/a	n/a	n/a	n/a
287.6220703125	0.2	589050	254	78	2	0	0	61	222	stimuli\Videos_short_600ms_horvertflip\48.single_slap_with_hand_short_horvertflip_short_600ms.mp4	48.single_slap_with_hand_short_horvertflip_short_600ms.mp4	315.5025085649554	316.11083285412224	0.6083242891668306	n/a	n/a	n/a	n/a
288.421875	0.2	590688	255	78	2	0	0	62	192	stimuli\Videos_short_600ms_horvertflip\20.single_touch_with_screwdriver_short_horvertflip_short_600ms.mp4	20.single_touch_with_screwdriver_short_horvertflip_short_600ms.mp4	316.3024907943045	316.9108426485077	0.6083518542031925	n/a	n/a	n/a	n/a
289.22216796875	0.2	592327	256	78	2	0	0	63	175	stimuli\Videos_short_600ms_horflip\87.single_stroke_top_to_bottom_with_plastic_brush_short_horflip_short_600ms.mp4	87.single_stroke_top_to_bottom_with_plastic_brush_short_horflip_short_600ms.mp4	317.1024736101431	317.7108160805042	0.6083424703610945	n/a	n/a	n/a	n/a
290.02197265625	0.2	593965	257	78	2	0	0	64	186	stimuli\Videos_short_600ms_horvertflip\15.single_stroke_top_to_bottom_with_a_plastic_whisk_short_horvertflip_short_600ms.mp4	15.single_stroke_top_to_bottom_with_a_plastic_whisk_short_horvertflip_short_600ms.mp4	317.90245877194275	318.5108126788614	0.6083539069186372	n/a	n/a	n/a	n/a
290.82177734375	0.2	595603	258	78	2	0	0	65	261	stimuli\Videos_short_600ms_horvertflip\83.single_stroke_top_to_bottom_with_cotton_bud_short_horvertflip_short_600ms.mp4	83.single_stroke_top_to_bottom_with_cotton_bud_short_horvertflip_short_600ms.mp4	318.70243982831107	319.3107831784073	0.6083433500962201	n/a	n/a	n/a	n/a
291.6220703125	0.2	597242	259	78	2	0	0	66	207	stimuli\Videos_short_600ms_horvertflip\34.repeated_punch_with_hand_short_horvertflip_short_600ms.mp4	34.repeated_punch_with_hand_short_horvertflip_short_600ms.mp4	319.5024235238852	320.110769806432	0.6083462825467905	n/a	n/a	n/a	n/a
292.421875	0.2	598880	260	78	2	0	0	67	156	stimuli\Videos_short_600ms_horflip\7.repeated_touch_with_hairbrush_short_horflip_short_600ms.mp4	7.repeated_touch_with_hairbrush_short_horflip_short_600ms.mp4	320.30240604647906	320.9107552614764	0.6083492149973608	n/a	n/a	n/a	n/a
293.22216796875	0.2	600519	261	78	2	0	0	68	356	stimuli\Videos_short_600ms_vertflip\88.repeated_stroke_with_plastic_brush_short_vertflip_short_600ms.mp4	88.repeated_stroke_with_plastic_brush_short_vertflip_short_600ms.mp4	321.10239179476866	321.710733092149	0.6083412973803206	n/a	n/a	n/a	n/a
294.02197265625	0.2	602157	262	78	2	0	0	69	282	stimuli\Videos_short_600ms_vertflip\20.single_touch_with_screwdriver_short_vertflip_short_600ms.mp4	20.single_touch_with_screwdriver_short_vertflip_short_600ms.mp4	321.9023822349791	322.51071825394865	0.6083360189695668	n/a	n/a	n/a	n/a
294.82177734375	0.2	603795	263	78	2	0	0	70	281	stimuli\Videos_short_600ms_vertflip\2.single_touch_with_finger_short_vertflip_short_600ms.mp4	2.single_touch_with_finger_short_vertflip_short_600ms.mp4	322.70233689929137	323.310699310317	0.6083624110256096	n/a	n/a	n/a	n/a
295.6220703125	0.2	605434	264	78	2	0	0	71	272	stimuli\Videos_short_600ms_vertflip\11.single_touch_with_lighter_short_vertflip_short_600ms.mp4	11.single_touch_with_lighter_short_vertflip_short_600ms.mp4	323.5023205948655	324.11068388562626	0.6083632907607353	n/a	n/a	n/a	n/a
296.421875	0.2	607072	265	78	2	0	0	72	0	stimuli\Videos_short_600ms\1.repeated_touch_with_finger_fast_short_short_600ms.mp4	1.repeated_touch_with_finger_fast_short_short_600ms.mp4	324.3023037039493	324.91066435550465	0.6083606515553583	n/a	n/a	n/a	n/a
297.2216796875	0.2	608710	266	78	2	0	1	73	376	stimuli\Targets_short_600ms_horvertflip\hand-pinch_short_vertflip_short_600ms.mp4	hand-pinch_short_vertflip_short_600ms.mp4	325.1022847603176	325.71065039703944	0.6083656367218282	n/a	n/a	n/a	n/a
298.02197265625	0.2	610349	267	78	2	0	0	74	163	stimuli\Videos_short_600ms_horflip\76.tickle_with_fingers_from_top_to_bottom_short_horflip_short_600ms.mp4	76.tickle_with_fingers_from_top_to_bottom_short_horflip_short_600ms.mp4	325.9022722680779	326.51063086691784	0.6083585988399136	n/a	n/a	n/a	n/a
298.82177734375	0.2	611987	268	78	2	0	0	75	227	stimuli\Videos_short_600ms_horvertflip\52.touch_top_to_bottom_with_hammer_short_horvertflip_short_600ms.mp4	52.touch_top_to_bottom_with_hammer_short_horvertflip_short_600ms.mp4	326.70227942325755	327.31061456249154	0.6083351392339864	n/a	n/a	n/a	n/a
299.62158203125	0.2	613625	269	78	2	0	1	76	363	stimuli\Targets_short_600ms\finger-tap_short_short_600ms.mp4	finger-tap_short_short_600ms.mp4	327.50226458505676	328.11055368481493	0.6082890997581671	n/a	n/a	n/a	n/a
300.421875	0.2	615264	270	78	2	0	0	77	225	stimuli\Videos_short_600ms_horvertflip\50.single_(long)hard_push_with_thumb_short_horvertflip_short_600ms.mp4	50.single_(long)hard_push_with_thumb_short_horvertflip_short_600ms.mp4	328.30224505493516	328.91053620740877	0.6082911524736119	n/a	n/a	n/a	n/a
301.2216796875	0.2	616902	271	78	2	0	0	78	271	stimuli\Videos_short_600ms_vertflip\10.single_touch_with_knife_short_vertflip_short_600ms.mp4	10.single_touch_with_knife_short_vertflip_short_600ms.mp4	329.10222112613747	329.7105184367574	0.6082973106199461	n/a	n/a	n/a	n/a
302.021484375	0.2	618540	272	78	2	0	0	79	236	stimuli\Videos_short_600ms_horvertflip\60.single_push_with_tip_of_pencil_short_horvertflip_short_600ms.mp4	60.single_push_with_tip_of_pencil_short_horvertflip_short_600ms.mp4	329.9022036487313	330.5105294041232	0.6083257553918884	n/a	n/a	n/a	n/a
302.82177734375	0.2	620179	273	78	2	0	0	80	39	stimuli\Videos_short_600ms\45.scratching_with_finger_nails_short_short_600ms.mp4	45.scratching_with_finger_nails_short_short_600ms.mp4	330.70218617132514	331.3105177916186	0.6083316202934839	n/a	n/a	n/a	n/a
303.62158203125	0.2	621817	274	78	2	0	1	81	383	stimuli\Targets_short_600ms_vertflip\hand-stroke_short_horvertflip_short_600ms.mp4	hand-stroke_short_horvertflip_short_600ms.mp4	331.5021704533892	332.1105214278573	0.6083509744680669	n/a	n/a	n/a	n/a
304.42138671875	0.2	623455	275	78	2	0	0	82	310	stimuli\Videos_short_600ms_vertflip\46.scratching_top_to_bottom_with_finger_nails_short_vertflip_short_600ms.mp4	46.scratching_top_to_bottom_with_finger_nails_short_vertflip_short_600ms.mp4	332.30215590843363	332.91049955177505	0.6083436433414136	n/a	n/a	n/a	n/a
305.2216796875	0.2	625094	276	78	2	0	0	83	317	stimuli\Videos_short_600ms_vertflip\52.touch_top_to_bottom_with_hammer_short_vertflip_short_600ms.mp4	52.touch_top_to_bottom_with_hammer_short_vertflip_short_600ms.mp4	333.10213491208697	333.710482954104	0.6083480420170417	n/a	n/a	n/a	n/a
306.021484375	0.2	626732	277	78	2	0	0	84	35	stimuli\Videos_short_600ms\41.injection_with_blunt_syringe_short_short_600ms.mp4	41.injection_with_blunt_syringe_short_short_600ms.mp4	333.9021200738862	334.51046664967816	0.6083465757919839	n/a	n/a	n/a	n/a
306.8212890625	0.2	628370	278	78	2	0	0	85	287	stimuli\Videos_short_600ms_vertflip\25.single_touch_with_stanley_knife_short_vertflip_short_600ms.mp4	25.single_touch_with_stanley_knife_short_vertflip_short_600ms.mp4	334.7021023032348	335.31044536008585	0.6083430568510266	n/a	n/a	n/a	n/a
307.62158203125	0.2	630009	279	78	2	0	0	86	73	stimuli\Videos_short_600ms\76.tickle_with_fingers_from_top_to_bottom_short_short_600ms.mp4	76.tickle_with_fingers_from_top_to_bottom_short_short_600ms.mp4	335.5021065259639	336.1104293489052	0.608322822941318	n/a	n/a	n/a	n/a
308.42138671875	0.2	631647	280	78	2	0	0	87	50	stimuli\Videos_short_600ms\55.touch_top_to_bottom_with_nail_file_short_short_600ms.mp4	55.touch_top_to_bottom_with_nail_file_short_short_600ms.mp4	336.30207116060865	336.9104142174597	0.6083430568510266	n/a	n/a	n/a	n/a
309.22119140625	0.2	633285	281	78	2	0	0	88	57	stimuli\Videos_short_600ms\61.single_hit_with_rolling_pin_short_short_600ms.mp4	61.single_hit_with_rolling_pin_short_short_600ms.mp4	337.10207127790636	337.71039468733807	0.6083234094317049	n/a	n/a	n/a	n/a
310.021484375	0.2	634924	282	78	2	0	0	89	289	stimuli\Videos_short_600ms_vertflip\27.single_push_with_a_plastic_whisk_short_vertflip_short_600ms.mp4	27.single_push_with_a_plastic_whisk_short_vertflip_short_600ms.mp4	337.9020391382469	338.5103795558921	0.608340417645195	n/a	n/a	n/a	n/a
310.8212890625	0.2	636562	283	78	2	0	0	90	52	stimuli\Videos_short_600ms\57.single_touch_with_nail_file_short_short_600ms.mp4	57.single_touch_with_nail_file_short_short_600ms.mp4	338.70201814189977	339.3103653041817	0.6083471622819161	n/a	n/a	n/a	n/a
311.62158203125	0.2	638201	284	78	2	0	0	91	36	stimuli\Videos_short_600ms\42.single_slap_with_plastic_whisk_short_short_600ms.mp4	42.single_slap_with_plastic_whisk_short_short_600ms.mp4	339.50197163323173	340.1103454808149	0.6083738475831524	n/a	n/a	n/a	n/a
312.42138671875	0.2	639839	285	78	2	0	0	92	17	stimuli\Videos_short_600ms\25.single_touch_with_stanley_knife_short_short_600ms.mp4	25.single_touch_with_stanley_knife_short_short_600ms.mp4	340.3019655923831	340.9103285898991	0.6083629975159965	n/a	n/a	n/a	n/a
313.22119140625	0.2	641477	286	78	2	0	0	93	120	stimuli\Videos_short_600ms_horflip\37.single_stab_with_nail_file_short_horflip_short_600ms.mp4	37.single_stab_with_nail_file_short_horflip_short_600ms.mp4	341.1019709880925	341.7103073003068	0.6083363122143055	n/a	n/a	n/a	n/a
314.021484375	0.2	643116	287	78	2	0	0	94	99	stimuli\Videos_short_600ms_horflip\18.single_stroke_from_top_to_bottom_with_rolling_pin_short_horflip_short_600ms.mp4	18.single_stroke_from_top_to_bottom_with_rolling_pin_short_horflip_short_600ms.mp4	341.90197491757635	342.51026460382445	0.6082896862480993	n/a	n/a	n/a	n/a
314.8212890625	0.2	644754	288	78	2	0	0	95	298	stimuli\Videos_short_600ms_vertflip\35.single_punch_with_hand_short_vertflip_short_600ms.mp4	35.single_punch_with_hand_short_vertflip_short_600ms.mp4	342.7019351535446	343.3102318776746	0.6082967241300139	n/a	n/a	n/a	n/a
315.62109375	0.2	646392	289	78	2	0	0	96	21	stimuli\Videos_short_600ms\29.single_pinch_with_tweezers_short_short_600ms.mp4	29.single_pinch_with_tweezers_short_short_600ms.mp4	343.50191855587354	344.11023580715846	0.608317251284916	n/a	n/a	n/a	n/a
316.42138671875	0.2	648031	290	78	2	0	0	97	334	stimuli\Videos_short_600ms_vertflip\68.stroke_top_to_bottom_with_shawl_short_vertflip_short_600ms.mp4	68.stroke_top_to_bottom_with_shawl_short_vertflip_short_600ms.mp4	344.30189990548706	344.91020014855803	0.6083002430709712	n/a	n/a	n/a	n/a
317.22119140625	0.2	649669	291	78	2	0	0	98	245	stimuli\Videos_short_600ms_horvertflip\69.stroke_with_soft_sock_short_horvertflip_short_600ms.mp4	69.stroke_with_soft_sock_short_horvertflip_short_600ms.mp4	345.1018827213261	345.71020789022805	0.6083251689019562	9.0	9.0	2.806481419845568	1.0
351.95361328125	0.2	720801	292	78	3	0	0	0	93	stimuli\Videos_short_600ms_horflip\12.repeated_touch_with_nail_file_short_horflip_short_600ms.mp4	12.repeated_touch_with_nail_file_short_horflip_short_600ms.mp4	379.8345059714961	380.4428211700656	0.6083151985694712	n/a	n/a	n/a	n/a
352.75341796875	0.2	722439	293	78	3	0	0	1	304	stimuli\Videos_short_600ms_vertflip\40.repeated_push_with_finger_short_vertflip_short_600ms.mp4	40.repeated_push_with_finger_short_vertflip_short_600ms.mp4	380.634484975149	381.24278697769023	0.6083020025412225	n/a	n/a	n/a	n/a
353.55322265625	0.2	724077	294	78	3	0	0	2	185	stimuli\Videos_short_600ms_horvertflip\14.repeated_touch_with_pencil_short_horvertflip_short_600ms.mp4	14.repeated_touch_with_pencil_short_horvertflip_short_600ms.mp4	381.4344680842332	382.0427718462447	0.6083037620114737	n/a	n/a	n/a	n/a
354.353515625	0.2	725716	295	78	3	0	0	3	104	stimuli\Videos_short_600ms_horflip\22.single_touch_with_metal_chopstick_short_horflip_short_600ms.mp4	22.single_touch_with_metal_chopstick_short_horflip_short_600ms.mp4	382.2344494338467	382.8427784149344	0.6083289810876522	n/a	n/a	n/a	n/a
355.1533203125	0.2	727354	296	78	3	0	0	4	98	stimuli\Videos_short_600ms_horflip\17.repeated_touch_with_rolling_pin_short_horflip_short_600ms.mp4	17.repeated_touch_with_rolling_pin_short_horflip_short_600ms.mp4	383.0344404605475	383.642764163224	0.6083237026764436	n/a	n/a	n/a	n/a
355.953125	0.2	728992	297	78	3	0	0	5	14	stimuli\Videos_short_600ms\22.single_touch_with_metal_chopstick_short_short_600ms.mp4	22.single_touch_with_metal_chopstick_short_short_600ms.mp4	383.83524905450486	384.4427249856826	0.6074759311777598	n/a	n/a	n/a	n/a
356.75341796875	0.2	730631	298	78	3	0	0	6	250	stimuli\Videos_short_600ms_horvertflip\73.single_stroke_with_flat_hand_short_horvertflip_short_600ms.mp4	73.single_stroke_with_flat_hand_short_horvertflip_short_600ms.mp4	384.6344002273236	385.2426987109243	0.6082984836007199	n/a	n/a	n/a	n/a
357.55322265625	0.2	732269	299	78	3	0	0	7	107	stimuli\Videos_short_600ms_horflip\25.single_touch_with_stanley_knife_short_horflip_short_600ms.mp4	25.single_touch_with_stanley_knife_short_horflip_short_600ms.mp4	385.4343830431626	386.04269032411503	0.608307280952431	n/a	n/a	n/a	n/a
358.35302734375	0.2	733907	300	78	3	0	0	8	181	stimuli\Videos_short_600ms_horvertflip\10.single_touch_with_knife_short_horvertflip_short_600ms.mp4	10.single_touch_with_knife_short_horvertflip_short_600ms.mp4	386.2343658590016	386.842685163002	0.6083193040003607	n/a	n/a	n/a	n/a
359.1533203125	0.2	735546	301	78	3	0	0	9	293	stimuli\Videos_short_600ms_vertflip\30.finger_pulling_back_another_finger_short_vertflip_short_600ms.mp4	30.finger_pulling_back_another_finger_short_vertflip_short_600ms.mp4	387.0343501410657	387.64266797884056	0.6083178377748482	n/a	n/a	n/a	n/a
359.953125	0.2	737184	302	78	3	0	0	10	188	stimuli\Videos_short_600ms_horvertflip\17.repeated_touch_with_rolling_pin_short_horvertflip_short_600ms.mp4	17.repeated_touch_with_rolling_pin_short_horvertflip_short_600ms.mp4	387.8343373555808	388.44265402037536	0.6083166647945291	n/a	n/a	n/a	n/a
360.7529296875	0.2	738822	303	78	3	0	0	11	84	stimuli\Videos_short_600ms\86.touch_top_to_bottom_with_hair_brush_short_short_600ms.mp4	86.touch_top_to_bottom_with_hair_brush_short_short_600ms.mp4	388.63429201989265	389.24263595647926	0.608343936586607	n/a	n/a	n/a	n/a
361.55322265625	0.2	740461	304	78	3	0	0	12	214	stimuli\Videos_short_600ms_horvertflip\40.repeated_push_with_finger_short_horvertflip_short_600ms.mp4	40.repeated_push_with_finger_short_horvertflip_short_600ms.mp4	389.4342548950667	390.04261847907264	0.6083635840059287	n/a	n/a	n/a	n/a
362.35302734375	0.2	742099	305	78	3	0	0	13	40	stimuli\Videos_short_600ms\46.scratching_top_to_bottom_with_finger_nails_short_short_600ms.mp4	46.scratching_top_to_bottom_with_finger_nails_short_short_600ms.mp4	390.23423859064087	390.84260188140206	0.60836329076119	n/a	n/a	n/a	n/a
363.15283203125	0.2	743737	306	78	3	0	0	14	81	stimuli\Videos_short_600ms\83.single_stroke_top_to_bottom_with_cotton_bud_short_short_600ms.mp4	83.single_stroke_top_to_bottom_with_cotton_bud_short_short_600ms.mp4	391.0342205267443	391.6425844039959	0.6083638772515769	n/a	n/a	n/a	n/a
363.953125	0.2	745376	307	78	3	0	1	15	366	stimuli\Targets_short_600ms_horflip\brush-stroke_short_horflip_short_600ms.mp4	brush-stroke_short_horflip_short_600ms.mp4	391.8342370657665	392.4425692725499	0.608332206783416	n/a	n/a	n/a	n/a
364.7529296875	0.2	747014	308	78	3	0	0	16	161	stimuli\Videos_short_600ms_horflip\74.fingers_walking_from_top_to_bottom_short_horflip_short_600ms.mp4	74.fingers_walking_from_top_to_bottom_short_horflip_short_600ms.mp4	392.63419612875487	393.24254710322293	0.6083509744680669	n/a	n/a	n/a	n/a
365.552734375	0.2	748652	309	78	3	0	1	17	372	stimuli\Targets_short_600ms_horvertflip\brush-stroke_short_vertflip_short_600ms.mp4	brush-stroke_short_vertflip_short_600ms.mp4	393.4342199989033	394.04248827826177	0.6082682793585263	n/a	n/a	n/a	n/a
366.35302734375	0.2	750291	310	78	3	0	0	18	247	stimuli\Videos_short_600ms_horvertflip\70.(long)stroke_with_finger_all_over_the_hand_short_horvertflip_short_600ms.mp4	70.(long)stroke_with_finger_all_over_the_hand_short_horvertflip_short_600ms.mp4	394.2341954836156	394.84251772006655	0.6083222364509311	n/a	n/a	n/a	n/a
367.15283203125	0.2	751929	311	78	3	0	0	19	86	stimuli\Videos_short_600ms\88.repeated_stroke_with_plastic_brush_short_short_600ms.mp4	88.repeated_stroke_with_plastic_brush_short_short_600ms.mp4	395.0341868035616	395.6424764898097	0.6082896862480993	n/a	n/a	n/a	n/a
367.95263671875	0.2	753567	312	78	3	0	0	20	322	stimuli\Videos_short_600ms_vertflip\57.single_touch_with_nail_file_short_vertflip_short_600ms.mp4	57.single_touch_with_nail_file_short_vertflip_short_600ms.mp4	395.8341628747635	396.4424598921387	0.6082970173752074	n/a	n/a	n/a	n/a
368.7529296875	0.2	755206	313	78	3	0	0	21	321	stimuli\Videos_short_600ms_vertflip\56.repeated_touch_with_nail_file_short_vertflip_short_600ms.mp4	56.repeated_touch_with_nail_file_short_vertflip_short_600ms.mp4	396.6341459838477	397.2424462269187	0.6083002430709712	n/a	n/a	n/a	n/a
369.552734375	0.2	756844	314	78	3	0	0	22	290	stimuli\Videos_short_600ms_vertflip\28.single_injection_with_sharp_needle_short_vertflip_short_600ms.mp4	28.single_injection_with_sharp_needle_short_vertflip_short_600ms.mp4	397.4341276267064	398.0424290427573	0.6083014160508355	n/a	n/a	n/a	n/a
370.3525390625	0.2	758482	315	78	3	0	0	23	11	stimuli\Videos_short_600ms\2.single_touch_with_finger_short_short_600ms.mp4	2.single_touch_with_finger_short_short_600ms.mp4	398.2341101492998	398.8424118585963	0.6083017092964838	n/a	n/a	n/a	n/a
371.15283203125	0.2	760121	316	78	3	0	0	24	109	stimuli\Videos_short_600ms_horflip\27.single_push_with_a_plastic_whisk_short_horflip_short_600ms.mp4	27.single_push_with_a_plastic_whisk_short_horflip_short_600ms.mp4	399.03409413811914	399.6423729743001	0.6082788361809435	n/a	n/a	n/a	n/a
371.95263671875	0.2	761759	317	78	3	0	0	25	10	stimuli\Videos_short_600ms\19.single_touch_with_rolling_pin_short_short_600ms.mp4	19.single_touch_with_rolling_pin_short_short_600ms.mp4	399.8340778336933	400.44235491040354	0.6082770767102375	n/a	n/a	n/a	n/a
372.7529296875	0.2	763398	318	78	3	0	0	26	53	stimuli\Videos_short_600ms\58.single_slap_with_pencil_short_short_600ms.mp4	58.single_slap_with_pencil_short_short_600ms.mp4	400.63406152926746	401.24233655326225	0.6082750239947927	n/a	n/a	n/a	n/a
373.552734375	0.2	765036	319	78	3	0	0	27	155	stimuli\Videos_short_600ms_horflip\69.stroke_with_soft_sock_short_horflip_short_600ms.mp4	69.stroke_with_soft_sock_short_horflip_short_600ms.mp4	401.4340425856358	402.042319662346	0.6082770767102375	n/a	n/a	n/a	n/a
374.3525390625	0.2	766674	320	78	3	0	0	28	349	stimuli\Videos_short_600ms_vertflip\81.single_stroke_top_to_bottom_with_cotton_pad_short_vertflip_short_600ms.mp4	81.single_stroke_top_to_bottom_with_cotton_pad_short_vertflip_short_600ms.mp4	402.23402686769987	402.8423042376553	0.6082773699554309	n/a	n/a	n/a	n/a
375.15283203125	0.2	768313	321	78	3	0	0	29	208	stimuli\Videos_short_600ms_horvertflip\35.single_punch_with_hand_short_horvertflip_short_600ms.mp4	35.single_punch_with_hand_short_horvertflip_short_600ms.mp4	403.0339894496292	403.6422855872688	0.608296137639627	n/a	n/a	n/a	n/a
375.95263671875	0.2	769951	322	78	3	0	0	30	9	stimuli\Videos_short_600ms\18.single_stroke_from_top_to_bottom_with_rolling_pin_short_short_600ms.mp4	18.single_stroke_from_top_to_bottom_with_rolling_pin_short_short_600ms.mp4	403.83398370202576	404.442312096623	0.6083283945972653	n/a	n/a	n/a	n/a
376.75244140625	0.2	771589	323	78	3	0	0	31	67	stimuli\Videos_short_600ms\70.(long)stroke_with_finger_all_over_the_hand_short_short_600ms.mp4	70.(long)stroke_with_finger_all_over_the_hand_short_short_600ms.mp4	404.6339550813068	405.2422957921972	0.6083407108903884	n/a	n/a	n/a	n/a
377.552734375	0.2	773228	324	78	3	0	0	32	96	stimuli\Videos_short_600ms_horflip\15.single_stroke_top_to_bottom_with_a_plastic_whisk_short_horflip_short_600ms.mp4	15.single_stroke_top_to_bottom_with_a_plastic_whisk_short_horflip_short_600ms.mp4	405.43391385105	406.0422771418107	0.6083632907607353	n/a	n/a	n/a	n/a
378.3525390625	0.2	774866	325	78	3	0	0	33	340	stimuli\Videos_short_600ms_vertflip\73.single_stroke_with_flat_hand_short_vertflip_short_600ms.mp4	73.single_stroke_with_flat_hand_short_vertflip_short_600ms.mp4	406.23389783986886	406.8422611306301	0.60836329076119	n/a	n/a	n/a	n/a
379.15234375	0.2	776504	326	78	3	0	0	34	327	stimuli\Videos_short_600ms_vertflip\61.single_hit_with_rolling_pin_short_vertflip_short_600ms.mp4	61.single_hit_with_rolling_pin_short_vertflip_short_600ms.mp4	407.03390587478407	407.6422421869984	0.6083363122143055	n/a	n/a	n/a	n/a
379.95263671875	0.2	778143	327	78	3	0	0	35	42	stimuli\Videos_short_600ms\48.single_slap_with_hand_short_short_600ms.mp4	48.single_slap_with_hand_short_short_600ms.mp4	407.8339737316933	408.4422252960826	0.6082515643893203	n/a	n/a	n/a	n/a
380.75244140625	0.2	779781	328	78	3	0	0	36	235	stimuli\Videos_short_600ms_horvertflip\6.single_touch_with_flat_hand_short_horvertflip_short_600ms.mp4	6.single_touch_with_flat_hand_short_horvertflip_short_600ms.mp4	408.6338996579884	409.24222277417493	0.6083231161865115	n/a	n/a	n/a	n/a
381.55224609375	0.2	781419	329	78	3	0	1	37	369	stimuli\Targets_short_600ms_horflip\finger-tap_short_horflip_short_600ms.mp4	finger-tap_short_horflip_short_600ms.mp4	409.43386986428914	410.04214752748976	0.6082776632006244	n/a	n/a	n/a	n/a
382.3525390625	0.2	783058	330	78	3	0	0	38	142	stimuli\Videos_short_600ms_horflip\57.single_touch_with_nail_file_short_horflip_short_600ms.mp4	57.single_touch_with_nail_file_short_horflip_short_600ms.mp4	410.2338588382745	410.8421309298187	0.6082720915442223	n/a	n/a	n/a	n/a
383.15234375	0.2	784696	331	78	3	0	0	39	137	stimuli\Videos_short_600ms_horflip\52.touch_top_to_bottom_with_hammer_short_horflip_short_600ms.mp4	52.touch_top_to_bottom_with_hammer_short_horflip_short_600ms.mp4	411.03383754868264	411.6421149186376	0.6082773699549762	n/a	n/a	n/a	n/a
383.9521484375	0.2	786334	332	78	3	0	0	40	257	stimuli\Videos_short_600ms_horvertflip\8.single_touch_with_hairbrush_short_horvertflip_short_600ms.mp4	8.single_touch_with_hairbrush_short_horvertflip_short_600ms.mp4	411.83382153750154	412.44210330613305	0.6082817686315138	n/a	n/a	n/a	n/a
384.75244140625	0.2	787973	333	78	3	0	0	41	303	stimuli\Videos_short_600ms_vertflip\4.repeated_tap_with_finger_slow_short_vertflip_short_600ms.mp4	4.repeated_tap_with_finger_slow_short_vertflip_short_600ms.mp4	412.6338040600954	413.242103130186	0.6082990700906521	n/a	n/a	n/a	n/a
385.55224609375	0.2	789611	334	78	3	0	0	42	129	stimuli\Videos_short_600ms_horflip\45.scratching_with_finger_nails_short_horflip_short_600ms.mp4	45.scratching_with_finger_nails_short_horflip_short_600ms.mp4	413.433786289444	414.04209122443626	0.6083049349922476	n/a	n/a	n/a	n/a
386.35205078125	0.2	791249	335	78	3	0	0	43	116	stimuli\Videos_short_600ms_horflip\33.scratch_top_to_bottom_with_scissors_short_horflip_short_600ms.mp4	33.scratch_top_to_bottom_with_scissors_short_horflip_short_600ms.mp4	414.23376939852824	414.8420670023934	0.6082976038651395	n/a	n/a	n/a	n/a
387.15234375	0.2	792888	336	78	3	0	0	44	19	stimuli\Videos_short_600ms\27.single_push_with_a_plastic_whisk_short_short_600ms.mp4	27.single_push_with_a_plastic_whisk_short_short_600ms.mp4	415.0337170249586	415.64205187094785	0.6083348459892477	n/a	n/a	n/a	n/a
387.9521484375	0.2	794526	337	78	3	0	0	45	132	stimuli\Videos_short_600ms_horflip\48.single_slap_with_hand_short_horflip_short_600ms.mp4	48.single_slap_with_hand_short_horflip_short_600ms.mp4	415.83374001537186	416.44203204758105	0.6082920322091923	n/a	n/a	n/a	n/a
388.751953125	0.2	796164	338	78	3	0	0	46	80	stimuli\Videos_short_600ms\82.repeated_touch_with_cotton_bud_short_short_600ms.mp4	82.repeated_touch_with_cotton_bud_short_short_600ms.mp4	416.63372576366146	417.24199726871575	0.6082715050542902	n/a	n/a	n/a	n/a
389.55224609375	0.2	797803	339	78	3	0	0	47	95	stimuli\Videos_short_600ms_horflip\14.repeated_touch_with_pencil_short_horflip_short_600ms.mp4	14.repeated_touch_with_pencil_short_horflip_short_600ms.mp4	417.43370095512864	418.0419780318389	0.6082770767102375	n/a	n/a	n/a	n/a
390.35205078125	0.2	799441	340	78	3	0	0	48	182	stimuli\Videos_short_600ms_horvertflip\11.single_touch_with_lighter_short_horvertflip_short_600ms.mp4	11.single_touch_with_lighter_short_horvertflip_short_600ms.mp4	418.2336887561337	418.8419872397339	0.6082984836002652	n/a	n/a	n/a	n/a
391.15234375	0.2	801080	341	78	3	0	0	49	61	stimuli\Videos_short_600ms\65.stroke_top_to_bottom_with_stanley_knife_short_short_600ms.mp4	65.stroke_top_to_bottom_with_stanley_knife_short_short_600ms.mp4	419.03366541382593	419.6419844245815	0.608319010755622	n/a	n/a	n/a	n/a
391.9521484375	0.2	802718	342	78	3	0	0	50	275	stimuli\Videos_short_600ms_vertflip\14.repeated_touch_with_pencil_short_vertflip_short_600ms.mp4	14.repeated_touch_with_pencil_short_vertflip_short_600ms.mp4	419.8336060023749	420.4419675336653	0.608361531290484	n/a	n/a	n/a	n/a
392.751953125	0.2	804356	343	78	3	0	0	51	139	stimuli\Videos_short_600ms_horflip\54.repeated_touch_with_knife_short_horflip_short_600ms.mp4	54.repeated_touch_with_knife_short_horflip_short_600ms.mp4	420.63364424153224	421.2419559211607	0.608311679628514	n/a	n/a	n/a	n/a
393.55224609375	0.2	805995	344	78	3	0	0	52	354	stimuli\Videos_short_600ms_vertflip\86.touch_top_to_bottom_with_hair_brush_short_vertflip_short_600ms.mp4	86.touch_top_to_bottom_with_hair_brush_short_vertflip_short_600ms.mp4	421.4335739800131	422.041937564019	0.6083635840059287	n/a	n/a	n/a	n/a
394.35205078125	0.2	807633	345	78	3	0	0	53	277	stimuli\Videos_short_600ms_vertflip\16.repeated_touch_with_plastic_brush_short_vertflip_short_600ms.mp4	16.repeated_touch_with_plastic_brush_short_vertflip_short_600ms.mp4	422.23362512195354	422.8419218460835	0.6082967241300139	n/a	n/a	n/a	n/a
395.15185546875	0.2	809271	346	78	3	0	0	54	168	stimuli\Videos_short_600ms_horflip\80.stroke_with_sharp_stick_all_over_the_hand_short_horflip_short_600ms.mp4	80.stroke_with_sharp_stick_all_over_the_hand_short_horflip_short_600ms.mp4	423.0335621915615	423.6418973307955	0.6083351392339864	n/a	n/a	n/a	n/a
395.9521484375	0.2	810910	347	78	3	0	0	55	216	stimuli\Videos_short_600ms_horvertflip\42.single_slap_with_plastic_whisk_short_horvertflip_short_600ms.mp4	42.single_slap_with_plastic_whisk_short_horvertflip_short_600ms.mp4	423.8335708129662	424.4418886507415	0.6083178377753029	n/a	n/a	n/a	n/a
396.751953125	0.2	812548	348	78	3	0	1	56	365	stimuli\Targets_short_600ms\hand-stroke_short_short_600ms.mp4	hand-stroke_short_short_600ms.mp4	424.63354629767855	425.2418230811436	0.608276783465044	n/a	n/a	n/a	n/a
397.5517578125	0.2	814186	349	78	3	0	0	57	26	stimuli\Videos_short_600ms\33.scratch_top_to_bottom_with_scissors_short_short_600ms.mp4	33.scratch_top_to_bottom_with_scissors_short_short_600ms.mp4	425.43353175272296	426.0418311160588	0.6082993633358456	n/a	n/a	n/a	n/a
398.35205078125	0.2	815825	350	78	3	0	0	58	187	stimuli\Videos_short_600ms_horvertflip\16.repeated_touch_with_plastic_brush_short_horvertflip_short_600ms.mp4	16.repeated_touch_with_plastic_brush_short_horvertflip_short_600ms.mp4	426.2335131023365	426.8417907655371	0.6082776632006244	n/a	n/a	n/a	n/a
399.15185546875	0.2	817463	351	78	3	0	0	59	258	stimuli\Videos_short_600ms_horvertflip\80.stroke_with_sharp_stick_all_over_the_hand_short_horvertflip_short_600ms.mp4	80.stroke_with_sharp_stick_all_over_the_hand_short_horvertflip_short_600ms.mp4	427.0334953316851	427.6417964544912	0.6083011228060968	n/a	n/a	n/a	n/a
399.95166015625	0.2	819101	352	78	3	0	0	60	160	stimuli\Videos_short_600ms_horflip\73.single_stroke_with_flat_hand_short_horflip_short_600ms.mp4	73.single_stroke_with_flat_hand_short_horflip_short_600ms.mp4	427.83348195970984	428.4417924663585	0.6083105066486496	n/a	n/a	n/a	n/a
400.751953125	0.2	820740	353	78	3	0	0	61	346	stimuli\Videos_short_600ms_vertflip\79.long_with_soft_brush_all_over_the_hand_short_vertflip_short_600ms.mp4	79.long_with_soft_brush_all_over_the_hand_short_vertflip_short_600ms.mp4	428.6334615498531	429.24173891980854	0.6082773699554309	n/a	n/a	n/a	n/a
401.5517578125	0.2	822378	354	78	3	0	0	62	154	stimuli\Videos_short_600ms_horflip\68.stroke_top_to_bottom_with_shawl_short_horflip_short_600ms.mp4	68.stroke_top_to_bottom_with_shawl_short_horflip_short_600ms.mp4	429.43344436569214	430.0417375708812	0.6082932051890566	n/a	n/a	n/a	n/a
402.3515625	0.2	824016	355	78	3	0	0	63	71	stimuli\Videos_short_600ms\74.fingers_walking_from_top_to_bottom_short_short_600ms.mp4	74.fingers_walking_from_top_to_bottom_short_short_600ms.mp4	430.2334277680211	430.841703671751	0.6082759037299184	n/a	n/a	n/a	n/a
403.15185546875	0.2	825655	356	78	3	0	0	64	58	stimuli\Videos_short_600ms\62.touch_top_to_bottom_with_scissors_short_short_600ms.mp4	62.touch_top_to_bottom_with_scissors_short_short_600ms.mp4	431.0334082378995	431.6417090674604	0.6083008295609034	n/a	n/a	n/a	n/a
403.95166015625	0.2	827293	357	78	3	0	0	65	60	stimuli\Videos_short_600ms\64.repeated_touch_with_screwdriver_short_short_600ms.mp4	64.repeated_touch_with_screwdriver_short_short_600ms.mp4	431.8333931064535	432.44169159005423	0.6082984836007199	n/a	n/a	n/a	n/a
404.75146484375	0.2	828931	358	78	3	0	0	66	47	stimuli\Videos_short_600ms\52.touch_top_to_bottom_with_hammer_short_short_600ms.mp4	52.touch_top_to_bottom_with_hammer_short_short_600ms.mp4	432.63338002772343	433.2416527057576	0.6082726780341545	n/a	n/a	n/a	n/a
405.5517578125	0.2	830570	359	78	3	0	0	67	319	stimuli\Videos_short_600ms_vertflip\54.repeated_touch_with_knife_short_vertflip_short_600ms.mp4	54.repeated_touch_with_knife_short_vertflip_short_600ms.mp4	433.4333599111119	434.04165868795735	0.6082987768454586	n/a	n/a	n/a	n/a
