onset	duration	onsetsample	eventnumber	subjectnr	sequencenumber	blocksequencenumber	istarget	presentationnumber	stimnumber	stim	stimname	time_stimon	time_stimoff	stimdur	cresp	resp	rt	correct
55.154296875	0.2	112956	0	70	0	0	0	0	163	stimuli\Videos_short_600ms_horflip\76.tickle_with_fingers_from_top_to_bottom_short_horflip_short_600ms.mp4	76.tickle_with_fingers_from_top_to_bottom_short_horflip_short_600ms.mp4	74.33484246623084	74.94318215807834	0.6083396918475046				
55.9541015625	0.2	114594	1	70	0	0	0	1	184	stimuli\Videos_short_600ms_horvertflip\13.single_touch_with_pen_short_horvertflip_short_600ms.mp4	13.single_touch_with_pen_short_horvertflip_short_600ms.mp4	75.1348099747629	75.74316198287124	0.6083520081083407				
56.75439453125	0.2	116233	2	70	0	0	0	2	156	stimuli\Videos_short_600ms_horflip\7.repeated_touch_with_hairbrush_short_horflip_short_600ms.mp4	7.repeated_touch_with_hairbrush_short_horflip_short_600ms.mp4	75.93478276169299	76.54314474010607	0.608361978413086				
57.55419921875	0.2	117871	3	70	0	0	0	3	294	stimuli\Videos_short_600ms_vertflip\31.hand_grabbing_wrist_short_vertflip_short_600ms.mp4	31.hand_grabbing_wrist_short_vertflip_short_600ms.mp4	76.73479044469241	77.34312045947809	0.6083300147856789				
58.35400390625	0.2	119509	4	70	0	0	0	4	225	stimuli\Videos_short_600ms_horvertflip\50.single_(long)hard_push_with_thumb_short_horvertflip_short_600ms.mp4	50.single_(long)hard_push_with_thumb_short_horvertflip_short_600ms.mp4	77.5347676302863	78.14309911129385	0.6083314810075535				
59.154296875	0.2	121148	5	70	0	0	0	5	168	stimuli\Videos_short_600ms_horflip\80.stroke_with_sharp_stick_all_over_the_hand_short_horflip_short_600ms.mp4	80.stroke_with_sharp_stick_all_over_the_hand_short_horflip_short_600ms.mp4	78.33474628210206	78.94308450772769	0.60833822562563				
59.9541015625	0.2	122786	6	70	0	0	0	6	224	stimuli\Videos_short_600ms_horvertflip\5.repeated_tap_with_finger_moving_from_top_to_bottom_short_horvertflip_short_600ms.mp4	5.repeated_tap_with_finger_moving_from_top_to_bottom_short_horvertflip_short_600ms.mp4	79.13472434742835	79.74304585812934	0.6083215107009892				
60.75439453125	0.2	124425	7	70	0	0	1	7	363	stimuli\Targets_short_600ms\finger-tap_short_short_600ms.mp4	finger-tap_short_short_600ms.mp4	79.93472968447531	80.5430365329612	0.6083068484858813				
61.55419921875	0.2	126063	8	70	0	0	0	8	234	stimuli\Videos_short_600ms_horvertflip\59.single_push_with_long_side_pencil_short_horvertflip_short_600ms.mp4	59.single_push_with_long_side_pencil_short_horvertflip_short_600ms.mp4	80.73471097548827	81.3430052144704	0.6082942389821255				
62.35400390625	0.2	127701	9	70	0	0	0	9	280	stimuli\Videos_short_600ms_vertflip\19.single_touch_with_rolling_pin_short_vertflip_short_600ms.mp4	19.single_touch_with_rolling_pin_short_vertflip_short_600ms.mp4	81.53467261913465	82.14299794201179	0.6083253228771355				
63.154296875	0.2	129340	10	70	0	0	0	10	30	stimuli\Videos_short_600ms\37.single_stab_with_nail_file_short_short_600ms.mp4	37.single_stab_with_nail_file_short_short_600ms.mp4	82.33465244392755	82.94297512760568	0.608322683678125				
63.9541015625	0.2	130978	11	70	0	0	0	11	344	stimuli\Videos_short_600ms_vertflip\77.tapping_with_all_fingers_short_vertflip_short_600ms.mp4	77.tapping_with_all_fingers_short_vertflip_short_600ms.mp4	83.13465396879656	83.74298574304885	0.6083317742522922				
64.75390625	0.2	132616	12	70	0	0	0	12	89	stimuli\Videos_short_600ms\90.repeated_touch_with_sponge_short_short_600ms.mp4	90.repeated_touch_with_sponge_short_short_600ms.mp4	83.93463379358946	84.54296586108467	0.608332067495212				
65.55419921875	0.2	134255	13	70	0	0	0	13	77	stimuli\Videos_short_600ms\8.single_touch_with_hairbrush_short_short_600ms.mp4	8.single_touch_with_hairbrush_short_short_600ms.mp4	84.73505817673504	85.34293688854814	0.6078787118131004				
66.35400390625	0.2	135893	14	70	0	0	0	14	240	stimuli\Videos_short_600ms_horvertflip\64.repeated_touch_with_screwdriver_short_horvertflip_short_600ms.mp4	64.repeated_touch_with_screwdriver_short_horvertflip_short_600ms.mp4	85.53460312023526	86.14292111200484	0.6083179917695816				
67.15380859375	0.2	137531	15	70	0	0	0	15	101	stimuli\Videos_short_600ms_horflip\2.single_touch_with_finger_short_horflip_short_600ms.mp4	2.single_touch_with_finger_short_horflip_short_600ms.mp4	86.33458089231863	86.94289917733113	0.6083182850125013				
67.9541015625	0.2	139170	16	70	0	0	0	16	12	stimuli\Videos_short_600ms\20.single_touch_with_screwdriver_short_short_600ms.mp4	20.single_touch_with_screwdriver_short_short_600ms.mp4	87.13455983737731	87.74287988185642	0.6083200444791146				
68.75390625	0.2	140808	17	70	0	0	0	17	162	stimuli\Videos_short_600ms_horflip\75.(long)stroke_with_fingers_all_over_the_hand_short_horflip_short_600ms.mp4	75.(long)stroke_with_fingers_all_over_the_hand_short_horflip_short_600ms.mp4	87.9345214810237	88.5428602931388	0.6083388121151074				
69.5537109375	0.2	142446	18	70	0	0	0	18	328	stimuli\Videos_short_600ms_vertflip\62.touch_top_to_bottom_with_scissors_short_vertflip_short_600ms.mp4	62.touch_top_to_bottom_with_scissors_short_vertflip_short_600ms.mp4	88.73450541123566	89.3428453963279	0.6083399850922433				
70.35400390625	0.2	144085	19	70	0	0	0	19	216	stimuli\Videos_short_600ms_horvertflip\42.single_slap_with_plastic_whisk_short_horvertflip_short_600ms.mp4	42.single_slap_with_plastic_whisk_short_horvertflip_short_600ms.mp4	89.5344890482047	90.1428243413884	0.6083352931836998				
71.15380859375	0.2	145723	20	70	0	0	0	20	355	stimuli\Videos_short_600ms_vertflip\87.single_stroke_top_to_bottom_with_plastic_brush_short_vertflip_short_600ms.mp4	87.single_stroke_top_to_bottom_with_plastic_brush_short_vertflip_short_600ms.mp4	90.33446388784432	90.94280416617949	0.608340278335163				
71.95361328125	0.2	147361	21	70	0	0	0	21	16	stimuli\Videos_short_600ms\24.single_stroke_top_to_bottom_with_a_spoon_short_short_600ms.mp4	24.single_stroke_top_to_bottom_with_a_spoon_short_short_600ms.mp4	91.13472376093888	91.74278780314852	0.6080640422096621				
72.75390625	0.2	149000	22	70	0	0	0	22	96	stimuli\Videos_short_600ms_horflip\15.single_stroke_top_to_bottom_with_a_plastic_whisk_short_horflip_short_600ms.mp4	15.single_stroke_top_to_bottom_with_a_plastic_whisk_short_horflip_short_600ms.mp4	91.93440476979411	92.54276528198534	0.6083605121912115				
73.5537109375	0.2	150638	23	70	0	0	0	23	192	stimuli\Videos_short_600ms_horvertflip\20.single_touch_with_screwdriver_short_horvertflip_short_600ms.mp4	20.single_touch_with_screwdriver_short_horvertflip_short_600ms.mp4	92.73440893386214	93.3427257526546	0.6083168187924457				
74.353515625	0.2	152276	24	70	0	0	0	24	279	stimuli\Videos_short_600ms_vertflip\18.single_stroke_from_top_to_bottom_with_rolling_pin_short_vertflip_short_600ms.mp4	18.single_stroke_from_top_to_bottom_with_rolling_pin_short_vertflip_short_600ms.mp4	93.53439022487692	94.14270763015702	0.6083174052801041				
75.15380859375	0.2	153915	25	70	0	0	0	25	246	stimuli\Videos_short_600ms_horvertflip\7.repeated_touch_with_hairbrush_short_horvertflip_short_600ms.mp4	7.repeated_touch_with_hairbrush_short_horvertflip_short_600ms.mp4	94.33456828281304	94.94266340891772	0.6080951261046721				
75.95361328125	0.2	155553	26	70	0	0	0	26	143	stimuli\Videos_short_600ms_horflip\58.single_slap_with_pencil_short_horflip_short_600ms.mp4	58.single_slap_with_pencil_short_horflip_short_600ms.mp4	95.13455983737732	95.74266757298574	0.6081077356084279				
76.75341796875	0.2	157191	27	70	0	0	0	27	350	stimuli\Videos_short_600ms_vertflip\82.repeated_touch_with_cotton_bud_short_vertflip_short_600ms.mp4	82.repeated_touch_with_cotton_bud_short_vertflip_short_600ms.mp4	95.93436107639354	96.54262833689972	0.6082672605061816				
77.5537109375	0.2	158830	28	70	0	0	0	28	178	stimuli\Videos_short_600ms_horflip\9.single_touch_with_hammer_short_horflip_short_600ms.mp4	9.single_touch_with_hammer_short_horflip_short_600ms.mp4	96.73433151736936	97.34264012532005	0.6083086079506757				
78.353515625	0.2	160468	29	70	0	0	0	29	347	stimuli\Videos_short_600ms_vertflip\8.single_touch_with_hairbrush_short_vertflip_short_600ms.mp4	8.single_touch_with_hairbrush_short_vertflip_short_600ms.mp4	97.53431603406898	98.14263725152703	0.6083212174580694				
79.1533203125	0.2	162106	30	70	0	0	0	30	118	stimuli\Videos_short_600ms_horflip\35.single_punch_with_hand_short_horflip_short_600ms.mp4	35.single_punch_with_hand_short_horflip_short_600ms.mp4	98.3343149197408	98.94260622627915	0.6082913065383764				
79.95361328125	0.2	163745	31	70	0	0	0	31	259	stimuli\Videos_short_600ms_horvertflip\81.single_stroke_top_to_bottom_with_cotton_pad_short_horvertflip_short_600ms.mp4	81.single_stroke_top_to_bottom_with_cotton_pad_short_horvertflip_short_600ms.mp4	99.13428125529572	99.74260921737186	0.6083279620761459				
80.75341796875	0.2	165383	32	70	0	0	0	32	297	stimuli\Videos_short_600ms_vertflip\34.repeated_punch_with_hand_short_vertflip_short_600ms.mp4	34.repeated_punch_with_hand_short_vertflip_short_600ms.mp4	99.934259320622	100.54257877861346	0.6083194579914561				
81.5537109375	0.2	167022	33	70	0	0	0	33	278	stimuli\Videos_short_600ms_vertflip\17.repeated_touch_with_rolling_pin_short_vertflip_short_600ms.mp4	17.repeated_touch_with_rolling_pin_short_vertflip_short_600ms.mp4	100.73447960573868	101.34255918989402	0.6080795841553481				
82.353515625	0.2	168660	34	70	0	0	0	34	68	stimuli\Videos_short_600ms\71.single_stroke_with_finger_top_to_bottom_short_short_600ms.mp4	71.single_stroke_with_finger_top_to_bottom_short_short_600ms.mp4	101.53447937114288	102.1425413606412	0.6080619894983101				
83.1533203125	0.2	170298	35	70	0	0	0	35	8	stimuli\Videos_short_600ms\17.repeated_touch_with_rolling_pin_short_short_600ms.mp4	17.repeated_touch_with_rolling_pin_short_short_600ms.mp4	102.33426389523449	102.94252441112076	0.6082605158862862				
83.95361328125	0.2	171937	36	70	0	0	0	36	336	stimuli\Videos_short_600ms_vertflip\7.repeated_touch_with_hairbrush_short_vertflip_short_600ms.mp4	7.repeated_touch_with_hairbrush_short_vertflip_short_600ms.mp4	103.13418859009836	103.74250511564604	0.608316525547707				
84.75341796875	0.2	173575	37	70	0	0	0	37	309	stimuli\Videos_short_600ms_vertflip\45.scratching_with_finger_nails_short_vertflip_short_600ms.mp4	45.scratching_with_finger_nails_short_vertflip_short_600ms.mp4	103.9341446621038	104.54248816612562	0.6083435040218319				
85.55322265625	0.2	175213	38	70	0	0	0	38	214	stimuli\Videos_short_600ms_horvertflip\40.repeated_push_with_finger_short_horvertflip_short_600ms.mp4	40.repeated_push_with_finger_short_horvertflip_short_600ms.mp4	104.73446670299018	105.34246711118612	0.6080004081959487				
86.353515625	0.2	176852	39	70	0	0	0	39	100	stimuli\Videos_short_600ms_horflip\19.single_touch_with_rolling_pin_short_horflip_short_600ms.mp4	19.single_touch_with_rolling_pin_short_horflip_short_600ms.mp4	105.53408701027364	106.14244840219908	0.6083613919254276				
87.1533203125	0.2	178490	40	70	0	0	0	40	186	stimuli\Videos_short_600ms_horvertflip\15.single_stroke_top_to_bottom_with_a_plastic_whisk_short_horvertflip_short_600ms.mp4	15.single_stroke_top_to_bottom_with_a_plastic_whisk_short_horvertflip_short_600ms.mp4	106.33408765541208	106.94242793374724	0.608340278335163				
87.953125	0.2	180128	41	70	0	0	0	41	15	stimuli\Videos_short_600ms\23.single_push_with_a_spoon_short_short_600ms.mp4	23.single_push_with_a_spoon_short_short_600ms.mp4	107.13404871256898	107.74240423960872	0.6083555270397483				
88.75341796875	0.2	181767	42	70	0	0	0	42	9	stimuli\Videos_short_600ms\18.single_stroke_from_top_to_bottom_with_rolling_pin_short_short_600ms.mp4	18.single_stroke_from_top_to_bottom_with_rolling_pin_short_short_600ms.mp4	107.93406577938732	108.54237057516366	0.6083047957763483				
89.55322265625	0.2	183405	43	70	0	0	0	43	231	stimuli\Videos_short_600ms_horvertflip\56.repeated_touch_with_nail_file_short_horvertflip_short_600ms.mp4	56.repeated_touch_with_nail_file_short_horvertflip_short_600ms.mp4	108.73403358116413	109.34234013640526	0.6083065552411426				
90.35302734375	0.2	185043	44	70	0	0	0	44	39	stimuli\Videos_short_600ms\45.scratching_with_finger_nails_short_short_600ms.mp4	45.scratching_with_finger_nails_short_short_600ms.mp4	109.53404038443114	110.14231057737923	0.6082701929481118				
91.1533203125	0.2	186682	45	70	0	0	0	45	199	stimuli\Videos_short_600ms_horvertflip\27.single_push_with_a_plastic_whisk_short_horvertflip_short_600ms.mp4	27.single_push_with_a_plastic_whisk_short_horvertflip_short_600ms.mp4	110.33399323074808	110.94230066572344	0.6083074349753588				
91.953125	0.2	188320	46	70	0	0	0	46	14	stimuli\Videos_short_600ms\22.single_touch_with_metal_chopstick_short_short_600ms.mp4	22.single_touch_with_metal_chopstick_short_short_600ms.mp4	111.13399651508372	111.74227433238411	0.6082778173004044				
92.7529296875	0.2	189958	47	70	0	0	0	47	22	stimuli\Videos_short_600ms\3.single_push_with_finger_short_short_600ms.mp4	3.single_push_with_finger_short_short_600ms.mp4	111.9339763398766	112.54228524107202	0.6083089011954144				
93.55322265625	0.2	191597	48	70	0	0	0	48	288	stimuli\Videos_short_600ms_vertflip\26.single_touch_with_a_blunt_syringe_short_vertflip_short_600ms.mp4	26.single_touch_with_a_blunt_syringe_short_vertflip_short_600ms.mp4	112.73393681054586	113.34226946452873	0.6083326539828704				
94.35302734375	0.2	193235	49	70	0	0	0	49	88	stimuli\Videos_short_600ms\9.single_touch_with_hammer_short_short_600ms.mp4	9.single_touch_with_hammer_short_short_600ms.mp4	113.53391780831588	114.14225222176536	0.6083344134494837				
95.15283203125	0.2	194873	50	70	0	0	0	50	207	stimuli\Videos_short_600ms_horvertflip\34.repeated_punch_with_hand_short_horvertflip_short_600ms.mp4	34.repeated_punch_with_hand_short_horvertflip_short_600ms.mp4	114.33394631166084	114.94225609259048	0.6083097809296305				
95.953125	0.2	196512	51	70	0	0	0	51	209	stimuli\Videos_short_600ms_horvertflip\36.single_slap_with_full_hand_short_horvertflip_short_600ms.mp4	36.single_slap_with_full_hand_short_horvertflip_short_600ms.mp4	115.13390209042154	115.74222565383208	0.6083235634105222				
96.7529296875	0.2	198150	52	70	0	0	0	52	274	stimuli\Videos_short_600ms_vertflip\13.single_touch_with_pen_short_vertflip_short_600ms.mp4	13.single_touch_with_pen_short_vertflip_short_600ms.mp4	115.9338842611669	116.54221662190685	0.6083323607399507				
97.552734375	0.2	199788	53	70	0	0	0	53	126	stimuli\Videos_short_600ms_horflip\42.single_slap_with_plastic_whisk_short_horflip_short_600ms.mp4	42.single_slap_with_plastic_whisk_short_horflip_short_600ms.mp4	116.73384150614947	117.34218676963792	0.6083452634884452				
98.35302734375	0.2	201427	54	70	0	0	0	54	20	stimuli\Videos_short_600ms\28.single_injection_with_sharp_needle_short_short_600ms.mp4	28.single_injection_with_sharp_needle_short_short_600ms.mp4	117.5338430310203	118.14216894038508	0.6083259093647939				
99.15283203125	0.2	203065	55	70	0	0	0	55	57	stimuli\Videos_short_600ms\61.single_hit_with_rolling_pin_short_short_600ms.mp4	61.single_hit_with_rolling_pin_short_short_600ms.mp4	118.3338254950104	118.94214671246664	0.6083212174562505				
99.95263671875	0.2	204703	56	70	0	0	0	56	319	stimuli\Videos_short_600ms_vertflip\54.repeated_touch_with_knife_short_vertflip_short_600ms.mp4	54.repeated_touch_with_knife_short_vertflip_short_600ms.mp4	119.13379300354244	119.74212858996908	0.6083355864266196				
100.7529296875	0.2	206342	57	70	0	0	0	57	302	stimuli\Videos_short_600ms_vertflip\39.single_stab_with_scissors_short_vertflip_short_600ms.mp4	39.single_stab_with_scissors_short_vertflip_short_600ms.mp4	119.93385522998142	120.54210870800672	0.60825347802529				
101.552734375	0.2	207980	58	70	0	0	0	58	112	stimuli\Videos_short_600ms_horflip\3.single_push_with_finger_short_horflip_short_600ms.mp4	3.single_push_with_finger_short_horflip_short_600ms.mp4	120.73373300575986	121.34209146524154	0.6083584594816784				
102.35302734375	0.2	209619	59	70	0	0	1	59	381	stimuli\Targets_short_600ms_vertflip\finger-tap_short_horvertflip_short_600ms.mp4	finger-tap_short_horvertflip_short_600ms.mp4	121.53371195081854	122.14207686167538	0.6083649108568352				
103.15283203125	0.2	211257	60	70	0	0	0	60	103	stimuli\Videos_short_600ms_horflip\21.repeated_touch_with_metal_chopstick_short_horflip_short_600ms.mp4	21.repeated_touch_with_metal_chopstick_short_horflip_short_600ms.mp4	122.3336914823667	122.94205375402451	0.6083622716578247				
103.95263671875	0.2	212895	61	70	0	0	0	61	73	stimuli\Videos_short_600ms\76.tickle_with_fingers_from_top_to_bottom_short_short_600ms.mp4	76.tickle_with_fingers_from_top_to_bottom_short_short_600ms.mp4	123.13369564643654	123.7420318193508	0.608336172914278				
104.7529296875	0.2	214534	62	70	0	0	0	62	80	stimuli\Videos_short_600ms\82.repeated_touch_with_cotton_bud_short_short_600ms.mp4	82.repeated_touch_with_cotton_bud_short_short_600ms.mp4	123.93370039699404	124.54201897525128	0.60831857825724				
105.552734375	0.2	216172	63	70	0	0	0	63	111	stimuli\Videos_short_600ms_horflip\29.single_pinch_with_tweezers_short_horflip_short_600ms.mp4	29.single_pinch_with_tweezers_short_horflip_short_600ms.mp4	124.7336825677412	125.3419990932889	0.608316525547707				
106.3525390625	0.2	217810	64	70	0	0	0	64	256	stimuli\Videos_short_600ms_horvertflip\79.long_with_soft_brush_all_over_the_hand_short_horvertflip_short_600ms.mp4	79.long_with_soft_brush_all_over_the_hand_short_horvertflip_short_600ms.mp4	125.53379200651216	126.1419548720478	0.6081628655356326				
107.15283203125	0.2	219449	65	70	0	0	0	65	245	stimuli\Videos_short_600ms_horvertflip\69.stroke_with_soft_sock_short_horvertflip_short_600ms.mp4	69.stroke_with_soft_sock_short_horvertflip_short_600ms.mp4	126.33363957812615	126.94193528332836	0.6082957052021811				
107.95263671875	0.2	221087	66	70	0	0	0	66	110	stimuli\Videos_short_600ms_horflip\28.single_injection_with_sharp_needle_short_horflip_short_600ms.mp4	28.single_injection_with_sharp_needle_short_horflip_short_600ms.mp4	127.1336196961638	127.7419171608326	0.6082974646687944				
108.75244140625	0.2	222725	67	70	0	0	0	67	235	stimuli\Videos_short_600ms_horvertflip\6.single_touch_with_flat_hand_short_horvertflip_short_600ms.mp4	6.single_touch_with_flat_hand_short_horvertflip_short_600ms.mp4	127.93360098717676	128.54190431673123	0.6083033295544737				
109.552734375	0.2	224364	68	70	0	0	0	68	257	stimuli\Videos_short_600ms_horvertflip\8.single_touch_with_hairbrush_short_horvertflip_short_600ms.mp4	8.single_touch_with_hairbrush_short_horvertflip_short_600ms.mp4	128.73358315792393	129.34188941992215	0.6083062619982229				
110.3525390625	0.2	226002	69	70	0	0	0	69	176	stimuli\Videos_short_600ms_horflip\88.repeated_stroke_with_plastic_brush_short_horflip_short_600ms.mp4	88.repeated_stroke_with_plastic_brush_short_horflip_short_600ms.mp4	129.53369318318437	130.1418997421206	0.6082065589362173				
111.15234375	0.2	227640	70	70	0	0	0	70	59	stimuli\Videos_short_600ms\63.stroke_top_to_bottom_with_screwdriver_short_short_600ms.mp4	63.stroke_top_to_bottom_with_screwdriver_short_short_600ms.mp4	130.33379089218397	130.94187164931645	0.608080757132484				
111.95263671875	0.2	229279	71	70	0	0	0	71	221	stimuli\Videos_short_600ms_horvertflip\47.(long)scratching_with_finger_nails_short_horvertflip_short_600ms.mp4	47.(long)scratching_with_finger_nails_short_horvertflip_short_600ms.mp4	131.13350591737617	131.74185000788748	0.6083440905113093				
112.75244140625	0.2	230917	72	70	0	0	0	72	353	stimuli\Videos_short_600ms_vertflip\85.touch_top_to_bottom_with_fabric_short_vertflip_short_600ms.mp4	85.touch_top_to_bottom_with_fabric_short_vertflip_short_600ms.mp4	131.93348750163386	132.5418283664585	0.6083408648246404				
113.55224609375	0.2	232555	73	70	0	0	0	73	206	stimuli\Videos_short_600ms_horvertflip\33.scratch_top_to_bottom_with_scissors_short_horvertflip_short_600ms.mp4	33.scratch_top_to_bottom_with_scissors_short_horvertflip_short_600ms.mp4	132.73348873325995	133.34181112369333	0.6083223904333863				
114.3525390625	0.2	234194	74	70	0	0	0	74	28	stimuli\Videos_short_600ms\35.single_punch_with_hand_short_short_600ms.mp4	35.single_punch_with_hand_short_short_600ms.mp4	133.53347266347373	134.14179505390712	0.6083223904333863				
115.15234375	0.2	235832	75	70	0	0	0	75	122	stimuli\Videos_short_600ms_horflip\39.single_stab_with_scissors_short_horflip_short_600ms.mp4	39.single_stab_with_scissors_short_horflip_short_600ms.mp4	134.33360350907788	134.9417731192334	0.6081696101555281				
115.9521484375	0.2	237470	76	70	0	0	1	76	361	stimuli\Targets_short_600ms\chopstick-silver-tap_short_short_600ms.mp4	chopstick-silver-tap_short_short_600ms.mp4	135.1334176508426	135.74175499673584	0.6083373458932329				
116.75244140625	0.2	239109	77	70	0	0	0	77	53	stimuli\Videos_short_600ms\58.single_slap_with_pencil_short_short_600ms.mp4	58.single_slap_with_pencil_short_short_600ms.mp4	135.93337577555758	136.54173658099353	0.6083608054359502				
117.55224609375	0.2	240747	78	70	0	0	0	78	203	stimuli\Videos_short_600ms_horvertflip\30.finger_pulling_back_another_finger_short_horvertflip_short_600ms.mp4	30.finger_pulling_back_another_finger_short_horvertflip_short_600ms.mp4	136.73335442737334	137.3417178720083	0.6083634446349606				
118.35205078125	0.2	242385	79	70	0	0	0	79	318	stimuli\Videos_short_600ms_vertflip\53.touch_top_to_bottom_with_knife_short_vertflip_short_600ms.mp4	53.touch_top_to_bottom_with_knife_short_vertflip_short_600ms.mp4	137.5333348386539	138.14169652382225	0.6083616851683473				
119.15234375	0.2	244024	80	70	0	0	0	80	104	stimuli\Videos_short_600ms_horflip\22.single_touch_with_metal_chopstick_short_horflip_short_600ms.mp4	22.single_touch_with_metal_chopstick_short_horflip_short_600ms.mp4	138.33341202055271	138.94168925136364	0.608277230810927				
119.9521484375	0.2	245662	81	70	0	0	0	81	40	stimuli\Videos_short_600ms\46.scratching_top_to_bottom_with_finger_nails_short_short_600ms.mp4	46.scratching_top_to_bottom_with_finger_nails_short_short_600ms.mp4	139.1337425655238	139.74164268417007	0.6079001186462847				
120.751953125	0.2	247300	82	70	0	0	0	82	202	stimuli\Videos_short_600ms_horvertflip\3.single_push_with_finger_short_horvertflip_short_600ms.mp4	3.single_push_with_finger_short_horvertflip_short_600ms.mp4	139.9333587673882	140.54166033747606	0.6083015700878605				
121.55224609375	0.2	248939	83	70	0	0	0	83	289	stimuli\Videos_short_600ms_vertflip\27.single_push_with_a_plastic_whisk_short_vertflip_short_600ms.mp4	27.single_push_with_a_plastic_whisk_short_vertflip_short_600ms.mp4	140.73329196633676	141.34159969455686	0.6083077282200975				
122.35205078125	0.2	250577	84	70	0	0	0	84	37	stimuli\Videos_short_600ms\43.touch_top_to_bottom_with_sharp_wooden_stick_short_short_600ms.mp4	43.touch_top_to_bottom_with_sharp_wooden_stick_short_short_600ms.mp4	141.5332703249078	142.14159271534118	0.6083223904333863				
123.15234375	0.2	252216	85	70	0	0	0	85	183	stimuli\Videos_short_600ms_horvertflip\12.repeated_touch_with_nail_file_short_horvertflip_short_600ms.mp4	12.repeated_touch_with_nail_file_short_horvertflip_short_600ms.mp4	142.3332759551995	142.9415625698275	0.6082866146280139				
123.9521484375	0.2	253854	86	70	0	0	0	86	132	stimuli\Videos_short_600ms_horflip\48.single_slap_with_hand_short_horflip_short_600ms.mp4	48.single_slap_with_hand_short_horflip_short_600ms.mp4	143.1332396515554	143.74157230553828	0.6083326539828704				
124.751953125	0.2	255492	87	70	0	0	0	87	19	stimuli\Videos_short_600ms\27.single_push_with_a_plastic_whisk_short_short_600ms.mp4	27.single_push_with_a_plastic_whisk_short_short_600ms.mp4	143.93322798043118	144.54152925727612	0.6083012768449407				
125.55224609375	0.2	257131	88	70	0	0	0	88	5	stimuli\Videos_short_600ms\14.repeated_touch_with_pencil_short_short_600ms.mp4	14.repeated_touch_with_pencil_short_short_600ms.mp4	144.73319226327658	145.3415287294356	0.6083364661590167				
126.35205078125	0.2	258769	89	70	0	0	0	89	32	stimuli\Videos_short_600ms\39.single_stab_with_scissors_short_short_600ms.mp4	39.single_stab_with_scissors_short_short_600ms.mp4	145.53318997597125	146.1415152988484	0.6083253228771355				
127.15185546875	0.2	260407	90	70	0	0	0	90	142	stimuli\Videos_short_600ms_horflip\57.single_touch_with_nail_file_short_horflip_short_600ms.mp4	57.single_touch_with_nail_file_short_horflip_short_600ms.mp4	146.33316217641186	146.94149717635082	0.6083349999389611				
127.9521484375	0.2	262046	91	70	0	0	0	91	131	stimuli\Videos_short_600ms_horflip\47.(long)scratching_with_finger_nails_short_horflip_short_600ms.mp4	47.(long)scratching_with_finger_nails_short_horflip_short_600ms.mp4	147.13319126624629	147.74147406869997	0.6082828024536866				
128.751953125	0.2	263684	92	70	0	0	0	92	174	stimuli\Videos_short_600ms_horflip\86.touch_top_to_bottom_with_hair_brush_short_horflip_short_600ms.mp4	86.touch_top_to_bottom_with_hair_brush_short_horflip_short_600ms.mp4	147.93314235309663	148.5414559462024	0.6083135931057768	3.0	5.0	4.3721733449146996	0.0
167.41748046875	0.2	342871	93	70	1	0	0	0	276	stimuli\Videos_short_600ms_vertflip\15.single_stroke_top_to_bottom_with_a_plastic_whisk_short_vertflip_short_600ms.mp4	15.single_stroke_top_to_bottom_with_a_plastic_whisk_short_vertflip_short_600ms.mp4	186.5988646753813	187.2072237213524	0.6083590459711559				
168.21728515625	0.2	344509	94	70	1	0	1	1	374	stimuli\Targets_short_600ms_horvertflip\chopstickwood-tap_short_vertflip_short_600ms.mp4	chopstickwood-tap_short_vertflip_short_600ms.mp4	187.3988386352867	188.00719944072443	0.6083608054377692				
169.01708984375	0.2	346147	95	70	1	0	0	2	128	stimuli\Videos_short_600ms_horflip\44.pushing_top_to_bottom_with_finger_short_horflip_short_600ms.mp4	44.pushing_top_to_bottom_with_finger_short_horflip_short_600ms.mp4	188.19884162637936	188.8071842506688	0.6083426242894348				
169.8173828125	0.2	347786	96	70	1	0	0	3	322	stimuli\Videos_short_600ms_vertflip\57.single_touch_with_nail_file_short_vertflip_short_600ms.mp4	57.single_touch_with_nail_file_short_vertflip_short_600ms.mp4	188.99884403098255	189.60716172950745	0.6083176985248429				
170.6171875	0.2	349424	97	70	1	0	0	4	140	stimuli\Videos_short_600ms_horflip\55.touch_top_to_bottom_with_nail_file_short_horflip_short_600ms.mp4	55.touch_top_to_bottom_with_nail_file_short_horflip_short_600ms.mp4	189.79882620172975	190.40714331376512	0.6083171120353654				
171.4169921875	0.2	351062	98	70	1	0	0	5	188	stimuli\Videos_short_600ms_horvertflip\17.repeated_touch_with_rolling_pin_short_horvertflip_short_600ms.mp4	17.repeated_touch_with_rolling_pin_short_horvertflip_short_600ms.mp4	190.5988074927427	191.2071240182904	0.608316525547707				
172.21728515625	0.2	352701	99	70	1	0	0	6	108	stimuli\Videos_short_600ms_horflip\26.single_touch_with_a_blunt_syringe_short_horflip_short_600ms.mp4	26.single_touch_with_a_blunt_syringe_short_horflip_short_600ms.mp4	191.39880197975071	192.00710560254993	0.6083036227992125				
173.01708984375	0.2	354339	100	70	1	0	0	7	17	stimuli\Videos_short_600ms\25.single_touch_with_stanley_knife_short_short_600ms.mp4	25.single_touch_with_stanley_knife_short_short_600ms.mp4	192.19874866793725	192.80708660031817	0.6083379323808913				
173.81689453125	0.2	355977	101	70	1	0	0	8	130	stimuli\Videos_short_600ms_horflip\46.scratching_top_to_bottom_with_finger_nails_short_horflip_short_600ms.mp4	46.scratching_top_to_bottom_with_finger_nails_short_horflip_short_600ms.mp4	192.99870620616275	193.60704589801023	0.6083396918475046				
174.6171875	0.2	357616	102	70	1	0	0	9	34	stimuli\Videos_short_600ms\40.repeated_push_with_finger_short_short_600ms.mp4	40.repeated_push_with_finger_short_short_600ms.mp4	193.79868779042044	194.40705064856775	0.6083628581473022				
175.4169921875	0.2	359254	103	70	1	0	0	10	341	stimuli\Videos_short_600ms_vertflip\74.fingers_walking_from_top_to_bottom_short_vertflip_short_600ms.mp4	74.fingers_walking_from_top_to_bottom_short_vertflip_short_600ms.mp4	194.5986714273895	195.20702636793976	0.6083549405502708				
176.216796875	0.2	360892	104	70	1	0	0	11	266	stimuli\Videos_short_600ms_horvertflip\88.repeated_stroke_with_plastic_brush_short_horvertflip_short_600ms.mp4	88.repeated_stroke_with_plastic_brush_short_horvertflip_short_600ms.mp4	195.39867852390125	196.0070135238402	0.6083349999389611				
177.01708984375	0.2	362531	105	70	1	0	0	12	94	stimuli\Videos_short_600ms_horflip\13.single_touch_with_pen_short_horflip_short_600ms.mp4	13.single_touch_with_pen_short_horflip_short_600ms.mp4	196.19865336354087	196.80698836347983	0.6083349999389611				
177.81689453125	0.2	364169	106	70	1	0	0	13	155	stimuli\Videos_short_600ms_horflip\69.stroke_with_soft_sock_short_horflip_short_600ms.mp4	69.stroke_with_soft_sock_short_horflip_short_600ms.mp4	196.99869154394764	197.6069286002912	0.6082370563435688				
178.6171875	0.2	365808	107	70	1	0	0	14	264	stimuli\Videos_short_600ms_horvertflip\86.touch_top_to_bottom_with_hair_brush_short_horvertflip_short_600ms.mp4	86.touch_top_to_bottom_with_hair_brush_short_horvertflip_short_600ms.mp4	197.79861741179047	198.40693129813917	0.6083138863486965				
179.4169921875	0.2	367446	108	70	1	0	0	15	121	stimuli\Videos_short_600ms_horflip\38.double_slap_with_pencil_short_horflip_short_600ms.mp4	38.double_slap_with_pencil_short_horflip_short_600ms.mp4	198.5985948906291	199.2068926485408	0.6082977579117141				
180.216796875	0.2	369084	109	70	1	0	0	16	339	stimuli\Videos_short_600ms_vertflip\72.(short)stroke_with_finger_all_over_the_hand_short_vertflip_short_600ms.mp4	72.(short)stroke_with_finger_all_over_the_hand_short_vertflip_short_600ms.mp4	199.3986093182484	200.00689886532015	0.6082895470717631				
181.01708984375	0.2	370723	110	70	1	0	1	17	377	stimuli\Targets_short_600ms_horvertflip\hand-stroke_short_vertflip_short_600ms.mp4	hand-stroke_short_vertflip_short_600ms.mp4	200.19858327815385	200.8068801563331	0.608296878179317				
181.81689453125	0.2	372361	111	70	1	0	0	18	295	stimuli\Videos_short_600ms_vertflip\32.single_(long)pinch_with_fingers_short_vertflip_short_600ms.mp4	32.single_(long)pinch_with_fingers_short_vertflip_short_600ms.mp4	200.99855547859443	201.60686936494312	0.6083138863486965				
182.61669921875	0.2	373999	112	70	1	0	0	19	275	stimuli\Videos_short_600ms_vertflip\14.repeated_touch_with_pencil_short_vertflip_short_600ms.mp4	14.repeated_touch_with_pencil_short_vertflip_short_600ms.mp4	201.7985306114788	202.40687528847775	0.6083446769989678				
183.4169921875	0.2	375638	113	70	1	0	0	20	249	stimuli\Videos_short_600ms_horvertflip\72.(short)stroke_with_finger_all_over_the_hand_short_horvertflip_short_600ms.mp4	72.(short)stroke_with_finger_all_over_the_hand_short_horvertflip_short_600ms.mp4	202.59851542142312	203.2068425037669	0.6083270823437488				
184.216796875	0.2	377276	114	70	1	0	0	21	95	stimuli\Videos_short_600ms_horflip\14.repeated_touch_with_pencil_short_horflip_short_600ms.mp4	14.repeated_touch_with_pencil_short_horflip_short_600ms.mp4	203.3984861556437	204.00683581779597	0.60834966215225				
185.0166015625	0.2	378914	115	70	1	0	0	22	137	stimuli\Videos_short_600ms_horflip\52.touch_top_to_bottom_with_hammer_short_horflip_short_600ms.mp4	52.touch_top_to_bottom_with_hammer_short_horflip_short_600ms.mp4	204.19848797375744	204.80680625877176	0.6083182850143203				
185.81689453125	0.2	380553	116	70	1	0	0	23	208	stimuli\Videos_short_600ms_horvertflip\35.single_punch_with_hand_short_horvertflip_short_600ms.mp4	35.single_punch_with_hand_short_horvertflip_short_600ms.mp4	204.9984692647722	205.6067884295171	0.6083191647448984				
186.61669921875	0.2	382191	117	70	1	0	0	24	102	stimuli\Videos_short_600ms_horflip\20.single_touch_with_screwdriver_short_horflip_short_600ms.mp4	20.single_touch_with_screwdriver_short_horflip_short_600ms.mp4	205.7984508490299	206.40676854755475	0.6083176985248429				
187.41650390625	0.2	383829	118	70	1	0	0	25	357	stimuli\Videos_short_600ms_vertflip\89.single_touch_with_plastic_brush_short_vertflip_short_600ms.mp4	89.single_touch_with_plastic_brush_short_vertflip_short_600ms.mp4	206.59841161294207	207.2067498385677	0.60833822562563				
188.216796875	0.2	385468	119	70	1	0	0	26	299	stimuli\Videos_short_600ms_vertflip\36.single_slap_with_full_hand_short_vertflip_short_600ms.mp4	36.single_slap_with_full_hand_short_vertflip_short_600ms.mp4	207.3984483271288	208.0067314228272	0.6082830956984253				
189.0166015625	0.2	387106	120	70	1	0	0	27	310	stimuli\Videos_short_600ms_vertflip\46.scratching_top_to_bottom_with_finger_nails_short_vertflip_short_600ms.mp4	46.scratching_top_to_bottom_with_finger_nails_short_vertflip_short_600ms.mp4	208.19835396111375	208.80671154086303	0.6083575797492813				
189.81640625	0.2	388744	121	70	1	0	0	28	253	stimuli\Videos_short_600ms_horvertflip\76.tickle_with_fingers_from_top_to_bottom_short_horvertflip_short_600ms.mp4	76.tickle_with_fingers_from_top_to_bottom_short_horvertflip_short_600ms.mp4	208.99833613186092	209.60669488458737	0.6083587527264172				
190.61669921875	0.2	390383	122	70	1	0	0	29	331	stimuli\Videos_short_600ms_vertflip\65.stroke_top_to_bottom_with_stanley_knife_short_vertflip_short_600ms.mp4	65.stroke_top_to_bottom_with_stanley_knife_short_vertflip_short_600ms.mp4	209.798353491924	210.40667500262316	0.6083215106991702				
191.41650390625	0.2	392021	123	70	1	0	0	30	238	stimuli\Videos_short_600ms_horvertflip\62.touch_top_to_bottom_with_scissors_short_horvertflip_short_600ms.mp4	62.touch_top_to_bottom_with_scissors_short_horvertflip_short_600ms.mp4	210.5983031125525	211.20665922608168	0.6083561135292257				
192.21630859375	0.2	393659	124	70	1	0	0	31	1	stimuli\Videos_short_600ms\10.single_touch_with_knife_short_short_600ms.mp4	10.single_touch_with_knife_short_short_600ms.mp4	211.3982902684529	212.00660532777871	0.6083150593258324				
193.0166015625	0.2	395298	125	70	1	0	0	32	229	stimuli\Videos_short_600ms_horvertflip\54.repeated_touch_with_knife_short_horvertflip_short_600ms.mp4	54.repeated_touch_with_knife_short_horvertflip_short_600ms.mp4	212.19828475546092	212.80657342280028	0.6082886673393659				
193.81640625	0.2	396936	126	70	1	0	0	33	148	stimuli\Videos_short_600ms_horflip\62.touch_top_to_bottom_with_scissors_short_horflip_short_600ms.mp4	62.touch_top_to_bottom_with_scissors_short_horflip_short_600ms.mp4	212.9982584221216	213.6065535408361	0.6082951187145227				
194.6162109375	0.2	398574	127	70	1	0	0	34	185	stimuli\Videos_short_600ms_horvertflip\14.repeated_touch_with_pencil_short_horvertflip_short_600ms.mp4	14.repeated_touch_with_pencil_short_horvertflip_short_600ms.mp4	213.7982555483286	214.40653541833856	0.6082798700099374				
195.41650390625	0.2	400213	128	70	1	0	0	35	337	stimuli\Videos_short_600ms_vertflip\70.(long)stroke_with_finger_all_over_the_hand_short_vertflip_short_600ms.mp4	70.(long)stroke_with_finger_all_over_the_hand_short_vertflip_short_600ms.mp4	214.59824651640335	215.20653635671988	0.6082898403165018				
196.21630859375	0.2	401851	129	70	1	0	0	36	296	stimuli\Videos_short_600ms_vertflip\33.scratch_top_to_bottom_with_scissors_short_vertflip_short_600ms.mp4	33.scratch_top_to_bottom_with_scissors_short_vertflip_short_600ms.mp4	215.39822428848672	216.006526738307	0.6083024498202576				
197.01611328125	0.2	403489	130	70	1	0	0	37	316	stimuli\Videos_short_600ms_vertflip\51.repeated_touch_with_hammer_short_vertflip_short_600ms.mp4	51.repeated_touch_with_hammer_short_vertflip_short_600ms.mp4	216.19818857133032	216.8065177063836	0.6083291350532818				
197.81640625	0.2	405128	131	70	1	0	1	38	369	stimuli\Targets_short_600ms_horflip\finger-tap_short_horflip_short_600ms.mp4	finger-tap_short_horflip_short_600ms.mp4	216.99818599078023	217.60651248663453	0.6083264958542713				
198.6162109375	0.2	406766	132	70	1	0	0	39	153	stimuli\Videos_short_600ms_horflip\67.single_touch_with_sponge_short_horflip_short_600ms.mp4	67.single_touch_with_sponge_short_horflip_short_600ms.mp4	217.79817549263495	218.4064852735646	0.6083097809296305				
199.41650390625	0.2	408405	133	70	1	0	0	40	61	stimuli\Videos_short_600ms\65.stroke_top_to_bottom_with_stanley_knife_short_short_600ms.mp4	65.stroke_top_to_bottom_with_stanley_knife_short_short_600ms.mp4	218.59815150525176	219.20647594839647	0.6083244431447383				
200.21630859375	0.2	410043	134	70	1	0	0	41	273	stimuli\Videos_short_600ms_vertflip\12.repeated_touch_with_nail_file_short_vertflip_short_600ms.mp4	12.repeated_touch_with_nail_file_short_vertflip_short_600ms.mp4	219.39813074355516	220.00645254750088	0.6083218039457279				
201.01611328125	0.2	411681	135	70	1	0	0	42	252	stimuli\Videos_short_600ms_horvertflip\75.(long)stroke_with_fingers_all_over_the_hand_short_horvertflip_short_600ms.mp4	75.(long)stroke_with_fingers_all_over_the_hand_short_horvertflip_short_600ms.mp4	220.19811232781467	220.8064288533624	0.608316525547707				
201.81640625	0.2	413320	136	70	1	0	0	43	354	stimuli\Videos_short_600ms_vertflip\86.touch_top_to_bottom_with_hair_brush_short_vertflip_short_600ms.mp4	86.touch_top_to_bottom_with_hair_brush_short_vertflip_short_600ms.mp4	220.99809449856	221.60641014437533	0.6083156458153098				
202.6162109375	0.2	414958	137	70	1	0	0	44	343	stimuli\Videos_short_600ms_vertflip\76.tickle_with_fingers_from_top_to_bottom_short_vertflip_short_600ms.mp4	76.tickle_with_fingers_from_top_to_bottom_short_vertflip_short_600ms.mp4	221.79806611251297	222.40639524756443	0.6083291350514628				
203.416015625	0.2	416596	138	70	1	0	0	45	232	stimuli\Videos_short_600ms_horvertflip\57.single_touch_with_nail_file_short_horvertflip_short_600ms.mp4	57.single_touch_with_nail_file_short_horvertflip_short_600ms.mp4	222.59804593730587	223.2063741926249	0.6083282553190656				
204.21630859375	0.2	418235	139	70	1	0	0	46	124	stimuli\Videos_short_600ms_horflip\40.repeated_push_with_finger_short_horflip_short_600ms.mp4	40.repeated_push_with_finger_short_horflip_short_600ms.mp4	223.3980571392367	224.0063537241731	0.6082965849363973				
205.01611328125	0.2	419873	140	70	1	0	0	47	303	stimuli\Videos_short_600ms_vertflip\4.repeated_tap_with_finger_slow_short_vertflip_short_600ms.mp4	4.repeated_tap_with_finger_slow_short_vertflip_short_600ms.mp4	224.1979768489491	224.8063361881632	0.6083593392140756				
205.81591796875	0.2	421511	141	70	1	0	0	48	55	stimuli\Videos_short_600ms\6.single_touch_with_flat_hand_short_short_600ms.mp4	6.single_touch_with_flat_hand_short_short_600ms.mp4	224.99795872645151	225.6063186521551	0.608359925703553				
206.6162109375	0.2	423150	142	70	1	0	0	49	248	stimuli\Videos_short_600ms_horvertflip\71.single_stroke_with_finger_top_to_bottom_short_horvertflip_short_600ms.mp4	71.single_stroke_with_finger_top_to_bottom_short_horvertflip_short_600ms.mp4	225.7979640634967	226.4062973039709	0.6083332404741668				
207.416015625	0.2	424788	143	70	1	0	0	50	359	stimuli\Videos_short_600ms_vertflip\90.repeated_touch_with_sponge_short_vertflip_short_600ms.mp4	90.repeated_touch_with_sponge_short_vertflip_short_600ms.mp4	226.5979896343997	227.2062586543725	0.6082690199727949				
208.2158203125	0.2	426426	144	70	1	0	0	51	164	stimuli\Videos_short_600ms_horflip\77.tapping_with_all_fingers_short_horflip_short_600ms.mp4	77.tapping_with_all_fingers_short_horflip_short_600ms.mp4	227.3979427739614	228.00626897657096	0.6083262026095326				
209.01611328125	0.2	428065	145	70	1	0	0	52	6	stimuli\Videos_short_600ms\15.single_stroke_top_to_bottom_with_a_plastic_whisk_short_short_600ms.mp4	15.single_stroke_top_to_bottom_with_a_plastic_whisk_short_short_600ms.mp4	228.19792846364	228.80621801071177	0.6082895470717631				
209.81591796875	0.2	429703	146	70	1	0	0	53	247	stimuli\Videos_short_600ms_horvertflip\70.(long)stroke_with_finger_all_over_the_hand_short_horvertflip_short_600ms.mp4	70.(long)stroke_with_finger_all_over_the_hand_short_horvertflip_short_600ms.mp4	228.9979179654947	229.60621161798736	0.6082936524926481				
210.61572265625	0.2	431341	147	70	1	0	0	54	21	stimuli\Videos_short_600ms\29.single_pinch_with_tweezers_short_short_600ms.mp4	29.single_pinch_with_tweezers_short_short_600ms.mp4	229.7978678793679	230.4061609453729	0.6082930660049897				
211.416015625	0.2	432980	148	70	1	0	0	55	250	stimuli\Videos_short_600ms_horvertflip\73.single_stroke_with_flat_hand_short_horvertflip_short_600ms.mp4	73.single_stroke_with_flat_hand_short_horvertflip_short_600ms.mp4	230.5978477041608	231.20617625272465	0.6083285485638044				
212.2158203125	0.2	434618	149	70	1	0	0	56	313	stimuli\Videos_short_600ms_vertflip\49.repeated_slap_with_hand_short_vertflip_short_600ms.mp4	49.repeated_slap_with_hand_short_vertflip_short_600ms.mp4	231.3978325141052	232.00615197209663	0.6083194579914561				
213.015625	0.2	436256	150	70	1	0	0	57	226	stimuli\Videos_short_600ms_horvertflip\51.repeated_touch_with_hammer_short_horvertflip_short_600ms.mp4	51.repeated_touch_with_hammer_short_horvertflip_short_600ms.mp4	232.1978319862665	232.806155549677	0.6083235634105222				
213.81591796875	0.2	437895	151	70	1	0	0	58	157	stimuli\Videos_short_600ms_horflip\70.(long)stroke_with_finger_all_over_the_hand_short_horflip_short_600ms.mp4	70.(long)stroke_with_finger_all_over_the_hand_short_horflip_short_600ms.mp4	232.99786576800943	233.60614035962317	0.6082745916137355				
214.61572265625	0.2	439533	152	70	1	0	0	59	60	stimuli\Videos_short_600ms\64.repeated_touch_with_screwdriver_short_short_600ms.mp4	64.repeated_touch_with_screwdriver_short_short_600ms.mp4	233.79785028471088	234.40611402628565	0.608263741574774				
215.41552734375	0.2	441171	153	70	1	0	0	60	7	stimuli\Videos_short_600ms\16.repeated_touch_with_plastic_brush_short_short_600ms.mp4	16.repeated_touch_with_plastic_brush_short_short_600ms.mp4	234.5977477078559	235.20609385107673	0.6083461432208424				
216.2158203125	0.2	442810	154	70	1	0	0	61	27	stimuli\Videos_short_600ms\34.repeated_punch_with_hand_short_short_600ms.mp4	34.repeated_punch_with_hand_short_short_600ms.mp4	235.39775715032192	236.00607660831335	0.6083194579914561				
217.015625	0.2	444448	155	70	1	0	0	62	56	stimuli\Videos_short_600ms\60.single_push_with_tip_of_pencil_short_short_600ms.mp4	60.single_push_with_tip_of_pencil_short_short_600ms.mp4	236.19771732774643	236.80605291417305	0.6083355864266196				
217.8154296875	0.2	446086	156	70	1	0	0	63	2	stimuli\Videos_short_600ms\11.single_touch_with_lighter_short_short_600ms.mp4	11.single_touch_with_lighter_short_short_600ms.mp4	236.9977681176588	237.60603567140788	0.6082675537491014				
218.61572265625	0.2	447725	157	70	1	0	1	64	364	stimuli\Targets_short_600ms\hand-pinch_short_short_600ms.mp4	hand-pinch_short_short_600ms.mp4	237.79769281252263	238.40601608269023	0.6083232701676025				
219.41552734375	0.2	449363	158	70	1	0	0	65	24	stimuli\Videos_short_600ms\31.hand_grabbing_wrist_short_short_600ms.mp4	31.hand_grabbing_wrist_short_short_600ms.mp4	238.5976380344891	239.20599854668035	0.6083605121912115				
220.2158203125	0.2	451002	159	70	1	0	0	66	284	stimuli\Videos_short_600ms_vertflip\22.single_touch_with_metal_chopstick_short_vertflip_short_600ms.mp4	22.single_touch_with_metal_chopstick_short_vertflip_short_600ms.mp4	239.39785392094015	240.0059854093361	0.6081314883958839				
221.015625	0.2	452640	160	70	1	0	0	67	158	stimuli\Videos_short_600ms_horflip\71.single_stroke_with_finger_top_to_bottom_short_horflip_short_600ms.mp4	71.single_stroke_with_finger_top_to_bottom_short_horflip_short_600ms.mp4	240.19761175979875	240.8059614219528	0.6083496621540689				
221.8154296875	0.2	454278	161	70	1	0	0	68	358	stimuli\Videos_short_600ms_vertflip\9.single_touch_with_hammer_short_vertflip_short_600ms.mp4	9.single_touch_with_hammer_short_vertflip_short_600ms.mp4	240.9976118184477	241.60593890079144	0.6083270823437488				
222.61572265625	0.2	455917	162	70	1	0	0	69	222	stimuli\Videos_short_600ms_horvertflip\48.single_slap_with_hand_short_horvertflip_short_600ms.mp4	48.single_slap_with_hand_short_horvertflip_short_600ms.mp4	241.79757932697976	242.4059234174929	0.6083440905131283				
223.41552734375	0.2	457555	163	70	1	0	0	70	10	stimuli\Videos_short_600ms\19.single_touch_with_rolling_pin_short_short_600ms.mp4	19.single_touch_with_rolling_pin_short_short_600ms.mp4	242.59757205452115	243.2058885800689	0.608316525547707				
224.21533203125	0.2	459193	164	70	1	0	0	71	46	stimuli\Videos_short_600ms\51.repeated_touch_with_hammer_short_short_600ms.mp4	51.repeated_touch_with_hammer_short_short_600ms.mp4	243.3976295890534	244.0058686981065	0.6082391090531019				
225.015625	0.2	460832	165	70	1	0	0	72	115	stimuli\Videos_short_600ms_horflip\32.single_(long)pinch_with_fingers_short_horflip_short_600ms.mp4	32.single_(long)pinch_with_fingers_short_horflip_short_600ms.mp4	244.19753023788508	244.8058467634328	0.608316525547707				
225.8154296875	0.2	462470	166	70	1	0	0	73	49	stimuli\Videos_short_600ms\54.repeated_touch_with_knife_short_short_600ms.mp4	54.repeated_touch_with_knife_short_short_600ms.mp4	244.99753146951116	245.60582570849328	0.6082942389821255				
226.615234375	0.2	464108	167	70	1	0	0	74	75	stimuli\Videos_short_600ms\78.single_stroke_top_to_bottom_with_soft_brush_short_short_600ms.mp4	78.single_stroke_top_to_bottom_with_soft_brush_short_short_600ms.mp4	245.79763416366404	246.40580963870525	0.6081754750412074				
227.41552734375	0.2	465747	168	70	1	0	0	75	218	stimuli\Videos_short_600ms_horvertflip\44.pushing_top_to_bottom_with_finger_short_horvertflip_short_600ms.mp4	44.pushing_top_to_bottom_with_finger_short_horvertflip_short_600ms.mp4	246.59747205821623	247.20577245532877	0.6083003971125436				
228.21533203125	0.2	467385	169	70	1	0	0	76	195	stimuli\Videos_short_600ms_horvertflip\23.single_push_with_a_spoon_short_horvertflip_short_600ms.mp4	23.single_push_with_a_spoon_short_horvertflip_short_600ms.mp4	247.39745305598623	248.00580095867372	0.6083479026874556				
229.01513671875	0.2	469023	170	70	1	0	0	77	18	stimuli\Videos_short_600ms\26.single_touch_with_a_blunt_syringe_short_short_600ms.mp4	26.single_touch_with_a_blunt_syringe_short_short_600ms.mp4	248.19745575383425	248.8057825429314	0.6083267890971911				
229.8154296875	0.2	470662	171	70	1	0	0	78	99	stimuli\Videos_short_600ms_horflip\18.single_stroke_from_top_to_bottom_with_rolling_pin_short_horflip_short_600ms.mp4	18.single_stroke_from_top_to_bottom_with_rolling_pin_short_horflip_short_600ms.mp4	248.99743645835952	249.60575239741777	0.6083159390582296				
230.615234375	0.2	472300	172	70	1	0	0	79	138	stimuli\Videos_short_600ms_horflip\53.touch_top_to_bottom_with_knife_short_horflip_short_600ms.mp4	53.touch_top_to_bottom_with_knife_short_horflip_short_600ms.mp4	249.7974582170864	250.4057339816773	0.6082757645908714				
231.4150390625	0.2	473938	173	70	1	0	0	80	271	stimuli\Videos_short_600ms_vertflip\10.single_touch_with_knife_short_vertflip_short_600ms.mp4	10.single_touch_with_knife_short_vertflip_short_600ms.mp4	250.59740079985204	251.20571820513396	0.6083174052819231				
232.21533203125	0.2	475577	174	70	1	0	0	81	301	stimuli\Videos_short_600ms_vertflip\38.double_slap_with_pencil_short_vertflip_short_600ms.mp4	38.double_slap_with_pencil_short_vertflip_short_600ms.mp4	251.39738443682108	252.00569773668212	0.6083132998610381				
233.01513671875	0.2	477215	175	70	1	0	0	82	177	stimuli\Videos_short_600ms_horflip\89.single_touch_with_plastic_brush_short_horflip_short_600ms.mp4	89.single_touch_with_plastic_brush_short_horflip_short_600ms.mp4	252.1973680737883	252.80567550876367	0.6083074349753588				
233.81494140625	0.2	478853	176	70	1	0	0	83	109	stimuli\Videos_short_600ms_horflip\27.single_push_with_a_plastic_whisk_short_horflip_short_600ms.mp4	27.single_push_with_a_plastic_whisk_short_horflip_short_600ms.mp4	252.9973332363661	253.6056617849299	0.6083285485638044				
234.615234375	0.2	480492	177	70	1	0	0	84	23	stimuli\Videos_short_600ms\30.finger_pulling_back_another_finger_short_short_600ms.mp4	30.finger_pulling_back_another_finger_short_short_600ms.mp4	253.7972881353944	254.40564043674567	0.6083523013512604				
235.4150390625	0.2	482130	178	70	1	0	0	85	159	stimuli\Videos_short_600ms_horflip\72.(short)stroke_with_finger_all_over_the_hand_short_horflip_short_600ms.mp4	72.(short)stroke_with_finger_all_over_the_hand_short_horflip_short_600ms.mp4	254.59727881022445	255.20562084802623	0.6083420378017763				
236.21484375	0.2	483768	179	70	1	0	1	86	371	stimuli\Targets_short_600ms_horflip\hand-stroke_short_horflip_short_600ms.mp4	hand-stroke_short_horflip_short_600ms.mp4	255.3972427998251	256.0056030187734	0.6083602189482917				
237.01513671875	0.2	485407	180	70	1	0	0	87	196	stimuli\Videos_short_600ms_horvertflip\24.single_stroke_top_to_bottom_with_a_spoon_short_horvertflip_short_600ms.mp4	24.single_stroke_top_to_bottom_with_a_spoon_short_horvertflip_short_600ms.mp4	256.19725752068916	256.80558255032156	0.6083250296323968				
237.81494140625	0.2	487045	181	70	1	0	0	88	50	stimuli\Videos_short_600ms\55.touch_top_to_bottom_with_nail_file_short_short_600ms.mp4	55.touch_top_to_bottom_with_nail_file_short_short_600ms.mp4	256.99724936849816	257.6055653075564	0.6083159390582296				
238.61474609375	0.2	488683	182	70	1	0	0	89	312	stimuli\Videos_short_600ms_vertflip\48.single_slap_with_hand_short_vertflip_short_600ms.mp4	48.single_slap_with_hand_short_vertflip_short_600ms.mp4	257.7972151175636	258.4055410269302	0.6083259093666129				
239.4150390625	0.2	490322	183	70	1	0	0	90	200	stimuli\Videos_short_600ms_horvertflip\28.single_injection_with_sharp_needle_short_horvertflip_short_600ms.mp4	28.single_injection_with_sharp_needle_short_horvertflip_short_600ms.mp4	258.5972483128189	259.20552876931833	0.6082804564994149				
240.21484375	0.2	491960	184	70	1	0	0	91	3	stimuli\Videos_short_600ms\12.repeated_touch_with_nail_file_short_short_600ms.mp4	12.repeated_touch_with_nail_file_short_short_600ms.mp4	259.3972290173442	260.0054851345667	0.6082561172224814				
241.01513671875	0.2	493599	185	70	1	0	0	92	330	stimuli\Videos_short_600ms_vertflip\64.repeated_touch_with_screwdriver_short_vertflip_short_600ms.mp4	64.repeated_touch_with_screwdriver_short_vertflip_short_600ms.mp4	260.1971736528212	260.80544648496834	0.6082728321471222				
241.81494140625	0.2	495237	186	70	1	0	0	93	48	stimuli\Videos_short_600ms\53.touch_top_to_bottom_with_knife_short_short_600ms.mp4	53.touch_top_to_bottom_with_knife_short_short_600ms.mp4	260.9971446802847	261.60544800983917	0.6083033295544737				
242.61474609375	0.2	496875	187	70	1	0	0	94	123	stimuli\Videos_short_600ms_horflip\4.repeated_tap_with_finger_slow_short_horflip_short_600ms.mp4	4.repeated_tap_with_finger_slow_short_horflip_short_600ms.mp4	261.79800218525634	262.4054328197835	0.6074306345271907	5.0	5.0	3.5543994562085572	1.0
278.7802734375	0.2	570942	188	70	2	0	0	0	117	stimuli\Videos_short_600ms_horflip\34.repeated_punch_with_hand_short_horflip_short_600ms.mp4	34.repeated_punch_with_hand_short_horflip_short_600ms.mp4	297.9629523953063	298.57126598841205	0.6083135931057768				
279.580078125	0.2	572580	189	70	2	0	0	1	277	stimuli\Videos_short_600ms_vertflip\16.repeated_touch_with_plastic_brush_short_vertflip_short_600ms.mp4	16.repeated_touch_with_plastic_brush_short_vertflip_short_600ms.mp4	298.7629128659755	299.3712437604936	0.6083308945180761				
280.38037109375	0.2	574219	190	70	2	0	0	2	116	stimuli\Videos_short_600ms_horflip\33.scratch_top_to_bottom_with_scissors_short_horflip_short_600ms.mp4	33.scratch_top_to_bottom_with_scissors_short_horflip_short_600ms.mp4	299.5629184962654	300.1712056973847	0.6082872011193103				
281.18017578125	0.2	575857	191	70	2	0	0	3	204	stimuli\Videos_short_600ms_horvertflip\31.hand_grabbing_wrist_short_horvertflip_short_600ms.mp4	31.hand_grabbing_wrist_short_horvertflip_short_600ms.mp4	300.3629044791887	300.9711761383587	0.6082716591699864				
281.97998046875	0.2	577495	192	70	2	0	0	4	286	stimuli\Videos_short_600ms_vertflip\24.single_stroke_top_to_bottom_with_a_spoon_short_vertflip_short_600ms.mp4	24.single_stroke_top_to_bottom_with_a_spoon_short_vertflip_short_600ms.mp4	301.16284911466573	301.771170332122	0.6083212174562505				
282.7802734375	0.2	579134	193	70	2	0	0	5	189	stimuli\Videos_short_600ms_horvertflip\18.single_stroke_from_top_to_bottom_with_rolling_pin_short_horvertflip_short_600ms.mp4	18.single_stroke_from_top_to_bottom_with_rolling_pin_short_horvertflip_short_600ms.mp4	301.96283539083197	302.5711510366473	0.6083156458153098				
283.580078125	0.2	580772	194	70	2	0	0	6	171	stimuli\Videos_short_600ms_horflip\83.single_stroke_top_to_bottom_with_cotton_bud_short_horflip_short_600ms.mp4	83.single_stroke_top_to_bottom_with_cotton_bud_short_horflip_short_600ms.mp4	302.7633081592867	303.3711399520125	0.6078317927258468				
284.38037109375	0.2	582411	195	70	2	0	0	7	167	stimuli\Videos_short_600ms_horflip\8.single_touch_with_hairbrush_short_horflip_short_600ms.mp4	8.single_touch_with_hairbrush_short_horflip_short_600ms.mp4	303.5628032512577	304.17112593493584	0.608322683678125				
285.18017578125	0.2	584049	196	70	2	0	0	8	175	stimuli\Videos_short_600ms_horflip\87.single_stroke_top_to_bottom_with_plastic_brush_short_horflip_short_600ms.mp4	87.single_stroke_top_to_bottom_with_plastic_brush_short_horflip_short_600ms.mp4	304.3627742787212	304.97113009900386	0.608355820282668				
285.97998046875	0.2	585687	197	70	2	0	0	9	129	stimuli\Videos_short_600ms_horflip\45.scratching_with_finger_nails_short_horflip_short_600ms.mp4	45.scratching_with_finger_nails_short_horflip_short_600ms.mp4	305.16276143462164	305.77109702104826	0.6083355864266196				
286.7802734375	0.2	587326	198	70	2	0	0	10	239	stimuli\Videos_short_600ms_horvertflip\63.stroke_top_to_bottom_with_screwdriver_short_horvertflip_short_600ms.mp4	63.stroke_top_to_bottom_with_screwdriver_short_horvertflip_short_600ms.mp4	305.96273627426126	306.5710918012992	0.6083555270379293				
287.580078125	0.2	588964	199	70	2	0	0	11	290	stimuli\Videos_short_600ms_vertflip\28.single_injection_with_sharp_needle_short_vertflip_short_600ms.mp4	28.single_injection_with_sharp_needle_short_vertflip_short_600ms.mp4	306.762740731574	307.37105930983125	0.60831857825724				
288.3798828125	0.2	590602	200	70	2	0	0	12	134	stimuli\Videos_short_600ms_horflip\5.repeated_tap_with_finger_moving_from_top_to_bottom_short_horflip_short_600ms.mp4	5.repeated_tap_with_finger_moving_from_top_to_bottom_short_horflip_short_600ms.mp4	307.562698856289	308.1710423603108	0.6083435040218319				
289.18017578125	0.2	592241	201	70	2	0	0	13	62	stimuli\Videos_short_600ms\66.stroke_top_to_bottom_with_sponge_short_short_600ms.mp4	66.stroke_top_to_bottom_with_sponge_short_short_600ms.mp4	308.36270096764747	308.971021891859	0.6083209242115117				
289.97998046875	0.2	593879	202	70	2	0	0	14	71	stimuli\Videos_short_600ms\74.fingers_walking_from_top_to_bottom_short_short_600ms.mp4	74.fingers_walking_from_top_to_bottom_short_short_600ms.mp4	309.1626702356443	309.77100318287376	0.6083329472294281				
290.77978515625	0.2	595517	203	70	2	0	0	15	269	stimuli\Videos_short_600ms_horvertflip\90.repeated_touch_with_sponge_short_horvertflip_short_600ms.mp4	90.repeated_touch_with_sponge_short_horvertflip_short_600ms.mp4	309.9626538726134	310.5709862333533	0.6083323607399507				
291.580078125	0.2	597156	204	70	2	0	0	16	41	stimuli\Videos_short_600ms\47.(long)scratching_with_finger_nails_short_short_600ms.mp4	47.(long)scratching_with_finger_nails_short_short_600ms.mp4	310.76260261350944	311.37096459192435	0.608361978414905				
292.3798828125	0.2	598794	205	70	2	0	0	17	93	stimuli\Videos_short_600ms_horflip\12.repeated_touch_with_nail_file_short_horflip_short_600ms.mp4	12.repeated_touch_with_nail_file_short_horflip_short_600ms.mp4	311.562585663989	312.1709458829373	0.6083602189482917				
293.1796875	0.2	600432	206	70	2	0	0	18	25	stimuli\Videos_short_600ms\32.single_(long)pinch_with_fingers_short_short_600ms.mp4	32.single_(long)pinch_with_fingers_short_short_600ms.mp4	312.3625634360724	312.9709283469292	0.6083649108568352				
293.97998046875	0.2	602071	207	70	2	0	0	19	85	stimuli\Videos_short_600ms\87.single_stroke_top_to_bottom_with_plastic_brush_short_short_600ms.mp4	87.single_stroke_top_to_bottom_with_plastic_brush_short_short_600ms.mp4	313.16266261129385	313.7708967351937	0.6082341238998197				
294.77978515625	0.2	603709	208	70	2	0	1	20	380	stimuli\Targets_short_600ms_vertflip\chopstickwood-tap_short_horvertflip_short_600ms.mp4	chopstickwood-tap_short_horvertflip_short_600ms.mp4	313.96259493051	314.5708765599866	0.6082816294765507				
295.57958984375	0.2	605347	209	70	2	0	0	21	321	stimuli\Videos_short_600ms_vertflip\56.repeated_touch_with_nail_file_short_vertflip_short_600ms.mp4	56.repeated_touch_with_nail_file_short_vertflip_short_600ms.mp4	314.762536926788	315.37082383466077	0.6082869078727526				
296.3798828125	0.2	606986	210	70	2	0	0	22	227	stimuli\Videos_short_600ms_horvertflip\52.touch_top_to_bottom_with_hammer_short_horvertflip_short_600ms.mp4	52.touch_top_to_bottom_with_hammer_short_horvertflip_short_600ms.mp4	315.5625108866934	316.17080424594315	0.6082933592497284				
297.1796875	0.2	608624	211	70	2	0	0	23	139	stimuli\Videos_short_600ms_horflip\54.repeated_touch_with_knife_short_horflip_short_600ms.mp4	54.repeated_touch_with_knife_short_horflip_short_600ms.mp4	316.36250977236523	316.97078758966563	0.6082778173004044				
297.9794921875	0.2	610262	212	70	2	0	0	24	182	stimuli\Videos_short_600ms_horvertflip\11.single_touch_with_lighter_short_horvertflip_short_600ms.mp4	11.single_touch_with_lighter_short_horvertflip_short_600ms.mp4	317.162566720408	317.77079497942213	0.6082282590141403				
298.77978515625	0.2	611901	213	70	2	0	0	25	91	stimuli\Videos_short_600ms_horflip\10.single_touch_with_knife_short_horflip_short_600ms.mp4	10.single_touch_with_knife_short_horflip_short_600ms.mp4	317.96248584363093	318.57078008261306	0.6082942389821255				
299.57958984375	0.2	613539	214	70	2	0	1	26	368	stimuli\Targets_short_600ms_horflip\chopstickwood-tap_short_horflip_short_600ms.mp4	chopstickwood-tap_short_horflip_short_600ms.mp4	318.76245393865247	319.3707663587793	0.608312420126822				
300.37939453125	0.2	615177	215	70	2	0	0	27	220	stimuli\Videos_short_600ms_horvertflip\46.scratching_top_to_bottom_with_finger_nails_short_horvertflip_short_600ms.mp4	46.scratching_top_to_bottom_with_finger_nails_short_horvertflip_short_600ms.mp4	319.5624170485189	320.1707711093368	0.6083540608178737				
301.1796875	0.2	616816	216	70	2	0	0	28	83	stimuli\Videos_short_600ms\85.touch_top_to_bottom_with_fabric_short_short_600ms.mp4	85.touch_top_to_bottom_with_fabric_short_short_600ms.mp4	320.36241534770306	320.9707392043565	0.6083238566534419				
301.9794921875	0.2	618454	217	70	2	0	0	29	47	stimuli\Videos_short_600ms\52.touch_top_to_bottom_with_hammer_short_short_600ms.mp4	52.touch_top_to_bottom_with_hammer_short_short_600ms.mp4	321.16237728459237	321.7707284129665	0.6083511283741245				
302.779296875	0.2	620092	218	70	2	0	0	30	254	stimuli\Videos_short_600ms_horvertflip\77.tapping_with_all_fingers_short_horvertflip_short_600ms.mp4	77.tapping_with_all_fingers_short_horvertflip_short_600ms.mp4	321.9624210366419	322.57069738772043	0.6082763510785298				
303.57958984375	0.2	621731	219	70	2	0	0	31	329	stimuli\Videos_short_600ms_vertflip\63.stroke_top_to_bottom_with_screwdriver_short_vertflip_short_600ms.mp4	63.stroke_top_to_bottom_with_screwdriver_short_vertflip_short_600ms.mp4	322.7624172831147	323.37067985171234	0.6082625685976382				
304.37939453125	0.2	623369	220	70	2	0	0	32	141	stimuli\Videos_short_600ms_horflip\56.repeated_touch_with_nail_file_short_horflip_short_600ms.mp4	56.repeated_touch_with_nail_file_short_horflip_short_600ms.mp4	323.56233816580425	324.1706646616567	0.6083264958524524				
305.1796875	0.2	625008	221	70	2	0	0	33	170	stimuli\Videos_short_600ms_horflip\82.repeated_touch_with_cotton_bud_short_horflip_short_600ms.mp4	82.repeated_touch_with_cotton_bud_short_horflip_short_600ms.mp4	324.3623033283802	324.9706444864496	0.6083411580693792				
305.9794921875	0.2	626646	222	70	2	0	0	34	43	stimuli\Videos_short_600ms\49.repeated_slap_with_hand_short_short_600ms.mp4	49.repeated_slap_with_hand_short_short_600ms.mp4	325.16227464908843	325.77062812341865	0.6083534743302152				
306.779296875	0.2	628284	223	70	2	0	0	35	213	stimuli\Videos_short_600ms_horvertflip\4.repeated_tap_with_finger_slow_short_horvertflip_short_600ms.mp4	4.repeated_tap_with_finger_slow_short_horvertflip_short_600ms.mp4	325.96224274411	326.5706035495459	0.6083608054359502				
307.57958984375	0.2	629923	224	70	2	0	0	36	82	stimuli\Videos_short_600ms\84.single_touch_with_cotton_bud_short_short_600ms.mp4	84.single_touch_with_cotton_bud_short_short_600ms.mp4	326.7622454419561	327.37058718651315	0.6083417445570376				
308.37939453125	0.2	631561	225	70	2	0	0	37	217	stimuli\Videos_short_600ms_horvertflip\43.touch_top_to_bottom_with_sharp_wooden_stick_short_horvertflip_short_600ms.mp4	43.touch_top_to_bottom_with_sharp_wooden_stick_short_horvertflip_short_600ms.mp4	327.5622287856804	328.1705649585965	0.608336172916097				
309.17919921875	0.2	633199	226	70	2	0	0	38	265	stimuli\Videos_short_600ms_horvertflip\87.single_stroke_top_to_bottom_with_plastic_brush_short_horvertflip_short_600ms.mp4	87.single_stroke_top_to_bottom_with_plastic_brush_short_horvertflip_short_600ms.mp4	328.3621930685258	328.9705488888085	0.608355820282668				
309.9794921875	0.2	634838	227	70	2	0	0	39	317	stimuli\Videos_short_600ms_vertflip\52.touch_top_to_bottom_with_hammer_short_vertflip_short_600ms.mp4	52.touch_top_to_bottom_with_hammer_short_vertflip_short_600ms.mp4	329.1621943001519	329.770530473068	0.608336172916097				
310.779296875	0.2	636476	228	70	2	0	0	40	228	stimuli\Videos_short_600ms_horvertflip\53.touch_top_to_bottom_with_knife_short_horvertflip_short_600ms.mp4	53.touch_top_to_bottom_with_knife_short_horvertflip_short_600ms.mp4	329.9621597559726	330.5704689504146	0.6083091944419721				
311.5791015625	0.2	638114	229	70	2	0	0	41	172	stimuli\Videos_short_600ms_horflip\84.single_touch_with_cotton_bud_short_horflip_short_600ms.mp4	84.single_touch_with_cotton_bud_short_horflip_short_600ms.mp4	330.7621774092804	331.37047780639114	0.6083003971107246				
312.37939453125	0.2	639753	230	70	2	0	0	42	291	stimuli\Videos_short_600ms_vertflip\29.single_pinch_with_tweezers_short_vertflip_short_600ms.mp4	29.single_pinch_with_tweezers_short_vertflip_short_600ms.mp4	331.5624944650135	332.1704470743898	0.6079526093762979				
313.17919921875	0.2	641391	231	70	2	0	0	43	300	stimuli\Videos_short_600ms_vertflip\37.single_stab_with_nail_file_short_vertflip_short_600ms.mp4	37.single_stab_with_nail_file_short_vertflip_short_600ms.mp4	332.36213060749105	332.9704321775789	0.6083015700878605				
313.97900390625	0.2	643029	232	70	2	0	0	44	285	stimuli\Videos_short_600ms_vertflip\23.single_push_with_a_spoon_short_vertflip_short_600ms.mp4	23.single_push_with_a_spoon_short_vertflip_short_600ms.mp4	333.16209489033463	333.7704164010356	0.6083215107009892				
314.779296875	0.2	644668	233	70	2	0	0	45	282	stimuli\Videos_short_600ms_vertflip\20.single_touch_with_screwdriver_short_vertflip_short_600ms.mp4	20.single_touch_with_screwdriver_short_vertflip_short_600ms.mp4	333.9620588799353	334.57039563933904	0.6083367594037554				
315.5791015625	0.2	646306	234	70	2	0	0	46	335	stimuli\Videos_short_600ms_vertflip\69.stroke_with_soft_sock_short_vertflip_short_600ms.mp4	69.stroke_with_soft_sock_short_vertflip_short_600ms.mp4	334.76207448053174	335.37040654802695	0.608332067495212				
316.37890625	0.2	647944	235	70	2	0	1	47	370	stimuli\Targets_short_600ms_horflip\hand-pinch_short_horflip_short_600ms.mp4	hand-pinch_short_horflip_short_600ms.mp4	335.56211471364986	336.1703764025133	0.608261688863422				
317.17919921875	0.2	649583	236	70	2	0	0	48	210	stimuli\Videos_short_600ms_horvertflip\37.single_stab_with_nail_file_short_horvertflip_short_600ms.mp4	37.single_stab_with_nail_file_short_horvertflip_short_600ms.mp4	336.36199835431216	336.9703574002833	0.6083590459711559				
317.97900390625	0.2	651221	237	70	2	0	1	49	379	stimuli\Targets_short_600ms_vertflip\chopstick-silver-tap_short_horvertflip_short_600ms.mp4	chopstick-silver-tap_short_horvertflip_short_600ms.mp4	337.1622303692002	337.77034191698476	0.6081115477845742				
318.77880859375	0.2	652859	238	70	2	0	0	50	340	stimuli\Videos_short_600ms_vertflip\73.single_stroke_with_flat_hand_short_vertflip_short_600ms.mp4	73.single_stroke_with_flat_hand_short_vertflip_short_600ms.mp4	337.9619550714542	338.57031939582157	0.6083643243673578				
319.5791015625	0.2	654498	239	70	2	0	0	51	242	stimuli\Videos_short_600ms_horvertflip\66.stroke_top_to_bottom_with_sponge_short_horvertflip_short_600ms.mp4	66.stroke_top_to_bottom_with_sponge_short_horvertflip_short_600ms.mp4	338.76197741667056	339.3702977543926	0.6083203377220343				
320.37890625	0.2	656136	240	70	2	0	0	52	219	stimuli\Videos_short_600ms_horvertflip\45.scratching_with_finger_nails_short_horvertflip_short_600ms.mp4	45.scratching_with_finger_nails_short_horvertflip_short_600ms.mp4	339.5619584144388	340.1702802183845	0.6083218039457279				
321.1787109375	0.2	657774	241	70	2	0	1	53	366	stimuli\Targets_short_600ms_horflip\brush-stroke_short_horflip_short_600ms.mp4	brush-stroke_short_horflip_short_600ms.mp4	340.361918885108	340.9702632688641	0.608344383756048				
321.97900390625	0.2	659413	242	70	2	0	0	54	283	stimuli\Videos_short_600ms_vertflip\21.repeated_touch_with_metal_chopstick_short_vertflip_short_600ms.mp4	21.repeated_touch_with_metal_chopstick_short_vertflip_short_600ms.mp4	341.1619482681872	341.7702416274351	0.6082933592479094				
322.77880859375	0.2	661051	243	70	2	0	0	55	105	stimuli\Videos_short_600ms_horflip\23.single_push_with_a_spoon_short_horflip_short_600ms.mp4	23.single_push_with_a_spoon_short_horflip_short_600ms.mp4	341.9619178294288	342.5702240914252	0.6083062619964039				
323.57861328125	0.2	662689	244	70	2	0	0	56	338	stimuli\Videos_short_600ms_vertflip\71.single_stroke_with_finger_top_to_bottom_short_vertflip_short_600ms.mp4	71.single_stroke_with_finger_top_to_bottom_short_vertflip_short_600ms.mp4	342.7618463364688	343.37020978110377	0.6083634446349606				
324.37890625	0.2	664328	245	70	2	0	0	57	211	stimuli\Videos_short_600ms_horvertflip\38.double_slap_with_pencil_short_horvertflip_short_600ms.mp4	38.double_slap_with_pencil_short_horvertflip_short_600ms.mp4	343.5618560721796	344.17018638021	0.6083303080304177				
325.1787109375	0.2	665966	246	70	2	0	0	58	74	stimuli\Videos_short_600ms\77.tapping_with_all_fingers_short_short_600ms.mp4	77.tapping_with_all_fingers_short_short_600ms.mp4	344.3618139036498	344.9701635658039	0.6083496621540689				
325.97900390625	0.2	667605	247	70	2	0	0	59	233	stimuli\Videos_short_600ms_horvertflip\58.single_slap_with_pencil_short_horvertflip_short_600ms.mp4	58.single_slap_with_pencil_short_horvertflip_short_600ms.mp4	345.1618356623767	345.7701469095264	0.6083112471496861				
326.77880859375	0.2	669243	248	70	2	0	0	60	35	stimuli\Videos_short_600ms\41.injection_with_blunt_syringe_short_short_600ms.mp4	41.injection_with_blunt_syringe_short_short_600ms.mp4	345.96181695339146	346.5700856801177	0.6082687267262372				
327.57861328125	0.2	670881	249	70	2	0	0	61	4	stimuli\Videos_short_600ms\13.single_touch_with_pen_short_short_600ms.mp4	13.single_touch_with_pen_short_short_600ms.mp4	346.76187243521235	347.3701086118217	0.6082361766093527				
328.37890625	0.2	672520	250	70	2	0	0	62	144	stimuli\Videos_short_600ms_horflip\59.single_push_with_long_side_pencil_short_horflip_short_600ms.mp4	59.single_push_with_long_side_pencil_short_horflip_short_600ms.mp4	347.5619138413058	348.17004591619116	0.6081320748853614				
329.1787109375	0.2	674158	251	70	2	0	0	63	146	stimuli\Videos_short_600ms_horflip\60.single_push_with_tip_of_pencil_short_horflip_short_600ms.mp4	60.single_push_with_tip_of_pencil_short_horflip_short_600ms.mp4	348.3617414723085	348.97005594514667	0.608314472838174				
329.978515625	0.2	675796	252	70	2	0	0	64	267	stimuli\Videos_short_600ms_horvertflip\89.single_touch_with_plastic_brush_short_horvertflip_short_600ms.mp4	89.single_touch_with_plastic_brush_short_horvertflip_short_600ms.mp4	349.161732733628	349.77003401047295	0.6083012768449407				
330.77880859375	0.2	677435	253	70	2	0	0	65	58	stimuli\Videos_short_600ms\62.touch_top_to_bottom_with_scissors_short_short_600ms.mp4	62.touch_top_to_bottom_with_scissors_short_short_600ms.mp4	349.96171373139805	350.57004052049706	0.6083267890990101				
331.57861328125	0.2	679073	254	70	2	0	0	66	287	stimuli\Videos_short_600ms_vertflip\25.single_touch_with_stanley_knife_short_vertflip_short_600ms.mp4	25.single_touch_with_stanley_knife_short_vertflip_short_600ms.mp4	350.76168065344245	351.3700223979995	0.6083417445570376				
332.37841796875	0.2	680711	255	70	2	0	0	67	244	stimuli\Videos_short_600ms_horvertflip\68.stroke_top_to_bottom_with_shawl_short_horvertflip_short_600ms.mp4	68.stroke_top_to_bottom_with_shawl_short_horvertflip_short_600ms.mp4	351.5616754336934	352.16999929034864	0.6083238566552609				
333.1787109375	0.2	682350	256	70	2	0	0	68	120	stimuli\Videos_short_600ms_horflip\37.single_stab_with_nail_file_short_horflip_short_600ms.mp4	37.single_stab_with_nail_file_short_horflip_short_600ms.mp4	352.3616581909282	352.96997764891967	0.6083194579914561				
333.978515625	0.2	683988	257	70	2	0	0	69	98	stimuli\Videos_short_600ms_horflip\17.repeated_touch_with_rolling_pin_short_horflip_short_600ms.mp4	17.repeated_touch_with_rolling_pin_short_horflip_short_600ms.mp4	353.16164006843064	353.76995923317736	0.6083191647467174				
334.7783203125	0.2	685626	258	70	2	0	0	70	29	stimuli\Videos_short_600ms\36.single_slap_with_full_hand_short_short_600ms.mp4	36.single_slap_with_full_hand_short_short_600ms.mp4	353.9616169607798	354.5699396444579	0.608322683678125				
335.57861328125	0.2	687265	259	70	2	0	0	71	326	stimuli\Videos_short_600ms_vertflip\60.single_push_with_tip_of_pencil_short_vertflip_short_600ms.mp4	60.single_push_with_tip_of_pencil_short_vertflip_short_600ms.mp4	354.76159619908503	355.3699200557403	0.6083238566552609				
336.37841796875	0.2	688903	260	70	2	0	0	72	272	stimuli\Videos_short_600ms_vertflip\11.single_touch_with_lighter_short_vertflip_short_600ms.mp4	11.single_touch_with_lighter_short_vertflip_short_600ms.mp4	355.5616173713224	356.16990134675325	0.6082839754308225				
337.17822265625	0.2	690541	261	70	2	0	0	73	327	stimuli\Videos_short_600ms_vertflip\61.single_hit_with_rolling_pin_short_vertflip_short_600ms.mp4	61.single_hit_with_rolling_pin_short_vertflip_short_600ms.mp4	356.3615482243167	356.96988058505667	0.6083323607399507				
337.978515625	0.2	692180	262	70	2	0	0	74	70	stimuli\Videos_short_600ms\73.single_stroke_with_flat_hand_short_short_600ms.mp4	73.single_stroke_with_flat_hand_short_short_600ms.mp4	357.16150752200883	357.76986363553624	0.6083561135274067				
338.7783203125	0.2	693818	263	70	2	0	0	75	194	stimuli\Videos_short_600ms_horvertflip\22.single_touch_with_metal_chopstick_short_horvertflip_short_600ms.mp4	22.single_touch_with_metal_chopstick_short_horvertflip_short_600ms.mp4	357.9614800156942	358.56984521979575	0.6083652041015739				
339.578125	0.2	695456	264	70	2	0	0	76	44	stimuli\Videos_short_600ms\5.repeated_tap_with_finger_moving_from_top_to_bottom_short_short_600ms.mp4	5.repeated_tap_with_finger_moving_from_top_to_bottom_short_short_600ms.mp4	358.7615366704922	359.3698270972982	0.6082904268059792				
340.37841796875	0.2	697095	265	70	2	0	0	77	281	stimuli\Videos_short_600ms_vertflip\2.single_touch_with_finger_short_vertflip_short_600ms.mp4	2.single_touch_with_finger_short_vertflip_short_600ms.mp4	359.56148247894635	360.16981014777775	0.6083276688314072				
341.17822265625	0.2	698733	266	70	2	0	0	78	79	stimuli\Videos_short_600ms\81.single_stroke_top_to_bottom_with_cotton_pad_short_short_600ms.mp4	81.single_stroke_top_to_bottom_with_cotton_pad_short_short_600ms.mp4	360.36159748936007	360.9697500913444	0.6081526019843295				
341.97802734375	0.2	700371	267	70	2	0	0	79	270	stimuli\Videos_short_600ms_vertflip\1.repeated_touch_with_finger_fast_short_vertflip_short_600ms.mp4	1.repeated_touch_with_finger_fast_short_vertflip_short_600ms.mp4	361.16148875437466	361.7697469243067	0.6082581699320144				
342.7783203125	0.2	702010	268	70	2	0	0	80	113	stimuli\Videos_short_600ms_horflip\30.finger_pulling_back_another_finger_short_horflip_short_600ms.mp4	30.finger_pulling_back_another_finger_short_horflip_short_600ms.mp4	361.9614310438956	362.5697035827998	0.6082725389042025				
343.578125	0.2	703648	269	70	2	0	0	81	193	stimuli\Videos_short_600ms_horvertflip\21.repeated_touch_with_metal_chopstick_short_horvertflip_short_600ms.mp4	21.repeated_touch_with_metal_chopstick_short_horvertflip_short_600ms.mp4	362.7614214254827	363.369705987403	0.6082845619202999				
344.3779296875	0.2	705286	270	70	2	0	0	82	135	stimuli\Videos_short_600ms_horflip\50.single_(long)hard_push_with_thumb_short_horflip_short_600ms.mp4	50.single_(long)hard_push_with_thumb_short_horflip_short_600ms.mp4	363.56136987313585	364.1696905041045	0.608320630968592				
345.17822265625	0.2	706925	271	70	2	0	0	83	125	stimuli\Videos_short_600ms_horflip\41.injection_with_blunt_syringe_short_horflip_short_600ms.mp4	41.injection_with_blunt_syringe_short_horflip_short_600ms.mp4	364.36137110476193	364.9696984803486	0.6083273755866685				
345.97802734375	0.2	708563	272	70	2	0	1	84	372	stimuli\Targets_short_600ms_horvertflip\brush-stroke_short_vertflip_short_600ms.mp4	brush-stroke_short_vertflip_short_600ms.mp4	365.1613523957767	365.7696706807892	0.6083182850125013				
346.7783203125	0.2	710202	273	70	2	0	0	85	92	stimuli\Videos_short_600ms_horflip\11.single_touch_with_lighter_short_horflip_short_600ms.mp4	11.single_touch_with_lighter_short_horflip_short_600ms.mp4	365.96141110328426	366.5696666340191	0.608255530734823				
347.578125	0.2	711840	274	70	2	0	0	86	152	stimuli\Videos_short_600ms_horflip\66.stroke_top_to_bottom_with_sponge_short_horflip_short_600ms.mp4	66.stroke_top_to_bottom_with_sponge_short_horflip_short_600ms.mp4	366.76129386421417	367.36963502228355	0.6083411580693792				
348.3779296875	0.2	713478	275	70	2	0	0	87	298	stimuli\Videos_short_600ms_vertflip\35.single_punch_with_hand_short_vertflip_short_600ms.mp4	35.single_punch_with_hand_short_vertflip_short_600ms.mp4	367.5612895241993	368.16961924574025	0.6083297215409402				
349.17822265625	0.2	715117	276	70	2	0	0	88	351	stimuli\Videos_short_600ms_vertflip\83.single_stroke_top_to_bottom_with_cotton_bud_short_vertflip_short_600ms.mp4	83.single_stroke_top_to_bottom_with_cotton_bud_short_vertflip_short_600ms.mp4	368.3612781463198	368.96959731106654	0.6083191647467174				
349.97802734375	0.2	716755	277	70	2	0	0	89	26	stimuli\Videos_short_600ms\33.scratch_top_to_bottom_with_scissors_short_short_600ms.mp4	33.scratch_top_to_bottom_with_scissors_short_short_600ms.mp4	369.1612573846232	369.7695786020813	0.6083212174580694				
350.77783203125	0.2	718393	278	70	2	0	0	90	236	stimuli\Videos_short_600ms_horvertflip\60.single_push_with_tip_of_pencil_short_horvertflip_short_600ms.mp4	60.single_push_with_tip_of_pencil_short_horvertflip_short_600ms.mp4	369.9612383823933	370.56956047958374	0.6083220971904666				
351.578125	0.2	720032	279	70	2	0	0	91	307	stimuli\Videos_short_600ms_vertflip\43.touch_top_to_bottom_with_sharp_wooden_stick_short_vertflip_short_600ms.mp4	43.touch_top_to_bottom_with_sharp_wooden_stick_short_vertflip_short_600ms.mp4	370.7612152747424	371.3695400111319	0.608324736389477				
352.3779296875	0.2	721670	280	70	2	0	0	92	90	stimuli\Videos_short_600ms_horflip\1.repeated_touch_with_finger_fast_short_horflip_short_600ms.mp4	1.repeated_touch_with_finger_fast_short_horflip_short_600ms.mp4	371.5611596169747	372.1694776087443	0.6083179917695816				
353.177734375	0.2	723308	281	70	2	0	0	93	64	stimuli\Videos_short_600ms\68.stroke_top_to_bottom_with_shawl_short_short_600ms.mp4	68.stroke_top_to_bottom_with_shawl_short_short_600ms.mp4	372.3612145123079	372.9695137364415	0.6082992241335887				
353.97802734375	0.2	724947	282	70	2	0	0	94	181	stimuli\Videos_short_600ms_horvertflip\10.single_touch_with_knife_short_horvertflip_short_600ms.mp4	10.single_touch_with_knife_short_horvertflip_short_600ms.mp4	373.1611436058374	373.7694812449736	0.6083376391361526				
354.77783203125	0.2	726585	283	70	2	0	0	95	165	stimuli\Videos_short_600ms_horflip\78.single_stroke_top_to_bottom_with_soft_brush_short_horflip_short_600ms.mp4	78.single_stroke_top_to_bottom_with_soft_brush_short_horflip_short_600ms.mp4	373.9611512888369	374.569463122476	0.6083118336391635	6.0	5.0	3.196778066265324	0.0
391.0517578125	0.2	800874	284	70	3	0	0	0	107	stimuli\Videos_short_600ms_horflip\25.single_touch_with_stanley_knife_short_horflip_short_600ms.mp4	25.single_touch_with_stanley_knife_short_horflip_short_600ms.mp4	410.2352857343103	410.8435823192449	0.6082965849345783				
391.8515625	0.2	802512	285	70	3	0	1	1	360	stimuli\Targets_short_600ms\brush-stroke_short_short_600ms.mp4	brush-stroke_short_short_600ms.mp4	411.03524972390915	411.64357035487774	0.608320630968592				
392.6513671875	0.2	804150	286	70	3	0	0	2	86	stimuli\Videos_short_600ms\88.repeated_stroke_with_plastic_brush_short_short_600ms.mp4	88.repeated_stroke_with_plastic_brush_short_short_600ms.mp4	411.8352427446953	412.44357100001616	0.6083282553208846				
393.45166015625	0.2	805789	287	70	3	0	0	3	314	stimuli\Videos_short_600ms_vertflip\5.repeated_tap_with_finger_moving_from_top_to_bottom_short_vertflip_short_600ms.mp4	5.repeated_tap_with_finger_moving_from_top_to_bottom_short_vertflip_short_600ms.mp4	412.6352257951749	413.2435420274796	0.6083162323047873				
394.25146484375	0.2	807427	288	70	3	0	0	4	119	stimuli\Videos_short_600ms_horflip\36.single_slap_with_full_hand_short_horflip_short_600ms.mp4	36.single_slap_with_full_hand_short_horflip_short_600ms.mp4	413.4351815739355	414.0435177468517	0.608336172916097				
395.05126953125	0.2	809065	289	70	3	0	0	5	237	stimuli\Videos_short_600ms_horvertflip\61.single_hit_with_rolling_pin_short_horvertflip_short_600ms.mp4	61.single_hit_with_rolling_pin_short_horvertflip_short_600ms.mp4	414.2351857380054	414.843499917597	0.6083141795916163				
395.8515625	0.2	810704	290	70	3	0	0	6	147	stimuli\Videos_short_600ms_horflip\61.single_hit_with_rolling_pin_short_horflip_short_600ms.mp4	61.single_hit_with_rolling_pin_short_horflip_short_600ms.mp4	415.0351632168422	415.6434152286456	0.6082520118034154				
396.6513671875	0.2	812342	291	70	3	0	0	7	151	stimuli\Videos_short_600ms_horflip\65.stroke_top_to_bottom_with_stanley_knife_short_horflip_short_600ms.mp4	65.stroke_top_to_bottom_with_stanley_knife_short_horflip_short_600ms.mp4	415.835147147056	416.4434610334047	0.6083138863486965				
397.451171875	0.2	813980	292	70	3	0	0	8	114	stimuli\Videos_short_600ms_horflip\31.hand_grabbing_wrist_short_horflip_short_600ms.mp4	31.hand_grabbing_wrist_short_horflip_short_600ms.mp4	416.6351073244805	417.2434414446852	0.608334120204745				
398.25146484375	0.2	815619	293	70	3	0	0	9	106	stimuli\Videos_short_600ms_horflip\24.single_stroke_top_to_bottom_with_a_spoon_short_horflip_short_600ms.mp4	24.single_stroke_top_to_bottom_with_a_spoon_short_horflip_short_600ms.mp4	417.4350645694613	418.0434236154324	0.6083590459711559				
399.05126953125	0.2	817257	294	70	3	0	0	10	342	stimuli\Videos_short_600ms_vertflip\75.(long)stroke_with_fingers_all_over_the_hand_short_vertflip_short_600ms.mp4	75.(long)stroke_with_fingers_all_over_the_hand_short_vertflip_short_600ms.mp4	418.2350464469637	418.8434051996901	0.6083587527264172				
399.8515625	0.2	818896	295	70	3	0	0	11	76	stimuli\Videos_short_600ms\79.long_with_soft_brush_all_over_the_hand_short_short_600ms.mp4	79.long_with_soft_brush_all_over_the_hand_short_short_600ms.mp4	419.035058235384	419.6433861974602	0.6083279620761459				
400.6513671875	0.2	820534	296	70	3	0	1	12	365	stimuli\Targets_short_600ms\hand-stroke_short_short_600ms.mp4	hand-stroke_short_short_600ms.mp4	419.8349943667763	420.4433660222512	0.6083716554749117				
401.451171875	0.2	822172	297	70	3	0	0	13	13	stimuli\Videos_short_600ms\21.repeated_touch_with_metal_chopstick_short_short_600ms.mp4	21.repeated_touch_with_metal_chopstick_short_short_600ms.mp4	420.6350181782127	421.2433476065107	0.6083294282980205				
402.25146484375	0.2	823811	298	70	3	0	0	14	333	stimuli\Videos_short_600ms_vertflip\67.single_touch_with_sponge_short_vertflip_short_600ms.mp4	67.single_touch_with_sponge_short_vertflip_short_600ms.mp4	421.4350238085044	422.04332772454654	0.6083039160421322				
403.05126953125	0.2	825449	299	70	3	0	0	15	324	stimuli\Videos_short_600ms_vertflip\59.single_push_with_long_side_pencil_short_vertflip_short_600ms.mp4	59.single_push_with_long_side_pencil_short_vertflip_short_600ms.mp4	422.23529306541786	422.8432931803691	0.60800011495121				
403.85107421875	0.2	827087	300	70	3	0	0	16	260	stimuli\Videos_short_600ms_horvertflip\82.repeated_touch_with_cotton_bud_short_horvertflip_short_600ms.mp4	82.repeated_touch_with_cotton_bud_short_horvertflip_short_600ms.mp4	423.03497290129417	423.6432724186725	0.6082995173783274				
404.6513671875	0.2	828726	301	70	3	0	0	17	36	stimuli\Videos_short_600ms\42.single_slap_with_plastic_whisk_short_short_600ms.mp4	42.single_slap_with_plastic_whisk_short_short_600ms.mp4	423.83495595177374	424.44324579209024	0.6082898403165018				
405.451171875	0.2	830364	302	70	3	0	0	18	180	stimuli\Videos_short_600ms_horvertflip\1.repeated_touch_with_finger_fast_short_horvertflip_short_600ms.mp4	1.repeated_touch_with_finger_fast_short_horvertflip_short_600ms.mp4	424.6349354833219	425.2432323615012	0.608296878179317				
406.2509765625	0.2	832002	303	70	3	0	0	19	136	stimuli\Videos_short_600ms_horflip\51.repeated_touch_with_hammer_short_horflip_short_600ms.mp4	51.repeated_touch_with_hammer_short_horflip_short_600ms.mp4	425.4349156013577	426.0432133592713	0.6082977579135331				
407.05126953125	0.2	833641	304	70	3	0	0	20	325	stimuli\Videos_short_600ms_vertflip\6.single_touch_with_flat_hand_short_vertflip_short_600ms.mp4	6.single_touch_with_flat_hand_short_vertflip_short_600ms.mp4	426.2348977721049	426.8431999286822	0.6083021565773379				
407.85107421875	0.2	835279	305	70	3	0	0	21	258	stimuli\Videos_short_600ms_horvertflip\80.stroke_with_sharp_stick_all_over_the_hand_short_horvertflip_short_600ms.mp4	80.stroke_with_sharp_stick_all_over_the_hand_short_horvertflip_short_600ms.mp4	427.0348752509435	427.64320643870633	0.6083311877628148				
408.65087890625	0.2	836917	306	70	3	0	0	22	81	stimuli\Videos_short_600ms\83.single_stroke_top_to_bottom_with_cotton_bud_short_short_600ms.mp4	83.single_stroke_top_to_bottom_with_cotton_bud_short_short_600ms.mp4	427.83537998302745	428.4431809851012	0.6078010020737565				
409.451171875	0.2	838556	307	70	3	0	1	23	373	stimuli\Targets_short_600ms_horvertflip\chopstick-silver-tap_short_vertflip_short_600ms.mp4	chopstick-silver-tap_short_vertflip_short_600ms.mp4	428.6348519086969	429.2431546517637	0.6083027430668153				
410.2509765625	0.2	840194	308	70	3	0	0	24	345	stimuli\Videos_short_600ms_vertflip\78.single_stroke_top_to_bottom_with_soft_brush_short_vertflip_short_600ms.mp4	78.single_stroke_top_to_bottom_with_soft_brush_short_vertflip_short_600ms.mp4	429.4348188307413	430.0431362360214	0.6083174052801041				
411.05078125	0.2	841832	309	70	3	0	0	25	154	stimuli\Videos_short_600ms_horflip\68.stroke_top_to_bottom_with_shawl_short_horflip_short_600ms.mp4	68.stroke_top_to_bottom_with_shawl_short_horflip_short_600ms.mp4	430.2347998285095	430.8431181135238	0.6083182850143203				
411.85107421875	0.2	843471	310	70	3	0	0	26	197	stimuli\Videos_short_600ms_horvertflip\25.single_touch_with_stanley_knife_short_horvertflip_short_600ms.mp4	25.single_touch_with_stanley_knife_short_horvertflip_short_600ms.mp4	431.03477994654713	431.6430970585825	0.6083171120353654				
412.65087890625	0.2	845109	311	70	3	0	0	27	160	stimuli\Videos_short_600ms_horflip\73.single_stroke_with_flat_hand_short_horflip_short_600ms.mp4	73.single_stroke_with_flat_hand_short_horflip_short_600ms.mp4	431.8347392442392	432.443078642842	0.6083393986027659				
413.45068359375	0.2	846747	312	70	3	0	0	28	187	stimuli\Videos_short_600ms_horvertflip\16.repeated_touch_with_plastic_brush_short_horvertflip_short_600ms.mp4	16.repeated_touch_with_plastic_brush_short_horvertflip_short_600ms.mp4	432.634699128419	433.2430619865663	0.6083628581473022				
414.2509765625	0.2	848386	313	70	3	0	0	29	69	stimuli\Videos_short_600ms\72.(short)stroke_with_finger_all_over_the_hand_short_short_600ms.mp4	72.(short)stroke_with_finger_all_over_the_hand_short_short_600ms.mp4	433.43474786562	434.0430400518926	0.6082921862725925				
415.05078125	0.2	850024	314	70	3	0	1	30	383	stimuli\Targets_short_600ms_vertflip\hand-stroke_short_horvertflip_short_600ms.mp4	hand-stroke_short_horvertflip_short_600ms.mp4	434.2346605374696	434.8430225158827	0.608361978413086				
415.8505859375	0.2	851662	315	70	3	0	0	31	191	stimuli\Videos_short_600ms_horvertflip\2.single_touch_with_finger_short_horvertflip_short_600ms.mp4	2.single_touch_with_finger_short_horvertflip_short_600ms.mp4	435.0346427082168	435.6430017541861	0.6083590459693369				
416.65087890625	0.2	853301	316	70	3	0	0	32	230	stimuli\Videos_short_600ms_horvertflip\55.touch_top_to_bottom_with_nail_file_short_horvertflip_short_600ms.mp4	55.touch_top_to_bottom_with_nail_file_short_horvertflip_short_600ms.mp4	435.83464511282	436.4429795262695	0.6083344134494837				
417.45068359375	0.2	854939	317	70	3	0	0	33	212	stimuli\Videos_short_600ms_horvertflip\39.single_stab_with_scissors_short_horvertflip_short_600ms.mp4	39.single_stab_with_scissors_short_horvertflip_short_600ms.mp4	436.6346354944071	437.2429590578176	0.6083235634105222				
418.25048828125	0.2	856577	318	70	3	0	0	34	349	stimuli\Videos_short_600ms_vertflip\81.single_stroke_top_to_bottom_with_cotton_pad_short_vertflip_short_600ms.mp4	81.single_stroke_top_to_bottom_with_cotton_pad_short_vertflip_short_600ms.mp4	437.43459332587736	438.0428998811185	0.6083065552411426				
419.05078125	0.2	858216	319	70	3	0	0	35	292	stimuli\Videos_short_600ms_vertflip\3.single_push_with_finger_short_vertflip_short_600ms.mp4	3.single_push_with_finger_short_vertflip_short_600ms.mp4	438.23458429395214	438.842901992477	0.6083176985248429				
419.8505859375	0.2	859854	320	70	3	0	0	36	190	stimuli\Videos_short_600ms_horvertflip\19.single_touch_with_rolling_pin_short_horvertflip_short_600ms.mp4	19.single_touch_with_rolling_pin_short_horvertflip_short_600ms.mp4	439.0346107445875	439.6428853362013	0.6082745916137355				
420.65087890625	0.2	861493	321	70	3	0	0	37	179	stimuli\Videos_short_600ms_horflip\90.repeated_touch_with_sponge_short_horflip_short_600ms.mp4	90.repeated_touch_with_sponge_short_horflip_short_600ms.mp4	439.8345574327741	440.44287102587987	0.6083135931057768				
421.45068359375	0.2	863131	322	70	3	0	0	38	78	stimuli\Videos_short_600ms\80.stroke_with_sharp_stick_all_over_the_hand_short_short_600ms.mp4	80.stroke_with_sharp_stick_all_over_the_hand_short_short_600ms.mp4	440.63504691615526	441.24286609937553	0.607819183220272				
422.25048828125	0.2	864769	323	70	3	0	0	39	31	stimuli\Videos_short_600ms\38.double_slap_with_pencil_short_short_600ms.mp4	38.double_slap_with_pencil_short_short_600ms.mp4	441.43477748329497	442.04283155519806	0.6080540719030978				
423.05078125	0.2	866408	324	70	3	0	0	40	346	stimuli\Videos_short_600ms_vertflip\79.long_with_soft_brush_all_over_the_hand_short_vertflip_short_600ms.mp4	79.long_with_soft_brush_all_over_the_hand_short_vertflip_short_600ms.mp4	442.2346174305585	442.84283982468696	0.608222394128461				
423.8505859375	0.2	868046	325	70	3	0	0	41	352	stimuli\Videos_short_600ms_vertflip\84.single_touch_with_cotton_bud_short_vertflip_short_600ms.mp4	84.single_touch_with_cotton_bud_short_vertflip_short_600ms.mp4	443.034494033358	443.64280938592856	0.6083153525705711				
424.650390625	0.2	869684	326	70	3	0	0	42	304	stimuli\Videos_short_600ms_vertflip\40.repeated_push_with_finger_short_vertflip_short_600ms.mp4	40.repeated_push_with_finger_short_vertflip_short_600ms.mp4	443.8344732716614	444.4427897972091	0.608316525547707				
425.45068359375	0.2	871323	327	70	3	0	0	43	332	stimuli\Videos_short_600ms_vertflip\66.stroke_top_to_bottom_with_sponge_short_vertflip_short_600ms.mp4	66.stroke_top_to_bottom_with_sponge_short_vertflip_short_600ms.mp4	444.634453682942	445.2427728476887	0.6083191647467174				
426.25048828125	0.2	872961	328	70	3	0	0	44	65	stimuli\Videos_short_600ms\69.stroke_with_soft_sock_short_short_600ms.mp4	69.stroke_with_soft_sock_short_short_600ms.mp4	445.43443937262055	446.0427517927492	0.608312420128641				
427.05029296875	0.2	874599	329	70	3	0	0	45	348	stimuli\Videos_short_600ms_vertflip\80.stroke_with_sharp_stick_all_over_the_hand_short_vertflip_short_600ms.mp4	80.stroke_with_sharp_stick_all_over_the_hand_short_vertflip_short_600ms.mp4	446.2344162649697	446.84273132429735	0.6083150593276514				
427.8505859375	0.2	876238	330	70	3	0	0	46	72	stimuli\Videos_short_600ms\75.(long)stroke_with_fingers_all_over_the_hand_short_short_600ms.mp4	75.(long)stroke_with_fingers_all_over_the_hand_short_short_600ms.mp4	447.03438787892264	447.6427140815322	0.6083262026095326				
428.650390625	0.2	877876	331	70	3	0	0	47	127	stimuli\Videos_short_600ms_horflip\43.touch_top_to_bottom_with_sharp_wooden_stick_short_horflip_short_600ms.mp4	43.touch_top_to_bottom_with_sharp_wooden_stick_short_horflip_short_600ms.mp4	447.834377967265	448.4426947860575	0.6083168187924457				
429.4501953125	0.2	879514	332	70	3	0	0	48	33	stimuli\Videos_short_600ms\4.repeated_tap_with_finger_slow_short_short_600ms.mp4	4.repeated_tap_with_finger_slow_short_short_600ms.mp4	448.63434488930943	449.24267695680464	0.608332067495212				
430.25048828125	0.2	881153	333	70	3	0	0	49	87	stimuli\Videos_short_600ms\89.single_touch_with_plastic_brush_short_short_600ms.mp4	89.single_touch_with_plastic_brush_short_short_600ms.mp4	449.4342965626493	450.0426567815957	0.6083602189464727				
431.05029296875	0.2	882791	334	70	3	0	0	50	243	stimuli\Videos_short_600ms_horvertflip\67.single_touch_with_sponge_short_horvertflip_short_600ms.mp4	67.single_touch_with_sponge_short_horvertflip_short_600ms.mp4	450.2342784401517	450.8427289783431	0.6084505381913914				
431.85009765625	0.2	884429	335	70	3	0	1	51	378	stimuli\Targets_short_600ms_vertflip\brush-stroke_short_horvertflip_short_600ms.mp4	brush-stroke_short_horvertflip_short_600ms.mp4	451.0342817244873	451.6426228825567	0.6083411580693792				
432.650390625	0.2	886068	336	70	3	0	0	52	205	stimuli\Videos_short_600ms_horvertflip\32.single_(long)pinch_with_fingers_short_horvertflip_short_600ms.mp4	32.single_(long)pinch_with_fingers_short_horvertflip_short_600ms.mp4	451.8342650682116	452.4425944965078	0.6083294282962015				
433.4501953125	0.2	887706	337	70	3	0	0	53	51	stimuli\Videos_short_600ms\56.repeated_touch_with_nail_file_short_short_600ms.mp4	56.repeated_touch_with_nail_file_short_short_600ms.mp4	452.63427392418816	453.2425886902711	0.6083147660829127				
434.25	0.2	889344	338	70	3	0	0	54	198	stimuli\Videos_short_600ms_horvertflip\26.single_touch_with_a_blunt_syringe_short_horvertflip_short_600ms.mp4	26.single_touch_with_a_blunt_syringe_short_horvertflip_short_600ms.mp4	453.4342446584087	454.04253831090136	0.6082936524926481				
435.05029296875	0.2	890983	339	70	3	0	0	55	66	stimuli\Videos_short_600ms\7.repeated_touch_with_hairbrush_short_short_600ms.mp4	7.repeated_touch_with_hairbrush_short_short_600ms.mp4	454.23422389671214	454.8425181356925	0.6082942389803065				
435.85009765625	0.2	892621	340	70	3	0	1	56	375	stimuli\Targets_short_600ms_horvertflip\finger-tap_short_vertflip_short_600ms.mp4	finger-tap_short_vertflip_short_600ms.mp4	455.0342063607022	455.64250910376904	0.6083027430668153				
436.64990234375	0.2	894259	341	70	3	0	0	57	262	stimuli\Videos_short_600ms_horvertflip\84.single_touch_with_cotton_bud_short_horvertflip_short_600ms.mp4	84.single_touch_with_cotton_bud_short_horvertflip_short_600ms.mp4	455.83418647873987	456.44249068802674	0.6083042092868709				
437.4501953125	0.2	895898	342	70	3	0	0	58	356	stimuli\Videos_short_600ms_vertflip\88.repeated_stroke_with_plastic_brush_short_vertflip_short_600ms.mp4	88.repeated_stroke_with_plastic_brush_short_vertflip_short_600ms.mp4	456.6341683562423	457.24247315201865	0.6083047957763483				
438.25	0.2	897536	343	70	3	0	0	59	11	stimuli\Videos_short_600ms\2.single_touch_with_finger_short_short_600ms.mp4	2.single_touch_with_finger_short_short_600ms.mp4	457.434147301301	458.0424746768877	0.6083273755866685				
439.0498046875	0.2	899174	344	70	3	0	0	60	150	stimuli\Videos_short_600ms_horflip\64.repeated_touch_with_screwdriver_short_horflip_short_600ms.mp4	64.repeated_touch_with_screwdriver_short_horflip_short_600ms.mp4	458.2341347504462	458.84244687732826	0.6083121268820832				
439.85009765625	0.2	900813	345	70	3	0	0	61	166	stimuli\Videos_short_600ms_horflip\79.long_with_soft_brush_all_over_the_hand_short_horflip_short_600ms.mp4	79.long_with_soft_brush_all_over_the_hand_short_horflip_short_600ms.mp4	459.03411017657345	459.6424267021211	0.608316525547707				
440.64990234375	0.2	902451	346	70	3	0	0	62	268	stimuli\Videos_short_600ms_horvertflip\9.single_touch_with_hammer_short_horvertflip_short_600ms.mp4	9.single_touch_with_hammer_short_horvertflip_short_600ms.mp4	459.8341465975154	460.44240916611307	0.6082625685976382				
441.44970703125	0.2	904089	347	70	3	0	0	63	201	stimuli\Videos_short_600ms_horvertflip\29.single_pinch_with_tweezers_short_horvertflip_short_600ms.mp4	29.single_pinch_with_tweezers_short_horvertflip_short_600ms.mp4	460.6340736383336	461.242387817927	0.6083141795934353				
442.25	0.2	905728	348	70	3	0	0	64	63	stimuli\Videos_short_600ms\67.single_touch_with_sponge_short_short_600ms.mp4	67.single_touch_with_sponge_short_short_600ms.mp4	461.4340511171722	462.0423685224523	0.6083174052801041				
443.0498046875	0.2	907366	349	70	3	0	0	65	306	stimuli\Videos_short_600ms_vertflip\42.single_slap_with_plastic_whisk_short_vertflip_short_600ms.mp4	42.single_slap_with_plastic_whisk_short_vertflip_short_600ms.mp4	462.2340101216196	462.8423498134671	0.6083396918475046				
443.85009765625	0.2	909005	350	70	3	0	0	66	97	stimuli\Videos_short_600ms_horflip\16.repeated_touch_with_plastic_brush_short_horflip_short_600ms.mp4	16.repeated_touch_with_plastic_brush_short_horflip_short_600ms.mp4	463.03400284916097	463.6423308112371	0.6083279620761459				
444.64990234375	0.2	910643	351	70	3	0	0	67	293	stimuli\Videos_short_600ms_vertflip\30.finger_pulling_back_another_finger_short_vertflip_short_600ms.mp4	30.finger_pulling_back_another_finger_short_vertflip_short_600ms.mp4	463.83395071032464	464.44231180900533	0.6083610986806889				
445.44970703125	0.2	912281	352	70	3	0	0	68	52	stimuli\Videos_short_600ms\57.single_touch_with_nail_file_short_short_600ms.mp4	57.single_touch_with_nail_file_short_short_600ms.mp4	464.6339328810718	465.2422913405535	0.6083584594816784				
446.25	0.2	913920	353	70	3	0	0	69	173	stimuli\Videos_short_600ms_horflip\85.touch_top_to_bottom_with_fabric_short_horflip_short_600ms.mp4	85.touch_top_to_bottom_with_fabric_short_horflip_short_600ms.mp4	465.43391387884185	466.04227497752254	0.6083610986806889				
447.0498046875	0.2	915558	354	70	3	0	1	70	362	stimuli\Targets_short_600ms\chopstickwood-tap_short_short_600ms.mp4	chopstickwood-tap_short_short_600ms.mp4	466.23391716317747	466.8422545090707	0.6083373458932329				
447.849609375	0.2	917196	355	70	3	0	0	71	38	stimuli\Videos_short_600ms\44.pushing_top_to_bottom_with_finger_short_short_600ms.mp4	44.pushing_top_to_bottom_with_finger_short_short_600ms.mp4	467.0338966947256	467.64223902577214	0.608342331046515				
448.64990234375	0.2	918835	356	70	3	0	0	72	223	stimuli\Videos_short_600ms_horvertflip\49.repeated_slap_with_hand_short_horvertflip_short_600ms.mp4	49.repeated_slap_with_hand_short_horvertflip_short_600ms.mp4	467.8339070169259	468.4421874734235	0.6082804564975959				
449.44970703125	0.2	920473	357	70	3	0	0	73	84	stimuli\Videos_short_600ms\86.touch_top_to_bottom_with_hair_brush_short_short_600ms.mp4	86.touch_top_to_bottom_with_hair_brush_short_short_600ms.mp4	468.6338847890074	469.24217316310205	0.6082883740946272				
450.24951171875	0.2	922111	358	70	3	0	0	74	320	stimuli\Videos_short_600ms_vertflip\55.touch_top_to_bottom_with_nail_file_short_vertflip_short_600ms.mp4	55.touch_top_to_bottom_with_nail_file_short_vertflip_short_600ms.mp4	469.43385962864704	470.0421573865587	0.6082977579117141				
451.0498046875	0.2	923750	359	70	3	0	0	75	169	stimuli\Videos_short_600ms_horflip\81.single_stroke_top_to_bottom_with_cotton_pad_short_horflip_short_600ms.mp4	81.single_stroke_top_to_bottom_with_cotton_pad_short_horflip_short_600ms.mp4	470.233843558859	470.84214923436775	0.6083056755087455				
451.849609375	0.2	925388	360	70	3	0	0	76	311	stimuli\Videos_short_600ms_vertflip\47.(long)scratching_with_finger_nails_short_vertflip_short_600ms.mp4	47.(long)scratching_with_finger_nails_short_vertflip_short_600ms.mp4	471.0338025633064	471.6421223145408	0.6083197512343759				
452.6494140625	0.2	927026	361	70	3	0	0	77	45	stimuli\Videos_short_600ms\50.single_(long)hard_push_with_thumb_short_short_600ms.mp4	50.single_(long)hard_push_with_thumb_short_short_600ms.mp4	471.8338032084448	472.4421059515098	0.6083027430649963				
453.44970703125	0.2	928665	362	70	3	0	0	78	145	stimuli\Videos_short_600ms_horflip\6.single_touch_with_flat_hand_short_horflip_short_600ms.mp4	6.single_touch_with_flat_hand_short_horflip_short_600ms.mp4	472.63389710526826	473.2421118750444	0.6082147697761684				
454.24951171875	0.2	930303	363	70	3	0	1	79	382	stimuli\Targets_short_600ms_vertflip\hand-pinch_short_horvertflip_short_600ms.mp4	hand-pinch_short_horvertflip_short_600ms.mp4	473.4338112433379	474.0420796768212	0.6082684334833175				
455.04931640625	0.2	931941	364	70	3	0	0	80	42	stimuli\Videos_short_600ms\48.single_slap_with_hand_short_short_600ms.mp4	48.single_slap_with_hand_short_short_600ms.mp4	474.2337242084304	474.84207269760736	0.6083484891769331				
455.849609375	0.2	933580	365	70	3	0	0	81	263	stimuli\Videos_short_600ms_horvertflip\85.touch_top_to_bottom_with_fabric_short_horvertflip_short_600ms.mp4	85.touch_top_to_bottom_with_fabric_short_horvertflip_short_600ms.mp4	475.0337274927661	475.6420443115585	0.6083168187924457				
456.6494140625	0.2	935218	366	70	3	0	0	82	251	stimuli\Videos_short_600ms_horvertflip\74.fingers_walking_from_top_to_bottom_short_horvertflip_short_600ms.mp4	74.fingers_walking_from_top_to_bottom_short_horvertflip_short_600ms.mp4	475.8337084905361	476.442023256619	0.6083147660829127				
457.44921875	0.2	936856	367	70	3	0	0	83	305	stimuli\Videos_short_600ms_vertflip\41.injection_with_blunt_syringe_short_vertflip_short_600ms.mp4	41.injection_with_blunt_syringe_short_vertflip_short_600ms.mp4	476.63368626261945	477.2420042543872	0.6083179917677626				
458.24951171875	0.2	938495	368	70	3	0	0	84	161	stimuli\Videos_short_600ms_horflip\74.fingers_walking_from_top_to_bottom_short_horflip_short_600ms.mp4	74.fingers_walking_from_top_to_bottom_short_horflip_short_600ms.mp4	477.4336581698153	478.0419852521573	0.6083270823419298				
459.04931640625	0.2	940133	369	70	3	0	0	85	133	stimuli\Videos_short_600ms_horflip\49.repeated_slap_with_hand_short_horflip_short_600ms.mp4	49.repeated_slap_with_hand_short_horflip_short_600ms.mp4	478.2336177607503	478.8419680093921	0.6083502486417274				
459.84912109375	0.2	941771	370	70	3	0	0	86	241	stimuli\Videos_short_600ms_horvertflip\65.stroke_top_to_bottom_with_stanley_knife_short_horvertflip_short_600ms.mp4	65.stroke_top_to_bottom_with_stanley_knife_short_horvertflip_short_600ms.mp4	479.033587028749	479.6419490071621	0.608361978413086				
460.6494140625	0.2	943410	371	70	3	0	0	87	149	stimuli\Videos_short_600ms_horflip\63.stroke_top_to_bottom_with_screwdriver_short_horflip_short_600ms.mp4	63.stroke_top_to_bottom_with_screwdriver_short_horflip_short_600ms.mp4	479.83361699831585	480.44192912519975	0.6083121268839022				
461.44921875	0.2	945048	372	70	3	0	0	88	215	stimuli\Videos_short_600ms_horvertflip\41.injection_with_blunt_syringe_short_horvertflip_short_600ms.mp4	41.injection_with_blunt_syringe_short_horvertflip_short_600ms.mp4	480.63354638508827	481.24190982972505	0.6083634446367796				
462.2490234375	0.2	946686	373	70	3	0	1	89	367	stimuli\Targets_short_600ms_horflip\chopstick-silver-tap_short_horflip_short_600ms.mp4	chopstick-silver-tap_short_horflip_short_600ms.mp4	481.43355348160185	482.0418896545161	0.608336172914278				
463.04931640625	0.2	948325	374	70	3	0	0	90	334	stimuli\Videos_short_600ms_vertflip\68.stroke_top_to_bottom_with_shawl_short_vertflip_short_600ms.mp4	68.stroke_top_to_bottom_with_shawl_short_vertflip_short_600ms.mp4	482.2335374118138	482.8418712387757	0.6083338269618253				
