onset	duration	onsetsample	eventnumber	subjectnr	sequencenumber	blocksequencenumber	istarget	presentationnumber	stimnumber	stim	stimname	time_stimon	time_stimoff	stimdur	cresp	resp	rt	correct
41.419921875	0.2	84828	0	77	0	0	0	0	68	stimuli\Videos_short_600ms\71.single_stroke_with_finger_top_to_bottom_short_short_600ms.mp4	71.single_stroke_with_finger_top_to_bottom_short_short_600ms.mp4	43.60773256596485	44.21608446915161	0.6083519031867581	n/a	n/a	n/a	n/a
42.22021484375	0.2	86467	1	77	0	0	0	1	190	stimuli\Videos_short_600ms_horvertflip\19.single_touch_with_rolling_pin_short_horvertflip_short_600ms.mp4	19.single_touch_with_rolling_pin_short_horvertflip_short_600ms.mp4	44.407698373389394	45.016049396835115	0.6083510234457208	n/a	n/a	n/a	n/a
43.02001953125	0.2	88105	2	77	0	0	1	2	370	stimuli\Targets_short_600ms_horflip\hand-pinch_short_horflip_short_600ms.mp4	hand-pinch_short_horflip_short_600ms.mp4	45.20770816783215	45.816038957249475	0.6083307894173231	n/a	n/a	n/a	n/a
43.81982421875	0.2	89743	3	77	0	0	0	3	130	stimuli\Videos_short_600ms_horflip\46.scratching_top_to_bottom_with_finger_nails_short_horflip_short_600ms.mp4	46.scratching_top_to_bottom_with_finger_nails_short_horflip_short_600ms.mp4	46.00767250902254	46.616026758183125	0.608354249160584	n/a	n/a	n/a	n/a
44.6201171875	0.2	91382	4	77	0	0	0	4	359	stimuli\Videos_short_600ms_vertflip\90.repeated_touch_with_sponge_short_vertflip_short_600ms.mp4	90.repeated_touch_with_sponge_short_vertflip_short_600ms.mp4	46.808183755476875	47.41601133340191	0.6078275779250362	n/a	n/a	n/a	n/a
45.419921875	0.2	93020	5	77	0	0	0	5	180	stimuli\Videos_short_600ms_horvertflip\1.repeated_touch_with_finger_fast_short_horvertflip_short_600ms.mp4	1.repeated_touch_with_finger_fast_short_horvertflip_short_600ms.mp4	47.60805279146007	48.21600060056926	0.6079478091091914	n/a	n/a	n/a	n/a
46.2197265625	0.2	94658	6	77	0	0	0	6	135	stimuli\Videos_short_600ms_horflip\50.single_(long)hard_push_with_thumb_short_horflip_short_600ms.mp4	50.single_(long)hard_push_with_thumb_short_horflip_short_600ms.mp4	48.40772535209408	49.01598928124304	0.6082639291489613	n/a	n/a	n/a	n/a
47.02001953125	0.2	96297	7	77	0	0	0	7	56	stimuli\Videos_short_600ms\60.single_push_with_tip_of_pencil_short_short_600ms.mp4	60.single_push_with_tip_of_pencil_short_short_600ms.mp4	49.207719897703555	49.81597766867026	0.6082577709667021	n/a	n/a	n/a	n/a
47.81982421875	0.2	97935	8	77	0	0	0	8	323	stimuli\Videos_short_600ms_vertflip\58.single_slap_with_pencil_short_vertflip_short_600ms.mp4	58.single_slap_with_pencil_short_vertflip_short_600ms.mp4	50.007621777327586	50.615964003369754	0.6083422260421685	n/a	n/a	n/a	n/a
48.61962890625	0.2	99573	9	77	0	0	0	9	45	stimuli\Videos_short_600ms\50.single_(long)hard_push_with_thumb_short_short_600ms.mp4	50.single_(long)hard_push_with_thumb_short_short_600ms.mp4	50.807657377487885	51.41594945832912	0.6082920808412382	n/a	n/a	n/a	n/a
49.419921875	0.2	101212	10	77	0	0	0	10	99	stimuli\Videos_short_600ms_horflip\18.single_stroke_from_top_to_bottom_with_rolling_pin_short_horflip_short_600ms.mp4	18.single_stroke_from_top_to_bottom_with_rolling_pin_short_horflip_short_600ms.mp4	51.60759825893501	52.21593989848361	0.6083416395485983	n/a	n/a	n/a	n/a
50.2197265625	0.2	102850	11	77	0	0	0	11	15	stimuli\Videos_short_600ms\23.single_push_with_a_spoon_short_short_600ms.mp4	23.single_push_with_a_spoon_short_short_600ms.mp4	52.40758576662165	53.01592769941726	0.6083419327956108	n/a	n/a	n/a	n/a
51.01953125	0.2	104488	12	77	0	0	0	12	93	stimuli\Videos_short_600ms_horflip\12.repeated_touch_with_nail_file_short_horflip_short_600ms.mp4	12.repeated_touch_with_nail_file_short_horflip_short_600ms.mp4	53.20759761379213	53.81591462061033	0.6083170068181971	n/a	n/a	n/a	n/a
51.81982421875	0.2	106127	13	77	0	0	0	13	259	stimuli\Videos_short_600ms_horvertflip\81.single_stroke_top_to_bottom_with_cotton_pad_short_horvertflip_short_600ms.mp4	81.single_stroke_top_to_bottom_with_cotton_pad_short_horvertflip_short_600ms.mp4	54.0076033027799	54.61590124855684	0.6082979457769397	n/a	n/a	n/a	n/a
52.61962890625	0.2	107765	14	77	0	0	0	14	243	stimuli\Videos_short_600ms_horvertflip\67.single_touch_with_sponge_short_horvertflip_short_600ms.mp4	67.single_touch_with_sponge_short_horvertflip_short_600ms.mp4	54.80757497514014	55.41589256845191	0.6083175933117673	n/a	n/a	n/a	n/a
53.419921875	0.2	109404	15	77	0	0	0	15	4	stimuli\Videos_short_600ms\13.single_touch_with_pen_short_short_600ms.mp4	13.single_touch_with_pen_short_short_600ms.mp4	55.60763520803084	56.21587391795583	0.60823870992499	n/a	n/a	n/a	n/a
54.2197265625	0.2	111042	16	77	0	0	0	16	287	stimuli\Videos_short_600ms_vertflip\25.single_touch_with_stanley_knife_short_vertflip_short_600ms.mp4	25.single_touch_with_stanley_knife_short_vertflip_short_600ms.mp4	56.40755996090411	57.01586142564247	0.6083014647383607	n/a	n/a	n/a	n/a
55.01953125	0.2	112680	17	77	0	0	1	17	383	stimuli\Targets_short_600ms_vertflip\hand-stroke_short_horvertflip_short_600ms.mp4	hand-stroke_short_horvertflip_short_600ms.mp4	57.20750465455967	57.81584893332956	0.6083442787698914	n/a	n/a	n/a	n/a
55.81982421875	0.2	114319	18	77	0	0	0	18	290	stimuli\Videos_short_600ms_vertflip\28.single_injection_with_sharp_needle_short_vertflip_short_600ms.mp4	28.single_injection_with_sharp_needle_short_vertflip_short_600ms.mp4	58.00754142770711	58.6158610737466	0.6083196460394902	n/a	n/a	n/a	n/a
56.61962890625	0.2	115957	19	77	0	0	0	19	182	stimuli\Videos_short_600ms_horvertflip\11.single_touch_with_lighter_short_horvertflip_short_600ms.mp4	11.single_touch_with_lighter_short_horvertflip_short_600ms.mp4	58.80750606214406	59.41585679234322	0.6083507301991631	n/a	n/a	n/a	n/a
57.41943359375	0.2	117595	20	77	0	0	0	20	62	stimuli\Videos_short_600ms\66.stroke_top_to_bottom_with_sponge_short_short_600ms.mp4	66.stroke_top_to_bottom_with_sponge_short_short_600ms.mp4	59.60749562255842	60.2158237727549	0.6083281501964848	n/a	n/a	n/a	n/a
58.2197265625	0.2	119234	21	77	0	0	0	21	195	stimuli\Videos_short_600ms_horvertflip\23.single_push_with_a_spoon_short_horvertflip_short_600ms.mp4	23.single_push_with_a_spoon_short_horvertflip_short_600ms.mp4	60.40748107751779	61.01580864122025	0.6083275637024599	n/a	n/a	n/a	n/a
59.01953125	0.2	120872	22	77	0	0	0	22	280	stimuli\Videos_short_600ms_vertflip\19.single_touch_with_rolling_pin_short_vertflip_short_600ms.mp4	19.single_touch_with_rolling_pin_short_vertflip_short_600ms.mp4	61.20828439777506	61.81579438942663	0.6075099916515683	n/a	n/a	n/a	n/a
59.8193359375	0.2	122510	23	77	0	0	0	23	309	stimuli\Videos_short_600ms_vertflip\45.scratching_with_finger_nails_short_vertflip_short_600ms.mp4	45.scratching_with_finger_nails_short_vertflip_short_600ms.mp4	62.007455799644504	62.615781310619695	0.6083255109751917	n/a	n/a	n/a	n/a
60.61962890625	0.2	124149	24	77	0	0	0	24	82	stimuli\Videos_short_600ms\84.single_touch_with_cotton_bud_short_short_600ms.mp4	84.single_touch_with_cotton_bud_short_short_600ms.mp4	62.80742072732801	63.4157694047999	0.6083486774718949	n/a	n/a	n/a	n/a
61.41943359375	0.2	125787	25	77	0	0	0	25	208	stimuli\Videos_short_600ms_horvertflip\35.single_punch_with_hand_short_horvertflip_short_600ms.mp4	35.single_punch_with_hand_short_horvertflip_short_600ms.mp4	63.60760998880687	64.21573873118541	0.6081287423785398	n/a	n/a	n/a	n/a
62.21923828125	0.2	127425	26	77	0	0	0	26	336	stimuli\Videos_short_600ms_vertflip\7.repeated_touch_with_hairbrush_short_vertflip_short_600ms.mp4	7.repeated_touch_with_hairbrush_short_vertflip_short_600ms.mp4	64.40755761492983	65.01574617965389	0.6081885647240597	n/a	n/a	n/a	n/a
63.01953125	0.2	129064	27	77	0	0	0	27	314	stimuli\Videos_short_600ms_vertflip\5.repeated_tap_with_finger_moving_from_top_to_bottom_short_vertflip_short_600ms.mp4	5.repeated_tap_with_finger_moving_from_top_to_bottom_short_vertflip_short_600ms.mp4	65.20739234103894	65.81573427383455	0.6083419327956108	n/a	n/a	n/a	n/a
63.8193359375	0.2	130702	28	77	0	0	1	28	381	stimuli\Targets_short_600ms_vertflip\finger-tap_short_horvertflip_short_600ms.mp4	finger-tap_short_horvertflip_short_600ms.mp4	66.00737486353	66.61572148827418	0.608346624744172	n/a	n/a	n/a	n/a
64.619140625	0.2	132340	29	77	0	0	0	29	345	stimuli\Videos_short_600ms_vertflip\78.single_stroke_top_to_bottom_with_soft_brush_short_vertflip_short_600ms.mp4	78.single_stroke_top_to_bottom_with_soft_brush_short_vertflip_short_600ms.mp4	66.80736794290578	67.41571222167568	0.6083442787698914	n/a	n/a	n/a	n/a
65.41943359375	0.2	133979	30	77	0	0	0	30	168	stimuli\Videos_short_600ms_horflip\80.stroke_with_sharp_stick_all_over_the_hand_short_horflip_short_600ms.mp4	80.stroke_with_sharp_stick_all_over_the_hand_short_horflip_short_600ms.mp4	67.60737979007627	68.21569972936231	0.6083199392860479	n/a	n/a	n/a	n/a
66.21923828125	0.2	135617	31	77	0	0	0	31	110	stimuli\Videos_short_600ms_horflip\28.single_injection_with_sharp_needle_short_horflip_short_600ms.mp4	28.single_injection_with_sharp_needle_short_horflip_short_600ms.mp4	68.40736671126933	69.01568137211325	0.6083146608439165	n/a	n/a	n/a	n/a
67.01904296875	0.2	137255	32	77	0	0	0	32	25	stimuli\Videos_short_600ms\32.single_(long)pinch_with_fingers_short_short_600ms.mp4	32.single_(long)pinch_with_fingers_short_short_600ms.mp4	69.20740407091034	69.81564981875863	0.6082457478482866	n/a	n/a	n/a	n/a
67.8193359375	0.2	138894	33	77	0	0	1	33	382	stimuli\Targets_short_600ms_vertflip\hand-pinch_short_horvertflip_short_600ms.mp4	hand-pinch_short_horvertflip_short_600ms.mp4	70.0073267710568	70.6156411386537	0.608314367596904	n/a	n/a	n/a	n/a
68.619140625	0.2	140532	34	77	0	0	0	34	269	stimuli\Videos_short_600ms_horvertflip\90.repeated_touch_with_sponge_short_horvertflip_short_600ms.mp4	90.repeated_touch_with_sponge_short_horvertflip_short_600ms.mp4	70.80732718160198	71.41564565465433	0.6083184730523499	n/a	n/a	n/a	n/a
69.4189453125	0.2	142170	35	77	0	0	0	35	105	stimuli\Videos_short_600ms_horflip\23.single_push_with_a_spoon_short_horflip_short_600ms.mp4	23.single_push_with_a_spoon_short_horflip_short_600ms.mp4	71.6072968012345	72.21562055272898	0.6083237514944813	n/a	n/a	n/a	n/a
70.21923828125	0.2	143809	36	77	0	0	0	36	203	stimuli\Videos_short_600ms_horvertflip\30.finger_pulling_back_another_finger_short_horvertflip_short_600ms.mp4	30.finger_pulling_back_another_finger_short_horvertflip_short_600ms.mp4	72.4073021969757	73.01562272275532	0.608320525779618	n/a	n/a	n/a	n/a
71.01904296875	0.2	145447	37	77	0	0	0	37	14	stimuli\Videos_short_600ms\22.single_touch_with_metal_chopstick_short_short_600ms.mp4	22.single_touch_with_metal_chopstick_short_short_600ms.mp4	73.20726184621708	73.81562225356038	0.608360407343298	n/a	n/a	n/a	n/a
71.81884765625	0.2	147085	38	77	0	0	0	38	241	stimuli\Videos_short_600ms_horvertflip\65.stroke_top_to_bottom_with_stanley_knife_short_horvertflip_short_600ms.mp4	65.stroke_top_to_bottom_with_stanley_knife_short_horvertflip_short_600ms.mp4	74.0072748663747	74.61560125709047	0.6083263907157743	n/a	n/a	n/a	n/a
72.619140625	0.2	148724	39	77	0	0	0	39	242	stimuli\Videos_short_600ms_horvertflip\66.stroke_top_to_bottom_with_sponge_short_horvertflip_short_600ms.mp4	66.stroke_top_to_bottom_with_sponge_short_horvertflip_short_600ms.mp4	74.80724419276066	75.4156216084175	0.6083774156568325	n/a	n/a	n/a	n/a
73.4189453125	0.2	150362	40	77	0	0	0	40	273	stimuli\Videos_short_600ms_vertflip\12.repeated_touch_with_nail_file_short_vertflip_short_600ms.mp4	12.repeated_touch_with_nail_file_short_vertflip_short_600ms.mp4	75.60722173005615	76.21557656571076	0.6083548356546089	n/a	n/a	n/a	n/a
74.21923828125	0.2	152001	41	77	0	0	0	41	66	stimuli\Videos_short_600ms\7.repeated_touch_with_hairbrush_short_short_600ms.mp4	7.repeated_touch_with_hairbrush_short_short_600ms.mp4	76.40721774189979	77.01556495313753	0.6083472112377422	n/a	n/a	n/a	n/a
75.01904296875	0.2	153639	42	77	0	0	0	42	300	stimuli\Videos_short_600ms_vertflip\37.single_stab_with_nail_file_short_vertflip_short_600ms.mp4	37.single_stab_with_nail_file_short_vertflip_short_600ms.mp4	77.20722841608313	77.8155536338113	0.6083252177281793	n/a	n/a	n/a	n/a
75.81884765625	0.2	155277	43	77	0	0	0	43	32	stimuli\Videos_short_600ms\39.single_stab_with_scissors_short_short_600ms.mp4	39.single_stab_with_scissors_short_short_600ms.mp4	78.00722970636889	78.61554143474496	0.6083117283760657	n/a	n/a	n/a	n/a
76.619140625	0.2	156916	44	77	0	0	0	44	217	stimuli\Videos_short_600ms_horvertflip\43.touch_top_to_bottom_with_sharp_wooden_stick_short_horvertflip_short_600ms.mp4	43.touch_top_to_bottom_with_sharp_wooden_stick_short_horvertflip_short_600ms.mp4	78.80720284496283	79.41552952892516	0.608326683962332	n/a	n/a	n/a	n/a
77.4189453125	0.2	158554	45	77	0	0	0	45	171	stimuli\Videos_short_600ms_horflip\83.single_stroke_top_to_bottom_with_cotton_bud_short_horflip_short_600ms.mp4	83.single_stroke_top_to_bottom_with_cotton_bud_short_horflip_short_600ms.mp4	79.6071926986242	80.21551791635238	0.6083252177281793	n/a	n/a	n/a	n/a
78.21875	0.2	160192	46	77	0	0	0	46	252	stimuli\Videos_short_600ms_horvertflip\75.(long)stroke_with_fingers_all_over_the_hand_short_horvertflip_short_600ms.mp4	75.(long)stroke_with_fingers_all_over_the_hand_short_horvertflip_short_600ms.mp4	80.40716407773743	81.01550601053259	0.608341932795156	n/a	n/a	n/a	n/a
79.01904296875	0.2	161831	47	77	0	0	0	47	148	stimuli\Videos_short_600ms_horflip\62.touch_top_to_bottom_with_scissors_short_horflip_short_600ms.mp4	62.touch_top_to_bottom_with_scissors_short_horflip_short_600ms.mp4	81.20773250731554	81.81549527770039	0.607762770384852	n/a	n/a	n/a	n/a
79.81884765625	0.2	163469	48	77	0	0	0	48	299	stimuli\Videos_short_600ms_vertflip\36.single_slap_with_full_hand_short_vertflip_short_600ms.mp4	36.single_slap_with_full_hand_short_vertflip_short_600ms.mp4	82.00759978381848	82.61548073265931	0.6078809488408297	n/a	n/a	n/a	n/a
80.61865234375	0.2	165107	49	77	0	0	0	49	169	stimuli\Videos_short_600ms_horflip\81.single_stroke_top_to_bottom_with_cotton_pad_short_horflip_short_600ms.mp4	81.single_stroke_top_to_bottom_with_cotton_pad_short_horflip_short_600ms.mp4	82.80718349067502	83.41546736060582	0.6082838699308013	n/a	n/a	n/a	n/a
81.4189453125	0.2	166746	50	77	0	0	0	50	216	stimuli\Videos_short_600ms_horvertflip\42.single_slap_with_plastic_whisk_short_horvertflip_short_600ms.mp4	42.single_slap_with_plastic_whisk_short_horvertflip_short_600ms.mp4	83.60720941369118	84.21545340205876	0.6082439883675761	n/a	n/a	n/a	n/a
82.21875	0.2	168384	51	77	0	0	0	51	197	stimuli\Videos_short_600ms_horvertflip\25.single_touch_with_stanley_knife_short_horvertflip_short_600ms.mp4	25.single_touch_with_stanley_knife_short_horvertflip_short_600ms.mp4	84.40711451902962	85.01544442870681	0.6083299096771952	n/a	n/a	n/a	n/a
83.0185546875	0.2	170022	52	77	0	0	0	52	157	stimuli\Videos_short_600ms_horflip\70.(long)stroke_with_finger_all_over_the_hand_short_horflip_short_600ms.mp4	70.(long)stroke_with_finger_all_over_the_hand_short_horflip_short_600ms.mp4	85.20710583892469	85.81543692158903	0.6083310826643356	n/a	n/a	n/a	n/a
83.81884765625	0.2	171661	53	77	0	0	0	53	118	stimuli\Videos_short_600ms_horflip\35.single_punch_with_hand_short_horflip_short_600ms.mp4	35.single_punch_with_hand_short_horflip_short_600ms.mp4	86.00721299130191	86.61541944408009	0.6082064527781768	n/a	n/a	n/a	n/a
84.61865234375	0.2	173299	54	77	0	0	0	54	81	stimuli\Videos_short_600ms\83.single_stroke_top_to_bottom_with_cotton_bud_short_short_600ms.mp4	83.single_stroke_top_to_bottom_with_cotton_bud_short_short_600ms.mp4	86.80708671923412	87.41539668812948	0.6083099688953553	n/a	n/a	n/a	n/a
85.41845703125	0.2	174937	55	77	0	0	0	55	176	stimuli\Videos_short_600ms_horflip\88.repeated_stroke_with_plastic_brush_short_horflip_short_600ms.mp4	88.repeated_stroke_with_plastic_brush_short_horflip_short_600ms.mp4	87.6070636700365	88.21539563244096	0.6083319624044634	n/a	n/a	n/a	n/a
86.21875	0.2	176576	56	77	0	0	0	56	193	stimuli\Videos_short_600ms_horvertflip\21.repeated_touch_with_metal_chopstick_short_horvertflip_short_600ms.mp4	21.repeated_touch_with_metal_chopstick_short_horvertflip_short_600ms.mp4	88.40705880213955	89.01538783207616	0.6083290299366126	n/a	n/a	n/a	n/a
87.0185546875	0.2	178214	57	77	0	0	1	57	366	stimuli\Targets_short_600ms_horflip\brush-stroke_short_horflip_short_600ms.mp4	brush-stroke_short_horflip_short_600ms.mp4	89.20778001329563	89.81539205483023	0.607612041534594	n/a	n/a	n/a	n/a
87.818359375	0.2	179852	58	77	0	0	0	58	350	stimuli\Videos_short_600ms_vertflip\82.repeated_touch_with_cotton_bud_short_vertflip_short_600ms.mp4	82.repeated_touch_with_cotton_bud_short_vertflip_short_600ms.mp4	90.00734114014949	90.61537457732128	0.6080334371717981	n/a	n/a	n/a	n/a
88.61865234375	0.2	181491	59	77	0	0	0	59	279	stimuli\Videos_short_600ms_vertflip\18.single_stroke_from_top_to_bottom_with_rolling_pin_short_vertflip_short_600ms.mp4	18.single_stroke_from_top_to_bottom_with_rolling_pin_short_vertflip_short_600ms.mp4	90.8073538670601	91.41534976864295	0.6079959015828535	n/a	n/a	n/a	n/a
89.41845703125	0.2	183129	60	77	0	0	0	60	23	stimuli\Videos_short_600ms\30.finger_pulling_back_another_finger_short_short_600ms.mp4	30.finger_pulling_back_another_finger_short_short_600ms.mp4	91.6070117653544	92.21534138178458	0.6083296164301828	n/a	n/a	n/a	n/a
90.21826171875	0.2	184767	61	77	0	0	1	61	373	stimuli\Targets_short_600ms_horvertflip\chopstick-silver-tap_short_vertflip_short_600ms.mp4	chopstick-silver-tap_short_vertflip_short_600ms.mp4	92.40699956628804	93.01532830297764	0.6083287366896002	n/a	n/a	n/a	n/a
91.0185546875	0.2	186406	62	77	0	0	0	62	111	stimuli\Videos_short_600ms_horflip\29.single_pinch_with_tweezers_short_horflip_short_600ms.mp4	29.single_pinch_with_tweezers_short_horflip_short_600ms.mp4	93.20699147267668	93.81531727689844	0.6083258042217494	n/a	n/a	n/a	n/a
91.818359375	0.2	188044	63	77	0	0	0	63	158	stimuli\Videos_short_600ms_horflip\71.single_stroke_with_finger_top_to_bottom_short_horflip_short_600ms.mp4	71.single_stroke_with_finger_top_to_bottom_short_horflip_short_600ms.mp4	94.00726518923057	94.61530126562366	0.6080360763930912	n/a	n/a	n/a	n/a
92.6181640625	0.2	189682	64	77	0	0	0	64	38	stimuli\Videos_short_600ms\44.pushing_top_to_bottom_with_finger_short_short_600ms.mp4	44.pushing_top_to_bottom_with_finger_short_short_600ms.mp4	94.8072122288604	95.41528965305088	0.6080774241904692	n/a	n/a	n/a	n/a
93.41845703125	0.2	191321	65	77	0	0	0	65	282	stimuli\Videos_short_600ms_vertflip\20.single_touch_with_screwdriver_short_vertflip_short_600ms.mp4	20.single_touch_with_screwdriver_short_vertflip_short_600ms.mp4	95.6069812676883	96.2152797999588	0.6082985322705099	n/a	n/a	n/a	n/a
94.21826171875	0.2	192959	66	77	0	0	0	66	39	stimuli\Videos_short_600ms\45.scratching_with_finger_nails_short_short_600ms.mp4	45.scratching_with_finger_nails_short_short_600ms.mp4	96.406926841084	97.01526760089246	0.6083407598084705	n/a	n/a	n/a	n/a
95.0185546875	0.2	194598	67	77	0	0	0	67	268	stimuli\Videos_short_600ms_horvertflip\9.single_touch_with_hammer_short_horvertflip_short_600ms.mp4	9.single_touch_with_hammer_short_horvertflip_short_600ms.mp4	97.20690965682206	97.81525540182564	0.6083457450035894	n/a	n/a	n/a	n/a
95.818359375	0.2	196236	68	77	0	0	0	68	19	stimuli\Videos_short_600ms\27.single_push_with_a_plastic_whisk_short_short_600ms.mp4	27.single_push_with_a_plastic_whisk_short_short_600ms.mp4	98.00701153075715	98.61524554873358	0.6082340179764287	n/a	n/a	n/a	n/a
96.6181640625	0.2	197874	69	77	0	0	0	69	271	stimuli\Videos_short_600ms_vertflip\10.single_touch_with_knife_short_vertflip_short_600ms.mp4	10.single_touch_with_knife_short_vertflip_short_600ms.mp4	98.80760957826124	99.4152336429138	0.6076240646525548	n/a	n/a	n/a	n/a
97.4267578125	0.2	199530	70	77	0	0	0	70	112	stimuli\Videos_short_600ms_horflip\3.single_push_with_finger_short_horflip_short_600ms.mp4	3.single_push_with_finger_short_horflip_short_600ms.mp4	99.61522824717304	100.22355522438193	0.6083269772088897	n/a	n/a	n/a	n/a
98.2265625	0.2	201168	71	77	0	0	0	71	337	stimuli\Videos_short_600ms_vertflip\70.(long)stroke_with_finger_all_over_the_hand_short_vertflip_short_600ms.mp4	70.(long)stroke_with_finger_all_over_the_hand_short_vertflip_short_600ms.mp4	100.41521164940468	101.0235433185626	0.6083316691579057	n/a	n/a	n/a	n/a
99.0263671875	0.2	202806	72	77	0	0	0	72	284	stimuli\Videos_short_600ms_vertflip\22.single_touch_with_metal_chopstick_short_vertflip_short_600ms.mp4	22.single_touch_with_metal_chopstick_short_vertflip_short_600ms.mp4	101.21518156228376	101.82353258572994	0.6083510234461755	n/a	n/a	n/a	n/a
99.82666015625	0.2	204445	73	77	0	0	0	73	174	stimuli\Videos_short_600ms_horflip\86.touch_top_to_bottom_with_hair_brush_short_horflip_short_600ms.mp4	86.touch_top_to_bottom_with_hair_brush_short_horflip_short_600ms.mp4	102.01517288217885	102.6235221461443	0.6083492639654651	n/a	n/a	n/a	n/a
100.62646484375	0.2	206083	74	77	0	0	0	74	342	stimuli\Videos_short_600ms_vertflip\75.(long)stroke_with_fingers_all_over_the_hand_short_vertflip_short_600ms.mp4	75.(long)stroke_with_fingers_all_over_the_hand_short_vertflip_short_600ms.mp4	102.81524953688997	103.4235076011032	0.6082580642132598	n/a	n/a	n/a	n/a
101.42626953125	0.2	207721	75	77	0	0	0	75	115	stimuli\Videos_short_600ms_horflip\32.single_(long)pinch_with_fingers_short_horflip_short_600ms.mp4	32.single_(long)pinch_with_fingers_short_horflip_short_600ms.mp4	103.61518426015436	104.22349422904972	0.6083099688953553	n/a	n/a	n/a	n/a
102.2265625	0.2	209360	76	77	0	0	0	76	204	stimuli\Videos_short_600ms_horvertflip\31.hand_grabbing_wrist_short_horvertflip_short_600ms.mp4	31.hand_grabbing_wrist_short_horvertflip_short_600ms.mp4	104.41513364575847	105.02348027050266	0.608346624744172	n/a	n/a	n/a	n/a
103.0263671875	0.2	210998	77	77	0	0	0	77	165	stimuli\Videos_short_600ms_horflip\78.single_stroke_top_to_bottom_with_soft_brush_short_horflip_short_600ms.mp4	78.single_stroke_top_to_bottom_with_soft_brush_short_horflip_short_600ms.mp4	105.21517745682875	105.823469244423	0.6082917875942258	n/a	n/a	n/a	n/a
103.826171875	0.2	212636	78	77	0	0	1	78	364	stimuli\Targets_short_600ms\hand-pinch_short_short_600ms.mp4	hand-pinch_short_short_600ms.mp4	106.015148835942	106.6234661360072	0.6083173000652096	n/a	n/a	n/a	n/a
104.62646484375	0.2	214275	79	77	0	0	0	79	10	stimuli\Videos_short_600ms\19.single_touch_with_rolling_pin_short_short_600ms.mp4	19.single_touch_with_rolling_pin_short_short_600ms.mp4	106.81545422314956	107.4234246122619	0.6079703891123245	n/a	n/a	n/a	n/a
105.42626953125	0.2	215913	80	77	0	0	0	80	333	stimuli\Videos_short_600ms_vertflip\67.single_touch_with_sponge_short_vertflip_short_600ms.mp4	67.single_touch_with_sponge_short_vertflip_short_600ms.mp4	107.61511945261373	108.22344232436762	0.6083228717538987	n/a	n/a	n/a	n/a
106.22607421875	0.2	217551	81	77	0	0	0	81	54	stimuli\Videos_short_600ms\59.single_push_with_long_side_pencil_short_short_600ms.mp4	59.single_push_with_long_side_pencil_short_short_600ms.mp4	108.4151008021181	109.02342074140417	0.6083199392860479	n/a	n/a	n/a	n/a
107.0263671875	0.2	219190	82	77	0	0	0	82	296	stimuli\Videos_short_600ms_vertflip\33.scratch_top_to_bottom_with_scissors_short_vertflip_short_600ms.mp4	33.scratch_top_to_bottom_with_scissors_short_vertflip_short_600ms.mp4	109.21508567058343	109.82341880597504	0.6083331353916037	n/a	n/a	n/a	n/a
107.826171875	0.2	220828	83	77	0	0	0	83	233	stimuli\Videos_short_600ms_horvertflip\58.single_slap_with_pencil_short_horvertflip_short_600ms.mp4	58.single_slap_with_pencil_short_horvertflip_short_600ms.mp4	110.0150734715171	110.62340132846656	0.6083278569494723	n/a	n/a	n/a	n/a
108.6259765625	0.2	222466	84	77	0	0	0	84	178	stimuli\Videos_short_600ms_horflip\9.single_touch_with_hammer_short_horflip_short_600ms.mp4	9.single_touch_with_hammer_short_horflip_short_600ms.mp4	110.81505951296958	111.42339587407604	0.6083363611064669	n/a	n/a	n/a	n/a
109.42626953125	0.2	224105	85	77	0	0	0	85	116	stimuli\Videos_short_600ms_horflip\33.scratch_top_to_bottom_with_scissors_short_horflip_short_600ms.mp4	33.scratch_top_to_bottom_with_scissors_short_horflip_short_600ms.mp4	111.6150276663684	112.22337722358044	0.6083495572120228	n/a	n/a	n/a	n/a
110.22607421875	0.2	225743	86	77	0	0	0	86	185	stimuli\Videos_short_600ms_horvertflip\14.repeated_touch_with_pencil_short_horvertflip_short_600ms.mp4	14.repeated_touch_with_pencil_short_horvertflip_short_600ms.mp4	112.41503452834333	113.0233641447735	0.6083296164301828	n/a	n/a	n/a	n/a
111.0263671875	0.2	227382	87	77	0	0	0	87	8	stimuli\Videos_short_600ms\17.repeated_touch_with_rolling_pin_short_short_600ms.mp4	17.repeated_touch_with_rolling_pin_short_short_600ms.mp4	113.21514168072054	113.8233539984344	0.6082123177138783	n/a	n/a	n/a	n/a
111.826171875	0.2	229020	88	77	0	0	1	88	375	stimuli\Targets_short_600ms_horvertflip\finger-tap_short_vertflip_short_600ms.mp4	finger-tap_short_vertflip_short_600ms.mp4	114.01501247618444	114.6233438520958	0.608331375911348	n/a	n/a	n/a	n/a
112.6259765625	0.2	230658	89	77	0	0	0	89	103	stimuli\Videos_short_600ms_horflip\21.repeated_touch_with_metal_chopstick_short_horflip_short_600ms.mp4	21.repeated_touch_with_metal_chopstick_short_horflip_short_600ms.mp4	114.81500145010524	115.42333282601612	0.6083313759108933	n/a	n/a	n/a	n/a
113.42626953125	0.2	232297	90	77	0	0	0	90	220	stimuli\Videos_short_600ms_horvertflip\46.scratching_top_to_bottom_with_finger_nails_short_horvertflip_short_600ms.mp4	46.scratching_top_to_bottom_with_finger_nails_short_horvertflip_short_600ms.mp4	115.61496872376348	116.22331710798836	0.6083483842248825	n/a	n/a	n/a	n/a
114.22607421875	0.2	233935	91	77	0	0	0	91	191	stimuli\Videos_short_600ms_horvertflip\2.single_touch_with_finger_short_horvertflip_short_600ms.mp4	2.single_touch_with_finger_short_horvertflip_short_600ms.mp4	116.41496502885413	117.02330432242844	0.6083392935743177	n/a	n/a	n/a	n/a
115.02587890625	0.2	235573	92	77	0	0	0	92	207	stimuli\Videos_short_600ms_horvertflip\34.repeated_punch_with_hand_short_horvertflip_short_600ms.mp4	34.repeated_punch_with_hand_short_horvertflip_short_600ms.mp4	117.21501881031509	117.82329358959578	0.6082747792806913	n/a	n/a	n/a	n/a
115.826171875	0.2	237212	93	77	0	0	0	93	312	stimuli\Videos_short_600ms_vertflip\48.single_slap_with_hand_short_vertflip_short_600ms.mp4	48.single_slap_with_hand_short_vertflip_short_600ms.mp4	118.01496174448994	118.62328432299728	0.608322578507341	n/a	n/a	n/a	n/a
116.6259765625	0.2	238850	94	77	0	0	0	94	317	stimuli\Videos_short_600ms_vertflip\52.touch_top_to_bottom_with_hammer_short_vertflip_short_600ms.mp4	52.touch_top_to_bottom_with_hammer_short_vertflip_short_600ms.mp4	118.81497447140056	119.42327124419036	0.6082967727897994	n/a	n/a	n/a	n/a
117.42578125	0.2	240488	95	77	0	0	0	95	316	stimuli\Videos_short_600ms_vertflip\51.repeated_touch_with_hammer_short_vertflip_short_600ms.mp4	51.repeated_touch_with_hammer_short_vertflip_short_600ms.mp4	119.61496960350404	120.2232608046047	0.6082912011006556	n/a	n/a	n/a	n/a
118.22607421875	0.2	242127	96	77	0	0	0	96	97	stimuli\Videos_short_600ms_horflip\16.repeated_touch_with_plastic_brush_short_horflip_short_600ms.mp4	16.repeated_touch_with_plastic_brush_short_horflip_short_600ms.mp4	120.414938636643	121.02324919203193	0.6083105553889254	n/a	n/a	n/a	n/a
119.02587890625	0.2	243765	97	77	0	0	0	97	114	stimuli\Videos_short_600ms_horflip\31.hand_grabbing_wrist_short_horflip_short_600ms.mp4	31.hand_grabbing_wrist_short_horflip_short_600ms.mp4	121.21491294822408	121.823214999456	0.6083020512319308	8.0	8.0	2.337755494931571	1.0
153.8330078125	0.2	315050	98	77	1	0	0	0	343	stimuli\Videos_short_600ms_vertflip\76.tickle_with_fingers_from_top_to_bottom_short_vertflip_short_600ms.mp4	76.tickle_with_fingers_from_top_to_bottom_short_vertflip_short_600ms.mp4	156.02274158183764	156.63100873670146	0.6082671548638245	n/a	n/a	n/a	n/a
154.63330078125	0.2	316689	99	77	1	0	0	1	20	stimuli\Videos_short_600ms\28.single_injection_with_sharp_needle_short_short_600ms.mp4	28.single_injection_with_sharp_needle_short_short_600ms.mp4	156.8227343679664	157.43101442568923	0.6082800577228227	n/a	n/a	n/a	n/a
155.43310546875	0.2	318327	100	77	1	0	0	2	69	stimuli\Videos_short_600ms\72.(short)stroke_with_finger_all_over_the_hand_short_short_600ms.mp4	72.(short)stroke_with_finger_all_over_the_hand_short_short_600ms.mp4	157.62309019362192	158.2309896170109	0.6078994233889716	n/a	n/a	n/a	n/a
156.23291015625	0.2	319965	101	77	1	0	0	3	330	stimuli\Videos_short_600ms_vertflip\64.repeated_touch_with_screwdriver_short_vertflip_short_600ms.mp4	64.repeated_touch_with_screwdriver_short_vertflip_short_600ms.mp4	158.42309822858397	159.03102023197562	0.6079220033916499	n/a	n/a	n/a	n/a
157.033203125	0.2	321604	102	77	1	0	0	4	262	stimuli\Videos_short_600ms_horvertflip\84.single_touch_with_cotton_bud_short_horvertflip_short_600ms.mp4	84.single_touch_with_cotton_bud_short_horvertflip_short_600ms.mp4	159.22280773831335	159.83101389784497	0.608206159531619	n/a	n/a	n/a	n/a
157.8330078125	0.2	323242	103	77	1	0	0	5	288	stimuli\Videos_short_600ms_vertflip\26.single_touch_with_a_blunt_syringe_short_vertflip_short_600ms.mp4	26.single_touch_with_a_blunt_syringe_short_vertflip_short_600ms.mp4	160.02265947273645	160.63097823903536	0.6083187662989076	n/a	n/a	n/a	n/a
158.6328125	0.2	324880	104	77	1	0	0	6	329	stimuli\Videos_short_600ms_vertflip\63.stroke_top_to_bottom_with_screwdriver_short_vertflip_short_600ms.mp4	63.stroke_top_to_bottom_with_screwdriver_short_vertflip_short_600ms.mp4	160.82265753730735	161.43099243218012	0.6083348948727689	n/a	n/a	n/a	n/a
159.43310546875	0.2	326519	105	77	1	0	0	7	349	stimuli\Videos_short_600ms_vertflip\81.single_stroke_top_to_bottom_with_cotton_pad_short_vertflip_short_600ms.mp4	81.single_stroke_top_to_bottom_with_cotton_pad_short_vertflip_short_600ms.mp4	161.622645338241	162.23097143570976	0.6083260974687619	n/a	n/a	n/a	n/a
160.23291015625	0.2	328157	106	77	1	0	0	8	94	stimuli\Videos_short_600ms_horflip\13.single_touch_with_pen_short_horflip_short_600ms.mp4	13.single_touch_with_pen_short_horflip_short_600ms.mp4	162.4226316729405	163.03096480833256	0.6083331353920585	n/a	n/a	n/a	n/a
161.03271484375	0.2	329795	107	77	1	0	0	9	358	stimuli\Videos_short_600ms_vertflip\9.single_touch_with_hammer_short_vertflip_short_600ms.mp4	9.single_touch_with_hammer_short_vertflip_short_600ms.mp4	163.2226209401083	163.83094410510876	0.6083231650004564	n/a	n/a	n/a	n/a
161.8330078125	0.2	331434	108	77	1	0	0	10	127	stimuli\Videos_short_600ms_horflip\43.touch_top_to_bottom_with_sharp_wooden_stick_short_horflip_short_600ms.mp4	43.touch_top_to_bottom_with_sharp_wooden_stick_short_horflip_short_600ms.mp4	164.02261372623707	164.6308929042193	0.6082791779822401	n/a	n/a	n/a	n/a
162.6328125	0.2	333072	109	77	1	0	0	11	339	stimuli\Videos_short_600ms_vertflip\72.(short)stroke_with_finger_all_over_the_hand_short_vertflip_short_600ms.mp4	72.(short)stroke_with_finger_all_over_the_hand_short_vertflip_short_600ms.mp4	164.82259771496228	165.43087953216582	0.6082818172035331	n/a	n/a	n/a	n/a
163.4326171875	0.2	334710	110	77	1	0	0	12	202	stimuli\Videos_short_600ms_horvertflip\3.single_push_with_finger_short_horvertflip_short_600ms.mp4	3.single_push_with_finger_short_horvertflip_short_600ms.mp4	165.62258903485736	166.2309174783004	0.6083284434430425	n/a	n/a	n/a	n/a
164.23291015625	0.2	336349	111	77	1	0	0	13	78	stimuli\Videos_short_600ms\80.stroke_with_sharp_stick_all_over_the_hand_short_short_600ms.mp4	80.stroke_with_sharp_stick_all_over_the_hand_short_short_600ms.mp4	166.42255132332002	167.03085513403266	0.6083038107126413	n/a	n/a	n/a	n/a
165.03271484375	0.2	337987	112	77	1	0	0	14	29	stimuli\Videos_short_600ms\36.single_slap_with_full_hand_short_short_600ms.mp4	36.single_slap_with_full_hand_short_short_600ms.mp4	167.2225628772435	167.8308819367894	0.60831905954592	n/a	n/a	n/a	n/a
165.83251953125	0.2	339625	113	77	1	0	0	15	335	stimuli\Videos_short_600ms_vertflip\69.stroke_with_soft_sock_short_vertflip_short_600ms.mp4	69.stroke_with_soft_sock_short_vertflip_short_600ms.mp4	168.02253748207158	168.6308767756459	0.6083392935743177	n/a	n/a	n/a	n/a
166.6328125	0.2	341264	114	77	1	0	0	16	150	stimuli\Videos_short_600ms_horflip\64.repeated_touch_with_screwdriver_short_horflip_short_600ms.mp4	64.repeated_touch_with_screwdriver_short_horflip_short_600ms.mp4	168.82251912482252	169.43086223060527	0.6083431057827511	n/a	n/a	n/a	n/a
167.4326171875	0.2	342902	115	77	1	0	0	17	206	stimuli\Videos_short_600ms_horvertflip\33.scratch_top_to_bottom_with_scissors_short_horvertflip_short_600ms.mp4	33.scratch_top_to_bottom_with_scissors_short_horvertflip_short_600ms.mp4	169.62251572315972	170.23085061803204	0.6083348948723142	n/a	n/a	n/a	n/a
168.232421875	0.2	344540	116	77	1	0	0	18	31	stimuli\Videos_short_600ms\38.double_slap_with_pencil_short_short_600ms.mp4	38.double_slap_with_pencil_short_short_600ms.mp4	170.4225173066925	171.03083900545926	0.6083216987667583	n/a	n/a	n/a	n/a
169.03271484375	0.2	346179	117	77	1	0	0	19	254	stimuli\Videos_short_600ms_horvertflip\77.tapping_with_all_fingers_short_horvertflip_short_600ms.mp4	77.tapping_with_all_fingers_short_horvertflip_short_600ms.mp4	171.22248985879287	171.8308326713286	0.6083428125357386	n/a	n/a	n/a	n/a
169.83251953125	0.2	347817	118	77	1	0	0	20	24	stimuli\Videos_short_600ms\31.hand_grabbing_wrist_short_short_600ms.mp4	31.hand_grabbing_wrist_short_short_600ms.mp4	172.02252721843388	172.6308172465474	0.6082900281135153	n/a	n/a	n/a	n/a
170.63232421875	0.2	349455	119	77	1	0	0	21	194	stimuli\Videos_short_600ms_horvertflip\22.single_touch_with_metal_chopstick_short_horvertflip_short_600ms.mp4	22.single_touch_with_metal_chopstick_short_horvertflip_short_600ms.mp4	172.82248980014356	173.43077279033423	0.6082829901906734	n/a	n/a	n/a	n/a
171.4326171875	0.2	351094	120	77	1	0	0	22	270	stimuli\Videos_short_600ms_vertflip\1.repeated_touch_with_finger_fast_short_vertflip_short_600ms.mp4	1.repeated_touch_with_finger_fast_short_vertflip_short_600ms.mp4	173.6224729091282	174.23079079568697	0.6083178865587797	n/a	n/a	n/a	n/a
172.232421875	0.2	352732	121	77	1	0	0	23	351	stimuli\Videos_short_600ms_vertflip\83.single_stroke_top_to_bottom_with_cotton_bud_short_vertflip_short_600ms.mp4	83.single_stroke_top_to_bottom_with_cotton_bud_short_vertflip_short_600ms.mp4	174.4224639357767	175.0307783033736	0.608314367596904	n/a	n/a	n/a	n/a
173.0322265625	0.2	354370	122	77	1	0	0	24	250	stimuli\Videos_short_600ms_horvertflip\73.single_stroke_with_flat_hand_short_horvertflip_short_600ms.mp4	73.single_stroke_with_flat_hand_short_horvertflip_short_600ms.mp4	175.22244909748906	175.8307690367751	0.6083199392860479	n/a	n/a	n/a	n/a
173.83251953125	0.2	356009	123	77	1	0	0	25	311	stimuli\Videos_short_600ms_vertflip\47.(long)scratching_with_finger_nails_short_vertflip_short_600ms.mp4	47.(long)scratching_with_finger_nails_short_vertflip_short_600ms.mp4	176.02243191322714	176.63076152965732	0.6083296164301828	n/a	n/a	n/a	n/a
174.63232421875	0.2	357647	124	77	1	0	0	26	75	stimuli\Videos_short_600ms\78.single_stroke_top_to_bottom_with_soft_brush_short_short_600ms.mp4	78.single_stroke_top_to_bottom_with_soft_brush_short_short_600ms.mp4	176.82242206013507	177.43075402253953	0.6083319624044634	n/a	n/a	n/a	n/a
175.4326171875	0.2	359286	125	77	1	0	1	27	379	stimuli\Targets_short_600ms_vertflip\chopstick-silver-tap_short_horvertflip_short_600ms.mp4	chopstick-silver-tap_short_horvertflip_short_600ms.mp4	177.62241074080885	178.23069079853167	0.6082800577228227	n/a	n/a	n/a	n/a
176.232421875	0.2	360924	126	77	1	0	0	28	281	stimuli\Videos_short_600ms_vertflip\2.single_touch_with_finger_short_vertflip_short_600ms.mp4	2.single_touch_with_finger_short_vertflip_short_600ms.mp4	178.4224017674569	179.03072493245782	0.6083231650009111	n/a	n/a	n/a	n/a
177.0322265625	0.2	362562	127	77	1	0	0	29	211	stimuli\Videos_short_600ms_horvertflip\38.double_slap_with_pencil_short_horvertflip_short_600ms.mp4	38.double_slap_with_pencil_short_horvertflip_short_600ms.mp4	179.22238927514354	179.83079249651837	0.6084032213748287	n/a	n/a	n/a	n/a
177.83251953125	0.2	364201	128	77	1	0	0	30	117	stimuli\Videos_short_600ms_horflip\34.repeated_punch_with_hand_short_horflip_short_600ms.mp4	34.repeated_punch_with_hand_short_horflip_short_600ms.mp4	180.02237443685635	180.6306756083477	0.6083011714913482	n/a	n/a	n/a	n/a
178.63232421875	0.2	365839	129	77	1	0	0	31	84	stimuli\Videos_short_600ms\86.touch_top_to_bottom_with_hair_brush_short_short_600ms.mp4	86.touch_top_to_bottom_with_hair_brush_short_short_600ms.mp4	180.822366049998	181.43068950824545	0.6083234582474688	n/a	n/a	n/a	n/a
179.43212890625	0.2	367477	130	77	1	0	0	32	278	stimuli\Videos_short_600ms_vertflip\17.repeated_touch_with_rolling_pin_short_vertflip_short_600ms.mp4	17.repeated_touch_with_rolling_pin_short_vertflip_short_600ms.mp4	181.62238170937644	182.2306814146341	0.6082997052576502	n/a	n/a	n/a	n/a
180.232421875	0.2	369116	131	77	1	0	0	33	129	stimuli\Videos_short_600ms_horflip\45.scratching_with_finger_nails_short_horflip_short_600ms.mp4	45.scratching_with_finger_nails_short_horflip_short_600ms.mp4	182.42233989238412	183.0306639371256	0.6083240447414937	n/a	n/a	n/a	n/a
181.0322265625	0.2	370754	132	77	1	0	0	34	151	stimuli\Videos_short_600ms_horflip\65.stroke_top_to_bottom_with_stanley_knife_short_horflip_short_600ms.mp4	65.stroke_top_to_bottom_with_stanley_knife_short_horflip_short_600ms.mp4	183.22236141669873	183.83065525702068	0.6082938403219487	n/a	n/a	n/a	n/a
181.83203125	0.2	372392	133	77	1	0	0	35	44	stimuli\Videos_short_600ms\5.repeated_tap_with_finger_moving_from_top_to_bottom_short_short_600ms.mp4	5.repeated_tap_with_finger_moving_from_top_to_bottom_short_short_600ms.mp4	184.0222888087933	184.63064305795388	0.608354249160584	n/a	n/a	n/a	n/a
182.63232421875	0.2	374031	134	77	1	0	0	36	293	stimuli\Videos_short_600ms_vertflip\30.finger_pulling_back_another_finger_short_vertflip_short_600ms.mp4	30.finger_pulling_back_another_finger_short_vertflip_short_600ms.mp4	184.82228188816907	185.43062763317263	0.6083457450035894	n/a	n/a	n/a	n/a
183.43212890625	0.2	375669	135	77	1	0	0	37	172	stimuli\Videos_short_600ms_horflip\84.single_touch_with_cotton_bud_short_horflip_short_600ms.mp4	84.single_touch_with_cotton_bud_short_horflip_short_600ms.mp4	185.62227056884285	186.23062071254844	0.6083501437055929	n/a	n/a	n/a	n/a
184.23193359375	0.2	377307	136	77	1	0	1	38	380	stimuli\Targets_short_600ms_vertflip\chopstickwood-tap_short_horvertflip_short_600ms.mp4	chopstickwood-tap_short_horvertflip_short_600ms.mp4	186.42226540769937	187.030582414518	0.6083170068186519	n/a	n/a	n/a	n/a
185.0322265625	0.2	378946	137	77	1	0	0	39	221	stimuli\Videos_short_600ms_horvertflip\47.(long)scratching_with_finger_nails_short_horvertflip_short_600ms.mp4	47.(long)scratching_with_finger_nails_short_horvertflip_short_600ms.mp4	187.22225262213945	187.83057138843833	0.6083187662989076	n/a	n/a	n/a	n/a
185.83203125	0.2	380584	138	77	1	0	0	40	71	stimuli\Videos_short_600ms\74.fingers_walking_from_top_to_bottom_short_short_600ms.mp4	74.fingers_walking_from_top_to_bottom_short_short_600ms.mp4	188.02225919086732	188.6305586028784	0.6082994120110925	n/a	n/a	n/a	n/a
186.6318359375	0.2	382222	139	77	1	0	0	41	189	stimuli\Videos_short_600ms_horvertflip\18.single_stroke_from_top_to_bottom_with_rolling_pin_short_horvertflip_short_600ms.mp4	18.single_stroke_from_top_to_bottom_with_rolling_pin_short_horvertflip_short_600ms.mp4	188.82225373647725	189.4306376035638	0.6083838670865589	n/a	n/a	n/a	n/a
187.43212890625	0.2	383861	140	77	1	0	0	42	153	stimuli\Videos_short_600ms_horflip\67.single_touch_with_sponge_short_horflip_short_600ms.mp4	67.single_touch_with_sponge_short_horflip_short_600ms.mp4	189.62222071688848	190.2305559050078	0.6083351881193266	n/a	n/a	n/a	n/a
188.23193359375	0.2	385499	141	77	1	0	0	43	49	stimuli\Videos_short_600ms\54.repeated_touch_with_knife_short_short_600ms.mp4	54.repeated_touch_with_knife_short_short_600ms.mp4	190.42219708119728	191.030543999188	0.6083469179907297	n/a	n/a	n/a	n/a
189.03173828125	0.2	387137	142	77	1	0	0	44	3	stimuli\Videos_short_600ms\12.repeated_touch_with_nail_file_short_short_600ms.mp4	12.repeated_touch_with_nail_file_short_short_600ms.mp4	191.22221391356288	191.83061420246983	0.608400288906978	n/a	n/a	n/a	n/a
189.83203125	0.2	388776	143	77	1	0	0	45	210	stimuli\Videos_short_600ms_horvertflip\37.single_stab_with_nail_file_short_horvertflip_short_600ms.mp4	37.single_stab_with_nail_file_short_horvertflip_short_600ms.mp4	192.022175908779	192.63055479067	0.6083788818909852	n/a	n/a	n/a	n/a
190.6318359375	0.2	390414	144	77	1	0	0	46	253	stimuli\Videos_short_600ms_horvertflip\76.tickle_with_fingers_from_top_to_bottom_short_horvertflip_short_600ms.mp4	76.tickle_with_fingers_from_top_to_bottom_short_horvertflip_short_600ms.mp4	192.82218922218317	193.43052206432824	0.608332842145046	n/a	n/a	n/a	n/a
191.431640625	0.2	392052	145	77	1	0	0	47	33	stimuli\Videos_short_600ms\4.repeated_tap_with_finger_slow_short_short_600ms.mp4	4.repeated_tap_with_finger_slow_short_short_600ms.mp4	193.62217555688312	194.23050869227473	0.6083331353916037	n/a	n/a	n/a	n/a
192.23193359375	0.2	393691	146	77	1	0	0	48	257	stimuli\Videos_short_600ms_horvertflip\8.single_touch_with_hairbrush_short_horvertflip_short_600ms.mp4	8.single_touch_with_hairbrush_short_horvertflip_short_600ms.mp4	194.42216189158265	195.0304947337277	0.608332842145046	n/a	n/a	n/a	n/a
193.03173828125	0.2	395329	147	77	1	0	0	49	348	stimuli\Videos_short_600ms_vertflip\80.stroke_with_sharp_stick_all_over_the_hand_short_vertflip_short_600ms.mp4	80.stroke_with_sharp_stick_all_over_the_hand_short_vertflip_short_600ms.mp4	195.22215145199695	195.83047256427017	0.6083211122731882	n/a	n/a	n/a	n/a
193.83203125	0.2	396968	148	77	1	0	0	50	184	stimuli\Videos_short_600ms_horvertflip\13.single_touch_with_pen_short_horvertflip_short_600ms.mp4	13.single_touch_with_pen_short_horvertflip_short_600ms.mp4	196.02213837319005	196.6304413041621	0.6083029309720587	n/a	n/a	n/a	n/a
194.6318359375	0.2	398606	149	77	1	0	0	51	285	stimuli\Videos_short_600ms_vertflip\23.single_push_with_a_spoon_short_vertflip_short_600ms.mp4	23.single_push_with_a_spoon_short_vertflip_short_600ms.mp4	196.8221250011361	197.4304490458776	0.6083240447414937	n/a	n/a	n/a	n/a
195.431640625	0.2	400244	150	77	1	0	0	52	140	stimuli\Videos_short_600ms_horflip\55.touch_top_to_bottom_with_nail_file_short_horflip_short_600ms.mp4	55.touch_top_to_bottom_with_nail_file_short_horflip_short_600ms.mp4	197.62213391583873	198.23041778576953	0.6082838699308013	n/a	n/a	n/a	n/a
196.23193359375	0.2	401883	151	77	1	0	0	53	95	stimuli\Videos_short_600ms_horflip\14.repeated_touch_with_pencil_short_horflip_short_600ms.mp4	14.repeated_touch_with_pencil_short_horflip_short_600ms.mp4	198.42210676118611	199.03049883918263	0.608392077996541	n/a	n/a	n/a	n/a
197.03173828125	0.2	403521	152	77	1	0	0	54	2	stimuli\Videos_short_600ms\11.single_touch_with_lighter_short_short_600ms.mp4	11.single_touch_with_lighter_short_short_600ms.mp4	199.2220972013406	199.83044089361692	0.6083436922763212	n/a	n/a	n/a	n/a
197.83154296875	0.2	405159	153	77	1	0	0	55	37	stimuli\Videos_short_600ms\43.touch_top_to_bottom_with_sharp_wooden_stick_short_short_600ms.mp4	43.touch_top_to_bottom_with_sharp_wooden_stick_short_short_600ms.mp4	200.02205567759484	200.63043074727784	0.6083750696830066	n/a	n/a	n/a	n/a
198.6318359375	0.2	406798	154	77	1	0	0	56	58	stimuli\Videos_short_600ms\62.touch_top_to_bottom_with_scissors_short_short_600ms.mp4	62.touch_top_to_bottom_with_scissors_short_short_600ms.mp4	200.82210857931616	201.43039186275337	0.6082832834372311	n/a	n/a	n/a	n/a
199.431640625	0.2	408436	155	77	1	0	0	57	98	stimuli\Videos_short_600ms_horflip\17.repeated_touch_with_rolling_pin_short_horflip_short_600ms.mp4	17.repeated_touch_with_rolling_pin_short_horflip_short_600ms.mp4	201.62205591219256	202.2304866987656	0.6084307865730807	n/a	n/a	n/a	n/a
200.2314453125	0.2	410074	156	77	1	0	0	58	324	stimuli\Videos_short_600ms_vertflip\59.single_push_with_long_side_pencil_short_vertflip_short_600ms.mp4	59.single_push_with_long_side_pencil_short_vertflip_short_600ms.mp4	202.42204752533416	203.03036893085437	0.6083214055202006	n/a	n/a	n/a	n/a
201.03173828125	0.2	411713	157	77	1	0	0	59	90	stimuli\Videos_short_600ms_horflip\1.repeated_touch_with_finger_fast_short_horflip_short_600ms.mp4	1.repeated_touch_with_finger_fast_short_horflip_short_600ms.mp4	203.22235056656743	203.83037286036145	0.6080222937939652	n/a	n/a	n/a	n/a
201.83154296875	0.2	413351	158	77	1	0	0	60	338	stimuli\Videos_short_600ms_vertflip\71.single_stroke_with_finger_top_to_bottom_short_vertflip_short_600ms.mp4	71.single_stroke_with_finger_top_to_bottom_short_vertflip_short_600ms.mp4	204.0220894009758	204.63032165947195	0.608232258496173	n/a	n/a	n/a	n/a
202.63134765625	0.2	414989	159	77	1	0	0	61	61	stimuli\Videos_short_600ms\65.stroke_top_to_bottom_with_stanley_knife_short_short_600ms.mp4	65.stroke_top_to_bottom_with_stanley_knife_short_short_600ms.mp4	204.82200828891385	205.43031121988588	0.6083029309720587	n/a	n/a	n/a	n/a
203.431640625	0.2	416628	160	77	1	0	0	62	92	stimuli\Videos_short_600ms_horflip\11.single_touch_with_lighter_short_horflip_short_600ms.mp4	11.single_touch_with_lighter_short_horflip_short_600ms.mp4	205.62201280491445	206.2303198413415	0.6083070364270498	n/a	n/a	n/a	n/a
204.2314453125	0.2	418266	161	77	1	0	0	63	88	stimuli\Videos_short_600ms\9.single_touch_with_hammer_short_short_600ms.mp4	9.single_touch_with_hammer_short_short_600ms.mp4	206.42198477052125	207.03030852201573	0.6083237514944813	n/a	n/a	n/a	n/a
205.03125	0.2	419904	162	77	1	0	0	64	142	stimuli\Videos_short_600ms_horflip\57.single_touch_with_nail_file_short_horflip_short_600ms.mp4	57.single_touch_with_nail_file_short_horflip_short_600ms.mp4	207.2219757971693	207.83030013515736	0.6083243379880514	n/a	n/a	n/a	n/a
205.83154296875	0.2	421543	163	77	1	0	0	65	149	stimuli\Videos_short_600ms_horflip\63.stroke_top_to_bottom_with_screwdriver_short_horflip_short_600ms.mp4	63.stroke_top_to_bottom_with_screwdriver_short_horflip_short_600ms.mp4	208.02207796435096	208.63028676310387	0.6082087987529121	n/a	n/a	n/a	n/a
206.63134765625	0.2	423181	164	77	1	0	0	66	42	stimuli\Videos_short_600ms\48.single_slap_with_hand_short_short_600ms.mp4	48.single_slap_with_hand_short_short_600ms.mp4	208.82194729358116	209.43027954923264	0.6083322556514759	n/a	n/a	n/a	n/a
207.43115234375	0.2	424819	165	77	1	0	0	67	36	stimuli\Videos_short_600ms\42.single_slap_with_plastic_whisk_short_short_600ms.mp4	42.single_slap_with_plastic_whisk_short_short_600ms.mp4	209.62193656074896	210.2303474065402	0.6084108457912407	n/a	n/a	n/a	n/a
208.2314453125	0.2	426458	166	77	1	0	0	68	244	stimuli\Videos_short_600ms_horvertflip\68.stroke_top_to_bottom_with_shawl_short_horvertflip_short_600ms.mp4	68.stroke_top_to_bottom_with_shawl_short_horvertflip_short_600ms.mp4	210.42192465492917	211.0302616025292	0.6083369476000371	n/a	n/a	n/a	n/a
209.03125	0.2	428096	167	77	1	0	0	69	215	stimuli\Videos_short_600ms_horvertflip\41.injection_with_blunt_syringe_short_horvertflip_short_600ms.mp4	41.injection_with_blunt_syringe_short_horvertflip_short_600ms.mp4	211.22191274910935	211.830216559822	0.6083038107126413	n/a	n/a	n/a	n/a
209.8310546875	0.2	429734	168	77	1	0	0	70	164	stimuli\Videos_short_600ms_horflip\77.tapping_with_all_fingers_short_horflip_short_600ms.mp4	77.tapping_with_all_fingers_short_horflip_short_600ms.mp4	212.0218785565335	212.6302034810151	0.6083249244816216	n/a	n/a	n/a	n/a
210.63134765625	0.2	431373	169	77	1	0	0	71	89	stimuli\Videos_short_600ms\90.repeated_touch_with_sponge_short_short_600ms.mp4	90.repeated_touch_with_sponge_short_short_600ms.mp4	212.82188835097668	213.43021620792615	0.6083278569494723	n/a	n/a	n/a	n/a
211.43115234375	0.2	433011	170	77	1	0	0	72	327	stimuli\Videos_short_600ms_vertflip\61.single_hit_with_rolling_pin_short_vertflip_short_600ms.mp4	61.single_hit_with_rolling_pin_short_vertflip_short_600ms.mp4	213.62187879113117	214.2301808423631	0.6083020512319308	n/a	n/a	n/a	n/a
212.2314453125	0.2	434650	171	77	1	0	0	73	121	stimuli\Videos_short_600ms_horflip\38.double_slap_with_pencil_short_horflip_short_600ms.mp4	38.double_slap_with_pencil_short_horflip_short_600ms.mp4	214.4218492905038	215.03019415576728	0.6083448652634615	n/a	n/a	n/a	n/a
213.03125	0.2	436288	172	77	1	0	0	74	291	stimuli\Videos_short_600ms_vertflip\29.single_pinch_with_tweezers_short_vertflip_short_600ms.mp4	29.single_pinch_with_tweezers_short_vertflip_short_600ms.mp4	215.2218549794916	215.8301851824158	0.6083302029242077	n/a	n/a	n/a	n/a
213.8310546875	0.2	437926	173	77	1	0	0	75	258	stimuli\Videos_short_600ms_horvertflip\80.stroke_with_sharp_stick_all_over_the_hand_short_horvertflip_short_600ms.mp4	80.stroke_with_sharp_stick_all_over_the_hand_short_horvertflip_short_600ms.mp4	216.02183193029396	216.6302377908896	0.608405860595667	n/a	n/a	n/a	n/a
214.63134765625	0.2	439565	174	77	1	0	0	76	181	stimuli\Videos_short_600ms_horvertflip\10.single_touch_with_knife_short_horvertflip_short_600ms.mp4	10.single_touch_with_knife_short_horvertflip_short_600ms.mp4	216.82191591617493	217.43023878792883	0.6083228717538987	n/a	n/a	n/a	n/a
215.43115234375	0.2	441203	175	77	1	0	0	77	205	stimuli\Videos_short_600ms_horvertflip\32.single_(long)pinch_with_fingers_short_horvertflip_short_600ms.mp4	32.single_(long)pinch_with_fingers_short_horvertflip_short_600ms.mp4	217.62184389476303	218.23017263145312	0.6083287366900549	n/a	n/a	n/a	n/a
216.23095703125	0.2	442841	176	77	1	0	0	78	83	stimuli\Videos_short_600ms\85.touch_top_to_bottom_with_fabric_short_short_600ms.mp4	85.touch_top_to_bottom_with_fabric_short_short_600ms.mp4	218.4218135143956	219.0301416645921	0.6083281501964848	n/a	n/a	n/a	n/a
217.03125	0.2	444480	177	77	1	0	0	79	0	stimuli\Videos_short_600ms\1.repeated_touch_with_finger_fast_short_short_600ms.mp4	1.repeated_touch_with_finger_fast_short_short_600ms.mp4	219.22179515714652	219.83009456915715	0.6082994120106378	n/a	n/a	n/a	n/a
217.8310546875	0.2	446118	178	77	1	0	0	80	159	stimuli\Videos_short_600ms_horflip\72.(short)stroke_with_finger_all_over_the_hand_short_horflip_short_600ms.mp4	72.(short)stroke_with_finger_all_over_the_hand_short_horflip_short_600ms.mp4	220.0218536305565	220.63009967165135	0.6082460410948443	n/a	n/a	n/a	n/a
218.63916015625	0.2	447773	179	77	1	0	0	81	326	stimuli\Videos_short_600ms_vertflip\60.single_push_with_tip_of_pencil_short_vertflip_short_600ms.mp4	60.single_push_with_tip_of_pencil_short_vertflip_short_600ms.mp4	220.830106299029	221.4384177341581	0.6083114351290533	n/a	n/a	n/a	n/a
219.439453125	0.2	449412	180	77	1	0	0	82	28	stimuli\Videos_short_600ms\35.single_punch_with_hand_short_short_600ms.mp4	35.single_punch_with_hand_short_short_600ms.mp4	221.6302122784191	222.23842166366512	0.6082093852460275	n/a	n/a	n/a	n/a
220.2392578125	0.2	451050	181	77	1	0	0	83	192	stimuli\Videos_short_600ms_horvertflip\20.single_touch_with_screwdriver_short_horvertflip_short_600ms.mp4	20.single_touch_with_screwdriver_short_horvertflip_short_600ms.mp4	222.4300569749189	223.03839362927192	0.6083366543530246	n/a	n/a	n/a	n/a
221.0390625	0.2	452688	182	77	1	0	0	84	219	stimuli\Videos_short_600ms_horvertflip\45.scratching_with_finger_nails_short_horvertflip_short_600ms.mp4	45.scratching_with_finger_nails_short_horvertflip_short_600ms.mp4	223.2300711680637	223.83844418501897	0.6083730169552837	n/a	n/a	n/a	n/a
221.83935546875	0.2	454327	183	77	1	0	0	85	70	stimuli\Videos_short_600ms\73.single_stroke_with_flat_hand_short_short_600ms.mp4	73.single_stroke_with_flat_hand_short_short_600ms.mp4	224.0304193693023	224.63837011087935	0.6079507415770422	n/a	n/a	n/a	n/a
222.63916015625	0.2	455965	184	77	1	0	0	86	321	stimuli\Videos_short_600ms_vertflip\56.repeated_touch_with_nail_file_short_vertflip_short_600ms.mp4	56.repeated_touch_with_nail_file_short_vertflip_short_600ms.mp4	224.83002506966795	225.43835556583872	0.6083304961707654	n/a	n/a	n/a	n/a
223.43896484375	0.2	457603	185	77	1	0	0	87	239	stimuli\Videos_short_600ms_horvertflip\63.stroke_top_to_bottom_with_screwdriver_short_horvertflip_short_600ms.mp4	63.stroke_top_to_bottom_with_screwdriver_short_horvertflip_short_600ms.mp4	225.63002078826503	226.23835128443537	0.6083304961703107	n/a	n/a	n/a	n/a
224.2392578125	0.2	459242	186	77	1	0	0	88	175	stimuli\Videos_short_600ms_horflip\87.single_stroke_top_to_bottom_with_plastic_brush_short_horflip_short_600ms.mp4	87.single_stroke_top_to_bottom_with_plastic_brush_short_horflip_short_600ms.mp4	226.4300214920572	227.038334979914	0.6083134878567762	n/a	n/a	n/a	n/a
225.0390625	0.2	460880	187	77	1	0	0	89	65	stimuli\Videos_short_600ms\69.stroke_with_soft_sock_short_short_600ms.mp4	69.stroke_with_soft_sock_short_short_600ms.mp4	227.23000108208043	227.83832659305563	0.6083255109751917	n/a	n/a	n/a	n/a
225.8388671875	0.2	462518	188	77	1	0	0	90	119	stimuli\Videos_short_600ms_horflip\36.single_slap_with_full_hand_short_horflip_short_600ms.mp4	36.single_slap_with_full_hand_short_horflip_short_600ms.mp4	228.0299865370398	228.6383155669764	0.6083290299366126	n/a	n/a	n/a	n/a
226.63916015625	0.2	464157	189	77	1	0	0	91	22	stimuli\Videos_short_600ms\3.single_push_with_finger_short_short_600ms.mp4	3.single_push_with_finger_short_short_600ms.mp4	228.83006172551677	229.4383019016759	0.6082401761591427	2.0	2.0	1.9937453392089992	1.0
263.86279296875	0.2	540391	190	77	2	0	0	0	170	stimuli\Videos_short_600ms_horflip\82.repeated_touch_with_cotton_bud_short_horflip_short_600ms.mp4	82.repeated_touch_with_cotton_bud_short_horflip_short_600ms.mp4	266.05443950714607	266.6627591531851	0.6083196460390354	n/a	n/a	n/a	n/a
264.66259765625	0.2	542029	191	77	2	0	0	1	17	stimuli\Videos_short_600ms\25.single_touch_with_stanley_knife_short_short_600ms.mp4	25.single_touch_with_stanley_knife_short_short_600ms.mp4	266.85481204786856	267.46275193931433	0.607939891445767	n/a	n/a	n/a	n/a
265.462890625	0.2	543668	192	77	2	0	0	2	266	stimuli\Videos_short_600ms_horvertflip\88.repeated_stroke_with_plastic_brush_short_horvertflip_short_600ms.mp4	88.repeated_stroke_with_plastic_brush_short_horvertflip_short_600ms.mp4	267.654437102522	268.2627347550524	0.608297652530382	n/a	n/a	n/a	n/a
266.2626953125	0.2	545306	193	77	2	0	0	3	237	stimuli\Videos_short_600ms_horvertflip\61.single_hit_with_rolling_pin_short_horvertflip_short_600ms.mp4	61.single_hit_with_rolling_pin_short_horvertflip_short_600ms.mp4	268.4543759312419	269.0627246087133	0.6083486774714402	n/a	n/a	n/a	n/a
267.06298828125	0.2	546945	194	77	2	0	0	4	256	stimuli\Videos_short_600ms_horvertflip\79.long_with_soft_brush_all_over_the_hand_short_horvertflip_short_600ms.mp4	79.long_with_soft_brush_all_over_the_hand_short_horvertflip_short_600ms.mp4	269.2546804387089	269.86271504886827	0.6080346101593932	n/a	n/a	n/a	n/a
267.86279296875	0.2	548583	195	77	2	0	0	5	125	stimuli\Videos_short_600ms_horflip\41.injection_with_blunt_syringe_short_horflip_short_600ms.mp4	41.injection_with_blunt_syringe_short_horflip_short_600ms.mp4	270.0544327624698	270.6626966916192	0.6082639291494161	n/a	n/a	n/a	n/a
268.66259765625	0.2	550221	196	77	2	0	0	6	108	stimuli\Videos_short_600ms_horflip\26.single_touch_with_a_blunt_syringe_short_horflip_short_600ms.mp4	26.single_touch_with_a_blunt_syringe_short_horflip_short_600ms.mp4	270.85444226366553	271.4626862520331	0.6082439883675761	n/a	n/a	n/a	n/a
269.462890625	0.2	551860	197	77	2	0	0	7	132	stimuli\Videos_short_600ms_horflip\48.single_slap_with_hand_short_horflip_short_600ms.mp4	48.single_slap_with_hand_short_horflip_short_600ms.mp4	271.65434912848514	272.2626523527042	0.6083032242190711	n/a	n/a	n/a	n/a
270.2626953125	0.2	553498	198	77	2	0	0	8	236	stimuli\Videos_short_600ms_horvertflip\60.single_push_with_tip_of_pencil_short_horvertflip_short_600ms.mp4	60.single_push_with_tip_of_pencil_short_horvertflip_short_600ms.mp4	272.4543378091589	273.06266214714697	0.6083243379880514	n/a	n/a	n/a	n/a
271.0625	0.2	555136	199	77	2	0	0	9	200	stimuli\Videos_short_600ms_horvertflip\28.single_injection_with_sharp_needle_short_horvertflip_short_600ms.mp4	28.single_injection_with_sharp_needle_short_horvertflip_short_600ms.mp4	273.25432619658613	273.86265346704204	0.6083272704559022	n/a	n/a	n/a	n/a
271.86279296875	0.2	556775	200	77	2	0	0	10	283	stimuli\Videos_short_600ms_vertflip\21.repeated_touch_with_metal_chopstick_short_vertflip_short_600ms.mp4	21.repeated_touch_with_metal_chopstick_short_vertflip_short_600ms.mp4	274.0542905377765	274.6626421477158	0.6083516099392909	n/a	n/a	n/a	n/a
272.66259765625	0.2	558413	201	77	2	0	0	11	27	stimuli\Videos_short_600ms\34.repeated_punch_with_hand_short_short_600ms.mp4	34.repeated_punch_with_hand_short_short_600ms.mp4	274.8542877226073	275.4626328811173	0.6083451585100192	n/a	n/a	n/a	n/a
273.46240234375	0.2	560051	202	77	2	0	0	12	260	stimuli\Videos_short_600ms_horvertflip\82.repeated_touch_with_cotton_bud_short_horvertflip_short_600ms.mp4	82.repeated_touch_with_cotton_bud_short_horvertflip_short_600ms.mp4	275.6542837344509	276.2626174563361	0.6083337218851739	n/a	n/a	n/a	n/a
274.2626953125	0.2	561690	203	77	2	0	0	13	232	stimuli\Videos_short_600ms_horvertflip\57.single_touch_with_nail_file_short_horvertflip_short_600ms.mp4	57.single_touch_with_nail_file_short_horvertflip_short_600ms.mp4	276.45425335408345	277.0626023248019	0.6083489707184526	n/a	n/a	n/a	n/a
275.0625	0.2	563328	204	77	2	0	0	14	138	stimuli\Videos_short_600ms_horflip\53.touch_top_to_bottom_with_knife_short_horflip_short_600ms.mp4	53.touch_top_to_bottom_with_knife_short_horflip_short_600ms.mp4	277.25430918827215	277.8625907122291	0.6082815239569754	n/a	n/a	n/a	n/a
275.8623046875	0.2	564966	205	77	2	0	0	15	230	stimuli\Videos_short_600ms_horvertflip\55.touch_top_to_bottom_with_nail_file_short_horvertflip_short_600ms.mp4	55.touch_top_to_bottom_with_nail_file_short_horvertflip_short_600ms.mp4	278.05458525080076	278.6625808591366	0.6079956083358411	n/a	n/a	n/a	n/a
276.66259765625	0.2	566605	206	77	2	0	0	16	231	stimuli\Videos_short_600ms_horvertflip\56.repeated_touch_with_nail_file_short_horvertflip_short_600ms.mp4	56.repeated_touch_with_nail_file_short_horvertflip_short_600ms.mp4	278.8542179298711	279.4625710060445	0.6083530761734437	n/a	n/a	n/a	n/a
277.46240234375	0.2	568243	207	77	2	0	0	17	307	stimuli\Videos_short_600ms_vertflip\43.touch_top_to_bottom_with_sharp_wooden_stick_short_vertflip_short_600ms.mp4	43.touch_top_to_bottom_with_sharp_wooden_stick_short_vertflip_short_600ms.mp4	279.6543156983512	280.2625582204846	0.6082425221334233	n/a	n/a	n/a	n/a
278.26220703125	0.2	569881	208	77	2	0	0	18	303	stimuli\Videos_short_600ms_vertflip\4.repeated_tap_with_finger_slow_short_vertflip_short_600ms.mp4	4.repeated_tap_with_finger_slow_short_vertflip_short_600ms.mp4	280.4541944114785	281.0625451416777	0.6083507301991631	n/a	n/a	n/a	n/a
279.07080078125	0.2	571537	209	77	2	0	1	19	378	stimuli\Targets_short_600ms_vertflip\brush-stroke_short_horvertflip_short_600ms.mp4	brush-stroke_short_horvertflip_short_600ms.mp4	281.26254326489834	281.87086877587353	0.6083255109751917	n/a	n/a	n/a	n/a
279.87060546875	0.2	573175	210	77	2	0	0	20	122	stimuli\Videos_short_600ms_horflip\39.single_stab_with_scissors_short_horflip_short_600ms.mp4	39.single_stab_with_scissors_short_horflip_short_600ms.mp4	282.06250438037387	282.67086537421073	0.6083609938368681	n/a	n/a	n/a	n/a
280.6708984375	0.2	574814	211	77	2	0	0	21	156	stimuli\Videos_short_600ms_horflip\7.repeated_touch_with_hairbrush_short_horflip_short_600ms.mp4	7.repeated_touch_with_hairbrush_short_horflip_short_600ms.mp4	282.86251769377805	283.47084261825967	0.6083249244816216	n/a	n/a	n/a	n/a
281.470703125	0.2	576452	212	77	2	0	1	22	374	stimuli\Targets_short_600ms_horvertflip\chopstickwood-tap_short_vertflip_short_600ms.mp4	chopstickwood-tap_short_vertflip_short_600ms.mp4	283.66250226899683	284.2708292462062	0.6083269772093445	n/a	n/a	n/a	n/a
282.2705078125	0.2	578090	213	77	2	0	0	23	41	stimuli\Videos_short_600ms\47.(long)scratching_with_finger_nails_short_short_600ms.mp4	47.(long)scratching_with_finger_nails_short_short_600ms.mp4	284.46246836966793	285.07081822012697	0.6083498504590352	n/a	n/a	n/a	n/a
283.07080078125	0.2	579729	214	77	2	0	0	24	318	stimuli\Videos_short_600ms_vertflip\53.touch_top_to_bottom_with_knife_short_vertflip_short_600ms.mp4	53.touch_top_to_bottom_with_knife_short_vertflip_short_600ms.mp4	285.2624819763191	285.8708030885923	0.6083211122731882	n/a	n/a	n/a	n/a
283.87060546875	0.2	581367	215	77	2	0	0	25	163	stimuli\Videos_short_600ms_horflip\76.tickle_with_fingers_from_top_to_bottom_short_horflip_short_600ms.mp4	76.tickle_with_fingers_from_top_to_bottom_short_horflip_short_600ms.mp4	286.0624741759543	286.67079352874725	0.6083193527929325	n/a	n/a	n/a	n/a
284.67041015625	0.2	583005	216	77	2	0	0	26	12	stimuli\Videos_short_600ms\20.single_touch_with_screwdriver_short_short_600ms.mp4	20.single_touch_with_screwdriver_short_short_600ms.mp4	286.862436757664	287.47078220942103	0.6083454517570317	n/a	n/a	n/a	n/a
285.470703125	0.2	584644	217	77	2	0	0	27	228	stimuli\Videos_short_600ms_horvertflip\53.touch_top_to_bottom_with_knife_short_horvertflip_short_600ms.mp4	53.touch_top_to_bottom_with_knife_short_horvertflip_short_600ms.mp4	287.6624415669112	288.27077059684825	0.6083290299370674	n/a	n/a	n/a	n/a
286.2705078125	0.2	586282	218	77	2	0	0	28	173	stimuli\Videos_short_600ms_horflip\85.touch_top_to_bottom_with_fabric_short_horflip_short_600ms.mp4	85.touch_top_to_bottom_with_fabric_short_horflip_short_600ms.mp4	288.4624551735624	289.07076045050917	0.608305276946794	n/a	n/a	n/a	n/a
287.0703125	0.2	587920	219	77	2	0	0	29	106	stimuli\Videos_short_600ms_horflip\24.single_stroke_top_to_bottom_with_a_spoon_short_horflip_short_600ms.mp4	24.single_stroke_top_to_bottom_with_a_spoon_short_horflip_short_600ms.mp4	289.26240162669865	289.87074678520867	0.6083451585100192	n/a	n/a	n/a	n/a
287.87060546875	0.2	589559	220	77	2	0	0	30	167	stimuli\Videos_short_600ms_horflip\8.single_touch_with_hairbrush_short_horflip_short_600ms.mp4	8.single_touch_with_hairbrush_short_horflip_short_600ms.mp4	290.0624155265964	290.67073898484387	0.6083234582474688	n/a	n/a	n/a	n/a
288.67041015625	0.2	591197	221	77	2	0	0	31	297	stimuli\Videos_short_600ms_vertflip\34.repeated_punch_with_hand_short_vertflip_short_600ms.mp4	34.repeated_punch_with_hand_short_vertflip_short_600ms.mp4	290.8624036207766	291.4707253195438	0.6083216987672131	n/a	n/a	n/a	n/a
289.47021484375	0.2	592835	222	77	2	0	0	32	128	stimuli\Videos_short_600ms_horflip\44.pushing_top_to_bottom_with_finger_short_horflip_short_600ms.mp4	44.pushing_top_to_bottom_with_finger_short_horflip_short_600ms.mp4	291.66236590923927	292.2706908337209	0.6083249244816216	n/a	n/a	n/a	n/a
290.2705078125	0.2	594474	223	77	2	0	0	33	91	stimuli\Videos_short_600ms_horflip\10.single_touch_with_knife_short_horflip_short_600ms.mp4	10.single_touch_with_knife_short_horflip_short_600ms.mp4	292.4623707184869	293.07067863465454	0.6083079161676324	n/a	n/a	n/a	n/a
291.0703125	0.2	596112	224	77	2	0	0	34	145	stimuli\Videos_short_600ms_horflip\6.single_touch_with_flat_hand_short_horflip_short_600ms.mp4	6.single_touch_with_flat_hand_short_horflip_short_600ms.mp4	293.2624104241022	293.87066262337976	0.6082521992775582	n/a	n/a	n/a	n/a
291.8701171875	0.2	597750	225	77	2	0	0	35	334	stimuli\Videos_short_600ms_vertflip\68.stroke_top_to_bottom_with_shawl_short_vertflip_short_600ms.mp4	68.stroke_top_to_bottom_with_shawl_short_vertflip_short_600ms.mp4	294.0623469068473	294.67068209496665	0.6083351881193266	n/a	n/a	n/a	n/a
292.67041015625	0.2	599389	226	77	2	0	0	36	310	stimuli\Videos_short_600ms_vertflip\46.scratching_top_to_bottom_with_finger_nails_short_vertflip_short_600ms.mp4	46.scratching_top_to_bottom_with_finger_nails_short_vertflip_short_600ms.mp4	294.8623364672617	295.47066842966615	0.6083319624044634	n/a	n/a	n/a	n/a
293.47021484375	0.2	601027	227	77	2	0	0	37	101	stimuli\Videos_short_600ms_horflip\2.single_touch_with_finger_short_horflip_short_600ms.mp4	2.single_touch_with_finger_short_horflip_short_600ms.mp4	295.66232368170176	296.2706656144969	0.608341932795156	n/a	n/a	n/a	n/a
294.27001953125	0.2	602665	228	77	2	0	0	38	11	stimuli\Videos_short_600ms\2.single_touch_with_finger_short_short_600ms.mp4	2.single_touch_with_finger_short_short_600ms.mp4	296.462316174584	297.07063992607846	0.6083237514944813	n/a	n/a	n/a	n/a
295.0703125	0.2	604304	229	77	2	0	0	39	201	stimuli\Videos_short_600ms_horvertflip\29.single_pinch_with_tweezers_short_horvertflip_short_600ms.mp4	29.single_pinch_with_tweezers_short_horvertflip_short_600ms.mp4	297.26227025213666	297.8706274337651	0.6083571816284348	n/a	n/a	n/a	n/a
295.8701171875	0.2	605942	230	77	2	0	0	40	152	stimuli\Videos_short_600ms_horflip\66.stroke_top_to_bottom_with_sponge_short_horflip_short_600ms.mp4	66.stroke_top_to_bottom_with_sponge_short_horflip_short_600ms.mp4	298.0622856182681	298.6706134752176	0.6083278569494723	n/a	n/a	n/a	n/a
296.669921875	0.2	607580	231	77	2	0	0	41	213	stimuli\Videos_short_600ms_horvertflip\4.repeated_tap_with_finger_slow_short_horvertflip_short_600ms.mp4	4.repeated_tap_with_finger_slow_short_horvertflip_short_600ms.mp4	298.86232356440314	299.47060156939824	0.6082780049950998	n/a	n/a	n/a	n/a
297.47021484375	0.2	609219	232	77	2	0	0	42	166	stimuli\Videos_short_600ms_horflip\79.long_with_soft_brush_all_over_the_hand_short_horflip_short_600ms.mp4	79.long_with_soft_brush_all_over_the_hand_short_horflip_short_600ms.mp4	299.6622840933851	300.2705928892933	0.608308795908215	n/a	n/a	n/a	n/a
298.27001953125	0.2	610857	233	77	2	0	1	43	376	stimuli\Targets_short_600ms_horvertflip\hand-pinch_short_vertflip_short_600ms.mp4	hand-pinch_short_vertflip_short_600ms.mp4	300.4628469512745	301.0705789307458	0.6077319794712821	n/a	n/a	n/a	n/a
299.06982421875	0.2	612495	234	77	2	0	0	44	315	stimuli\Videos_short_600ms_vertflip\50.single_(long)hard_push_with_thumb_short_vertflip_short_600ms.mp4	50.single_(long)hard_push_with_thumb_short_vertflip_short_600ms.mp4	301.26263094568867	301.8705679046666	0.6079369589779162	n/a	n/a	n/a	n/a
299.8701171875	0.2	614134	235	77	2	0	0	45	5	stimuli\Videos_short_600ms\14.repeated_touch_with_pencil_short_short_600ms.mp4	14.repeated_touch_with_pencil_short_short_600ms.mp4	302.0622609855377	302.67055570560024	0.6082947200625313	n/a	n/a	n/a	n/a
300.669921875	0.2	615772	236	77	2	0	0	46	50	stimuli\Videos_short_600ms\55.touch_top_to_bottom_with_nail_file_short_short_600ms.mp4	55.touch_top_to_bottom_with_nail_file_short_short_600ms.mp4	302.8621886708793	303.47054145380616	0.608352782926886	n/a	n/a	n/a	n/a
301.47021484375	0.2	617411	237	77	2	0	0	47	48	stimuli\Videos_short_600ms\53.touch_top_to_bottom_with_knife_short_short_600ms.mp4	53.touch_top_to_bottom_with_knife_short_short_600ms.mp4	303.6621914273992	304.27053013447994	0.6083387070807476	n/a	n/a	n/a	n/a
302.27001953125	0.2	619049	238	77	2	0	0	48	328	stimuli\Videos_short_600ms_vertflip\62.touch_top_to_bottom_with_scissors_short_vertflip_short_600ms.mp4	62.touch_top_to_bottom_with_scissors_short_vertflip_short_600ms.mp4	304.46217424313727	305.0705196948943	0.6083454517570317	n/a	n/a	n/a	n/a
303.06982421875	0.2	620687	239	77	2	0	0	49	72	stimuli\Videos_short_600ms\75.(long)stroke_with_fingers_all_over_the_hand_short_short_600ms.mp4	75.(long)stroke_with_fingers_all_over_the_hand_short_short_600ms.mp4	305.26221248251886	305.8704960592031	0.6082835766842436	n/a	n/a	n/a	n/a
303.8701171875	0.2	622326	240	77	2	0	0	50	43	stimuli\Videos_short_600ms\49.repeated_slap_with_hand_short_short_600ms.mp4	49.repeated_slap_with_hand_short_short_600ms.mp4	306.0621797561771	306.6704762357199	0.608296479542787	n/a	n/a	n/a	n/a
304.669921875	0.2	623964	241	77	2	0	0	51	40	stimuli\Videos_short_600ms\46.scratching_top_to_bottom_with_finger_nails_short_short_600ms.mp4	46.scratching_top_to_bottom_with_finger_nails_short_short_600ms.mp4	306.8621523082775	307.4704558257431	0.6083035174656288	n/a	n/a	n/a	n/a
305.4697265625	0.2	625602	242	77	2	0	0	52	247	stimuli\Videos_short_600ms_horvertflip\70.(long)stroke_with_finger_all_over_the_hand_short_horvertflip_short_600ms.mp4	70.(long)stroke_with_finger_all_over_the_hand_short_horvertflip_short_600ms.mp4	307.662143041679	308.2704559430422	0.608312901363206	n/a	n/a	n/a	n/a
306.27001953125	0.2	627241	243	77	2	0	0	53	53	stimuli\Videos_short_600ms\58.single_slap_with_pencil_short_short_600ms.mp4	58.single_slap_with_pencil_short_short_600ms.mp4	308.4621346548206	309.0704355330654	0.6083008782447905	n/a	n/a	n/a	n/a
307.06982421875	0.2	628879	244	77	2	0	0	54	18	stimuli\Videos_short_600ms\26.single_touch_with_a_blunt_syringe_short_short_600ms.mp4	26.single_touch_with_a_blunt_syringe_short_short_600ms.mp4	309.2621195232864	309.87044884646957	0.6083293231831703	n/a	n/a	n/a	n/a
307.86962890625	0.2	630517	245	77	2	0	0	55	59	stimuli\Videos_short_600ms\63.stroke_top_to_bottom_with_screwdriver_short_short_600ms.mp4	63.stroke_top_to_bottom_with_screwdriver_short_short_600ms.mp4	310.0621076174666	310.6704413393518	0.6083337218851739	n/a	n/a	n/a	n/a
308.669921875	0.2	632156	246	77	2	0	0	56	306	stimuli\Videos_short_600ms_vertflip\42.single_slap_with_plastic_whisk_short_vertflip_short_600ms.mp4	42.single_slap_with_plastic_whisk_short_vertflip_short_600ms.mp4	310.8620957116468	311.4704279672983	0.6083322556514759	n/a	n/a	n/a	n/a
309.4697265625	0.2	633794	247	77	2	0	0	57	143	stimuli\Videos_short_600ms_horflip\58.single_slap_with_pencil_short_horflip_short_600ms.mp4	58.single_slap_with_pencil_short_horflip_short_600ms.mp4	311.66208321933345	312.2704160614785	0.608332842145046	n/a	n/a	n/a	n/a
310.26953125	0.2	635432	248	77	2	0	0	58	320	stimuli\Videos_short_600ms_vertflip\55.touch_top_to_bottom_with_nail_file_short_vertflip_short_600ms.mp4	55.touch_top_to_bottom_with_nail_file_short_vertflip_short_600ms.mp4	312.4621598740446	313.07040122319086	0.608241349146283	n/a	n/a	n/a	n/a
311.06982421875	0.2	637071	249	77	2	0	0	59	277	stimuli\Videos_short_600ms_vertflip\16.repeated_touch_with_plastic_brush_short_vertflip_short_600ms.mp4	16.repeated_touch_with_plastic_brush_short_vertflip_short_600ms.mp4	313.26219283498403	313.8703887308775	0.6081958958934592	n/a	n/a	n/a	n/a
311.86962890625	0.2	638709	250	77	2	0	0	60	67	stimuli\Videos_short_600ms\70.(long)stroke_with_finger_all_over_the_hand_short_short_600ms.mp4	70.(long)stroke_with_finger_all_over_the_hand_short_short_600ms.mp4	314.062025801612	314.67037418583686	0.6083483842248825	n/a	n/a	n/a	n/a
312.66943359375	0.2	640347	251	77	2	0	0	61	332	stimuli\Videos_short_600ms_vertflip\66.stroke_top_to_bottom_with_sponge_short_vertflip_short_600ms.mp4	66.stroke_top_to_bottom_with_sponge_short_vertflip_short_600ms.mp4	314.8620361825483	315.4703616935235	0.6083255109751917	n/a	n/a	n/a	n/a
313.4697265625	0.2	641986	252	77	2	0	1	62	360	stimuli\Targets_short_600ms\brush-stroke_short_short_600ms.mp4	brush-stroke_short_short_600ms.mp4	315.6620286754305	316.27035184043143	0.6083231650009111	n/a	n/a	n/a	n/a
314.26953125	0.2	643624	253	77	2	0	0	63	347	stimuli\Videos_short_600ms_vertflip\8.single_touch_with_hairbrush_short_vertflip_short_600ms.mp4	8.single_touch_with_hairbrush_short_vertflip_short_600ms.mp4	316.4620094384413	317.07033788188437	0.6083284434430425	n/a	n/a	n/a	n/a
315.0693359375	0.2	645262	254	77	2	0	0	64	144	stimuli\Videos_short_600ms_horflip\59.single_push_with_long_side_pencil_short_horflip_short_600ms.mp4	59.single_push_with_long_side_pencil_short_horflip_short_600ms.mp4	317.26199665288095	317.87032568281757	0.6083290299366126	n/a	n/a	n/a	n/a
315.86962890625	0.2	646901	255	77	2	0	0	65	264	stimuli\Videos_short_600ms_horvertflip\86.touch_top_to_bottom_with_hair_brush_short_horvertflip_short_600ms.mp4	86.touch_top_to_bottom_with_hair_brush_short_horvertflip_short_600ms.mp4	318.06197917537247	318.67031289725765	0.6083337218851739	n/a	n/a	n/a	n/a
316.66943359375	0.2	648539	256	77	2	0	0	66	240	stimuli\Videos_short_600ms_horvertflip\64.repeated_touch_with_screwdriver_short_horvertflip_short_600ms.mp4	64.repeated_touch_with_screwdriver_short_horvertflip_short_600ms.mp4	318.86195319370654	319.4703006981913	0.6083475044847546	n/a	n/a	n/a	n/a
317.46923828125	0.2	650177	257	77	2	0	0	67	246	stimuli\Videos_short_600ms_horvertflip\7.repeated_touch_with_hairbrush_short_horvertflip_short_600ms.mp4	7.repeated_touch_with_hairbrush_short_horvertflip_short_600ms.mp4	319.6619996439981	320.27029201808637	0.6082923740882507	n/a	n/a	n/a	n/a
318.26953125	0.2	651816	258	77	2	0	0	68	126	stimuli\Videos_short_600ms_horflip\42.single_slap_with_plastic_whisk_short_horflip_short_600ms.mp4	42.single_slap_with_plastic_whisk_short_horflip_short_600ms.mp4	320.4619355402501	321.07028275148787	0.6083472112377422	n/a	n/a	n/a	n/a
319.0693359375	0.2	653454	259	77	2	0	0	69	245	stimuli\Videos_short_600ms_horvertflip\69.stroke_with_soft_sock_short_horvertflip_short_600ms.mp4	69.stroke_with_soft_sock_short_horvertflip_short_600ms.mp4	321.26191864923476	321.8702614617705	0.6083428125357386	n/a	n/a	n/a	n/a
319.869140625	0.2	655092	260	77	2	0	0	70	267	stimuli\Videos_short_600ms_horvertflip\89.single_touch_with_plastic_brush_short_horvertflip_short_600ms.mp4	89.single_touch_with_plastic_brush_short_horvertflip_short_600ms.mp4	322.0619375343281	322.670235480105	0.6082979457769397	n/a	n/a	n/a	n/a
320.66943359375	0.2	656731	261	77	2	0	0	71	86	stimuli\Videos_short_600ms\88.repeated_stroke_with_plastic_brush_short_short_600ms.mp4	88.repeated_stroke_with_plastic_brush_short_short_600ms.mp4	322.8619174175983	323.4702344244165	0.6083170068181971	n/a	n/a	n/a	n/a
321.46923828125	0.2	658369	262	77	2	0	0	72	74	stimuli\Videos_short_600ms\77.tapping_with_all_fingers_short_short_600ms.mp4	77.tapping_with_all_fingers_short_short_600ms.mp4	323.6624579887316	324.2702242780779	0.607766289346273	n/a	n/a	n/a	n/a
322.26953125	0.2	660008	263	77	2	0	0	73	77	stimuli\Videos_short_600ms\8.single_touch_with_hairbrush_short_short_600ms.mp4	8.single_touch_with_hairbrush_short_short_600ms.mp4	324.4618924329716	325.0701953639441	0.6083029309725134	n/a	n/a	n/a	n/a
323.0693359375	0.2	661646	264	77	2	0	0	74	298	stimuli\Videos_short_600ms_vertflip\35.single_punch_with_hand_short_vertflip_short_600ms.mp4	35.single_punch_with_hand_short_vertflip_short_600ms.mp4	325.2618849258538	325.87024445345696	0.6083595276031701	n/a	n/a	n/a	n/a
323.869140625	0.2	663284	265	77	2	0	1	75	365	stimuli\Targets_short_600ms\hand-stroke_short_short_600ms.mp4	hand-stroke_short_short_600ms.mp4	326.061864809124	326.67019618503537	0.608331375911348	n/a	n/a	n/a	n/a
324.66943359375	0.2	664923	266	77	2	0	0	76	319	stimuli\Videos_short_600ms_vertflip\54.repeated_touch_with_knife_short_vertflip_short_600ms.mp4	54.repeated_touch_with_knife_short_vertflip_short_600ms.mp4	326.8618543695384	327.47019043739783	0.6083360678594545	n/a	n/a	n/a	n/a
325.46923828125	0.2	666561	267	77	2	0	0	77	227	stimuli\Videos_short_600ms_horvertflip\52.touch_top_to_bottom_with_hammer_short_horvertflip_short_600ms.mp4	52.touch_top_to_bottom_with_hammer_short_horvertflip_short_600ms.mp4	327.661842170472	328.2701676814472	0.6083255109751917	n/a	n/a	n/a	n/a
326.26904296875	0.2	668199	268	77	2	0	0	78	96	stimuli\Videos_short_600ms_horflip\15.single_stroke_top_to_bottom_with_a_plastic_whisk_short_horflip_short_600ms.mp4	15.single_stroke_top_to_bottom_with_a_plastic_whisk_short_horflip_short_600ms.mp4	328.46183554309437	329.07015254991256	0.6083170068181971	n/a	n/a	n/a	n/a
327.0693359375	0.2	669838	269	77	2	0	0	79	47	stimuli\Videos_short_600ms\52.touch_top_to_bottom_with_hammer_short_short_600ms.mp4	52.touch_top_to_bottom_with_hammer_short_short_600ms.mp4	329.26182099805374	329.8701468022755	0.6083258042217494	n/a	n/a	n/a	n/a
327.869140625	0.2	671476	270	77	2	0	0	80	64	stimuli\Videos_short_600ms\68.stroke_top_to_bottom_with_shawl_short_short_600ms.mp4	68.stroke_top_to_bottom_with_shawl_short_short_600ms.mp4	330.0618099719745	330.67013196398784	0.608321992013316	n/a	n/a	n/a	n/a
328.6689453125	0.2	673114	271	77	2	0	0	81	356	stimuli\Videos_short_600ms_vertflip\88.repeated_stroke_with_plastic_brush_short_vertflip_short_600ms.mp4	88.repeated_stroke_with_plastic_brush_short_vertflip_short_600ms.mp4	330.86179308095916	331.47012035141506	0.6083272704559022	n/a	n/a	n/a	n/a
329.46923828125	0.2	674753	272	77	2	0	0	82	352	stimuli\Videos_short_600ms_vertflip\84.single_touch_with_cotton_bud_short_vertflip_short_600ms.mp4	84.single_touch_with_cotton_bud_short_vertflip_short_600ms.mp4	331.6618360122893	332.27011020507643	0.6082741927871211	n/a	n/a	n/a	n/a
330.26904296875	0.2	676391	273	77	2	0	0	83	274	stimuli\Videos_short_600ms_vertflip\13.single_touch_with_pen_short_vertflip_short_600ms.mp4	13.single_touch_with_pen_short_vertflip_short_600ms.mp4	332.4617534339932	333.0700962465289	0.6083428125357386	n/a	n/a	n/a	n/a
331.06884765625	0.2	678029	274	77	2	0	0	84	155	stimuli\Videos_short_600ms_horflip\69.stroke_with_soft_sock_short_horflip_short_600ms.mp4	69.stroke_with_soft_sock_short_horflip_short_600ms.mp4	333.26173712947184	333.87008551369627	0.6083483842244277	n/a	n/a	n/a	n/a
331.869140625	0.2	679668	275	77	2	0	0	85	26	stimuli\Videos_short_600ms\33.scratch_top_to_bottom_with_scissors_short_short_600ms.mp4	33.scratch_top_to_bottom_with_scissors_short_short_600ms.mp4	334.0617240506649	334.67007096865564	0.6083469179907297	n/a	n/a	n/a	n/a
332.6689453125	0.2	681306	276	77	2	0	0	86	292	stimuli\Videos_short_600ms_vertflip\3.single_push_with_finger_short_vertflip_short_600ms.mp4	3.single_push_with_finger_short_vertflip_short_600ms.mp4	334.8617144908194	335.4700596493294	0.6083451585100192	n/a	n/a	n/a	n/a
333.46875	0.2	682944	277	77	2	0	1	87	371	stimuli\Targets_short_600ms_horflip\hand-stroke_short_horflip_short_600ms.mp4	hand-stroke_short_horflip_short_600ms.mp4	335.66172868396416	336.2700486232502	0.6083199392860479	n/a	n/a	n/a	n/a
334.26904296875	0.2	684583	278	77	2	0	0	88	214	stimuli\Videos_short_600ms_horvertflip\40.repeated_push_with_finger_short_horvertflip_short_600ms.mp4	40.repeated_push_with_finger_short_horvertflip_short_600ms.mp4	336.4617634043839	337.07002879976744	0.6082653953835688	n/a	n/a	n/a	n/a
335.06884765625	0.2	686221	279	77	2	0	0	89	107	stimuli\Videos_short_600ms_horflip\25.single_touch_with_stanley_knife_short_horflip_short_600ms.mp4	25.single_touch_with_stanley_knife_short_horflip_short_600ms.mp4	337.2617620554488	337.87002451836406	0.6082624629152633	n/a	n/a	n/a	n/a
335.86865234375	0.2	687859	280	77	2	0	0	90	85	stimuli\Videos_short_600ms\87.single_stroke_top_to_bottom_with_plastic_brush_short_short_600ms.mp4	87.single_stroke_top_to_bottom_with_plastic_brush_short_short_600ms.mp4	338.0618879756207	338.6699873933203	0.6080994176995773	n/a	n/a	n/a	n/a
336.6689453125	0.2	689498	281	77	2	0	0	91	302	stimuli\Videos_short_600ms_vertflip\39.single_stab_with_scissors_short_vertflip_short_600ms.mp4	39.single_stab_with_scissors_short_vertflip_short_600ms.mp4	338.8616511495129	339.46997519425395	0.608324044741039	n/a	n/a	n/a	n/a
337.46875	0.2	691136	282	77	2	0	0	92	209	stimuli\Videos_short_600ms_horvertflip\36.single_slap_with_full_hand_short_horvertflip_short_600ms.mp4	36.single_slap_with_full_hand_short_horvertflip_short_600ms.mp4	339.66165302629224	340.269962408694	0.6083093824017851	n/a	n/a	n/a	n/a
338.2685546875	0.2	692774	283	77	2	0	0	93	304	stimuli\Videos_short_600ms_vertflip\40.repeated_push_with_finger_short_vertflip_short_600ms.mp4	40.repeated_push_with_finger_short_vertflip_short_600ms.mp4	340.4616484516423	341.0699877452166	0.6083392935743177	n/a	n/a	n/a	n/a
339.06884765625	0.2	694413	284	77	2	0	0	94	354	stimuli\Videos_short_600ms_vertflip\86.touch_top_to_bottom_with_hair_brush_short_vertflip_short_600ms.mp4	86.touch_top_to_bottom_with_hair_brush_short_vertflip_short_600ms.mp4	341.2616339066012	341.86996909472055	0.6083351881193266	n/a	n/a	n/a	n/a
339.86865234375	0.2	696051	285	77	2	0	0	95	13	stimuli\Videos_short_600ms\21.repeated_touch_with_metal_chopstick_short_short_600ms.mp4	21.repeated_touch_with_metal_chopstick_short_short_600ms.mp4	342.061626985977	342.6699595348755	0.6083325488984883	6.0	6.0	1.9695269665353408	1.0
375.1259765625	0.2	768258	286	77	3	0	0	0	235	stimuli\Videos_short_600ms_horvertflip\6.single_touch_with_flat_hand_short_horvertflip_short_600ms.mp4	6.single_touch_with_flat_hand_short_horvertflip_short_600ms.mp4	377.3194046972858	377.9277498557958	0.6083451585100192	n/a	n/a	n/a	n/a
375.92578125	0.2	769896	287	77	3	0	0	1	331	stimuli\Videos_short_600ms_vertflip\65.stroke_top_to_bottom_with_stanley_knife_short_vertflip_short_600ms.mp4	65.stroke_top_to_bottom_with_stanley_knife_short_vertflip_short_600ms.mp4	378.11938956575113	378.7277388297166	0.6083492639654651	n/a	n/a	n/a	n/a
376.72607421875	0.2	771535	288	77	3	0	0	2	137	stimuli\Videos_short_600ms_horflip\52.touch_top_to_bottom_with_hammer_short_horflip_short_600ms.mp4	52.touch_top_to_bottom_with_hammer_short_horflip_short_600ms.mp4	378.91941959422275	379.52772545766265	0.6083058634399094	n/a	n/a	n/a	n/a
377.52587890625	0.2	773173	289	77	3	0	0	3	154	stimuli\Videos_short_600ms_horflip\68.stroke_top_to_bottom_with_shawl_short_horflip_short_600ms.mp4	68.stroke_top_to_bottom_with_shawl_short_horflip_short_600ms.mp4	379.7193918530761	380.3277120856091	0.6083202325330603	n/a	n/a	n/a	n/a
378.32568359375	0.2	774811	290	77	3	0	1	4	372	stimuli\Targets_short_600ms_horvertflip\brush-stroke_short_vertflip_short_600ms.mp4	brush-stroke_short_vertflip_short_600ms.mp4	380.5194740794764	381.12770076628294	0.6082266868065744	n/a	n/a	n/a	n/a
379.1259765625	0.2	776450	291	77	3	0	0	5	147	stimuli\Videos_short_600ms_horflip\61.single_hit_with_rolling_pin_short_horflip_short_600ms.mp4	61.single_hit_with_rolling_pin_short_horflip_short_600ms.mp4	381.3193563115651	381.92768563474874	0.6083293231836251	n/a	n/a	n/a	n/a
379.92578125	0.2	778088	292	77	3	0	0	6	225	stimuli\Videos_short_600ms_horvertflip\50.single_(long)hard_push_with_thumb_short_horvertflip_short_600ms.mp4	50.single_(long)hard_push_with_thumb_short_horvertflip_short_600ms.mp4	382.1193995361423	382.7276760749032	0.608276538760947	n/a	n/a	n/a	n/a
380.7255859375	0.2	779726	293	77	3	0	0	7	76	stimuli\Videos_short_600ms\79.long_with_soft_brush_all_over_the_hand_short_short_600ms.mp4	79.long_with_soft_brush_all_over_the_hand_short_short_600ms.mp4	382.91935009473355	383.5276624096032	0.6083123148696359	n/a	n/a	n/a	n/a
381.52587890625	0.2	781365	294	77	3	0	0	8	52	stimuli\Videos_short_600ms\57.single_touch_with_nail_file_short_short_600ms.mp4	57.single_touch_with_nail_file_short_short_600ms.mp4	383.7193302712503	384.3276490375493	0.6083187662989076	n/a	n/a	n/a	n/a
382.32568359375	0.2	783003	295	77	3	0	0	9	188	stimuli\Videos_short_600ms_horvertflip\17.repeated_touch_with_rolling_pin_short_horvertflip_short_600ms.mp4	17.repeated_touch_with_rolling_pin_short_horvertflip_short_600ms.mp4	384.5193157262097	385.12763742497646	0.6083216987667583	n/a	n/a	n/a	n/a
383.12548828125	0.2	784641	296	77	3	0	0	10	357	stimuli\Videos_short_600ms_vertflip\89.single_touch_with_plastic_brush_short_vertflip_short_600ms.mp4	89.single_touch_with_plastic_brush_short_vertflip_short_600ms.mp4	385.31935572507155	385.92762551915666	0.6082697940851176	n/a	n/a	n/a	n/a
383.92578125	0.2	786280	297	77	3	0	0	11	305	stimuli\Videos_short_600ms_vertflip\41.injection_with_blunt_syringe_short_vertflip_short_600ms.mp4	41.injection_with_blunt_syringe_short_vertflip_short_600ms.mp4	386.1193010052207	386.7276159593111	0.6083149540904742	n/a	n/a	n/a	n/a
384.7255859375	0.2	787918	298	77	3	0	0	12	353	stimuli\Videos_short_600ms_vertflip\85.touch_top_to_bottom_with_fabric_short_vertflip_short_600ms.mp4	85.touch_top_to_bottom_with_fabric_short_vertflip_short_600ms.mp4	386.91926593290464	387.5276031737512	0.6083372408465948	n/a	n/a	n/a	n/a
385.525390625	0.2	789556	299	77	3	0	0	13	46	stimuli\Videos_short_600ms\51.repeated_touch_with_hammer_short_short_600ms.mp4	51.repeated_touch_with_hammer_short_short_600ms.mp4	387.7193302712503	388.3275856962427	0.6082554249924215	n/a	n/a	n/a	n/a
386.32568359375	0.2	791195	300	77	3	0	0	14	286	stimuli\Videos_short_600ms_vertflip\24.single_stroke_top_to_bottom_with_a_spoon_short_vertflip_short_600ms.mp4	24.single_stroke_top_to_bottom_with_a_spoon_short_vertflip_short_600ms.mp4	388.51927936360744	389.1275837608137	0.6083043972062114	n/a	n/a	n/a	n/a
387.12548828125	0.2	792833	301	77	3	0	0	15	34	stimuli\Videos_short_600ms\40.repeated_push_with_finger_short_short_600ms.mp4	40.repeated_push_with_finger_short_short_600ms.mp4	389.31935748455226	389.9275407708342	0.6081832862819283	n/a	n/a	n/a	n/a
387.92529296875	0.2	794471	302	77	3	0	0	16	218	stimuli\Videos_short_600ms_horvertflip\44.pushing_top_to_bottom_with_finger_short_horvertflip_short_600ms.mp4	44.pushing_top_to_bottom_with_finger_short_horvertflip_short_600ms.mp4	390.1192388369009	390.72755906943394	0.6083202325330603	n/a	n/a	n/a	n/a
388.7255859375	0.2	796110	303	77	3	0	0	17	120	stimuli\Videos_short_600ms_horflip\37.single_stab_with_nail_file_short_horflip_short_600ms.mp4	37.single_stab_with_nail_file_short_horflip_short_600ms.mp4	390.9192152012097	391.5275366067299	0.6083214055202006	n/a	n/a	n/a	n/a
389.525390625	0.2	797748	304	77	3	0	0	18	294	stimuli\Videos_short_600ms_vertflip\31.hand_grabbing_wrist_short_vertflip_short_600ms.mp4	31.hand_grabbing_wrist_short_vertflip_short_600ms.mp4	391.7192062278582	392.3275282198715	0.608321992013316	n/a	n/a	n/a	n/a
390.3251953125	0.2	799386	305	77	3	0	0	19	344	stimuli\Videos_short_600ms_vertflip\77.tapping_with_all_fingers_short_vertflip_short_600ms.mp4	77.tapping_with_all_fingers_short_vertflip_short_600ms.mp4	392.5191902165834	393.1275171937923	0.6083269772088897	n/a	n/a	n/a	n/a
391.12548828125	0.2	801025	306	77	3	0	0	20	229	stimuli\Videos_short_600ms_horvertflip\54.repeated_touch_with_knife_short_horvertflip_short_600ms.mp4	54.repeated_touch_with_knife_short_horvertflip_short_600ms.mp4	393.31918094998446	393.9275061677131	0.608325217728634	n/a	n/a	n/a	n/a
391.92529296875	0.2	802663	307	77	3	0	0	21	276	stimuli\Videos_short_600ms_vertflip\15.single_stroke_top_to_bottom_with_a_plastic_whisk_short_vertflip_short_600ms.mp4	15.single_stroke_top_to_bottom_with_a_plastic_whisk_short_vertflip_short_600ms.mp4	394.119142358707	394.727491915919	0.6083495572120228	n/a	n/a	n/a	n/a
392.7255859375	0.2	804302	308	77	3	0	0	22	51	stimuli\Videos_short_600ms\56.repeated_touch_with_nail_file_short_short_600ms.mp4	56.repeated_touch_with_nail_file_short_short_600ms.mp4	394.9194764841	395.52748030334624	0.608003819246278	n/a	n/a	n/a	n/a
393.525390625	0.2	805940	309	77	3	0	0	23	263	stimuli\Videos_short_600ms_horvertflip\85.touch_top_to_bottom_with_fabric_short_horvertflip_short_600ms.mp4	85.touch_top_to_bottom_with_fabric_short_horvertflip_short_600ms.mp4	395.7191851140892	396.3274663447987	0.6082812307095082	n/a	n/a	n/a	n/a
394.3251953125	0.2	807578	310	77	3	0	0	24	139	stimuli\Videos_short_600ms_horflip\54.repeated_touch_with_knife_short_horflip_short_600ms.mp4	54.repeated_touch_with_knife_short_horflip_short_600ms.mp4	396.5191292212507	397.12745678495367	0.6083275637029146	n/a	n/a	n/a	n/a
395.12548828125	0.2	809217	311	77	3	0	0	25	87	stimuli\Videos_short_600ms\89.single_touch_with_plastic_brush_short_short_600ms.mp4	89.single_touch_with_plastic_brush_short_short_600ms.mp4	397.31911731543096	397.9274519170567	0.6083346016257565	n/a	n/a	n/a	n/a
395.92529296875	0.2	810855	312	77	3	0	0	26	295	stimuli\Videos_short_600ms_vertflip\32.single_(long)pinch_with_fingers_short_vertflip_short_600ms.mp4	32.single_(long)pinch_with_fingers_short_vertflip_short_600ms.mp4	398.11910628935175	398.72743385305466	0.6083275637029146	n/a	n/a	n/a	n/a
396.72509765625	0.2	812493	313	77	3	0	0	27	60	stimuli\Videos_short_600ms\64.repeated_touch_with_screwdriver_short_short_600ms.mp4	64.repeated_touch_with_screwdriver_short_short_600ms.mp4	398.919086172622	399.5274204810007	0.608334308378744	n/a	n/a	n/a	n/a
397.525390625	0.2	814132	314	77	3	0	0	28	186	stimuli\Videos_short_600ms_horvertflip\15.single_stroke_top_to_bottom_with_a_plastic_whisk_short_horvertflip_short_600ms.mp4	15.single_stroke_top_to_bottom_with_a_plastic_whisk_short_horvertflip_short_600ms.mp4	399.7191915655185	400.32740652245366	0.6082149569351714	n/a	n/a	n/a	n/a
398.3251953125	0.2	815770	315	77	3	0	0	29	222	stimuli\Videos_short_600ms_horvertflip\48.single_slap_with_hand_short_horvertflip_short_600ms.mp4	48.single_slap_with_hand_short_horvertflip_short_600ms.mp4	400.51915150800687	401.12739461663386	0.6082431086269935	n/a	n/a	n/a	n/a
399.125	0.2	817408	316	77	3	0	0	30	187	stimuli\Videos_short_600ms_horvertflip\16.repeated_touch_with_plastic_brush_short_horvertflip_short_600ms.mp4	16.repeated_touch_with_plastic_brush_short_horvertflip_short_600ms.mp4	401.3190407780189	401.9273906284775	0.6083498504585805	n/a	n/a	n/a	n/a
399.92529296875	0.2	819047	317	77	3	0	0	31	224	stimuli\Videos_short_600ms_horvertflip\5.repeated_tap_with_finger_moving_from_top_to_bottom_short_horvertflip_short_600ms.mp4	5.repeated_tap_with_finger_moving_from_top_to_bottom_short_horvertflip_short_600ms.mp4	402.11906552804794	402.7273696320076	0.6083041039596537	n/a	n/a	n/a	n/a
400.72509765625	0.2	820685	318	77	3	0	0	32	133	stimuli\Videos_short_600ms_horflip\49.repeated_slap_with_hand_short_horflip_short_600ms.mp4	49.repeated_slap_with_hand_short_horflip_short_600ms.mp4	402.9190688710614	403.52736065865565	0.6082917875942258	n/a	n/a	n/a	n/a
401.52490234375	0.2	822323	319	77	3	0	0	33	249	stimuli\Videos_short_600ms_horvertflip\72.(short)stroke_with_finger_all_over_the_hand_short_horvertflip_short_600ms.mp4	72.(short)stroke_with_finger_all_over_the_hand_short_horvertflip_short_600ms.mp4	403.7191789559065	404.32734933932943	0.6081703834229302	n/a	n/a	n/a	n/a
402.3251953125	0.2	823962	320	77	3	0	0	34	104	stimuli\Videos_short_600ms_horflip\22.single_touch_with_metal_chopstick_short_horflip_short_600ms.mp4	22.single_touch_with_metal_chopstick_short_horflip_short_600ms.mp4	404.51905532305955	405.12732922259966	0.6082738995401087	n/a	n/a	n/a	n/a
403.125	0.2	825600	321	77	3	0	0	35	272	stimuli\Videos_short_600ms_vertflip\11.single_touch_with_lighter_short_vertflip_short_600ms.mp4	11.single_touch_with_lighter_short_vertflip_short_600ms.mp4	405.3190228899648	405.92729620301134	0.6082733130465385	n/a	n/a	n/a	n/a
403.9248046875	0.2	827238	322	77	3	0	0	36	141	stimuli\Videos_short_600ms_horflip\56.repeated_touch_with_nail_file_short_horflip_short_600ms.mp4	56.repeated_touch_with_nail_file_short_horflip_short_600ms.mp4	406.11905790363153	406.72730453121994	0.6082466275884144	n/a	n/a	n/a	n/a
404.72509765625	0.2	828877	323	77	3	0	0	37	57	stimuli\Videos_short_600ms\61.single_hit_with_rolling_pin_short_short_600ms.mp4	61.single_hit_with_rolling_pin_short_short_600ms.mp4	406.9189709266334	407.5272981970893	0.6083272704559022	n/a	n/a	n/a	n/a
405.52490234375	0.2	830515	324	77	3	0	1	38	369	stimuli\Targets_short_600ms_horflip\finger-tap_short_horflip_short_600ms.mp4	finger-tap_short_horflip_short_600ms.mp4	407.7192654637097	408.32728365204866	0.6080181883389741	n/a	n/a	n/a	n/a
406.32470703125	0.2	832153	325	77	3	0	0	39	16	stimuli\Videos_short_600ms\24.single_stroke_top_to_bottom_with_a_spoon_short_short_600ms.mp4	24.single_stroke_top_to_bottom_with_a_spoon_short_short_600ms.mp4	408.5189482879814	409.12728083687944	0.6083325488980336	n/a	n/a	n/a	n/a
407.125	0.2	833792	326	77	3	0	0	40	63	stimuli\Videos_short_600ms\67.single_touch_with_sponge_short_short_600ms.mp4	67.single_touch_with_sponge_short_short_600ms.mp4	409.31897567723126	409.9272615998898	0.6082859226585242	n/a	n/a	n/a	n/a
407.9248046875	0.2	835430	327	77	3	0	1	41	363	stimuli\Targets_short_600ms\finger-tap_short_short_600ms.mp4	finger-tap_short_short_600ms.mp4	410.1189203708868	410.7272605442013	0.6083401733144456	n/a	n/a	n/a	n/a
408.724609375	0.2	837068	328	77	3	0	0	42	131	stimuli\Videos_short_600ms_horflip\47.(long)scratching_with_finger_nails_short_horflip_short_600ms.mp4	47.(long)scratching_with_finger_nails_short_horflip_short_600ms.mp4	410.91896887390567	411.5272348557828	0.608265981877139	n/a	n/a	n/a	n/a
409.52490234375	0.2	838707	329	77	3	0	0	43	275	stimuli\Videos_short_600ms_vertflip\14.repeated_touch_with_pencil_short_vertflip_short_600ms.mp4	14.repeated_touch_with_pencil_short_vertflip_short_600ms.mp4	411.7188748589847	412.327231160873	0.6083563018883069	n/a	n/a	n/a	n/a
410.32470703125	0.2	840345	330	77	3	0	0	44	73	stimuli\Videos_short_600ms\76.tickle_with_fingers_from_top_to_bottom_short_short_600ms.mp4	76.tickle_with_fingers_from_top_to_bottom_short_short_600ms.mp4	412.51892658771885	413.1272110441432	0.6082844564243715	n/a	n/a	n/a	n/a
411.12451171875	0.2	841983	331	77	3	0	0	45	196	stimuli\Videos_short_600ms_horvertflip\24.single_stroke_top_to_bottom_with_a_spoon_short_horvertflip_short_600ms.mp4	24.single_stroke_top_to_bottom_with_a_spoon_short_horvertflip_short_600ms.mp4	413.3188885829345	413.92719708559616	0.6083085026616573	n/a	n/a	n/a	n/a
411.9248046875	0.2	843622	332	77	3	0	0	46	7	stimuli\Videos_short_600ms\16.repeated_touch_with_plastic_brush_short_short_600ms.mp4	16.repeated_touch_with_plastic_brush_short_short_600ms.mp4	414.11887638386816	414.7271863527635	0.6083099688953553	n/a	n/a	n/a	n/a
412.724609375	0.2	845260	333	77	3	0	0	47	6	stimuli\Videos_short_600ms\15.single_stroke_top_to_bottom_with_a_plastic_whisk_short_short_600ms.mp4	15.single_stroke_top_to_bottom_with_a_plastic_whisk_short_short_600ms.mp4	414.918827528953	415.52717649967144	0.6083489707184526	n/a	n/a	n/a	n/a
413.52490234375	0.2	846899	334	77	3	0	1	48	368	stimuli\Targets_short_600ms_horflip\chopstickwood-tap_short_horflip_short_600ms.mp4	chopstickwood-tap_short_horflip_short_600ms.mp4	415.7188156231332	416.3271663533323	0.6083507301991631	n/a	n/a	n/a	n/a
414.32470703125	0.2	848537	335	77	3	0	0	49	355	stimuli\Videos_short_600ms_vertflip\87.single_stroke_top_to_bottom_with_plastic_brush_short_vertflip_short_600ms.mp4	87.single_stroke_top_to_bottom_with_plastic_brush_short_vertflip_short_600ms.mp4	416.5188438921237	417.127149755564	0.6083058634403642	n/a	n/a	n/a	n/a
415.12451171875	0.2	850175	336	77	3	0	0	50	146	stimuli\Videos_short_600ms_horflip\60.single_push_with_tip_of_pencil_short_horflip_short_600ms.mp4	60.single_push_with_tip_of_pencil_short_horflip_short_600ms.mp4	417.31882289565374	417.9271378497442	0.6083149540904742	n/a	n/a	n/a	n/a
415.9248046875	0.2	851814	337	77	3	0	1	51	361	stimuli\Targets_short_600ms\chopstick-silver-tap_short_short_600ms.mp4	chopstick-silver-tap_short_short_600ms.mp4	418.11881890749737	418.72712477093773	0.6083058634403642	n/a	n/a	n/a	n/a
416.724609375	0.2	853452	338	77	3	0	0	52	255	stimuli\Videos_short_600ms_horvertflip\78.single_stroke_top_to_bottom_with_soft_brush_short_horvertflip_short_600ms.mp4	78.single_stroke_top_to_bottom_with_soft_brush_short_horvertflip_short_600ms.mp4	418.9187773837516	419.5271093461565	0.6083319624049182	n/a	n/a	n/a	n/a
417.5244140625	0.2	855090	339	77	3	0	0	53	251	stimuli\Videos_short_600ms_horvertflip\74.fingers_walking_from_top_to_bottom_short_horvertflip_short_600ms.mp4	74.fingers_walking_from_top_to_bottom_short_horvertflip_short_600ms.mp4	419.7187643049451	420.3270792590356	0.6083149540904742	n/a	n/a	n/a	n/a
418.32470703125	0.2	856729	340	77	3	0	0	54	162	stimuli\Videos_short_600ms_horflip\75.(long)stroke_with_fingers_all_over_the_hand_short_horflip_short_600ms.mp4	75.(long)stroke_with_fingers_all_over_the_hand_short_horflip_short_600ms.mp4	420.5188233648487	421.12708494802337	0.6082615831746807	n/a	n/a	n/a	n/a
419.12451171875	0.2	858367	341	77	3	0	0	55	223	stimuli\Videos_short_600ms_horvertflip\49.repeated_slap_with_hand_short_horvertflip_short_600ms.mp4	49.repeated_slap_with_hand_short_horvertflip_short_600ms.mp4	421.31876717876366	421.9270504622009	0.6082832834372311	n/a	n/a	n/a	n/a
419.92431640625	0.2	860005	342	77	3	0	0	56	80	stimuli\Videos_short_600ms\82.repeated_touch_with_cotton_bud_short_short_600ms.mp4	82.repeated_touch_with_cotton_bud_short_short_600ms.mp4	422.11873709164274	422.7270740392428	0.6083369476000371	n/a	n/a	n/a	n/a
420.724609375	0.2	861644	343	77	3	0	0	57	248	stimuli\Videos_short_600ms_horvertflip\71.single_stroke_with_finger_top_to_bottom_short_horvertflip_short_600ms.mp4	71.single_stroke_with_finger_top_to_bottom_short_horvertflip_short_600ms.mp4	422.91872518582295	423.52705069679814	0.6083255109751917	n/a	n/a	n/a	n/a
421.5244140625	0.2	863282	344	77	3	0	0	58	21	stimuli\Videos_short_600ms\29.single_pinch_with_tweezers_short_short_600ms.mp4	29.single_pinch_with_tweezers_short_short_600ms.mp4	423.71871240026303	424.32704934786307	0.6083369476000371	n/a	n/a	n/a	n/a
422.32421875	0.2	864920	345	77	3	0	0	59	340	stimuli\Videos_short_600ms_vertflip\73.single_stroke_with_flat_hand_short_vertflip_short_600ms.mp4	73.single_stroke_with_flat_hand_short_vertflip_short_600ms.mp4	424.5187453612025	425.127026591912	0.6082812307095082	n/a	n/a	n/a	n/a
423.12451171875	0.2	866559	346	77	3	0	0	60	313	stimuli\Videos_short_600ms_vertflip\49.repeated_slap_with_hand_short_vertflip_short_600ms.mp4	49.repeated_slap_with_hand_short_vertflip_short_600ms.mp4	425.31870735641814	425.9270138063521	0.6083064499339343	n/a	n/a	n/a	n/a
423.92431640625	0.2	868197	347	77	3	0	0	61	325	stimuli\Videos_short_600ms_vertflip\6.single_touch_with_flat_hand_short_vertflip_short_600ms.mp4	6.single_touch_with_flat_hand_short_vertflip_short_600ms.mp4	426.1187045412489	426.7270019005323	0.6082973592833696	n/a	n/a	n/a	n/a
424.72412109375	0.2	869835	348	77	3	0	0	62	346	stimuli\Videos_short_600ms_vertflip\79.long_with_soft_brush_all_over_the_hand_short_vertflip_short_600ms.mp4	79.long_with_soft_brush_all_over_the_hand_short_vertflip_short_600ms.mp4	426.91870583153514	427.52699058120606	0.6082847496709292	n/a	n/a	n/a	n/a
425.5244140625	0.2	871474	349	77	3	0	0	63	79	stimuli\Videos_short_600ms\81.single_stroke_top_to_bottom_with_cotton_pad_short_short_600ms.mp4	81.single_stroke_top_to_bottom_with_cotton_pad_short_short_600ms.mp4	427.7188294057323	428.3269772091526	0.6081478034202519	n/a	n/a	n/a	n/a
426.32421875	0.2	873112	350	77	3	0	0	64	100	stimuli\Videos_short_600ms_horflip\19.single_touch_with_rolling_pin_short_horflip_short_600ms.mp4	19.single_touch_with_rolling_pin_short_horflip_short_600ms.mp4	428.5186371531367	429.12696618307336	0.6083290299366126	n/a	n/a	n/a	n/a
427.1240234375	0.2	874750	351	77	3	0	0	65	1	stimuli\Videos_short_600ms\10.single_touch_with_knife_short_short_600ms.mp4	10.single_touch_with_knife_short_short_600ms.mp4	429.31862612705754	429.92695369076	0.6083275637024599	n/a	n/a	n/a	n/a
427.92431640625	0.2	876389	352	77	3	0	0	66	199	stimuli\Videos_short_600ms_horvertflip\27.single_push_with_a_plastic_whisk_short_horvertflip_short_600ms.mp4	27.single_push_with_a_plastic_whisk_short_horvertflip_short_600ms.mp4	430.11859985214505	430.7269409052001	0.6083410530550282	n/a	n/a	n/a	n/a
428.72412109375	0.2	878027	353	77	3	0	0	67	124	stimuli\Videos_short_600ms_horflip\40.repeated_push_with_finger_short_horflip_short_600ms.mp4	40.repeated_push_with_finger_short_horflip_short_600ms.mp4	430.9185806151554	431.5269372102902	0.6083565951348646	n/a	n/a	n/a	n/a
429.52392578125	0.2	879665	354	77	3	0	0	68	30	stimuli\Videos_short_600ms\37.single_stab_with_nail_file_short_short_600ms.mp4	37.single_stab_with_nail_file_short_short_600ms.mp4	431.7186203207707	432.3269162138204	0.6082958930496716	n/a	n/a	n/a	n/a
430.32421875	0.2	881304	355	77	3	0	0	69	134	stimuli\Videos_short_600ms_horflip\5.repeated_tap_with_finger_moving_from_top_to_bottom_short_horflip_short_600ms.mp4	5.repeated_tap_with_finger_moving_from_top_to_bottom_short_horflip_short_600ms.mp4	432.51857762403824	433.12690342826	0.6083258042217494	n/a	n/a	n/a	n/a
431.1240234375	0.2	882942	356	77	3	0	0	70	226	stimuli\Videos_short_600ms_horvertflip\51.repeated_touch_with_hammer_short_horvertflip_short_600ms.mp4	51.repeated_touch_with_hammer_short_horvertflip_short_600ms.mp4	433.31860149432714	433.9268780330881	0.608276538760947	n/a	n/a	n/a	n/a
431.92431640625	0.2	884581	357	77	3	0	0	71	301	stimuli\Videos_short_600ms_vertflip\38.double_slap_with_pencil_short_vertflip_short_600ms.mp4	38.double_slap_with_pencil_short_vertflip_short_600ms.mp4	434.11855410564567	434.7268711124638	0.6083170068181971	n/a	n/a	n/a	n/a
432.72412109375	0.2	886219	358	77	3	0	0	72	289	stimuli\Videos_short_600ms_vertflip\27.single_push_with_a_plastic_whisk_short_vertflip_short_600ms.mp4	27.single_push_with_a_plastic_whisk_short_vertflip_short_600ms.mp4	434.9185228455376	435.5268410253434	0.6083181798057922	n/a	n/a	n/a	n/a
433.52392578125	0.2	887857	359	77	3	0	0	73	55	stimuli\Videos_short_600ms\6.single_touch_with_flat_hand_short_short_600ms.mp4	6.single_touch_with_flat_hand_short_short_600ms.mp4	435.7185297075125	436.3268291195236	0.6082994120110925	n/a	n/a	n/a	n/a
