onset	duration	onsetsample	eventnumber	subjectnr	sequencenumber	blocksequencenumber	istarget	presentationnumber	stimnumber	stim	stimname	time_stimon	time_stimoff	stimdur	cresp	resp	rt	correct
92.35498046875	0.2	189143	0	62	0	0	0	0	153	stimuli\Videos_short_600ms_horflip\67.single_touch_with_sponge_short_horflip_short_600ms.mp4	67.single_touch_with_sponge_short_horflip_short_600ms.mp4	63.32009634860151	63.9280725558674	0.6079762072658923	n/a	n/a	n/a	n/a
93.15478515625	0.2	190781	1	62	0	0	0	1	98	stimuli\Videos_short_600ms_horflip\17.repeated_touch_with_rolling_pin_short_horflip_short_600ms.mp4	17.repeated_touch_with_rolling_pin_short_horflip_short_600ms.mp4	64.11982814666044	64.72805185276593	0.6082237061054911	n/a	n/a	n/a	n/a
93.955078125	0.2	192420	2	62	0	0	0	2	74	stimuli\Videos_short_600ms\77.tapping_with_all_fingers_short_short_600ms.mp4	77.tapping_with_all_fingers_short_short_600ms.mp4	64.92027898162996	65.52803525509444	0.6077562734644744	n/a	n/a	n/a	n/a
94.7548828125	0.2	194058	3	62	0	0	0	3	11	stimuli\Videos_short_600ms\2.single_touch_with_finger_short_short_600ms.mp4	2.single_touch_with_finger_short_short_600ms.mp4	65.72028848277114	66.32802276285656	0.607734280085424	n/a	n/a	n/a	n/a
95.5546875	0.2	195696	4	62	0	0	0	4	76	stimuli\Videos_short_600ms\79.long_with_soft_brush_all_over_the_hand_short_short_600ms.mp4	79.long_with_soft_brush_all_over_the_hand_short_short_600ms.mp4	66.51990180982102	67.12799824756803	0.6080964377470082	n/a	n/a	n/a	n/a
96.35498046875	0.2	197335	5	62	0	0	0	5	112	stimuli\Videos_short_600ms_horflip\3.single_push_with_finger_short_horflip_short_600ms.mp4	3.single_push_with_finger_short_horflip_short_600ms.mp4	67.31981248737065	67.92794147532186	0.6081289879512042	n/a	n/a	n/a	n/a
97.15478515625	0.2	198973	6	62	0	0	0	6	271	stimuli\Videos_short_600ms_vertflip\10.single_touch_with_knife_short_vertflip_short_600ms.mp4	10.single_touch_with_knife_short_vertflip_short_600ms.mp4	68.11972316492393	68.72794540480754	0.6082222398836166	n/a	n/a	n/a	n/a
97.95458984375	0.2	200611	7	62	0	0	0	7	9	stimuli\Videos_short_600ms\18.single_stroke_from_top_to_bottom_with_rolling_pin_short_short_600ms.mp4	18.single_stroke_from_top_to_bottom_with_rolling_pin_short_short_600ms.mp4	68.91963589519219	69.52793496528102	0.6082990700888331	n/a	n/a	n/a	n/a
98.7548828125	0.2	202250	8	62	0	0	0	8	65	stimuli\Videos_short_600ms\69.stroke_with_soft_sock_short_short_600ms.mp4	69.stroke_with_soft_sock_short_short_600ms.mp4	69.71964686255524	70.32792071357107	0.6082738510158379	n/a	n/a	n/a	n/a
99.5546875	0.2	203888	9	62	0	0	1	9	381	stimuli\Targets_short_600ms_vertflip\finger-tap_short_horvertflip_short_600ms.mp4	finger-tap_short_horvertflip_short_600ms.mp4	70.51965812316848	71.12792552278916	0.6082673996206722	n/a	n/a	n/a	n/a
100.3544921875	0.2	205526	10	62	0	0	0	10	174	stimuli\Videos_short_600ms_horflip\86.touch_top_to_bottom_with_hair_brush_short_horflip_short_600ms.mp4	86.touch_top_to_bottom_with_hair_brush_short_horflip_short_600ms.mp4	71.31970633265519	71.92790921836422	0.6082028857090336	n/a	n/a	n/a	n/a
101.15478515625	0.2	207165	11	62	0	0	0	11	20	stimuli\Videos_short_600ms\28.single_injection_with_sharp_needle_short_short_600ms.mp4	28.single_injection_with_sharp_needle_short_short_600ms.mp4	72.11955161655715	72.72788558281172	0.6083339662545768	n/a	n/a	n/a	n/a
101.95458984375	0.2	208803	12	62	0	0	0	12	135	stimuli\Videos_short_600ms_horflip\50.single_(long)hard_push_with_thumb_short_horflip_short_600ms.mp4	50.single_(long)hard_push_with_thumb_short_horflip_short_600ms.mp4	72.91984996409155	73.5278660526892	0.6080160885976511	n/a	n/a	n/a	n/a
102.75439453125	0.2	210441	13	62	0	0	0	13	335	stimuli\Videos_short_600ms_vertflip\69.stroke_with_soft_sock_short_vertflip_short_600ms.mp4	69.stroke_with_soft_sock_short_vertflip_short_600ms.mp4	73.7196228164612	74.32785033475375	0.6082275182925514	n/a	n/a	n/a	n/a
103.5546875	0.2	212080	14	62	0	0	0	14	34	stimuli\Videos_short_600ms\40.repeated_push_with_finger_short_short_600ms.mp4	40.repeated_push_with_finger_short_short_600ms.mp4	74.51951384659333	75.12783578979725	0.6083219432039186	n/a	n/a	n/a	n/a
104.3544921875	0.2	213718	15	62	0	0	0	15	329	stimuli\Videos_short_600ms_vertflip\63.stroke_top_to_bottom_with_screwdriver_short_vertflip_short_600ms.mp4	63.stroke_top_to_bottom_with_screwdriver_short_vertflip_short_600ms.mp4	75.31947320282416	75.92781860563628	0.6083454028121196	n/a	n/a	n/a	n/a
105.154296875	0.2	215356	16	62	0	0	0	16	357	stimuli\Videos_short_600ms_vertflip\89.single_touch_with_plastic_brush_short_vertflip_short_600ms.mp4	89.single_touch_with_plastic_brush_short_vertflip_short_600ms.mp4	76.11952903668862	76.72779966200687	0.608270625318255	n/a	n/a	n/a	n/a
105.95458984375	0.2	216995	17	62	0	0	0	17	97	stimuli\Videos_short_600ms_horflip\16.repeated_touch_with_plastic_brush_short_horflip_short_600ms.mp4	16.repeated_touch_with_plastic_brush_short_horflip_short_600ms.mp4	76.9195464554432	77.52778130486331	0.6082348494201142	n/a	n/a	n/a	n/a
106.75439453125	0.2	218633	18	62	0	0	0	18	326	stimuli\Videos_short_600ms_vertflip\60.single_push_with_tip_of_pencil_short_vertflip_short_600ms.mp4	60.single_push_with_tip_of_pencil_short_vertflip_short_600ms.mp4	77.71989934656085	78.32776617341733	0.6078668268564797	n/a	n/a	n/a	n/a
107.55419921875	0.2	220271	19	62	0	0	0	19	262	stimuli\Videos_short_600ms_horvertflip\84.single_touch_with_cotton_bud_short_horvertflip_short_600ms.mp4	84.single_touch_with_cotton_bud_short_horvertflip_short_600ms.mp4	78.51938628498829	79.1277498689924	0.6083635840041097	n/a	n/a	n/a	n/a
108.3544921875	0.2	221910	20	62	0	0	0	20	152	stimuli\Videos_short_600ms_horflip\66.stroke_top_to_bottom_with_sponge_short_horflip_short_600ms.mp4	66.stroke_top_to_bottom_with_sponge_short_horflip_short_600ms.mp4	79.31944827699408	79.92773121860591	0.6082829416118329	n/a	n/a	n/a	n/a
109.154296875	0.2	223548	21	62	0	0	0	21	272	stimuli\Videos_short_600ms_vertflip\11.single_touch_with_lighter_short_vertflip_short_600ms.mp4	11.single_touch_with_lighter_short_vertflip_short_600ms.mp4	80.11935748832184	80.72771286146599	0.6083553731441498	n/a	n/a	n/a	n/a
109.9541015625	0.2	225186	22	62	0	0	0	22	282	stimuli\Videos_short_600ms_vertflip\20.single_touch_with_screwdriver_short_vertflip_short_600ms.mp4	20.single_touch_with_screwdriver_short_vertflip_short_600ms.mp4	80.91980744355533	81.52770007598156	0.6078926324262284	n/a	n/a	n/a	n/a
110.75439453125	0.2	226825	23	62	0	0	0	23	106	stimuli\Videos_short_600ms_horflip\24.single_stroke_top_to_bottom_with_a_spoon_short_horflip_short_600ms.mp4	24.single_stroke_top_to_bottom_with_a_spoon_short_horflip_short_600ms.mp4	81.7193113901958	82.32763450638231	0.6083231161865115	n/a	n/a	n/a	n/a
111.55419921875	0.2	228463	24	62	0	0	0	24	314	stimuli\Videos_short_600ms_vertflip\5.repeated_tap_with_finger_moving_from_top_to_bottom_short_vertflip_short_600ms.mp4	5.repeated_tap_with_finger_moving_from_top_to_bottom_short_vertflip_short_600ms.mp4	82.51996720347233	83.1276407818259	0.6076735783535696	n/a	n/a	n/a	n/a
112.35400390625	0.2	230101	25	62	0	0	0	25	277	stimuli\Videos_short_600ms_vertflip\16.repeated_touch_with_plastic_brush_short_vertflip_short_600ms.mp4	16.repeated_touch_with_plastic_brush_short_vertflip_short_600ms.mp4	83.31928171379332	83.92760043130329	0.6083187175099738	n/a	n/a	n/a	n/a
113.154296875	0.2	231740	26	62	0	0	0	26	55	stimuli\Videos_short_600ms\6.single_touch_with_flat_hand_short_short_600ms.mp4	6.single_touch_with_flat_hand_short_short_600ms.mp4	84.11930822314753	84.72760787972948	0.6082996565819485	n/a	n/a	n/a	n/a
113.9541015625	0.2	233378	27	62	0	0	0	27	236	stimuli\Videos_short_600ms_horvertflip\60.single_push_with_tip_of_pencil_short_horvertflip_short_600ms.mp4	60.single_push_with_tip_of_pencil_short_horvertflip_short_600ms.mp4	84.91931156614373	85.5275989064321	0.6082873402883706	n/a	n/a	n/a	n/a
114.75390625	0.2	235016	28	62	0	0	0	28	199	stimuli\Videos_short_600ms_horvertflip\27.single_push_with_a_plastic_whisk_short_horvertflip_short_600ms.mp4	27.single_push_with_a_plastic_whisk_short_horvertflip_short_600ms.mp4	85.71947179524796	86.32759902372709	0.6081272284791339	n/a	n/a	n/a	n/a
115.55419921875	0.2	236655	29	62	0	0	0	29	81	stimuli\Videos_short_600ms\83.single_stroke_top_to_bottom_with_cotton_bud_short_short_600ms.mp4	83.single_stroke_top_to_bottom_with_cotton_bud_short_short_600ms.mp4	86.51932998193297	87.12758682473213	0.6082568427991646	n/a	n/a	n/a	n/a
116.35400390625	0.2	238293	30	62	0	0	0	30	185	stimuli\Videos_short_600ms_horvertflip\14.repeated_touch_with_pencil_short_horvertflip_short_600ms.mp4	14.repeated_touch_with_pencil_short_horvertflip_short_600ms.mp4	87.31919960517553	87.9275634824262	0.6083638772506674	n/a	n/a	n/a	n/a
117.154296875	0.2	239932	31	62	0	0	0	31	202	stimuli\Videos_short_600ms_horvertflip\3.single_push_with_finger_short_horvertflip_short_600ms.mp4	3.single_push_with_finger_short_horvertflip_short_600ms.mp4	88.11920324141465	88.72754365906076	0.6083404176461045	n/a	n/a	n/a	n/a
117.9541015625	0.2	241570	32	62	0	0	0	32	42	stimuli\Videos_short_600ms\48.single_slap_with_hand_short_short_600ms.mp4	48.single_slap_with_hand_short_short_600ms.mp4	88.91961595452449	89.52752852761478	0.6079125730902888	n/a	n/a	n/a	n/a
118.75390625	0.2	243208	33	62	0	0	0	33	134	stimuli\Videos_short_600ms_horflip\5.repeated_tap_with_finger_moving_from_top_to_bottom_short_horflip_short_600ms.mp4	5.repeated_tap_with_finger_moving_from_top_to_bottom_short_horflip_short_600ms.mp4	89.71924716952708	90.32751046371776	0.6082632941906922	n/a	n/a	n/a	n/a
119.55419921875	0.2	244847	34	62	0	0	0	34	157	stimuli\Videos_short_600ms_horflip\70.(long)stroke_with_finger_all_over_the_hand_short_horflip_short_600ms.mp4	70.(long)stroke_with_finger_all_over_the_hand_short_horflip_short_600ms.mp4	90.51921708257942	91.12749386604628	0.608276783466863	n/a	n/a	n/a	n/a
120.35400390625	0.2	246485	35	62	0	0	0	35	49	stimuli\Videos_short_600ms\54.repeated_touch_with_knife_short_short_600ms.mp4	54.repeated_touch_with_knife_short_short_600ms.mp4	91.31919344702692	91.92747902784686	0.6082855808199383	n/a	n/a	n/a	n/a
121.15380859375	0.2	248123	36	62	0	0	0	36	221	stimuli\Videos_short_600ms_horvertflip\47.(long)scratching_with_finger_nails_short_horvertflip_short_600ms.mp4	47.(long)scratching_with_finger_nails_short_horvertflip_short_600ms.mp4	92.11918857915953	92.72746506937985	0.6082764902203053	n/a	n/a	n/a	n/a
121.9541015625	0.2	249762	37	62	0	0	0	37	7	stimuli\Videos_short_600ms\16.repeated_touch_with_plastic_brush_short_short_600ms.mp4	16.repeated_touch_with_plastic_brush_short_short_600ms.mp4	92.91949953623408	93.52744465952492	0.6079451232908468	n/a	n/a	n/a	n/a
122.75390625	0.2	251400	38	62	0	0	0	38	317	stimuli\Videos_short_600ms_vertflip\52.touch_top_to_bottom_with_hammer_short_vertflip_short_600ms.mp4	52.touch_top_to_bottom_with_hammer_short_vertflip_short_600ms.mp4	93.71913602964196	94.32742571589188	0.6082896862499183	n/a	n/a	n/a	n/a
123.5537109375	0.2	253038	39	62	0	0	0	39	36	stimuli\Videos_short_600ms\42.single_slap_with_plastic_whisk_short_short_600ms.mp4	42.single_slap_with_plastic_whisk_short_short_600ms.mp4	94.51904230851868	95.12740999795642	0.6083676894377277	n/a	n/a	n/a	n/a
124.35400390625	0.2	254677	40	62	0	0	0	40	345	stimuli\Videos_short_600ms_vertflip\78.single_stroke_top_to_bottom_with_soft_brush_short_vertflip_short_600ms.mp4	78.single_stroke_top_to_bottom_with_soft_brush_short_vertflip_short_600ms.mp4	95.3190535691283	95.92739779896148	0.6083442298331647	n/a	n/a	n/a	n/a
125.15380859375	0.2	256315	41	62	0	0	0	41	265	stimuli\Videos_short_600ms_horvertflip\87.single_stroke_top_to_bottom_with_plastic_brush_short_horvertflip_short_600ms.mp4	87.single_stroke_top_to_bottom_with_plastic_brush_short_horvertflip_short_600ms.mp4	96.1192809513559	96.72735217002992	0.6080712186740129	n/a	n/a	n/a	n/a
125.95361328125	0.2	257953	42	62	0	0	0	42	307	stimuli\Videos_short_600ms_vertflip\43.touch_top_to_bottom_with_sharp_wooden_stick_short_vertflip_short_600ms.mp4	43.touch_top_to_bottom_with_sharp_wooden_stick_short_vertflip_short_600ms.mp4	96.91917139499856	97.52737897262703	0.608207577628491	n/a	n/a	n/a	n/a
126.75390625	0.2	259592	43	62	0	0	1	43	362	stimuli\Targets_short_600ms\chopstickwood-tap_short_short_600ms.mp4	chopstickwood-tap_short_short_600ms.mp4	97.71911315652687	98.3273180949509	0.6082049384240236	n/a	n/a	n/a	n/a
127.5537109375	0.2	261230	44	62	0	0	0	44	319	stimuli\Videos_short_600ms_vertflip\54.repeated_touch_with_knife_short_vertflip_short_600ms.mp4	54.repeated_touch_with_knife_short_vertflip_short_600ms.mp4	98.51913673343006	99.12731352032642	0.6081767868963652	n/a	n/a	n/a	n/a
128.353515625	0.2	262868	45	62	0	0	0	45	252	stimuli\Videos_short_600ms_horvertflip\75.(long)stroke_with_fingers_all_over_the_hand_short_horvertflip_short_600ms.mp4	75.(long)stroke_with_fingers_all_over_the_hand_short_horvertflip_short_600ms.mp4	99.31954886005406	99.9272860725905	0.6077372125364491	n/a	n/a	n/a	n/a
129.15380859375	0.2	264507	46	62	0	0	0	46	171	stimuli\Videos_short_600ms_horflip\83.single_stroke_top_to_bottom_with_cotton_bud_short_horflip_short_600ms.mp4	83.single_stroke_top_to_bottom_with_cotton_bud_short_horflip_short_600ms.mp4	100.11926746208336	100.72727885876157	0.6080113966781937	n/a	n/a	n/a	n/a
129.95361328125	0.2	266145	47	62	0	0	0	47	263	stimuli\Videos_short_600ms_horvertflip\85.touch_top_to_bottom_with_fabric_short_horvertflip_short_600ms.mp4	85.touch_top_to_bottom_with_fabric_short_horvertflip_short_600ms.mp4	100.91942094655316	101.52727926930312	0.6078583227499621	n/a	n/a	n/a	n/a
130.75341796875	0.2	267783	48	62	0	0	0	48	173	stimuli\Videos_short_600ms_horflip\85.touch_top_to_bottom_with_fabric_short_horflip_short_600ms.mp4	85.touch_top_to_bottom_with_fabric_short_horflip_short_600ms.mp4	101.71897151915982	102.3272647243466	0.6082932051867829	n/a	n/a	n/a	n/a
131.5537109375	0.2	269422	49	62	0	0	0	49	285	stimuli\Videos_short_600ms_vertflip\23.single_push_with_a_spoon_short_vertflip_short_600ms.mp4	23.single_push_with_a_spoon_short_vertflip_short_600ms.mp4	102.5189393795008	103.12724343475566	0.6083040552548482	n/a	n/a	n/a	n/a
132.353515625	0.2	271060	50	62	0	0	0	50	41	stimuli\Videos_short_600ms\47.(long)scratching_with_finger_nails_short_short_600ms.mp4	47.(long)scratching_with_finger_nails_short_short_600ms.mp4	103.31888084778257	103.92723622092672	0.6083553731441498	n/a	n/a	n/a	n/a
133.1533203125	0.2	272698	51	62	0	0	0	51	295	stimuli\Videos_short_600ms_vertflip\32.single_(long)pinch_with_fingers_short_vertflip_short_600ms.mp4	32.single_(long)pinch_with_fingers_short_vertflip_short_600ms.mp4	104.11892113965588	104.72720672047215	0.6082855808163004	n/a	n/a	n/a	n/a
133.95361328125	0.2	274337	52	62	0	0	0	52	148	stimuli\Videos_short_600ms_horflip\62.touch_top_to_bottom_with_scissors_short_horflip_short_600ms.mp4	62.touch_top_to_bottom_with_scissors_short_horflip_short_600ms.mp4	104.91892096370792	105.52718807008569	0.6082671063777525	n/a	n/a	n/a	n/a
134.75341796875	0.2	275975	53	62	0	0	0	53	296	stimuli\Videos_short_600ms_vertflip\33.scratch_top_to_bottom_with_scissors_short_vertflip_short_600ms.mp4	33.scratch_top_to_bottom_with_scissors_short_vertflip_short_600ms.mp4	105.7188630184828	106.32717352513282	0.6083105066500138	n/a	n/a	n/a	n/a
135.55322265625	0.2	277613	54	62	0	0	0	54	146	stimuli\Videos_short_600ms_horflip\60.single_push_with_tip_of_pencil_short_horflip_short_600ms.mp4	60.single_push_with_tip_of_pencil_short_horflip_short_600ms.mp4	106.51891386717762	107.1271575139508	0.6082436467731895	n/a	n/a	n/a	n/a
136.353515625	0.2	279252	55	62	0	0	0	55	24	stimuli\Videos_short_600ms\31.hand_grabbing_wrist_short_short_600ms.mp4	31.hand_grabbing_wrist_short_short_600ms.mp4	107.31879580671377	107.92713798382827	0.6083421771145368	n/a	n/a	n/a	n/a
137.1533203125	0.2	280890	56	62	0	0	0	56	75	stimuli\Videos_short_600ms\78.single_stroke_top_to_bottom_with_soft_brush_short_short_600ms.mp4	78.single_stroke_top_to_bottom_with_soft_brush_short_short_600ms.mp4	108.1187580953956	108.72712431860782	0.6083662232122151	n/a	n/a	n/a	n/a
137.95361328125	0.2	282529	57	62	0	0	0	57	47	stimuli\Videos_short_600ms\52.touch_top_to_bottom_with_hammer_short_short_600ms.mp4	52.touch_top_to_bottom_with_hammer_short_short_600ms.mp4	108.9187447234217	109.52710566822134	0.6083609447996423	n/a	n/a	n/a	n/a
138.75341796875	0.2	284167	58	62	0	0	0	58	197	stimuli\Videos_short_600ms_horvertflip\25.single_touch_with_stanley_knife_short_horvertflip_short_600ms.mp4	25.single_touch_with_stanley_knife_short_horvertflip_short_600ms.mp4	109.718801143772	110.32708555160934	0.6082844078373455	n/a	n/a	n/a	n/a
139.55322265625	0.2	285805	59	62	0	0	0	59	191	stimuli\Videos_short_600ms_horvertflip\2.single_touch_with_finger_short_horvertflip_short_600ms.mp4	2.single_touch_with_finger_short_horvertflip_short_600ms.mp4	110.51897691486738	111.12707159314596	0.6080946782785759	n/a	n/a	n/a	n/a
140.353515625	0.2	287444	60	62	0	0	1	60	363	stimuli\Targets_short_600ms\finger-tap_short_short_600ms.mp4	finger-tap_short_short_600ms.mp4	111.3187817309481	111.9270324156023	0.6082506846541946	n/a	n/a	n/a	n/a
141.1533203125	0.2	289082	61	62	0	0	0	61	193	stimuli\Videos_short_600ms_horvertflip\21.repeated_touch_with_metal_chopstick_short_horvertflip_short_600ms.mp4	21.repeated_touch_with_metal_chopstick_short_horvertflip_short_600ms.mp4	112.11869710042085	112.72701992336442	0.6083228229435917	n/a	n/a	n/a	n/a
141.953125	0.2	290720	62	62	0	0	0	62	213	stimuli\Videos_short_600ms_horvertflip\4.repeated_tap_with_finger_slow_short_horvertflip_short_600ms.mp4	4.repeated_tap_with_finger_slow_short_horvertflip_short_600ms.mp4	112.91868607440848	113.52697752012682	0.6082914457183506	n/a	n/a	n/a	n/a
142.75341796875	0.2	292359	63	62	0	0	0	63	337	stimuli\Videos_short_600ms_vertflip\70.(long)stroke_with_finger_all_over_the_hand_short_vertflip_short_600ms.mp4	70.(long)stroke_with_finger_all_over_the_hand_short_vertflip_short_600ms.mp4	113.7188372129167	114.32698144960888	0.6081442366921692	n/a	n/a	n/a	n/a
143.55322265625	0.2	293997	64	62	0	0	0	64	225	stimuli\Videos_short_600ms_horvertflip\50.single_(long)hard_push_with_thumb_short_horvertflip_short_600ms.mp4	50.single_(long)hard_push_with_thumb_short_horvertflip_short_600ms.mp4	114.5186989185422	115.12695458836242	0.6082556698202097	n/a	n/a	n/a	n/a
144.35302734375	0.2	295635	65	62	0	0	0	65	16	stimuli\Videos_short_600ms\24.single_stroke_top_to_bottom_with_a_spoon_short_short_600ms.mp4	24.single_stroke_top_to_bottom_with_a_spoon_short_short_600ms.mp4	115.31871516431784	115.92695529215052	0.608240127832687	n/a	n/a	n/a	n/a
145.1533203125	0.2	297274	66	62	0	0	0	66	172	stimuli\Videos_short_600ms_horflip\84.single_touch_with_cotton_bud_short_horflip_short_600ms.mp4	84.single_touch_with_cotton_bud_short_horflip_short_600ms.mp4	116.11894401277095	116.72694074719402	0.6079967344230681	n/a	n/a	n/a	n/a
145.953125	0.2	298912	67	62	0	0	0	67	12	stimuli\Videos_short_600ms\20.single_touch_with_screwdriver_short_short_600ms.mp4	20.single_touch_with_screwdriver_short_short_600ms.mp4	116.91863329029366	117.52694731588416	0.6083140255905164	n/a	n/a	n/a	n/a
146.7529296875	0.2	300550	68	62	0	0	0	68	122	stimuli\Videos_short_600ms_horflip\39.single_stab_with_scissors_short_horflip_short_600ms.mp4	39.single_stab_with_scissors_short_horflip_short_600ms.mp4	117.71859264652812	118.32692162761668	0.6083289810885617	n/a	n/a	n/a	n/a
147.55322265625	0.2	302189	69	62	0	0	0	69	58	stimuli\Videos_short_600ms\62.touch_top_to_bottom_with_scissors_short_short_600ms.mp4	62.touch_top_to_bottom_with_scissors_short_short_600ms.mp4	118.51856461229907	119.12691470703066	0.608350094731577	n/a	n/a	n/a	n/a
148.35302734375	0.2	303827	70	62	0	0	0	70	324	stimuli\Videos_short_600ms_vertflip\59.single_push_with_long_side_pencil_short_vertflip_short_600ms.mp4	59.single_push_with_long_side_pencil_short_vertflip_short_600ms.mp4	119.31859991900636	119.92688608631217	0.6082861673057778	n/a	n/a	n/a	n/a
149.15283203125	0.2	305465	71	62	0	0	0	71	159	stimuli\Videos_short_600ms_horflip\72.(short)stroke_with_finger_all_over_the_hand_short_horflip_short_600ms.mp4	72.(short)stroke_with_finger_all_over_the_hand_short_horflip_short_600ms.mp4	120.11850854384102	120.72687154135927	0.6083629975182703	n/a	n/a	n/a	n/a
149.953125	0.2	307104	72	62	0	0	0	72	287	stimuli\Videos_short_600ms_vertflip\25.single_touch_with_stanley_knife_short_vertflip_short_600ms.mp4	25.single_touch_with_stanley_knife_short_vertflip_short_600ms.mp4	120.9189819586827	121.52685465044124	0.60787269175853	n/a	n/a	n/a	n/a
150.7529296875	0.2	308742	73	62	0	0	0	73	350	stimuli\Videos_short_600ms_vertflip\82.repeated_touch_with_cotton_bud_short_vertflip_short_600ms.mp4	82.repeated_touch_with_cotton_bud_short_vertflip_short_600ms.mp4	121.71859616546864	122.32684010548472	0.6082439400161093	n/a	n/a	n/a	n/a
151.552734375	0.2	310380	74	62	0	0	0	74	154	stimuli\Videos_short_600ms_horflip\68.stroke_top_to_bottom_with_shawl_short_horflip_short_600ms.mp4	68.stroke_top_to_bottom_with_shawl_short_horflip_short_600ms.mp4	122.5184646157286	123.12682057536584	0.6083559596372652	n/a	n/a	n/a	n/a
152.35302734375	0.2	312019	75	62	0	0	0	75	4	stimuli\Videos_short_600ms\13.single_touch_with_pen_short_short_600ms.mp4	13.single_touch_with_pen_short_short_600ms.mp4	123.31857323370424	123.92680192497936	0.6082286912751442	n/a	n/a	n/a	n/a
153.15283203125	0.2	313657	76	62	0	0	0	76	299	stimuli\Videos_short_600ms_vertflip\36.single_slap_with_full_hand_short_vertflip_short_600ms.mp4	36.single_slap_with_full_hand_short_vertflip_short_600ms.mp4	124.11847892609148	124.72678532730788	0.6083064012163959	n/a	n/a	n/a	n/a
153.95263671875	0.2	315295	77	62	0	0	0	77	127	stimuli\Videos_short_600ms_horflip\43.touch_top_to_bottom_with_sharp_wooden_stick_short_horflip_short_600ms.mp4	43.touch_top_to_bottom_with_sharp_wooden_stick_short_horflip_short_600ms.mp4	124.91850162325863	125.52676784990037	0.6082662266417174	n/a	n/a	n/a	n/a
154.7529296875	0.2	316934	78	62	0	0	0	78	161	stimuli\Videos_short_600ms_horflip\74.fingers_walking_from_top_to_bottom_short_horflip_short_600ms.mp4	74.fingers_walking_from_top_to_bottom_short_horflip_short_600ms.mp4	125.7183979317997	126.32674949276044	0.6083515609607275	n/a	n/a	n/a	n/a
155.552734375	0.2	318572	79	62	0	0	0	79	283	stimuli\Videos_short_600ms_vertflip\21.repeated_touch_with_metal_chopstick_short_vertflip_short_600ms.mp4	21.repeated_touch_with_metal_chopstick_short_vertflip_short_600ms.mp4	126.5184033275109	127.12673494780393	0.6083316202930291	n/a	n/a	n/a	n/a
156.3525390625	0.2	320210	80	62	0	0	0	80	294	stimuli\Videos_short_600ms_vertflip\31.hand_grabbing_wrist_short_vertflip_short_600ms.mp4	31.hand_grabbing_wrist_short_vertflip_short_600ms.mp4	127.31886061387196	127.92667817555775	0.6078175616858061	n/a	n/a	n/a	n/a
157.15283203125	0.2	321849	81	62	0	0	0	81	195	stimuli\Videos_short_600ms_horvertflip\23.single_push_with_a_spoon_short_horvertflip_short_600ms.mp4	23.single_push_with_a_spoon_short_horvertflip_short_600ms.mp4	128.11847159496392	128.7266791725924	0.608207577628491	n/a	n/a	n/a	n/a
157.95263671875	0.2	323487	82	62	0	0	0	82	332	stimuli\Videos_short_600ms_vertflip\66.stroke_top_to_bottom_with_sponge_short_vertflip_short_600ms.mp4	66.stroke_top_to_bottom_with_sponge_short_vertflip_short_600ms.mp4	128.91854003836124	129.52663999504875	0.6080999566875107	n/a	n/a	n/a	n/a
158.7529296875	0.2	325126	83	62	0	0	0	83	356	stimuli\Videos_short_600ms_vertflip\88.repeated_stroke_with_plastic_brush_short_vertflip_short_600ms.mp4	88.repeated_stroke_with_plastic_brush_short_vertflip_short_600ms.mp4	129.71899820446197	130.326649202947	0.6076509984850418	n/a	n/a	n/a	n/a
159.552734375	0.2	326764	84	62	0	0	0	84	84	stimuli\Videos_short_600ms\86.touch_top_to_bottom_with_hair_brush_short_short_600ms.mp4	86.touch_top_to_bottom_with_hair_brush_short_short_600ms.mp4	130.51869627933775	131.12663289851844	0.6079366191806912	n/a	n/a	n/a	n/a
160.3525390625	0.2	328402	85	62	0	0	0	85	216	stimuli\Videos_short_600ms_horvertflip\42.single_slap_with_plastic_whisk_short_horvertflip_short_600ms.mp4	42.single_slap_with_plastic_whisk_short_horvertflip_short_600ms.mp4	131.3186260178154	131.92661718058298	0.6079911627675756	n/a	n/a	n/a	n/a
161.15283203125	0.2	330041	86	62	0	0	0	86	1	stimuli\Videos_short_600ms\10.single_touch_with_knife_short_short_600ms.mp4	10.single_touch_with_knife_short_short_600ms.mp4	132.11833318329082	132.7266325466262	0.6082993633353908	n/a	n/a	n/a	n/a
161.95263671875	0.2	331679	87	62	0	0	0	87	212	stimuli\Videos_short_600ms_horvertflip\39.single_stab_with_scissors_short_horvertflip_short_600ms.mp4	39.single_stab_with_scissors_short_horvertflip_short_600ms.mp4	132.9182802232317	133.5266004069672	0.6083201837354864	n/a	n/a	n/a	n/a
162.75244140625	0.2	333317	88	62	0	0	0	88	344	stimuli\Videos_short_600ms_vertflip\77.tapping_with_all_fingers_short_vertflip_short_600ms.mp4	77.tapping_with_all_fingers_short_vertflip_short_600ms.mp4	133.7182621593347	134.32658410253862	0.6083219432039186	n/a	n/a	n/a	n/a
163.552734375	0.2	334956	89	62	0	0	0	89	217	stimuli\Videos_short_600ms_horvertflip\43.touch_top_to_bottom_with_sharp_wooden_stick_short_horvertflip_short_600ms.mp4	43.touch_top_to_bottom_with_sharp_wooden_stick_short_horvertflip_short_600ms.mp4	134.518304503923	135.12656985082867	0.6082653469056822	n/a	n/a	n/a	n/a
164.3525390625	0.2	336594	90	62	0	0	0	90	90	stimuli\Videos_short_600ms_horflip\1.repeated_touch_with_finger_fast_short_horflip_short_600ms.mp4	1.repeated_touch_with_finger_fast_short_horflip_short_600ms.mp4	135.31832778757962	135.92655032070616	0.6082225331265363	n/a	n/a	n/a	n/a
165.15234375	0.2	338232	91	62	0	0	0	91	188	stimuli\Videos_short_600ms_horvertflip\17.repeated_touch_with_rolling_pin_short_horvertflip_short_600ms.mp4	17.repeated_touch_with_rolling_pin_short_horvertflip_short_600ms.mp4	136.11826456394192	136.72653489601726	0.6082703320753353	n/a	n/a	n/a	n/a
165.95263671875	0.2	339871	92	62	0	0	0	92	250	stimuli\Videos_short_600ms_horvertflip\73.single_stroke_with_flat_hand_short_horvertflip_short_600ms.mp4	73.single_stroke_with_flat_hand_short_horvertflip_short_600ms.mp4	136.91817612123123	137.52651976457128	0.6083436433400493	3.0	3.0	2.9875801915295597	1.0
201.89306640625	0.2	413477	93	62	1	0	0	0	114	stimuli\Videos_short_600ms_horflip\31.hand_grabbing_wrist_short_horflip_short_600ms.mp4	31.hand_grabbing_wrist_short_horflip_short_600ms.mp4	172.859239726964	173.46742619094948	0.6081864639854757	n/a	n/a	n/a	n/a
202.69287109375	0.2	415115	94	62	1	0	0	1	119	stimuli\Videos_short_600ms_horflip\36.single_slap_with_full_hand_short_horflip_short_600ms.mp4	36.single_slap_with_full_hand_short_horflip_short_600ms.mp4	173.65965918471557	174.26742425553311	0.6077650708175497	n/a	n/a	n/a	n/a
203.49267578125	0.2	416753	95	62	1	0	0	2	275	stimuli\Videos_short_600ms_vertflip\14.repeated_touch_with_pencil_short_vertflip_short_600ms.mp4	14.repeated_touch_with_pencil_short_vertflip_short_600ms.mp4	174.45991501171375	175.06739739428303	0.6074823825692874	n/a	n/a	n/a	n/a
204.29296875	0.2	418392	96	62	1	0	0	3	8	stimuli\Videos_short_600ms\17.repeated_touch_with_rolling_pin_short_short_600ms.mp4	17.repeated_touch_with_rolling_pin_short_short_600ms.mp4	175.25913069844682	175.86738079661154	0.6082500981647172	n/a	n/a	n/a	n/a
205.0927734375	0.2	420030	97	62	1	0	0	4	79	stimuli\Videos_short_600ms\81.single_stroke_top_to_bottom_with_cotton_pad_short_short_600ms.mp4	81.single_stroke_top_to_bottom_with_cotton_pad_short_short_600ms.mp4	176.0590287664636	176.66736478542953	0.6083360189659288	n/a	n/a	n/a	n/a
205.892578125	0.2	421668	98	62	1	0	0	5	280	stimuli\Videos_short_600ms_vertflip\19.single_touch_with_rolling_pin_short_vertflip_short_600ms.mp4	19.single_touch_with_rolling_pin_short_vertflip_short_600ms.mp4	176.85906026098382	177.46734701477908	0.6082867537952552	n/a	n/a	n/a	n/a
206.69287109375	0.2	423307	99	62	1	0	0	6	67	stimuli\Videos_short_600ms\70.(long)stroke_with_finger_all_over_the_hand_short_short_600ms.mp4	70.(long)stroke_with_finger_all_over_the_hand_short_short_600ms.mp4	177.6592451226752	178.2673304171076	0.6080852944323851	n/a	n/a	n/a	n/a
207.49267578125	0.2	424945	100	62	1	0	1	7	383	stimuli\Targets_short_600ms_vertflip\hand-stroke_short_horvertflip_short_600ms.mp4	hand-stroke_short_horvertflip_short_600ms.mp4	178.45904671305834	179.06731352619315	0.6082668131348328	n/a	n/a	n/a	n/a
208.29248046875	0.2	426583	101	62	1	0	0	8	26	stimuli\Videos_short_600ms\33.scratch_top_to_bottom_with_scissors_short_short_600ms.mp4	33.scratch_top_to_bottom_with_scissors_short_short_600ms.mp4	179.25898964756925	179.86729575554273	0.6083061079734762	n/a	n/a	n/a	n/a
209.0927734375	0.2	428222	102	62	1	0	1	9	366	stimuli\Targets_short_600ms_horflip\brush-stroke_short_horflip_short_600ms.mp4	brush-stroke_short_horflip_short_600ms.mp4	180.05891762657848	180.6672803308502	0.6083627042717126	n/a	n/a	n/a	n/a
209.892578125	0.2	429860	103	62	1	0	0	10	0	stimuli\Videos_short_600ms\1.repeated_touch_with_finger_fast_short_short_600ms.mp4	1.repeated_touch_with_finger_fast_short_short_600ms.mp4	180.85896026441333	181.46726343993575	0.6083031755224511	n/a	n/a	n/a	n/a
210.69287109375	0.2	431499	104	62	1	0	0	11	224	stimuli\Videos_short_600ms_horvertflip\5.repeated_tap_with_finger_moving_from_top_to_bottom_short_horvertflip_short_600ms.mp4	5.repeated_tap_with_finger_moving_from_top_to_bottom_short_horvertflip_short_600ms.mp4	181.6589530505844	182.2672447895493	0.6082917389649083	n/a	n/a	n/a	n/a
211.49267578125	0.2	433137	105	62	1	0	0	12	245	stimuli\Videos_short_600ms_horvertflip\69.stroke_with_soft_sock_short_horvertflip_short_600ms.mp4	69.stroke_with_soft_sock_short_horvertflip_short_600ms.mp4	182.4590308778279	183.06723552300537	0.6082046451774659	n/a	n/a	n/a	n/a
212.29248046875	0.2	434775	106	62	1	0	0	13	141	stimuli\Videos_short_600ms_horflip\56.repeated_touch_with_nail_file_short_horflip_short_600ms.mp4	56.repeated_touch_with_nail_file_short_horflip_short_600ms.mp4	183.25888877126636	183.8672010373848	0.6083122661184461	n/a	n/a	n/a	n/a
213.0927734375	0.2	436414	107	62	1	0	0	14	73	stimuli\Videos_short_600ms\76.tickle_with_fingers_from_top_to_bottom_short_short_600ms.mp4	76.tickle_with_fingers_from_top_to_bottom_short_short_600ms.mp4	184.0592539786776	184.6671489570581	0.6078949783805001	n/a	n/a	n/a	n/a
213.892578125	0.2	438052	108	62	1	0	0	15	279	stimuli\Videos_short_600ms_vertflip\18.single_stroke_from_top_to_bottom_with_rolling_pin_short_vertflip_short_600ms.mp4	18.single_stroke_from_top_to_bottom_with_rolling_pin_short_vertflip_short_600ms.mp4	184.85889252480047	185.4671546460122	0.6082621212117374	n/a	n/a	n/a	n/a
214.6923828125	0.2	439690	109	62	1	0	1	16	377	stimuli\Targets_short_600ms_horvertflip\hand-stroke_short_vertflip_short_600ms.mp4	hand-stroke_short_vertflip_short_600ms.mp4	185.6589008529627	186.26716092145944	0.6082600684967474	n/a	n/a	n/a	n/a
215.49267578125	0.2	441329	110	62	1	0	0	17	170	stimuli\Videos_short_600ms_horflip\82.repeated_touch_with_cotton_bud_short_horflip_short_600ms.mp4	82.repeated_touch_with_cotton_bud_short_horflip_short_600ms.mp4	186.45892677582745	187.0671258493494	0.6081990735219733	n/a	n/a	n/a	n/a
216.29248046875	0.2	442967	111	62	1	0	0	18	116	stimuli\Videos_short_600ms_horflip\33.scratch_top_to_bottom_with_scissors_short_horflip_short_600ms.mp4	33.scratch_top_to_bottom_with_scissors_short_horflip_short_600ms.mp4	187.25890343351784	187.86711892876335	0.6082154952455312	n/a	n/a	n/a	n/a
217.09228515625	0.2	444605	112	62	1	0	0	19	130	stimuli\Videos_short_600ms_horflip\46.scratching_top_to_bottom_with_finger_nails_short_horflip_short_600ms.mp4	46.scratching_top_to_bottom_with_finger_nails_short_horflip_short_600ms.mp4	188.058788305505	188.66711259467047	0.6083242891654663	n/a	n/a	n/a	n/a
217.892578125	0.2	446244	113	62	1	0	0	20	318	stimuli\Videos_short_600ms_vertflip\53.touch_top_to_bottom_with_knife_short_vertflip_short_600ms.mp4	53.touch_top_to_bottom_with_knife_short_vertflip_short_600ms.mp4	188.85875939153993	189.46710303488	0.6083436433400493	n/a	n/a	n/a	n/a
218.6923828125	0.2	447882	114	62	1	0	0	21	151	stimuli\Videos_short_600ms_horflip\65.stroke_top_to_bottom_with_stanley_knife_short_horflip_short_600ms.mp4	65.stroke_top_to_bottom_with_stanley_knife_short_horflip_short_600ms.mp4	189.6587556966515	190.2670773466125	0.6083216499609989	n/a	n/a	n/a	n/a
219.4921875	0.2	449520	115	62	1	0	0	22	66	stimuli\Videos_short_600ms\7.repeated_touch_with_hairbrush_short_short_600ms.mp4	7.repeated_touch_with_hairbrush_short_short_600ms.mp4	190.4588772174102	191.06707306523455	0.6081958478243905	n/a	n/a	n/a	n/a
220.29248046875	0.2	451159	116	62	1	0	1	23	371	stimuli\Targets_short_600ms_horflip\hand-stroke_short_horflip_short_600ms.mp4	hand-stroke_short_horflip_short_600ms.mp4	191.25881164781097	191.8670467904776	0.6082351426666719	n/a	n/a	n/a	n/a
221.09228515625	0.2	452797	117	62	1	0	0	24	255	stimuli\Videos_short_600ms_horvertflip\78.single_stroke_top_to_bottom_with_soft_brush_short_horvertflip_short_600ms.mp4	78.single_stroke_top_to_bottom_with_soft_brush_short_horvertflip_short_600ms.mp4	192.05918975800523	192.66702755360168	0.6078377955964243	n/a	n/a	n/a	n/a
221.89208984375	0.2	454435	118	62	1	0	0	25	312	stimuli\Videos_short_600ms_vertflip\48.single_slap_with_hand_short_vertflip_short_600ms.mp4	48.single_slap_with_hand_short_vertflip_short_600ms.mp4	192.85941684698628	193.4670103694407	0.6075935224544082	n/a	n/a	n/a	n/a
222.6923828125	0.2	456074	119	62	1	0	0	26	89	stimuli\Videos_short_600ms\90.repeated_touch_with_sponge_short_short_600ms.mp4	90.repeated_touch_with_sponge_short_short_600ms.mp4	193.65869851386375	194.2669940650121	0.6082955511483306	n/a	n/a	n/a	n/a
223.4921875	0.2	457712	120	62	1	0	0	27	149	stimuli\Videos_short_600ms_horflip\63.stroke_top_to_bottom_with_screwdriver_short_horflip_short_600ms.mp4	63.stroke_top_to_bottom_with_screwdriver_short_horflip_short_600ms.mp4	194.45867399857525	195.06697629436167	0.6083022957864159	n/a	n/a	n/a	n/a
224.2919921875	0.2	459350	121	62	1	0	0	28	333	stimuli\Videos_short_600ms_vertflip\67.single_touch_with_sponge_short_vertflip_short_600ms.mp4	67.single_touch_with_sponge_short_vertflip_short_600ms.mp4	195.25866913070783	195.8669611629157	0.608292032207828	n/a	n/a	n/a	n/a
225.09228515625	0.2	460989	122	62	1	0	0	29	128	stimuli\Videos_short_600ms_horflip\44.pushing_top_to_bottom_with_finger_short_horflip_short_600ms.mp4	44.pushing_top_to_bottom_with_finger_short_horflip_short_600ms.mp4	196.05864901409583	196.66694397875472	0.6082949646588531	n/a	n/a	n/a	n/a
225.89208984375	0.2	462627	123	62	1	0	0	30	111	stimuli\Videos_short_600ms_horflip\29.single_pinch_with_tweezers_short_horflip_short_600ms.mp4	29.single_pinch_with_tweezers_short_horflip_short_600ms.mp4	196.8586060243688	197.4669273810832	0.6083213567144412	n/a	n/a	n/a	n/a
226.69189453125	0.2	464265	124	62	1	0	0	31	160	stimuli\Videos_short_600ms_horflip\73.single_stroke_with_flat_hand_short_horflip_short_600ms.mp4	73.single_stroke_with_flat_hand_short_horflip_short_600ms.mp4	197.65969935929024	198.2668870305606	0.607187671270367	n/a	n/a	n/a	n/a
227.4921875	0.2	465904	125	62	1	0	0	32	238	stimuli\Videos_short_600ms_horvertflip\62.touch_top_to_bottom_with_scissors_short_horvertflip_short_600ms.mp4	62.touch_top_to_bottom_with_scissors_short_horvertflip_short_600ms.mp4	198.4590810227346	199.0668548909016	0.6077738681669871	n/a	n/a	n/a	n/a
228.2919921875	0.2	467542	126	62	1	0	0	33	44	stimuli\Videos_short_600ms\5.repeated_tap_with_finger_moving_from_top_to_bottom_short_short_600ms.mp4	5.repeated_tap_with_finger_moving_from_top_to_bottom_short_short_600ms.mp4	199.25938230272004	199.86683184183855	0.6074495391185337	n/a	n/a	n/a	n/a
229.091796875	0.2	469180	127	62	1	0	0	34	85	stimuli\Videos_short_600ms\87.single_stroke_top_to_bottom_with_plastic_brush_short_short_600ms.mp4	87.single_stroke_top_to_bottom_with_plastic_brush_short_short_600ms.mp4	200.05900442711936	200.6668146576776	0.6078102305582433	n/a	n/a	n/a	n/a
229.89208984375	0.2	470819	128	62	1	0	0	35	169	stimuli\Videos_short_600ms_horflip\81.single_stroke_top_to_bottom_with_cotton_pad_short_horflip_short_600ms.mp4	81.single_stroke_top_to_bottom_with_cotton_pad_short_horflip_short_600ms.mp4	200.85863505562884	201.46679747351664	0.6081624178877973	n/a	n/a	n/a	n/a
230.69189453125	0.2	472457	129	62	1	0	0	36	186	stimuli\Videos_short_600ms_horvertflip\15.single_stroke_top_to_bottom_with_a_plastic_whisk_short_horvertflip_short_600ms.mp4	15.single_stroke_top_to_bottom_with_a_plastic_whisk_short_horvertflip_short_600ms.mp4	201.65850497211795	202.2668137192959	0.6083087471779436	n/a	n/a	n/a	n/a
231.4921875	0.2	474096	130	62	1	0	1	37	360	stimuli\Targets_short_600ms\brush-stroke_short_short_600ms.mp4	brush-stroke_short_short_600ms.mp4	202.4585825061149	203.06679858784992	0.6082160817350086	n/a	n/a	n/a	n/a
232.2919921875	0.2	475734	131	62	1	0	0	38	223	stimuli\Videos_short_600ms_horvertflip\49.repeated_slap_with_hand_short_horvertflip_short_600ms.mp4	49.repeated_slap_with_hand_short_horvertflip_short_600ms.mp4	203.258470603796	203.86678550911893	0.6083149053229135	n/a	n/a	n/a	n/a
233.091796875	0.2	477372	132	62	1	0	0	39	261	stimuli\Videos_short_600ms_horvertflip\83.single_stroke_top_to_bottom_with_cotton_bud_short_horvertflip_short_600ms.mp4	83.single_stroke_top_to_bottom_with_cotton_bud_short_horvertflip_short_600ms.mp4	204.05855928110395	204.66678298721308	0.6082237061091291	n/a	n/a	n/a	n/a
233.89208984375	0.2	479011	133	62	1	0	0	40	293	stimuli\Videos_short_600ms_vertflip\30.finger_pulling_back_another_finger_short_vertflip_short_600ms.mp4	30.finger_pulling_back_another_finger_short_vertflip_short_600ms.mp4	204.8584658532236	205.466758178678	0.6082923254543857	n/a	n/a	n/a	n/a
234.69189453125	0.2	480649	134	62	1	0	0	41	210	stimuli\Videos_short_600ms_horvertflip\37.single_stab_with_nail_file_short_horvertflip_short_600ms.mp4	37.single_stab_with_nail_file_short_horvertflip_short_600ms.mp4	205.65881463891128	206.2667518445851	0.6079372056738066	n/a	n/a	n/a	n/a
235.49169921875	0.2	482287	135	62	1	0	0	42	54	stimuli\Videos_short_600ms\59.single_push_with_long_side_pencil_short_short_600ms.mp4	59.single_push_with_long_side_pencil_short_short_600ms.mp4	206.45861564280497	207.06672439684553	0.6081087540405861	n/a	n/a	n/a	n/a
236.2919921875	0.2	483926	136	62	1	0	0	43	194	stimuli\Videos_short_600ms_horvertflip\22.single_touch_with_metal_chopstick_short_horvertflip_short_600ms.mp4	22.single_touch_with_metal_chopstick_short_horvertflip_short_600ms.mp4	207.2588931699429	207.8667080924206	0.6078149224777007	n/a	n/a	n/a	n/a
237.091796875	0.2	485564	137	62	1	0	0	44	354	stimuli\Videos_short_600ms_vertflip\86.touch_top_to_bottom_with_hair_brush_short_vertflip_short_600ms.mp4	86.touch_top_to_bottom_with_hair_brush_short_vertflip_short_600ms.mp4	208.05848479685665	208.66669413395357	0.6082093370969233	n/a	n/a	n/a	n/a
237.8916015625	0.2	487202	138	62	1	0	0	45	158	stimuli\Videos_short_600ms_horflip\71.single_stroke_with_finger_top_to_bottom_short_horflip_short_600ms.mp4	71.single_stroke_with_finger_top_to_bottom_short_horflip_short_600ms.mp4	208.85833946459752	209.46667284436265	0.6083333797650994	n/a	n/a	n/a	n/a
238.69189453125	0.2	488841	139	62	1	0	0	46	164	stimuli\Videos_short_600ms_horflip\77.tapping_with_all_fingers_short_horflip_short_600ms.mp4	77.tapping_with_all_fingers_short_horflip_short_600ms.mp4	209.65834661977715	210.2666568331806	0.6083102134034561	n/a	n/a	n/a	n/a
239.49169921875	0.2	490479	140	62	1	0	0	47	358	stimuli\Videos_short_600ms_vertflip\9.single_touch_with_hammer_short_vertflip_short_600ms.mp4	9.single_touch_with_hammer_short_vertflip_short_600ms.mp4	210.45858983723883	211.06663906253016	0.6080492252913245	n/a	n/a	n/a	n/a
240.29150390625	0.2	492117	141	62	1	0	0	48	251	stimuli\Videos_short_600ms_horvertflip\74.fingers_walking_from_top_to_bottom_short_horvertflip_short_600ms.mp4	74.fingers_walking_from_top_to_bottom_short_horvertflip_short_600ms.mp4	211.25888730504084	211.86662510406677	0.6077377990259265	n/a	n/a	n/a	n/a
241.091796875	0.2	493756	142	62	1	0	0	49	234	stimuli\Videos_short_600ms_horvertflip\59.single_push_with_long_side_pencil_short_horvertflip_short_600ms.mp4	59.single_push_with_long_side_pencil_short_horvertflip_short_600ms.mp4	212.0583537163111	212.6666079199058	0.6082542035946972	n/a	n/a	n/a	n/a
241.8916015625	0.2	495394	143	62	1	0	0	50	29	stimuli\Videos_short_600ms\36.single_slap_with_full_hand_short_short_600ms.mp4	36.single_slap_with_full_hand_short_short_600ms.mp4	212.85827465743932	213.4665913222343	0.6083166647949838	n/a	n/a	n/a	n/a
242.69140625	0.2	497032	144	62	1	0	0	51	241	stimuli\Videos_short_600ms_horvertflip\65.stroke_top_to_bottom_with_stanley_knife_short_horvertflip_short_600ms.mp4	65.stroke_top_to_bottom_with_stanley_knife_short_horvertflip_short_600ms.mp4	213.658282692355	214.26657648403125	0.6082937916762603	n/a	n/a	n/a	n/a
243.49169921875	0.2	498671	145	62	1	0	0	52	33	stimuli\Videos_short_600ms\4.repeated_tap_with_finger_slow_short_short_600ms.mp4	4.repeated_tap_with_finger_slow_short_short_600ms.mp4	214.4584009874161	215.06651883205268	0.6081178446365811	n/a	n/a	n/a	n/a
244.29150390625	0.2	500309	146	62	1	0	0	53	64	stimuli\Videos_short_600ms\68.stroke_top_to_bottom_with_shawl_short_short_600ms.mp4	68.stroke_top_to_bottom_with_shawl_short_short_600ms.mp4	215.25828732562513	215.86649607623625	0.6082087506110838	n/a	n/a	n/a	n/a
245.09130859375	0.2	501947	147	62	1	0	0	54	322	stimuli\Videos_short_600ms_vertflip\57.single_touch_with_nail_file_short_vertflip_short_600ms.mp4	57.single_touch_with_nail_file_short_vertflip_short_600ms.mp4	216.0585047375207	216.6665002989648	0.6079955614441133	n/a	n/a	n/a	n/a
245.8916015625	0.2	503586	148	62	1	0	0	55	162	stimuli\Videos_short_600ms_horflip\75.(long)stroke_with_fingers_all_over_the_hand_short_horflip_short_600ms.mp4	75.(long)stroke_with_fingers_all_over_the_hand_short_horflip_short_600ms.mp4	216.85825178432424	217.4664816485783	0.6082298642540991	n/a	n/a	n/a	n/a
246.69140625	0.2	505224	149	62	1	0	0	56	115	stimuli\Videos_short_600ms_horflip\32.single_(long)pinch_with_fingers_short_horflip_short_600ms.mp4	32.single_(long)pinch_with_fingers_short_horflip_short_600ms.mp4	217.65814691988635	218.26647032931575	0.6083234094294312	n/a	n/a	n/a	n/a
247.4912109375	0.2	506862	150	62	1	0	0	57	308	stimuli\Videos_short_600ms_vertflip\44.pushing_top_to_bottom_with_finger_short_vertflip_short_600ms.mp4	44.pushing_top_to_bottom_with_finger_short_vertflip_short_600ms.mp4	218.4583106679347	219.0664590100569	0.6081483421221492	n/a	n/a	n/a	n/a
248.29150390625	0.2	508501	151	62	1	0	0	58	330	stimuli\Videos_short_600ms_vertflip\64.repeated_touch_with_screwdriver_short_vertflip_short_600ms.mp4	64.repeated_touch_with_screwdriver_short_vertflip_short_600ms.mp4	219.25813483819	219.8664641125215	0.6083292743314814	n/a	n/a	n/a	n/a
249.09130859375	0.2	510139	152	62	1	0	0	59	305	stimuli\Videos_short_600ms_vertflip\41.injection_with_blunt_syringe_short_vertflip_short_600ms.mp4	41.injection_with_blunt_syringe_short_vertflip_short_600ms.mp4	220.05814404608464	220.666437544518	0.6082934984333406	n/a	n/a	n/a	n/a
249.89111328125	0.2	511777	153	62	1	0	0	60	107	stimuli\Videos_short_600ms_horflip\25.single_touch_with_stanley_knife_short_horflip_short_600ms.mp4	25.single_touch_with_stanley_knife_short_horflip_short_600ms.mp4	220.85809929688548	221.46643531585505	0.6083360189695668	n/a	n/a	n/a	n/a
250.69140625	0.2	513416	154	62	1	0	0	61	284	stimuli\Videos_short_600ms_vertflip\22.single_touch_with_metal_chopstick_short_vertflip_short_600ms.mp4	22.single_touch_with_metal_chopstick_short_vertflip_short_600ms.mp4	221.65842990137753	222.26640522891103	0.6079753275334951	n/a	n/a	n/a	n/a
251.4912109375	0.2	515054	155	62	1	0	0	62	270	stimuli\Videos_short_600ms_vertflip\1.repeated_touch_with_finger_fast_short_vertflip_short_600ms.mp4	1.repeated_touch_with_finger_fast_short_vertflip_short_600ms.mp4	222.45805290551652	223.0663883379966	0.6083354324800894	n/a	n/a	n/a	n/a
252.29150390625	0.2	516693	156	62	1	0	0	63	208	stimuli\Videos_short_600ms_horvertflip\35.single_punch_with_hand_short_horvertflip_short_600ms.mp4	35.single_punch_with_hand_short_horvertflip_short_600ms.mp4	223.25810932586683	223.86637349979355	0.6082641739267274	n/a	n/a	n/a	n/a
253.09130859375	0.2	518331	157	62	1	0	0	64	349	stimuli\Videos_short_600ms_vertflip\81.single_stroke_top_to_bottom_with_cotton_pad_short_vertflip_short_600ms.mp4	81.single_stroke_top_to_bottom_with_cotton_pad_short_vertflip_short_600ms.mp4	224.05832615127292	224.6663542629176	0.6080281116446713	n/a	n/a	n/a	n/a
253.89111328125	0.2	519969	158	62	1	0	0	65	52	stimuli\Videos_short_600ms\57.single_touch_with_nail_file_short_short_600ms.mp4	57.single_touch_with_nail_file_short_short_600ms.mp4	224.85800457872756	225.4663382517392	0.6083336730116571	n/a	n/a	n/a	n/a
254.69140625	0.2	521608	159	62	1	0	0	66	39	stimuli\Videos_short_600ms\45.scratching_with_finger_nails_short_short_600ms.mp4	45.scratching_with_finger_nails_short_short_600ms.mp4	225.65796012277497	226.2663201878422	0.6083600650672452	n/a	n/a	n/a	n/a
255.4912109375	0.2	523246	160	62	1	0	0	67	95	stimuli\Videos_short_600ms_horflip\14.repeated_touch_with_pencil_short_horflip_short_600ms.mp4	14.repeated_touch_with_pencil_short_horflip_short_600ms.mp4	226.4580048133248	227.06630300368124	0.608298190356436	n/a	n/a	n/a	n/a
256.291015625	0.2	524884	161	62	1	0	0	68	37	stimuli\Videos_short_600ms\43.touch_top_to_bottom_with_sharp_wooden_stick_short_short_600ms.mp4	43.touch_top_to_bottom_with_sharp_wooden_stick_short_short_600ms.mp4	227.2585248541327	227.8662855262737	0.607760672141012	n/a	n/a	n/a	n/a
257.09130859375	0.2	526523	162	62	1	0	0	69	198	stimuli\Videos_short_600ms_horvertflip\26.single_touch_with_a_blunt_syringe_short_horvertflip_short_600ms.mp4	26.single_touch_with_a_blunt_syringe_short_horvertflip_short_600ms.mp4	228.05795724897325	228.66627186105325	0.6083146120799938	n/a	n/a	n/a	n/a
257.89111328125	0.2	528161	163	62	1	0	0	70	103	stimuli\Videos_short_600ms_horflip\21.repeated_touch_with_metal_chopstick_short_horflip_short_600ms.mp4	21.repeated_touch_with_metal_chopstick_short_horflip_short_600ms.mp4	228.85789959699468	229.46623004430512	0.6083304473104363	n/a	n/a	n/a	n/a
258.69091796875	0.2	529799	164	62	1	0	1	71	370	stimuli\Targets_short_600ms_horflip\hand-pinch_short_horflip_short_600ms.mp4	hand-pinch_short_horflip_short_600ms.mp4	229.65790147376177	230.2662430643868	0.6083415906250593	n/a	n/a	n/a	n/a
259.4912109375	0.2	531438	165	62	1	0	0	72	68	stimuli\Videos_short_600ms\71.single_stroke_with_finger_top_to_bottom_short_short_600ms.mp4	71.single_stroke_with_finger_top_to_bottom_short_short_600ms.mp4	230.45791625331185	231.06619626247263	0.6082800091608078	n/a	n/a	n/a	n/a
260.291015625	0.2	533076	166	62	1	0	1	73	369	stimuli\Targets_short_600ms_horflip\finger-tap_short_horflip_short_600ms.mp4	finger-tap_short_horflip_short_600ms.mp4	231.25836826126397	231.8662028311628	0.6078345698988414	n/a	n/a	n/a	n/a
261.0908203125	0.2	534714	167	62	1	0	0	74	38	stimuli\Videos_short_600ms\44.pushing_top_to_bottom_with_finger_short_short_600ms.mp4	44.pushing_top_to_bottom_with_finger_short_short_600ms.mp4	232.05791619466615	232.66614605891664	0.6082298642504611	n/a	n/a	n/a	n/a
261.89111328125	0.2	536353	168	62	1	0	0	75	189	stimuli\Videos_short_600ms_horvertflip\18.single_stroke_from_top_to_bottom_with_rolling_pin_short_horvertflip_short_600ms.mp4	18.single_stroke_from_top_to_bottom_with_rolling_pin_short_horvertflip_short_600ms.mp4	232.85788434825008	233.4661587857554	0.6082744375053153	n/a	n/a	n/a	n/a
262.69091796875	0.2	537991	169	62	1	0	1	76	380	stimuli\Targets_short_600ms_vertflip\chopstickwood-tap_short_horvertflip_short_600ms.mp4	chopstickwood-tap_short_horvertflip_short_600ms.mp4	233.65782728275735	234.2661325109948	0.608305228237441	n/a	n/a	n/a	n/a
263.49072265625	0.2	539629	170	62	1	0	0	77	320	stimuli\Videos_short_600ms_vertflip\55.touch_top_to_bottom_with_nail_file_short_vertflip_short_600ms.mp4	55.touch_top_to_bottom_with_nail_file_short_vertflip_short_600ms.mp4	234.4578347311835	235.06614435809752	0.6083096269139787	n/a	n/a	n/a	n/a
264.291015625	0.2	541268	171	62	1	0	0	78	143	stimuli\Videos_short_600ms_horflip\58.single_slap_with_pencil_short_horflip_short_600ms.mp4	58.single_slap_with_pencil_short_horflip_short_600ms.mp4	235.2578844068994	235.86612600095395	0.6082415940545616	n/a	n/a	n/a	n/a
265.0908203125	0.2	542906	172	62	1	0	0	79	219	stimuli\Videos_short_600ms_horvertflip\45.scratching_with_finger_nails_short_horvertflip_short_600ms.mp4	45.scratching_with_finger_nails_short_horvertflip_short_600ms.mp4	236.05779743041057	236.6661032451375	0.6083058147269185	n/a	n/a	n/a	n/a
265.890625	0.2	544544	173	62	1	0	0	80	226	stimuli\Videos_short_600ms_horvertflip\51.repeated_touch_with_hammer_short_horvertflip_short_600ms.mp4	51.repeated_touch_with_hammer_short_horvertflip_short_600ms.mp4	236.85776294479	237.466088700181	0.6083257553909789	n/a	n/a	n/a	n/a
266.69091796875	0.2	546183	174	62	1	0	0	81	204	stimuli\Videos_short_600ms_horvertflip\31.hand_grabbing_wrist_short_horvertflip_short_600ms.mp4	31.hand_grabbing_wrist_short_horvertflip_short_600ms.mp4	237.6577170226119	238.2660697565516	0.6083527339396824	n/a	n/a	n/a	n/a
267.49072265625	0.2	547821	175	62	1	0	0	82	48	stimuli\Videos_short_600ms\53.touch_top_to_bottom_with_knife_short_short_600ms.mp4	53.touch_top_to_bottom_with_knife_short_short_600ms.mp4	238.4576793112974	239.06604817371408	0.6083688624166825	n/a	n/a	n/a	n/a
268.29052734375	0.2	549459	176	62	1	0	0	83	25	stimuli\Videos_short_600ms\32.single_(long)pinch_with_fingers_short_short_600ms.mp4	32.single_(long)pinch_with_fingers_short_short_600ms.mp4	239.257696730052	239.86603333551463	0.6083366054626822	n/a	n/a	n/a	n/a
269.0908203125	0.2	551098	177	62	1	0	0	84	35	stimuli\Videos_short_600ms\41.injection_with_blunt_syringe_short_short_600ms.mp4	41.injection_with_blunt_syringe_short_short_600ms.mp4	240.0576751472181	240.6660176175792	0.6083424703610945	n/a	n/a	n/a	n/a
269.890625	0.2	552736	178	62	1	0	0	85	124	stimuli\Videos_short_600ms_horflip\40.repeated_push_with_finger_short_horflip_short_600ms.mp4	40.repeated_push_with_finger_short_horflip_short_600ms.mp4	240.85768611458116	241.46600131315063	0.6083151985694712	n/a	n/a	n/a	n/a
270.6904296875	0.2	554374	179	62	1	0	0	86	133	stimuli\Videos_short_600ms_horflip\49.repeated_slap_with_hand_short_horflip_short_600ms.mp4	49.repeated_slap_with_hand_short_horflip_short_600ms.mp4	241.65792170767236	242.2659847154791	0.608063007806777	n/a	n/a	n/a	n/a
271.49072265625	0.2	556013	180	62	1	0	0	87	351	stimuli\Videos_short_600ms_vertflip\83.single_stroke_top_to_bottom_with_cotton_bud_short_vertflip_short_600ms.mp4	83.single_stroke_top_to_bottom_with_cotton_bud_short_vertflip_short_600ms.mp4	242.45772974944703	243.06596753131817	0.6082377818711393	n/a	n/a	n/a	n/a
272.29052734375	0.2	557651	181	62	1	0	0	88	70	stimuli\Videos_short_600ms\73.single_stroke_with_flat_hand_short_short_600ms.mp4	73.single_stroke_with_flat_hand_short_short_600ms.mp4	243.2576058240811	243.86594888093168	0.6083430568505719	n/a	n/a	n/a	n/a
273.0908203125	0.2	559290	182	62	1	0	0	89	240	stimuli\Videos_short_600ms_horvertflip\64.repeated_touch_with_screwdriver_short_horvertflip_short_600ms.mp4	64.repeated_touch_with_screwdriver_short_horvertflip_short_600ms.mp4	244.05764142403495	244.66589416140417	0.6082527373691846	n/a	n/a	n/a	n/a
273.890625	0.2	560928	183	62	1	0	0	90	99	stimuli\Videos_short_600ms_horflip\18.single_stroke_from_top_to_bottom_with_rolling_pin_short_horflip_short_600ms.mp4	18.single_stroke_from_top_to_bottom_with_rolling_pin_short_horflip_short_600ms.mp4	244.85768464835564	245.46592067075835	0.608236022402707	n/a	n/a	n/a	n/a
274.6904296875	0.2	562566	184	62	1	0	0	91	40	stimuli\Videos_short_600ms\46.scratching_top_to_bottom_with_finger_nails_short_short_600ms.mp4	46.scratching_top_to_bottom_with_finger_nails_short_short_600ms.mp4	245.65764283161116	246.26587621480576	0.6082333831946016	n/a	n/a	n/a	n/a
275.49072265625	0.2	564205	185	62	1	0	0	92	123	stimuli\Videos_short_600ms_horflip\4.repeated_tap_with_finger_slow_short_horflip_short_600ms.mp4	4.repeated_tap_with_finger_slow_short_horflip_short_600ms.mp4	246.45755468213977	247.06583996971312	0.6082852875733806	n/a	n/a	n/a	n/a
276.29052734375	0.2	565843	186	62	1	0	0	93	235	stimuli\Videos_short_600ms_horvertflip\6.single_touch_with_flat_hand_short_horvertflip_short_600ms.mp4	6.single_touch_with_flat_hand_short_horvertflip_short_600ms.mp4	247.2577336789327	247.86582102608372	0.6080873471510131	n/a	n/a	n/a	n/a
277.09033203125	0.2	567481	187	62	1	0	0	94	300	stimuli\Videos_short_600ms_vertflip\37.single_stab_with_nail_file_short_vertflip_short_600ms.mp4	37.single_stab_with_nail_file_short_vertflip_short_600ms.mp4	248.0575091705068	248.6658296474889	0.6083204769820441	n/a	n/a	n/a	n/a
277.890625	0.2	569120	188	62	1	0	0	95	336	stimuli\Videos_short_600ms_vertflip\7.repeated_touch_with_hairbrush_short_vertflip_short_600ms.mp4	7.repeated_touch_with_hairbrush_short_vertflip_short_600ms.mp4	248.85757614768227	249.4658186214729	0.6082424737905967	n/a	n/a	n/a	n/a
278.6904296875	0.2	570758	189	62	1	0	0	96	253	stimuli\Videos_short_600ms_horvertflip\76.tickle_with_fingers_from_top_to_bottom_short_horvertflip_short_600ms.mp4	76.tickle_with_fingers_from_top_to_bottom_short_horvertflip_short_600ms.mp4	249.65750471318097	250.2658216712225	0.6083169580415415	n/a	n/a	n/a	n/a
279.490234375	0.2	572396	190	62	1	0	0	97	87	stimuli\Videos_short_600ms\89.single_touch_with_plastic_brush_short_short_600ms.mp4	89.single_touch_with_plastic_brush_short_short_600ms.mp4	250.45749280743257	251.06580595328705	0.6083131458544813	8.0	8.0	1.9748316553377665	1.0
313.6640625	0.2	642384	191	62	2	0	0	0	232	stimuli\Videos_short_600ms_horvertflip\57.single_touch_with_nail_file_short_horvertflip_short_600ms.mp4	57.single_touch_with_nail_file_short_horvertflip_short_600ms.mp4	284.63176336765173	285.2400791527107	0.6083157850589487	n/a	n/a	n/a	n/a
314.46435546875	0.2	644023	192	62	2	0	0	1	77	stimuli\Videos_short_600ms\8.single_touch_with_hairbrush_short_short_600ms.mp4	8.single_touch_with_hairbrush_short_short_600ms.mp4	285.43171920494206	286.0400613820566	0.6083421771145368	n/a	n/a	n/a	n/a
315.26416015625	0.2	645661	193	62	2	0	0	2	145	stimuli\Videos_short_600ms_horflip\6.single_touch_with_flat_hand_short_horflip_short_600ms.mp4	6.single_touch_with_flat_hand_short_horflip_short_600ms.mp4	286.23167944091256	286.8400433181632	0.6083638772506674	n/a	n/a	n/a	n/a
316.06396484375	0.2	647299	194	62	2	0	0	3	61	stimuli\Videos_short_600ms\65.stroke_top_to_bottom_with_stanley_knife_short_short_600ms.mp4	65.stroke_top_to_bottom_with_stanley_knife_short_short_600ms.mp4	287.031665189199	287.6400278934707	0.6083627042717126	n/a	n/a	n/a	n/a
316.8642578125	0.2	648938	195	62	2	0	0	4	139	stimuli\Videos_short_600ms_horflip\54.repeated_touch_with_knife_short_horflip_short_600ms.mp4	54.repeated_touch_with_knife_short_horflip_short_600ms.mp4	287.8321547325213	288.4400107093097	0.6078559767884144	n/a	n/a	n/a	n/a
317.6640625	0.2	650576	196	62	2	0	0	5	292	stimuli\Videos_short_600ms_vertflip\3.single_push_with_finger_short_vertflip_short_600ms.mp4	3.single_push_with_finger_short_vertflip_short_600ms.mp4	288.63196805270854	289.23999821707184	0.6080301643632993	n/a	n/a	n/a	n/a
318.4638671875	0.2	652214	197	62	2	0	0	6	117	stimuli\Videos_short_600ms_horflip\34.repeated_punch_with_hand_short_horflip_short_600ms.mp4	34.repeated_punch_with_hand_short_horflip_short_600ms.mp4	289.43163709632427	290.0399716490683	0.6083345527440542	n/a	n/a	n/a	n/a
319.26416015625	0.2	653853	198	62	2	0	0	7	140	stimuli\Videos_short_600ms_horflip\55.touch_top_to_bottom_with_nail_file_short_horflip_short_600ms.mp4	55.touch_top_to_bottom_with_nail_file_short_horflip_short_600ms.mp4	290.23168853150855	290.8399362837117	0.6082477522031695	n/a	n/a	n/a	n/a
320.06396484375	0.2	655491	199	62	2	0	0	8	63	stimuli\Videos_short_600ms\67.single_touch_with_sponge_short_short_600ms.mp4	67.single_touch_with_sponge_short_short_600ms.mp4	291.0316889420501	291.63992965637226	0.6082407143221644	n/a	n/a	n/a	n/a
320.8642578125	0.2	657130	200	62	2	0	0	9	257	stimuli\Videos_short_600ms_horvertflip\8.single_touch_with_hairbrush_short_horvertflip_short_600ms.mp4	8.single_touch_with_hairbrush_short_horvertflip_short_600ms.mp4	291.8316872998803	292.4399071937987	0.6082198939184309	n/a	n/a	n/a	n/a
321.6640625	0.2	658768	201	62	2	0	0	10	86	stimuli\Videos_short_600ms\88.repeated_stroke_with_plastic_brush_short_short_600ms.mp4	88.repeated_stroke_with_plastic_brush_short_short_600ms.mp4	292.63168213876634	293.23986332433924	0.6081811855729029	n/a	n/a	n/a	n/a
322.4638671875	0.2	660406	202	62	2	0	0	11	28	stimuli\Videos_short_600ms\35.single_punch_with_hand_short_short_600ms.mp4	35.single_punch_with_hand_short_short_600ms.mp4	293.43160982453264	294.03986784031076	0.6082580157781194	n/a	n/a	n/a	n/a
323.26416015625	0.2	662045	203	62	2	0	0	12	302	stimuli\Videos_short_600ms_vertflip\39.single_stab_with_scissors_short_vertflip_short_600ms.mp4	39.single_stab_with_scissors_short_vertflip_short_600ms.mp4	294.23159879851664	294.8398556413158	0.6082568427991646	n/a	n/a	n/a	n/a
324.06396484375	0.2	663683	204	62	2	0	0	13	102	stimuli\Videos_short_600ms_horflip\20.single_touch_with_screwdriver_short_horflip_short_600ms.mp4	20.single_touch_with_screwdriver_short_horflip_short_600ms.mp4	295.0315346951429	295.6398387504014	0.6083040552584862	n/a	n/a	n/a	n/a
324.86376953125	0.2	665321	205	62	2	0	0	14	131	stimuli\Videos_short_600ms_horflip\47.(long)scratching_with_finger_nails_short_horflip_short_600ms.mp4	47.(long)scratching_with_finger_nails_short_horflip_short_600ms.mp4	295.83151751098194	296.43985030425756	0.608332793275622	n/a	n/a	n/a	n/a
325.6640625	0.2	666960	206	62	2	0	0	15	150	stimuli\Videos_short_600ms_horflip\64.repeated_touch_with_screwdriver_short_horflip_short_600ms.mp4	64.repeated_touch_with_screwdriver_short_horflip_short_600ms.mp4	296.6314595657568	297.2398222700285	0.6083627042717126	n/a	n/a	n/a	n/a
326.4638671875	0.2	668598	207	62	2	0	0	16	62	stimuli\Videos_short_600ms\66.stroke_top_to_bottom_with_sponge_short_short_600ms.mp4	66.stroke_top_to_bottom_with_sponge_short_short_600ms.mp4	297.4315329943238	298.0398044993781	0.6082715050542902	n/a	n/a	n/a	n/a
327.263671875	0.2	670236	208	62	2	0	0	17	278	stimuli\Videos_short_600ms_vertflip\17.repeated_touch_with_rolling_pin_short_vertflip_short_600ms.mp4	17.repeated_touch_with_rolling_pin_short_vertflip_short_600ms.mp4	298.2314788612821	298.83979259362604	0.6083137323439587	n/a	n/a	n/a	n/a
328.072265625	0.2	671892	209	62	2	0	0	18	108	stimuli\Videos_short_600ms_horflip\26.single_touch_with_a_blunt_syringe_short_horflip_short_600ms.mp4	26.single_touch_with_a_blunt_syringe_short_horflip_short_600ms.mp4	299.0397860249359	299.6481076748969	0.6083216499609989	n/a	n/a	n/a	n/a
328.8720703125	0.2	673530	210	62	2	0	0	19	129	stimuli\Videos_short_600ms_horflip\45.scratching_with_finger_nails_short_horflip_short_600ms.mp4	45.scratching_with_finger_nails_short_horflip_short_600ms.mp4	299.83978848819606	300.4480696703358	0.6082811821397627	n/a	n/a	n/a	n/a
329.671875	0.2	675168	211	62	2	0	0	20	175	stimuli\Videos_short_600ms_horflip\87.single_stroke_top_to_bottom_with_plastic_brush_short_horflip_short_600ms.mp4	87.single_stroke_top_to_bottom_with_plastic_brush_short_horflip_short_600ms.mp4	300.6397660256225	301.2481064432686	0.6083404176461045	n/a	n/a	n/a	n/a
330.47216796875	0.2	676807	212	62	2	0	0	21	215	stimuli\Videos_short_600ms_horvertflip\41.injection_with_blunt_syringe_short_horvertflip_short_600ms.mp4	41.injection_with_blunt_syringe_short_horvertflip_short_600ms.mp4	301.4397497211976	302.0480910185797	0.6083412973821396	n/a	n/a	n/a	n/a
331.27197265625	0.2	678445	213	62	2	0	1	22	367	stimuli\Targets_short_600ms_horflip\chopstick-silver-tap_short_horflip_short_600ms.mp4	chopstick-silver-tap_short_horflip_short_600ms.mp4	302.23975775611325	302.84809670753384	0.6083389514205919	n/a	n/a	n/a	n/a
332.07177734375	0.2	680083	214	62	2	0	0	23	14	stimuli\Videos_short_600ms\22.single_touch_with_metal_chopstick_short_short_600ms.mp4	22.single_touch_with_metal_chopstick_short_short_600ms.mp4	303.03969863790553	303.64808245582026	0.6083838179147278	n/a	n/a	n/a	n/a
332.8720703125	0.2	681722	215	62	2	0	0	24	338	stimuli\Videos_short_600ms_vertflip\71.single_stroke_with_finger_top_to_bottom_short_vertflip_short_600ms.mp4	71.single_stroke_with_finger_top_to_bottom_short_vertflip_short_600ms.mp4	303.83968145374456	304.44799958476506	0.6083181310204964	n/a	n/a	n/a	n/a
333.671875	0.2	683360	216	62	2	0	0	25	57	stimuli\Videos_short_600ms\61.single_hit_with_rolling_pin_short_short_600ms.mp4	61.single_hit_with_rolling_pin_short_short_600ms.mp4	304.639654006005	305.247980641132	0.608326635127014	n/a	n/a	n/a	n/a
334.4716796875	0.2	684998	217	62	2	0	0	26	13	stimuli\Videos_short_600ms\21.repeated_touch_with_metal_chopstick_short_short_600ms.mp4	21.repeated_touch_with_metal_chopstick_short_short_600ms.mp4	305.4396822748313	306.04796814889414	0.6082858740628581	n/a	n/a	n/a	n/a
335.27197265625	0.2	686637	218	62	2	0	0	27	290	stimuli\Videos_short_600ms_vertflip\28.single_injection_with_sharp_needle_short_vertflip_short_600ms.mp4	28.single_injection_with_sharp_needle_short_vertflip_short_600ms.mp4	306.23961318629154	306.8479503782437	0.6083371919521596	n/a	n/a	n/a	n/a
336.07177734375	0.2	688275	219	62	2	0	0	28	166	stimuli\Videos_short_600ms_horflip\79.long_with_soft_brush_all_over_the_hand_short_horflip_short_600ms.mp4	79.long_with_soft_brush_all_over_the_hand_short_horflip_short_600ms.mp4	307.03965494439035	307.64789536546596	0.6082404210756067	n/a	n/a	n/a	n/a
336.87158203125	0.2	689913	220	62	2	0	0	29	274	stimuli\Videos_short_600ms_vertflip\13.single_touch_with_pen_short_vertflip_short_600ms.mp4	13.single_touch_with_pen_short_vertflip_short_600ms.mp4	307.8395893747911	308.44789665574353	0.608307280952431	n/a	n/a	n/a	n/a
337.671875	0.2	691552	221	62	2	0	0	30	352	stimuli\Videos_short_600ms_vertflip\84.single_touch_with_cotton_bud_short_vertflip_short_600ms.mp4	84.single_touch_with_cotton_bud_short_vertflip_short_600ms.mp4	308.63953876069354	309.2478991190037	0.6083603583101649	n/a	n/a	n/a	n/a
338.4716796875	0.2	693190	222	62	2	0	0	31	45	stimuli\Videos_short_600ms\50.single_(long)hard_push_with_thumb_short_short_600ms.mp4	50.single_(long)hard_push_with_thumb_short_short_600ms.mp4	309.43952157653257	310.0478622874216	0.6083407108890242	n/a	n/a	n/a	n/a
339.27197265625	0.2	694829	223	62	2	0	0	32	165	stimuli\Videos_short_600ms_horflip\78.single_stroke_top_to_bottom_with_soft_brush_short_horflip_short_600ms.mp4	78.single_stroke_top_to_bottom_with_soft_brush_short_horflip_short_600ms.mp4	310.2395794631084	310.84784393028167	0.6082644671732851	n/a	n/a	n/a	n/a
340.07177734375	0.2	696467	224	62	2	0	0	33	105	stimuli\Videos_short_600ms_horflip\23.single_push_with_a_spoon_short_horflip_short_600ms.mp4	23.single_push_with_a_spoon_short_horflip_short_600ms.mp4	311.03958339259407	311.64784522055925	0.6082618279651797	n/a	n/a	n/a	n/a
340.87158203125	0.2	698105	225	62	2	0	0	34	2	stimuli\Videos_short_600ms\11.single_touch_with_lighter_short_short_600ms.mp4	11.single_touch_with_lighter_short_short_600ms.mp4	311.8399075456946	312.4478127876537	0.607905241959088	n/a	n/a	n/a	n/a
341.671875	0.2	699744	226	62	2	0	0	35	50	stimuli\Videos_short_600ms\55.touch_top_to_bottom_with_nail_file_short_short_600ms.mp4	55.touch_top_to_bottom_with_nail_file_short_short_600ms.mp4	312.63948480359977	313.24784516190994	0.6083603583101649	n/a	n/a	n/a	n/a
342.4716796875	0.2	701382	227	62	2	0	0	36	142	stimuli\Videos_short_600ms_horflip\57.single_touch_with_nail_file_short_horflip_short_600ms.mp4	57.single_touch_with_nail_file_short_horflip_short_600ms.mp4	313.4394702586469	314.04775701244216	0.6082867537952552	n/a	n/a	n/a	n/a
343.271484375	0.2	703020	228	62	2	0	0	37	80	stimuli\Videos_short_600ms\82.repeated_touch_with_cotton_bud_short_short_600ms.mp4	82.repeated_touch_with_cotton_bud_short_short_600ms.mp4	314.2394606988564	314.8477398282812	0.6082791294247727	n/a	n/a	n/a	n/a
344.07177734375	0.2	704659	229	62	2	0	0	38	147	stimuli\Videos_short_600ms_horflip\61.single_hit_with_rolling_pin_short_horflip_short_600ms.mp4	61.single_hit_with_rolling_pin_short_horflip_short_600ms.mp4	315.0394502593299	315.64772499008177	0.608274730751873	n/a	n/a	n/a	n/a
344.87158203125	0.2	706297	230	62	2	0	0	39	109	stimuli\Videos_short_600ms_horflip\27.single_push_with_a_plastic_whisk_short_horflip_short_600ms.mp4	27.single_push_with_a_plastic_whisk_short_horflip_short_600ms.mp4	315.8394055101344	316.44776176301457	0.6083562528801849	n/a	n/a	n/a	n/a
345.67138671875	0.2	707935	231	62	2	0	0	40	347	stimuli\Videos_short_600ms_vertflip\8.single_touch_with_hairbrush_short_vertflip_short_600ms.mp4	8.single_touch_with_hairbrush_short_vertflip_short_600ms.mp4	316.63940386796094	317.2478302064119	0.6084263384509541	n/a	n/a	n/a	n/a
346.4716796875	0.2	709574	232	62	2	0	0	41	239	stimuli\Videos_short_600ms_horvertflip\63.stroke_top_to_bottom_with_screwdriver_short_horvertflip_short_600ms.mp4	63.stroke_top_to_bottom_with_screwdriver_short_horvertflip_short_600ms.mp4	317.4393963608891	318.0477130256804	0.6083166647913458	n/a	n/a	n/a	n/a
347.271484375	0.2	711212	233	62	2	0	0	42	78	stimuli\Videos_short_600ms\80.stroke_with_sharp_stick_all_over_the_hand_short_short_600ms.mp4	80.stroke_with_sharp_stick_all_over_the_hand_short_short_600ms.mp4	318.2393609955325	318.84769378880446	0.608332793271984	n/a	n/a	n/a	n/a
348.0712890625	0.2	712850	234	62	2	0	0	43	301	stimuli\Videos_short_600ms_vertflip\38.double_slap_with_pencil_short_vertflip_short_600ms.mp4	38.double_slap_with_pencil_short_vertflip_short_600ms.mp4	319.03943178489135	319.64767895060504	0.6082471657136921	n/a	n/a	n/a	n/a
348.87158203125	0.2	714489	235	62	2	0	0	44	256	stimuli\Videos_short_600ms_horvertflip\79.long_with_soft_brush_all_over_the_hand_short_horvertflip_short_600ms.mp4	79.long_with_soft_brush_all_over_the_hand_short_horvertflip_short_600ms.mp4	319.83934539489564	320.4476594204825	0.6083140255868784	n/a	n/a	n/a	n/a
349.67138671875	0.2	716127	236	62	2	0	0	45	182	stimuli\Videos_short_600ms_horvertflip\11.single_touch_with_lighter_short_horvertflip_short_600ms.mp4	11.single_touch_with_lighter_short_horvertflip_short_600ms.mp4	320.6394249816076	321.2476425295681	0.6082175479605212	n/a	n/a	n/a	n/a
350.47119140625	0.2	717765	237	62	2	0	0	46	155	stimuli\Videos_short_600ms_horflip\69.stroke_with_soft_sock_short_horflip_short_600ms.mp4	69.stroke_with_soft_sock_short_horflip_short_600ms.mp4	321.43930721438664	322.0476259318966	0.6083187175099738	n/a	n/a	n/a	n/a
351.271484375	0.2	719404	238	62	2	0	0	47	144	stimuli\Videos_short_600ms_horflip\59.single_push_with_long_side_pencil_short_horflip_short_600ms.mp4	59.single_push_with_long_side_pencil_short_horflip_short_600ms.mp4	322.23978414816884	322.84760728151014	0.6078231333412987	n/a	n/a	n/a	n/a
352.0712890625	0.2	721042	239	62	2	0	0	48	214	stimuli\Videos_short_600ms_horvertflip\40.repeated_push_with_finger_short_horvertflip_short_600ms.mp4	40.repeated_push_with_finger_short_horvertflip_short_600ms.mp4	323.03947987708307	323.64759068383864	0.608110806755576	n/a	n/a	n/a	n/a
352.87109375	0.2	722680	240	62	2	0	0	49	23	stimuli\Videos_short_600ms\30.finger_pulling_back_another_finger_short_short_600ms.mp4	30.finger_pulling_back_another_finger_short_short_600ms.mp4	323.83934040972963	324.44757525914974	0.6082348494201142	n/a	n/a	n/a	n/a
353.67138671875	0.2	724319	241	62	2	0	0	50	222	stimuli\Videos_short_600ms_horvertflip\48.single_slap_with_hand_short_horvertflip_short_600ms.mp4	48.single_slap_with_hand_short_horvertflip_short_600ms.mp4	324.63922029654714	325.24756012770376	0.608339831156627	n/a	n/a	n/a	n/a
354.47119140625	0.2	725957	242	62	2	0	0	51	268	stimuli\Videos_short_600ms_horvertflip\9.single_touch_with_hammer_short_horvertflip_short_600ms.mp4	9.single_touch_with_hammer_short_horvertflip_short_600ms.mp4	325.4391922623181	326.0475449962578	0.6083527339396824	n/a	n/a	n/a	n/a
355.27099609375	0.2	727595	243	62	2	0	0	52	46	stimuli\Videos_short_600ms\51.repeated_touch_with_hammer_short_short_600ms.mp4	51.repeated_touch_with_hammer_short_short_600ms.mp4	326.23929472214513	326.8475040592457	0.6082093371005612	n/a	n/a	n/a	n/a
356.0712890625	0.2	729234	244	62	2	0	0	53	178	stimuli\Videos_short_600ms_horflip\9.single_touch_with_hammer_short_horflip_short_600ms.mp4	9.single_touch_with_hammer_short_horflip_short_600ms.mp4	327.03924117559654	327.64750095084673	0.6082597752501897	n/a	n/a	n/a	n/a
356.87109375	0.2	730872	245	62	2	0	0	54	276	stimuli\Videos_short_600ms_vertflip\15.single_stroke_top_to_bottom_with_a_plastic_whisk_short_vertflip_short_600ms.mp4	15.single_stroke_top_to_bottom_with_a_plastic_whisk_short_vertflip_short_600ms.mp4	327.8392380671976	328.44751631688996	0.6082782496923755	n/a	n/a	n/a	n/a
357.6708984375	0.2	732510	246	62	2	0	0	55	92	stimuli\Videos_short_600ms_horflip\11.single_touch_with_lighter_short_horflip_short_600ms.mp4	11.single_touch_with_lighter_short_horflip_short_600ms.mp4	328.6391566623679	329.2474437094097	0.6082870470418129	n/a	n/a	n/a	n/a
358.47119140625	0.2	734149	247	62	2	0	0	56	96	stimuli\Videos_short_600ms_horflip\15.single_stroke_top_to_bottom_with_a_plastic_whisk_short_horflip_short_600ms.mp4	15.single_stroke_top_to_bottom_with_a_plastic_whisk_short_horflip_short_600ms.mp4	329.43915648641996	330.04743708207025	0.6082805956502852	n/a	n/a	n/a	n/a
359.27099609375	0.2	735787	248	62	2	0	0	57	207	stimuli\Videos_short_600ms_horvertflip\34.repeated_punch_with_hand_short_horvertflip_short_600ms.mp4	34.repeated_punch_with_hand_short_horvertflip_short_600ms.mp4	330.2390997141738	330.84742371009634	0.6083239959225466	n/a	n/a	n/a	n/a
360.0712890625	0.2	737426	249	62	2	0	0	58	192	stimuli\Videos_short_600ms_horvertflip\20.single_touch_with_screwdriver_short_horvertflip_short_600ms.mp4	20.single_touch_with_screwdriver_short_horvertflip_short_600ms.mp4	331.0390816502768	331.647428812561	0.6083471622841898	n/a	n/a	n/a	n/a
360.87109375	0.2	739064	250	62	2	0	1	59	382	stimuli\Targets_short_600ms_vertflip\hand-pinch_short_horvertflip_short_600ms.mp4	hand-pinch_short_horvertflip_short_600ms.mp4	331.83948967146716	332.4474359677406	0.6079462962734397	n/a	n/a	n/a	n/a
361.6708984375	0.2	740702	251	62	2	0	0	60	121	stimuli\Videos_short_600ms_horflip\38.double_slap_with_pencil_short_horflip_short_600ms.mp4	38.double_slap_with_pencil_short_horflip_short_600ms.mp4	332.63904317652486	333.24744458914574	0.6084014126208785	n/a	n/a	n/a	n/a
362.47119140625	0.2	742341	252	62	2	0	0	61	179	stimuli\Videos_short_600ms_horflip\90.repeated_touch_with_sponge_short_horflip_short_600ms.mp4	90.repeated_touch_with_sponge_short_horflip_short_600ms.mp4	333.43905267766604	334.04737989928253	0.6083272216164914	n/a	n/a	n/a	n/a
363.27099609375	0.2	743979	253	62	2	0	0	62	205	stimuli\Videos_short_600ms_horvertflip\32.single_(long)pinch_with_fingers_short_horvertflip_short_600ms.mp4	32.single_(long)pinch_with_fingers_short_horvertflip_short_600ms.mp4	334.23915220504205	334.8474278155263	0.6082756104842701	n/a	n/a	n/a	n/a
364.07080078125	0.2	745617	254	62	2	0	0	63	267	stimuli\Videos_short_600ms_horvertflip\89.single_touch_with_plastic_brush_short_horvertflip_short_600ms.mp4	89.single_touch_with_plastic_brush_short_horvertflip_short_600ms.mp4	335.0390637623277	335.64734171877353	0.6082779564458178	n/a	n/a	n/a	n/a
364.87109375	0.2	747256	255	62	2	0	0	64	32	stimuli\Videos_short_600ms\39.single_stab_with_scissors_short_short_600ms.mp4	39.single_stab_with_scissors_short_short_600ms.mp4	335.83900053869	336.44731954944655	0.6083190107565315	n/a	n/a	n/a	n/a
365.6708984375	0.2	748894	256	62	2	0	0	65	286	stimuli\Videos_short_600ms_vertflip\24.single_stroke_top_to_bottom_with_a_spoon_short_vertflip_short_600ms.mp4	24.single_stroke_top_to_bottom_with_a_spoon_short_vertflip_short_600ms.mp4	336.6390525603674	337.24730353826453	0.6082509778971144	n/a	n/a	n/a	n/a
366.470703125	0.2	750532	257	62	2	0	0	66	17	stimuli\Videos_short_600ms\25.single_touch_with_stanley_knife_short_short_600ms.mp4	25.single_touch_with_stanley_knife_short_short_600ms.mp4	337.4389570797721	338.0472872338396	0.6083301540675166	n/a	n/a	n/a	n/a
367.27099609375	0.2	752171	258	62	2	0	0	67	82	stimuli\Videos_short_600ms\84.single_touch_with_cotton_bud_short_short_600ms.mp4	84.single_touch_with_cotton_bud_short_short_600ms.mp4	338.23893960236455	338.84726829020656	0.608328687842004	n/a	n/a	n/a	n/a
368.07080078125	0.2	753809	259	62	2	0	0	68	167	stimuli\Videos_short_600ms_horflip\8.single_touch_with_hairbrush_short_horflip_short_600ms.mp4	8.single_touch_with_hairbrush_short_horflip_short_600ms.mp4	339.0389716833779	339.6472502263132	0.6082785429352953	n/a	n/a	n/a	n/a
368.87060546875	0.2	755447	260	62	2	0	0	69	273	stimuli\Videos_short_600ms_vertflip\12.repeated_touch_with_nail_file_short_vertflip_short_600ms.mp4	12.repeated_touch_with_nail_file_short_vertflip_short_600ms.mp4	339.8389627100769	340.4472339218846	0.6082712118077325	n/a	n/a	n/a	n/a
369.6708984375	0.2	757086	261	62	2	0	0	70	138	stimuli\Videos_short_600ms_horflip\53.touch_top_to_bottom_with_knife_short_horflip_short_600ms.mp4	53.touch_top_to_bottom_with_knife_short_horflip_short_600ms.mp4	340.63893115690735	341.24722289587226	0.6082917389649083	n/a	n/a	n/a	n/a
370.470703125	0.2	758724	262	62	2	0	0	71	209	stimuli\Videos_short_600ms_horvertflip\36.single_slap_with_full_hand_short_horvertflip_short_600ms.mp4	36.single_slap_with_full_hand_short_horvertflip_short_600ms.mp4	341.4390878670747	342.0472054184647	0.6081175513900234	n/a	n/a	n/a	n/a
371.2705078125	0.2	760362	263	62	2	0	0	72	327	stimuli\Videos_short_600ms_vertflip\61.single_hit_with_rolling_pin_short_vertflip_short_600ms.mp4	61.single_hit_with_rolling_pin_short_vertflip_short_600ms.mp4	342.2392067486253	342.84720231006577	0.6079955614404753	n/a	n/a	n/a	n/a
372.07080078125	0.2	762001	264	62	2	0	0	73	104	stimuli\Videos_short_600ms_horflip\22.single_touch_with_metal_chopstick_short_horflip_short_600ms.mp4	22.single_touch_with_metal_chopstick_short_horflip_short_600ms.mp4	343.0388083458711	343.64714553782323	0.6083371919521596	n/a	n/a	n/a	n/a
372.87060546875	0.2	763639	265	62	2	0	0	74	306	stimuli\Videos_short_600ms_vertflip\42.single_slap_with_plastic_whisk_short_vertflip_short_600ms.mp4	42.single_slap_with_plastic_whisk_short_vertflip_short_600ms.mp4	343.83889438397455	344.4471122251816	0.6082178412070789	n/a	n/a	n/a	n/a
373.67041015625	0.2	765277	266	62	2	0	0	75	163	stimuli\Videos_short_600ms_horflip\76.tickle_with_fingers_from_top_to_bottom_short_horflip_short_600ms.mp4	76.tickle_with_fingers_from_top_to_bottom_short_horflip_short_600ms.mp4	344.6389120959793	345.24710061267615	0.6081885166968277	n/a	n/a	n/a	n/a
374.470703125	0.2	766916	267	62	2	0	0	76	3	stimuli\Videos_short_600ms\12.repeated_touch_with_nail_file_short_short_600ms.mp4	12.repeated_touch_with_nail_file_short_short_600ms.mp4	345.4389746744746	346.0471716952816	0.6081970208069833	n/a	n/a	n/a	n/a
375.2705078125	0.2	768554	268	62	2	0	1	77	375	stimuli\Targets_short_600ms_horvertflip\finger-tap_short_vertflip_short_600ms.mp4	finger-tap_short_vertflip_short_600ms.mp4	346.2387583769123	346.8471114040949	0.6083530271826021	n/a	n/a	n/a	n/a
376.0703125	0.2	770192	269	62	2	0	0	78	203	stimuli\Videos_short_600ms_horvertflip\30.finger_pulling_back_another_finger_short_horvertflip_short_600ms.mp4	30.finger_pulling_back_another_finger_short_horvertflip_short_600ms.mp4	347.0387452981813	347.6471176795385	0.6083723813571851	n/a	n/a	n/a	n/a
376.87060546875	0.2	771831	270	62	2	0	1	79	361	stimuli\Targets_short_600ms\chopstick-silver-tap_short_short_600ms.mp4	chopstick-silver-tap_short_short_600ms.mp4	347.8387718075355	348.4471037210751	0.6083319135395868	n/a	n/a	n/a	n/a
377.67041015625	0.2	773469	271	62	2	0	0	80	288	stimuli\Videos_short_600ms_vertflip\26.single_touch_with_a_blunt_syringe_short_vertflip_short_600ms.mp4	26.single_touch_with_a_blunt_syringe_short_vertflip_short_600ms.mp4	348.6387675261576	349.24714518592737	0.6083776597697579	n/a	n/a	n/a	n/a
378.47021484375	0.2	775107	272	62	2	0	0	81	31	stimuli\Videos_short_600ms\38.double_slap_with_pencil_short_short_600ms.mp4	38.double_slap_with_pencil_short_short_600ms.mp4	349.4387116336475	350.0470294714214	0.6083178377739387	n/a	n/a	n/a	n/a
379.2705078125	0.2	776746	273	62	2	0	0	82	297	stimuli\Videos_short_600ms_vertflip\34.repeated_punch_with_hand_short_vertflip_short_600ms.mp4	34.repeated_punch_with_hand_short_vertflip_short_600ms.mp4	350.2386944494865	350.84701140752804	0.6083169580415415	n/a	n/a	n/a	n/a
380.0703125	0.2	778384	274	62	2	0	1	83	373	stimuli\Targets_short_600ms_horvertflip\chopstick-silver-tap_short_vertflip_short_600ms.mp4	chopstick-silver-tap_short_vertflip_short_600ms.mp4	351.0386784383045	351.64699363687396	0.6083151985694712	n/a	n/a	n/a	n/a
380.87060546875	0.2	780023	275	62	2	0	0	84	100	stimuli\Videos_short_600ms_horflip\19.single_touch_with_rolling_pin_short_horflip_short_600ms.mp4	19.single_touch_with_rolling_pin_short_horflip_short_600ms.mp4	351.83911402453305	352.44697674595955	0.6078627214264998	n/a	n/a	n/a	n/a
381.67041015625	0.2	781661	276	62	2	0	0	85	346	stimuli\Videos_short_600ms_vertflip\79.long_with_soft_brush_all_over_the_hand_short_vertflip_short_600ms.mp4	79.long_with_soft_brush_all_over_the_hand_short_vertflip_short_600ms.mp4	352.63946720889726	353.24696014828805	0.6074929393907951	n/a	n/a	n/a	n/a
382.47021484375	0.2	783299	277	62	2	0	0	86	5	stimuli\Videos_short_600ms\14.repeated_touch_with_pencil_short_short_600ms.mp4	14.repeated_touch_with_pencil_short_short_600ms.mp4	353.43938521757445	354.04694472359915	0.6075595060246997	n/a	n/a	n/a	n/a
383.2705078125	0.2	784938	278	62	2	0	0	87	190	stimuli\Videos_short_600ms_horvertflip\19.single_touch_with_rolling_pin_short_horvertflip_short_600ms.mp4	19.single_touch_with_rolling_pin_short_horvertflip_short_600ms.mp4	354.23858125689003	354.84692812592766	0.6083468690376321	n/a	n/a	n/a	n/a
384.0703125	0.2	786576	279	62	2	0	0	88	22	stimuli\Videos_short_600ms\3.single_push_with_finger_short_short_600ms.mp4	3.single_push_with_finger_short_short_600ms.mp4	355.03867052068745	355.6469091822946	0.6082386616071744	n/a	n/a	n/a	n/a
384.8701171875	0.2	788214	280	62	2	0	0	89	184	stimuli\Videos_short_600ms_horvertflip\13.single_touch_with_pen_short_horvertflip_short_600ms.mp4	13.single_touch_with_pen_short_horvertflip_short_600ms.mp4	355.8387028949437	356.4468911183976	0.608188223453908	n/a	n/a	n/a	n/a
385.67041015625	0.2	789853	281	62	2	0	0	90	246	stimuli\Videos_short_600ms_horvertflip\7.repeated_touch_with_hairbrush_short_horvertflip_short_600ms.mp4	7.repeated_touch_with_hairbrush_short_horvertflip_short_600ms.mp4	356.63853762202416	357.2468827315897	0.6083451095655619	n/a	n/a	n/a	n/a
386.47021484375	0.2	791491	282	62	2	0	0	91	168	stimuli\Videos_short_600ms_horflip\80.stroke_with_sharp_stick_all_over_the_hand_short_horflip_short_600ms.mp4	80.stroke_with_sharp_stick_all_over_the_hand_short_horflip_short_600ms.mp4	357.4387647110052	358.04685997577326	0.6080952647680533	n/a	n/a	n/a	n/a
387.27001953125	0.2	793129	283	62	2	0	0	92	187	stimuli\Videos_short_600ms_horvertflip\16.repeated_touch_with_plastic_brush_short_horvertflip_short_600ms.mp4	16.repeated_touch_with_plastic_brush_short_horvertflip_short_600ms.mp4	358.23858770828156	358.8468219712122	0.6082342629306368	n/a	n/a	n/a	n/a
388.0703125	0.2	794768	284	62	2	0	0	93	43	stimuli\Videos_short_600ms\49.repeated_slap_with_hand_short_short_600ms.mp4	49.repeated_slap_with_hand_short_short_600ms.mp4	359.03855439563995	359.6468059600302	0.6082515643902298	n/a	n/a	n/a	n/a
388.8701171875	0.2	796406	285	62	2	0	0	94	181	stimuli\Videos_short_600ms_horvertflip\10.single_touch_with_knife_short_horvertflip_short_600ms.mp4	10.single_touch_with_knife_short_horvertflip_short_600ms.mp4	359.83851873704043	360.4467873096437	0.6082685726032651	5.0	5.0	2.0964996215661813	1.0
422.5439453125	0.2	865370	286	62	3	0	0	0	220	stimuli\Videos_short_600ms_horvertflip\46.scratching_top_to_bottom_with_finger_nails_short_horvertflip_short_600ms.mp4	46.scratching_top_to_bottom_with_finger_nails_short_horvertflip_short_600ms.mp4	393.51277683434455	394.12109731132296	0.6083204769784061	n/a	n/a	n/a	n/a
423.34375	0.2	867008	287	62	3	0	0	1	355	stimuli\Videos_short_600ms_vertflip\87.single_stroke_top_to_bottom_with_plastic_brush_short_vertflip_short_600ms.mp4	87.single_stroke_top_to_bottom_with_plastic_brush_short_vertflip_short_600ms.mp4	394.31271243772426	394.92107631497856	0.6083638772543054	n/a	n/a	n/a	n/a
424.14404296875	0.2	868647	288	62	3	0	0	2	304	stimuli\Videos_short_600ms_vertflip\40.repeated_push_with_finger_short_vertflip_short_600ms.mp4	40.repeated_push_with_finger_short_vertflip_short_600ms.mp4	395.1127228186014	395.7210585443245	0.6083357257230091	n/a	n/a	n/a	n/a
424.94384765625	0.2	870285	289	62	3	0	0	3	353	stimuli\Videos_short_600ms_vertflip\85.touch_top_to_bottom_with_fabric_short_vertflip_short_600ms.mp4	85.touch_top_to_bottom_with_fabric_short_vertflip_short_600ms.mp4	395.9127962471685	396.521041946653	0.6082456994845415	n/a	n/a	n/a	n/a
425.74365234375	0.2	871923	290	62	3	0	0	4	200	stimuli\Videos_short_600ms_horvertflip\28.single_injection_with_sharp_needle_short_horvertflip_short_600ms.mp4	28.single_injection_with_sharp_needle_short_horvertflip_short_600ms.mp4	396.7127488587648	397.32102417600254	0.6082753172377124	n/a	n/a	n/a	n/a
426.5439453125	0.2	873562	291	62	3	0	0	5	91	stimuli\Videos_short_600ms_horflip\10.single_touch_with_knife_short_horflip_short_600ms.mp4	10.single_touch_with_knife_short_horflip_short_600ms.mp4	397.51297418827744	398.1210087513136	0.608034563036199	n/a	n/a	n/a	n/a
427.34375	0.2	875200	292	62	3	0	0	6	325	stimuli\Videos_short_600ms_vertflip\6.single_touch_with_flat_hand_short_vertflip_short_600ms.mp4	6.single_touch_with_flat_hand_short_vertflip_short_600ms.mp4	398.3126661050046	398.9209892211911	0.6083231161865115	n/a	n/a	n/a	n/a
428.1435546875	0.2	876838	293	62	3	0	0	7	51	stimuli\Videos_short_600ms\56.repeated_touch_with_nail_file_short_short_600ms.mp4	56.repeated_touch_with_nail_file_short_short_600ms.mp4	399.1126867494568	399.7209737964986	0.6082870470418129	n/a	n/a	n/a	n/a
428.94384765625	0.2	878477	294	62	3	0	0	8	69	stimuli\Videos_short_600ms\72.(short)stroke_with_finger_all_over_the_hand_short_short_600ms.mp4	72.(short)stroke_with_finger_all_over_the_hand_short_short_600ms.mp4	399.91316075078794	400.5209542663797	0.6077935155917658	n/a	n/a	n/a	n/a
429.751953125	0.2	880132	295	62	3	0	0	9	309	stimuli\Videos_short_600ms_vertflip\45.scratching_with_finger_nails_short_vertflip_short_600ms.mp4	45.scratching_with_finger_nails_short_vertflip_short_600ms.mp4	400.7209535625916	401.3292705206295	0.6083169580379035	n/a	n/a	n/a	n/a
430.55224609375	0.2	881771	296	62	3	0	0	10	266	stimuli\Videos_short_600ms_horvertflip\88.repeated_stroke_with_plastic_brush_short_horvertflip_short_600ms.mp4	88.repeated_stroke_with_plastic_brush_short_horvertflip_short_600ms.mp4	401.521023765461	402.1292556824301	0.6082319169690891	n/a	n/a	n/a	n/a
431.35205078125	0.2	883409	297	62	3	0	0	11	328	stimuli\Videos_short_600ms_vertflip\62.touch_top_to_bottom_with_scissors_short_vertflip_short_600ms.mp4	62.touch_top_to_bottom_with_scissors_short_vertflip_short_600ms.mp4	402.3210030623595	402.9292376185331	0.6082345561735565	n/a	n/a	n/a	n/a
432.15185546875	0.2	885047	298	62	3	0	0	12	156	stimuli\Videos_short_600ms_horflip\7.repeated_touch_with_hairbrush_short_horflip_short_600ms.mp4	7.repeated_touch_with_hairbrush_short_horflip_short_600ms.mp4	403.1209618321009	403.7292210208616	0.6082591887607123	n/a	n/a	n/a	n/a
432.9521484375	0.2	886686	299	62	3	0	0	13	218	stimuli\Videos_short_600ms_horvertflip\44.pushing_top_to_bottom_with_finger_short_horvertflip_short_600ms.mp4	44.pushing_top_to_bottom_with_finger_short_horvertflip_short_600ms.mp4	403.9209868752296	404.5292029569646	0.6082160817350086	n/a	n/a	n/a	n/a
433.751953125	0.2	888324	300	62	3	0	0	14	6	stimuli\Videos_short_600ms\15.single_stroke_top_to_bottom_with_a_plastic_whisk_short_short_600ms.mp4	15.single_stroke_top_to_bottom_with_a_plastic_whisk_short_short_600ms.mp4	404.7208221887995	405.32918606605017	0.6083638772506674	n/a	n/a	n/a	n/a
434.5517578125	0.2	889962	301	62	3	0	0	15	260	stimuli\Videos_short_600ms_horvertflip\82.repeated_touch_with_cotton_bud_short_horvertflip_short_600ms.mp4	82.repeated_touch_with_cotton_bud_short_horvertflip_short_600ms.mp4	405.52082259934105	406.1291668291742	0.6083442298331647	n/a	n/a	n/a	n/a
435.35205078125	0.2	891601	302	62	3	0	0	16	183	stimuli\Videos_short_600ms_horvertflip\12.repeated_touch_with_nail_file_short_horvertflip_short_600ms.mp4	12.repeated_touch_with_nail_file_short_horvertflip_short_600ms.mp4	406.32084060458874	406.9291558031582	0.6083151985694712	n/a	n/a	n/a	n/a
436.15185546875	0.2	893239	303	62	3	0	0	17	53	stimuli\Videos_short_600ms\58.single_slap_with_pencil_short_short_600ms.mp4	58.single_slap_with_pencil_short_short_600ms.mp4	407.1208222474488	407.7291356865462	0.608313439097401	n/a	n/a	n/a	n/a
436.95166015625	0.2	894877	304	62	3	0	0	18	264	stimuli\Videos_short_600ms_horvertflip\86.touch_top_to_bottom_with_hair_brush_short_horvertflip_short_600ms.mp4	86.touch_top_to_bottom_with_hair_brush_short_horvertflip_short_600ms.mp4	407.9208892246206	408.5291006144362	0.6082113898155512	n/a	n/a	n/a	n/a
437.751953125	0.2	896516	305	62	3	0	0	19	176	stimuli\Videos_short_600ms_horflip\88.repeated_stroke_with_plastic_brush_short_horflip_short_600ms.mp4	88.repeated_stroke_with_plastic_brush_short_horflip_short_600ms.mp4	408.7207638330292	409.32909281411776	0.6083289810885617	n/a	n/a	n/a	n/a
438.5517578125	0.2	898154	306	62	3	0	0	20	15	stimuli\Videos_short_600ms\23.single_push_with_a_spoon_short_short_600ms.mp4	23.single_push_with_a_spoon_short_short_600ms.mp4	409.5207413704593	410.12903838783313	0.6082970173738431	n/a	n/a	n/a	n/a
439.3515625	0.2	899792	307	62	3	0	0	21	249	stimuli\Videos_short_600ms_horvertflip\72.(short)stroke_with_finger_all_over_the_hand_short_horvertflip_short_600ms.mp4	72.(short)stroke_with_finger_all_over_the_hand_short_horvertflip_short_600ms.mp4	410.3207564432523	410.9290235496337	0.6082671063813905	n/a	n/a	n/a	n/a
440.15185546875	0.2	901431	308	62	3	0	0	22	10	stimuli\Videos_short_600ms\19.single_touch_with_rolling_pin_short_short_600ms.mp4	19.single_touch_with_rolling_pin_short_short_600ms.mp4	411.1207295820059	411.7290283588518	0.6082987768459134	n/a	n/a	n/a	n/a
440.95166015625	0.2	903069	309	62	3	0	0	23	93	stimuli\Videos_short_600ms_horflip\12.repeated_touch_with_nail_file_short_horflip_short_600ms.mp4	12.repeated_touch_with_nail_file_short_horflip_short_600ms.mp4	411.9207091721473	412.52901264091633	0.6083034687690088	n/a	n/a	n/a	n/a
441.75146484375	0.2	904707	310	62	3	0	0	24	237	stimuli\Videos_short_600ms_horvertflip\61.single_hit_with_rolling_pin_short_horvertflip_short_600ms.mp4	61.single_hit_with_rolling_pin_short_horvertflip_short_600ms.mp4	412.720697266399	413.3290033743724	0.6083061079734762	n/a	n/a	n/a	n/a
442.5517578125	0.2	906346	311	62	3	0	0	25	211	stimuli\Videos_short_600ms_horvertflip\38.double_slap_with_pencil_short_horvertflip_short_600ms.mp4	38.double_slap_with_pencil_short_horvertflip_short_600ms.mp4	413.521026697912	414.12900319842447	0.60797650051245	n/a	n/a	n/a	n/a
443.3515625	0.2	907984	312	62	3	0	0	26	311	stimuli\Videos_short_600ms_vertflip\47.(long)scratching_with_finger_nails_short_vertflip_short_600ms.mp4	47.(long)scratching_with_finger_nails_short_vertflip_short_600ms.mp4	414.3207338633838	414.928979562872	0.6082456994881795	n/a	n/a	n/a	n/a
444.1513671875	0.2	909622	313	62	3	0	0	27	120	stimuli\Videos_short_600ms_horflip\37.single_stab_with_nail_file_short_horflip_short_600ms.mp4	37.single_stab_with_nail_file_short_horflip_short_600ms.mp4	415.1206395557674	415.7289688301026	0.6083292743351194	n/a	n/a	n/a	n/a
444.95166015625	0.2	911261	314	62	3	0	0	28	206	stimuli\Videos_short_600ms_horvertflip\33.scratch_top_to_bottom_with_scissors_short_horvertflip_short_600ms.mp4	33.scratch_top_to_bottom_with_scissors_short_horvertflip_short_600ms.mp4	415.9208783745562	416.52894460806056	0.6080662335043598	n/a	n/a	n/a	n/a
445.75146484375	0.2	912899	315	62	3	0	0	29	118	stimuli\Videos_short_600ms_horflip\35.single_punch_with_hand_short_horflip_short_600ms.mp4	35.single_punch_with_hand_short_horflip_short_600ms.mp4	416.72071750030955	417.3289344617806	0.6082169614710438	n/a	n/a	n/a	n/a
446.5517578125	0.2	914538	316	62	3	0	0	30	342	stimuli\Videos_short_600ms_vertflip\75.(long)stroke_with_fingers_all_over_the_hand_short_vertflip_short_600ms.mp4	75.(long)stroke_with_fingers_all_over_the_hand_short_vertflip_short_600ms.mp4	417.52059386818655	418.128913172186	0.6083193039994512	n/a	n/a	n/a	n/a
447.3515625	0.2	916176	317	62	3	0	0	31	341	stimuli\Videos_short_600ms_vertflip\74.fingers_walking_from_top_to_bottom_short_vertflip_short_600ms.mp4	74.fingers_walking_from_top_to_bottom_short_vertflip_short_600ms.mp4	418.3207130429837	418.9288924690846	0.6081794261008326	n/a	n/a	n/a	n/a
448.1513671875	0.2	917814	318	62	3	0	0	32	126	stimuli\Videos_short_600ms_horflip\42.single_slap_with_plastic_whisk_short_horflip_short_600ms.mp4	42.single_slap_with_plastic_whisk_short_horflip_short_600ms.mp4	419.120642781465	419.7288770443956	0.6082342629306368	n/a	n/a	n/a	n/a
448.95166015625	0.2	919453	319	62	3	0	0	33	18	stimuli\Videos_short_600ms\26.single_touch_with_a_blunt_syringe_short_short_600ms.mp4	26.single_touch_with_a_blunt_syringe_short_short_600ms.mp4	419.92068893824035	420.5288575142731	0.6081685760327673	n/a	n/a	n/a	n/a
449.75146484375	0.2	921091	320	62	3	0	0	34	27	stimuli\Videos_short_600ms\34.repeated_punch_with_hand_short_short_600ms.mp4	34.repeated_punch_with_hand_short_short_600ms.mp4	420.7206142780451	421.3288450220316	0.6082307439864962	n/a	n/a	n/a	n/a
450.55126953125	0.2	922729	321	62	3	0	0	35	227	stimuli\Videos_short_600ms_horvertflip\52.touch_top_to_bottom_with_hammer_short_horvertflip_short_600ms.mp4	52.touch_top_to_bottom_with_hammer_short_horvertflip_short_600ms.mp4	421.5207539799958	422.1288254919127	0.6080715119169326	n/a	n/a	n/a	n/a
451.35986328125	0.2	924385	322	62	3	0	0	36	19	stimuli\Videos_short_600ms\27.single_push_with_a_plastic_whisk_short_short_600ms.mp4	27.single_push_with_a_plastic_whisk_short_short_600ms.mp4	422.3288239083886	422.9371449718601	0.6083210634715215	n/a	n/a	n/a	n/a
452.15966796875	0.2	926023	323	62	3	0	0	37	228	stimuli\Videos_short_600ms_horvertflip\53.touch_top_to_bottom_with_knife_short_horvertflip_short_600ms.mp4	53.touch_top_to_bottom_with_knife_short_horvertflip_short_600ms.mp4	423.128788543032	423.73712514849103	0.6083366054590442	n/a	n/a	n/a	n/a
452.95947265625	0.2	927661	324	62	3	0	0	38	101	stimuli\Videos_short_600ms_horflip\2.single_touch_with_finger_short_horflip_short_600ms.mp4	2.single_touch_with_finger_short_horflip_short_600ms.mp4	423.92882854165873	424.5371082575766	0.6082797159178881	n/a	n/a	n/a	n/a
453.759765625	0.2	929300	325	62	3	0	0	39	289	stimuli\Videos_short_600ms_vertflip\27.single_push_with_a_plastic_whisk_short_vertflip_short_600ms.mp4	27.single_push_with_a_plastic_whisk_short_vertflip_short_600ms.mp4	424.7287254366929	425.3370916599051	0.6083662232122151	n/a	n/a	n/a	n/a
454.5595703125	0.2	930938	326	62	3	0	0	40	113	stimuli\Videos_short_600ms_horflip\30.finger_pulling_back_another_finger_short_horflip_short_600ms.mp4	30.finger_pulling_back_another_finger_short_horflip_short_600ms.mp4	425.528712064719	426.1370738892547	0.6083618245356774	n/a	n/a	n/a	n/a
455.359375	0.2	932576	327	62	3	0	0	41	231	stimuli\Videos_short_600ms_horvertflip\56.repeated_touch_with_nail_file_short_horvertflip_short_600ms.mp4	56.repeated_touch_with_nail_file_short_horvertflip_short_600ms.mp4	426.3287189266521	426.9375481838324	0.6088292571803322	n/a	n/a	n/a	n/a
456.15966796875	0.2	934215	328	62	3	0	0	42	229	stimuli\Videos_short_600ms_horvertflip\54.repeated_touch_with_knife_short_horvertflip_short_600ms.mp4	54.repeated_touch_with_knife_short_horvertflip_short_600ms.mp4	427.12876449693795	427.7370345357667	0.6082700388287776	n/a	n/a	n/a	n/a
456.95947265625	0.2	935853	329	62	3	0	0	43	56	stimuli\Videos_short_600ms\60.single_push_with_tip_of_pencil_short_short_600ms.mp4	60.single_push_with_tip_of_pencil_short_short_600ms.mp4	427.9287608020495	428.53698538789104	0.6082245858415263	n/a	n/a	n/a	n/a
457.75927734375	0.2	937491	330	62	3	0	0	44	348	stimuli\Videos_short_600ms_vertflip\80.stroke_with_sharp_stick_all_over_the_hand_short_vertflip_short_600ms.mp4	80.stroke_with_sharp_stick_all_over_the_hand_short_vertflip_short_600ms.mp4	428.7295280484505	429.33696116584906	0.6074331173986138	n/a	n/a	n/a	n/a
458.5595703125	0.2	939130	331	62	3	0	0	45	71	stimuli\Videos_short_600ms\74.fingers_walking_from_top_to_bottom_short_short_600ms.mp4	74.fingers_walking_from_top_to_bottom_short_short_600ms.mp4	429.5288733495072	430.13694368844153	0.6080703389343398	n/a	n/a	n/a	n/a
459.359375	0.2	940768	332	62	3	0	0	46	233	stimuli\Videos_short_600ms_horvertflip\58.single_slap_with_pencil_short_horvertflip_short_600ms.mp4	58.single_slap_with_pencil_short_horvertflip_short_600ms.mp4	430.3286382842598	430.9369267975271	0.6082885132673255	n/a	n/a	n/a	n/a
460.1591796875	0.2	942406	333	62	3	0	0	47	316	stimuli\Videos_short_600ms_vertflip\51.repeated_touch_with_hammer_short_vertflip_short_600ms.mp4	51.repeated_touch_with_hammer_short_vertflip_short_600ms.mp4	431.12870203573766	431.7369101998556	0.6082081641179684	n/a	n/a	n/a	n/a
460.95947265625	0.2	944045	334	62	3	0	0	48	21	stimuli\Videos_short_600ms\29.single_pinch_with_tweezers_short_short_600ms.mp4	29.single_pinch_with_tweezers_short_short_600ms.mp4	431.9288854312035	432.53691794152473	0.608032510321209	n/a	n/a	n/a	n/a
461.75927734375	0.2	945683	335	62	3	0	0	49	110	stimuli\Videos_short_600ms_horflip\28.single_injection_with_sharp_needle_short_horflip_short_600ms.mp4	28.single_injection_with_sharp_needle_short_horflip_short_600ms.mp4	432.7285967021089	433.3369045695508	0.6083078674419085	n/a	n/a	n/a	n/a
462.55908203125	0.2	947321	336	62	3	0	0	50	196	stimuli\Videos_short_600ms_horvertflip\24.single_stroke_top_to_bottom_with_a_spoon_short_horvertflip_short_600ms.mp4	24.single_stroke_top_to_bottom_with_a_spoon_short_horvertflip_short_600ms.mp4	433.5286396331867	434.136916123407	0.6082764902203053	n/a	n/a	n/a	n/a
463.359375	0.2	948960	337	62	3	0	0	51	259	stimuli\Videos_short_600ms_horvertflip\81.single_stroke_top_to_bottom_with_cotton_pad_short_horvertflip_short_600ms.mp4	81.single_stroke_top_to_bottom_with_cotton_pad_short_horvertflip_short_600ms.mp4	434.3285420998763	434.9368842769909	0.6083421771145368	n/a	n/a	n/a	n/a
464.1591796875	0.2	950598	338	62	3	0	0	52	254	stimuli\Videos_short_600ms_horvertflip\77.tapping_with_all_fingers_short_horvertflip_short_600ms.mp4	77.tapping_with_all_fingers_short_horvertflip_short_600ms.mp4	435.12860819731577	435.7368726644854	0.6082644671696471	n/a	n/a	n/a	n/a
464.95947265625	0.2	952237	339	62	3	0	1	53	376	stimuli\Targets_short_600ms_horvertflip\hand-pinch_short_vertflip_short_600ms.mp4	hand-pinch_short_vertflip_short_600ms.mp4	435.9292015493884	436.53682615581783	0.6076246064294537	n/a	n/a	n/a	n/a
465.75927734375	0.2	953875	340	62	3	0	0	54	88	stimuli\Videos_short_600ms\9.single_touch_with_hammer_short_short_600ms.mp4	9.single_touch_with_hammer_short_short_600ms.mp4	436.72853805309205	437.336832724508	0.6082946714159334	n/a	n/a	n/a	n/a
466.55908203125	0.2	955513	341	62	3	0	0	55	343	stimuli\Videos_short_600ms_vertflip\76.tickle_with_fingers_from_top_to_bottom_short_vertflip_short_600ms.mp4	76.tickle_with_fingers_from_top_to_bottom_short_vertflip_short_600ms.mp4	437.5284639793899	438.1368199390235	0.6083559596336272	n/a	n/a	n/a	n/a
467.359375	0.2	957152	342	62	3	0	0	56	291	stimuli\Videos_short_600ms_vertflip\29.single_pinch_with_tweezers_short_vertflip_short_600ms.mp4	29.single_pinch_with_tweezers_short_vertflip_short_600ms.mp4	438.32848726304655	438.93712033927295	0.608633076226397	n/a	n/a	n/a	n/a
468.1591796875	0.2	958790	343	62	3	0	0	57	94	stimuli\Videos_short_600ms_horflip\13.single_touch_with_pen_short_horflip_short_600ms.mp4	13.single_touch_with_pen_short_horflip_short_600ms.mp4	439.12922283898297	439.7367841044761	0.6075612654931319	n/a	n/a	n/a	n/a
468.958984375	0.2	960428	344	62	3	0	0	58	323	stimuli\Videos_short_600ms_vertflip\58.single_slap_with_pencil_short_vertflip_short_600ms.mp4	58.single_slap_with_pencil_short_vertflip_short_600ms.mp4	439.9291352760047	440.5367634013746	0.6076281253699563	n/a	n/a	n/a	n/a
469.75927734375	0.2	962067	345	62	3	0	0	59	242	stimuli\Videos_short_600ms_horvertflip\66.stroke_top_to_bottom_with_sponge_short_horvertflip_short_600ms.mp4	66.stroke_top_to_bottom_with_sponge_short_horvertflip_short_600ms.mp4	440.7291782070824	441.3367473901926	0.6075691831101722	n/a	n/a	n/a	n/a
470.55908203125	0.2	963705	346	62	3	0	0	60	339	stimuli\Videos_short_600ms_vertflip\72.(short)stroke_with_finger_all_over_the_hand_short_vertflip_short_600ms.mp4	72.(short)stroke_with_finger_all_over_the_hand_short_vertflip_short_600ms.mp4	441.5284343616368	442.13673372497215	0.6082993633353908	n/a	n/a	n/a	n/a
471.35888671875	0.2	965343	347	62	3	0	0	61	83	stimuli\Videos_short_600ms\85.touch_top_to_bottom_with_fabric_short_short_600ms.mp4	85.touch_top_to_bottom_with_fabric_short_short_600ms.mp4	442.3284324262204	442.93668985550903	0.608257429288642	n/a	n/a	n/a	n/a
472.1591796875	0.2	966982	348	62	3	0	1	62	374	stimuli\Targets_short_600ms_horvertflip\chopstickwood-tap_short_vertflip_short_600ms.mp4	chopstickwood-tap_short_vertflip_short_600ms.mp4	443.1284032190088	443.73668528088456	0.6082820618757978	n/a	n/a	n/a	n/a
472.958984375	0.2	968620	349	62	3	0	0	63	321	stimuli\Videos_short_600ms_vertflip\56.repeated_touch_with_nail_file_short_vertflip_short_600ms.mp4	56.repeated_touch_with_nail_file_short_vertflip_short_600ms.mp4	443.9283599360387	444.53663290731856	0.6082729712798027	n/a	n/a	n/a	n/a
473.7587890625	0.2	970258	350	62	3	0	0	64	230	stimuli\Videos_short_600ms_horvertflip\55.touch_top_to_bottom_with_nail_file_short_horvertflip_short_600ms.mp4	55.touch_top_to_bottom_with_nail_file_short_horvertflip_short_600ms.mp4	444.7285248570661	445.33661836236206	0.608093505295983	n/a	n/a	n/a	n/a
474.55908203125	0.2	971897	351	62	3	0	0	65	269	stimuli\Videos_short_600ms_horvertflip\90.repeated_touch_with_sponge_short_horvertflip_short_600ms.mp4	90.repeated_touch_with_sponge_short_horvertflip_short_600ms.mp4	445.5283220487727	446.13660176469057	0.6082797159178881	n/a	n/a	n/a	n/a
475.35888671875	0.2	973535	352	62	3	0	0	66	137	stimuli\Videos_short_600ms_horflip\52.touch_top_to_bottom_with_hammer_short_horflip_short_600ms.mp4	52.touch_top_to_bottom_with_hammer_short_horflip_short_600ms.mp4	446.3283509040885	446.9365851670191	0.6082342629306368	n/a	n/a	n/a	n/a
476.15869140625	0.2	975173	353	62	3	0	0	67	59	stimuli\Videos_short_600ms\63.stroke_top_to_bottom_with_screwdriver_short_short_600ms.mp4	63.stroke_top_to_bottom_with_screwdriver_short_short_600ms.mp4	447.1282914926378	447.7365653436536	0.6082738510158379	n/a	n/a	n/a	n/a
476.958984375	0.2	976812	354	62	3	0	0	68	30	stimuli\Videos_short_600ms\37.single_stab_with_nail_file_short_short_600ms.mp4	37.single_stab_with_nail_file_short_short_600ms.mp4	447.9282485029107	448.5365856948592	0.6083371919485216	n/a	n/a	n/a	n/a
477.7587890625	0.2	978450	355	62	3	0	0	69	248	stimuli\Videos_short_600ms_horvertflip\71.single_stroke_with_finger_top_to_bottom_short_horvertflip_short_600ms.mp4	71.single_stroke_with_finger_top_to_bottom_short_horvertflip_short_600ms.mp4	448.7282600567669	449.3365582471233	0.608298190356436	n/a	n/a	n/a	n/a
478.55859375	0.2	980088	356	62	3	0	0	70	177	stimuli\Videos_short_600ms_horflip\89.single_touch_with_plastic_brush_short_horflip_short_600ms.mp4	89.single_touch_with_plastic_brush_short_horflip_short_600ms.mp4	449.5284126615006	450.136592380848	0.6081797193473903	n/a	n/a	n/a	n/a
479.35888671875	0.2	981727	357	62	3	0	0	71	310	stimuli\Videos_short_600ms_vertflip\46.scratching_top_to_bottom_with_finger_nails_short_vertflip_short_600ms.mp4	46.scratching_top_to_bottom_with_finger_nails_short_vertflip_short_600ms.mp4	450.3282852171942	450.9365470451594	0.6082618279651797	n/a	n/a	n/a	n/a
