onset	duration	onsetsample	eventnumber	subjectnr	sequencenumber	blocksequencenumber	istarget	presentationnumber	stimnumber	stim	stimname	time_stimon	time_stimoff	stimdur	cresp	resp	rt	correct
53.0673828125	0.2	108682	0	76	0	0	0	0	167	stimuli\Videos_short_600ms_horflip\8.single_touch_with_hairbrush_short_horflip_short_600ms.mp4	8.single_touch_with_hairbrush_short_horflip_short_600ms.mp4	42.613021858322554	43.22057759647305	0.607555738150495				
53.8671875	0.2	110320	1	76	0	0	0	1	349	stimuli\Videos_short_600ms_vertflip\81.single_stroke_top_to_bottom_with_cotton_pad_short_vertflip_short_600ms.mp4	81.single_stroke_top_to_bottom_with_cotton_pad_short_vertflip_short_600ms.mp4	43.41223754045677	44.020567156886955	0.6083296164301828				
54.6669921875	0.2	111958	2	76	0	0	0	2	177	stimuli\Videos_short_600ms_horflip\89.single_touch_with_plastic_brush_short_horflip_short_600ms.mp4	89.single_touch_with_plastic_brush_short_horflip_short_600ms.mp4	44.21218839229505	44.820554957820605	0.6083665655255572				
55.46728515625	0.2	113597	3	76	0	0	0	3	23	stimuli\Videos_short_600ms\30.finger_pulling_back_another_finger_short_short_600ms.mp4	30.finger_pulling_back_another_finger_short_short_600ms.mp4	45.012178832449536	45.62051783277684	0.6083390003273053				
56.26708984375	0.2	115235	4	76	0	0	0	4	26	stimuli\Videos_short_600ms\33.scratch_top_to_bottom_with_scissors_short_short_600ms.mp4	33.scratch_top_to_bottom_with_scissors_short_short_600ms.mp4	45.81218158896945	46.42050651345107	0.6083249244816216				
57.06689453125	0.2	116873	5	76	0	0	0	5	237	stimuli\Videos_short_600ms_horvertflip\61.single_hit_with_rolling_pin_short_horvertflip_short_600ms.mp4	61.single_hit_with_rolling_pin_short_horvertflip_short_600ms.mp4	46.612206925492046	47.220480238538585	0.6082733130465385				
57.8671875	0.2	118512	6	76	0	0	0	6	159	stimuli\Videos_short_600ms_horflip\72.(short)stroke_with_finger_all_over_the_hand_short_horflip_short_600ms.mp4	72.(short)stroke_with_finger_all_over_the_hand_short_horflip_short_600ms.mp4	47.41218710200883	48.02048270181149	0.6082955998026591				
58.6669921875	0.2	120150	7	76	0	0	0	7	341	stimuli\Videos_short_600ms_vertflip\74.fingers_walking_from_top_to_bottom_short_vertflip_short_600ms.mp4	74.fingers_walking_from_top_to_bottom_short_vertflip_short_600ms.mp4	48.21217079748749	48.82044968222317	0.6082788847356824				
59.466796875	0.2	121788	8	76	0	0	0	8	147	stimuli\Videos_short_600ms_horflip\61.single_hit_with_rolling_pin_short_horflip_short_600ms.mp4	61.single_hit_with_rolling_pin_short_horflip_short_600ms.mp4	49.01215507945926	49.62044246835194	0.608287388892677				
60.26708984375	0.2	123427	9	76	0	0	0	9	90	stimuli\Videos_short_600ms_horflip\1.repeated_touch_with_finger_fast_short_horflip_short_600ms.mp4	1.repeated_touch_with_finger_fast_short_horflip_short_600ms.mp4	49.812107984024806	50.420450796560544	0.6083428125357386				
61.06689453125	0.2	125065	10	76	0	0	0	10	163	stimuli\Videos_short_600ms_horflip\76.tickle_with_fingers_from_top_to_bottom_short_horflip_short_600ms.mp4	76.tickle_with_fingers_from_top_to_bottom_short_horflip_short_600ms.mp4	50.612134493534995	51.220437424507054	0.6083029309720587				
61.86669921875	0.2	126703	11	76	0	0	0	11	9	stimuli\Videos_short_600ms\18.single_stroke_from_top_to_bottom_with_rolling_pin_short_short_600ms.mp4	18.single_stroke_from_top_to_bottom_with_rolling_pin_short_short_600ms.mp4	51.412126693170194	52.02045748258752	0.6083307894173231				
62.6669921875	0.2	128342	12	76	0	0	0	12	265	stimuli\Videos_short_600ms_horvertflip\87.single_stroke_top_to_bottom_with_plastic_brush_short_horvertflip_short_600ms.mp4	87.single_stroke_top_to_bottom_with_plastic_brush_short_horvertflip_short_600ms.mp4	52.21210804267412	52.82043472663645	0.608326683962332				
63.466796875	0.2	129980	13	76	0	0	0	13	19	stimuli\Videos_short_600ms\27.single_push_with_a_plastic_whisk_short_short_600ms.mp4	27.single_push_with_a_plastic_whisk_short_short_600ms.mp4	53.0120937908805	53.62042604653152	0.6083322556510211				
64.2666015625	0.2	131618	14	76	0	0	0	14	354	stimuli\Videos_short_600ms_vertflip\86.touch_top_to_bottom_with_hair_brush_short_vertflip_short_600ms.mp4	86.touch_top_to_bottom_with_hair_brush_short_vertflip_short_600ms.mp4	53.81208247155428	54.42041677993302	0.608334308378744				
65.06689453125	0.2	133257	15	76	0	0	0	15	137	stimuli\Videos_short_600ms_horflip\52.touch_top_to_bottom_with_hammer_short_horflip_short_600ms.mp4	52.touch_top_to_bottom_with_hammer_short_horflip_short_600ms.mp4	54.612026285469256	55.22039754294383	0.6083712574745732				
65.86669921875	0.2	134895	16	76	0	0	0	16	212	stimuli\Videos_short_600ms_horvertflip\39.single_stab_with_scissors_short_horvertflip_short_600ms.mp4	39.single_stab_with_scissors_short_horvertflip_short_600ms.mp4	55.412081826411395	56.020384757383454	0.6083029309720587				
66.66650390625	0.2	136533	17	76	0	0	0	17	178	stimuli\Videos_short_600ms_horflip\9.single_touch_with_hammer_short_horflip_short_600ms.mp4	9.single_touch_with_hammer_short_horflip_short_600ms.mp4	56.212049686563205	56.820374024551256	0.6083243379880514				
67.466796875	0.2	138172	18	76	0	0	0	18	176	stimuli\Videos_short_600ms_horflip\88.repeated_stroke_with_plastic_brush_short_horflip_short_600ms.mp4	88.repeated_stroke_with_plastic_brush_short_horflip_short_600ms.mp4	57.01201608048086	57.620362118731464	0.6083460382506019				
68.2666015625	0.2	139810	19	76	0	0	0	19	357	stimuli\Videos_short_600ms_vertflip\89.single_touch_with_plastic_brush_short_vertflip_short_600ms.mp4	89.single_touch_with_plastic_brush_short_vertflip_short_600ms.mp4	57.81199156504909	58.42034816018395	0.6083565951348646				
69.06640625	0.2	141448	20	76	0	0	0	20	287	stimuli\Videos_short_600ms_vertflip\25.single_touch_with_stanley_knife_short_vertflip_short_600ms.mp4	25.single_touch_with_stanley_knife_short_vertflip_short_600ms.mp4	58.61201572858454	59.2203403598196	0.6083246312350639				
69.86669921875	0.2	143087	21	76	0	0	0	21	268	stimuli\Videos_short_600ms_horvertflip\9.single_touch_with_hammer_short_horvertflip_short_600ms.mp4	9.single_touch_with_hammer_short_horvertflip_short_600ms.mp4	59.41195866275939	60.02032786750624	0.6083692047468503				
70.66650390625	0.2	144725	22	76	0	0	0	22	93	stimuli\Videos_short_600ms_horflip\12.repeated_touch_with_nail_file_short_horflip_short_600ms.mp4	12.repeated_touch_with_nail_file_short_horflip_short_600ms.mp4	60.211968163955135	60.82031478869931	0.608346624744172				
71.46630859375	0.2	146363	23	76	0	0	0	23	346	stimuli\Videos_short_600ms_vertflip\79.long_with_soft_brush_all_over_the_hand_short_vertflip_short_600ms.mp4	79.long_with_soft_brush_all_over_the_hand_short_vertflip_short_600ms.mp4	61.01198998151631	61.620295551710115	0.6083055701938065				
72.2666015625	0.2	148002	24	76	0	0	0	24	299	stimuli\Videos_short_600ms_vertflip\36.single_slap_with_full_hand_short_vertflip_short_600ms.mp4	36.single_slap_with_full_hand_short_vertflip_short_600ms.mp4	61.81201297206508	62.42028775134531	0.6082747792802365				
73.06640625	0.2	149640	25	76	0	0	0	25	7	stimuli\Videos_short_600ms\16.repeated_touch_with_plastic_brush_short_short_600ms.mp4	16.repeated_touch_with_plastic_brush_short_short_600ms.mp4	62.611961771175174	63.22023273824743	0.6082709670722579				
73.86669921875	0.2	151279	26	76	0	0	0	26	64	stimuli\Videos_short_600ms\68.stroke_top_to_bottom_with_shawl_short_short_600ms.mp4	68.stroke_top_to_bottom_with_shawl_short_short_600ms.mp4	63.412088571087224	64.02025191658777	0.6081633455005431				
74.66650390625	0.2	152917	27	76	0	0	0	27	149	stimuli\Videos_short_600ms_horflip\63.stroke_top_to_bottom_with_screwdriver_short_horflip_short_600ms.mp4	63.stroke_top_to_bottom_with_screwdriver_short_horflip_short_600ms.mp4	64.21192710940477	64.82023209310455	0.6083049836997816				
75.46630859375	0.2	154555	28	76	0	0	0	28	326	stimuli\Videos_short_600ms_vertflip\60.single_push_with_tip_of_pencil_short_vertflip_short_600ms.mp4	60.single_push_with_tip_of_pencil_short_vertflip_short_600ms.mp4	65.01191637657212	65.62023074416948	0.6083143675973588				
76.2666015625	0.2	156194	29	76	0	0	0	29	155	stimuli\Videos_short_600ms_horflip\69.stroke_with_soft_sock_short_horflip_short_600ms.mp4	69.stroke_with_soft_sock_short_horflip_short_600ms.mp4	65.81190974919446	66.4202120936734	0.6083023444789433				
77.06640625	0.2	157832	30	76	0	0	0	30	158	stimuli\Videos_short_600ms_horflip\71.single_stroke_with_finger_top_to_bottom_short_horflip_short_600ms.mp4	71.single_stroke_with_finger_top_to_bottom_short_horflip_short_600ms.mp4	66.61189285817954	67.22022540707758	0.6083325488980336				
77.8662109375	0.2	159470	31	76	0	0	0	31	239	stimuli\Videos_short_600ms_horvertflip\63.stroke_top_to_bottom_with_screwdriver_short_horvertflip_short_600ms.mp4	63.stroke_top_to_bottom_with_screwdriver_short_horvertflip_short_600ms.mp4	67.41188212534689	68.02021467424538	0.6083325488984883				
78.66650390625	0.2	161109	32	76	0	0	0	32	285	stimuli\Videos_short_600ms_vertflip\23.single_push_with_a_spoon_short_vertflip_short_600ms.mp4	23.single_push_with_a_spoon_short_vertflip_short_600ms.mp4	68.211839721861	68.82019191829431	0.6083521964333158				
79.46630859375	0.2	162747	33	76	0	0	0	33	215	stimuli\Videos_short_600ms_horvertflip\41.injection_with_blunt_syringe_short_horvertflip_short_600ms.mp4	41.injection_with_blunt_syringe_short_horvertflip_short_600ms.mp4	69.01191696306569	69.62018646390379	0.6082695008381052				
80.26611328125	0.2	164385	34	76	0	0	0	34	70	stimuli\Videos_short_600ms\73.single_stroke_with_flat_hand_short_short_600ms.mp4	73.single_stroke_with_flat_hand_short_short_600ms.mp4	69.81213584247007	70.4201730918503	0.6080372493802315				
81.07470703125	0.2	166041	35	76	0	0	0	35	108	stimuli\Videos_short_600ms_horflip\26.single_touch_with_a_blunt_syringe_short_horflip_short_600ms.mp4	26.single_touch_with_a_blunt_syringe_short_horflip_short_600ms.mp4	70.62017268130467	71.22847883799204	0.6083061566873766				
81.87451171875	0.2	167679	36	76	0	0	0	36	152	stimuli\Videos_short_600ms_horflip\66.stroke_top_to_bottom_with_sponge_short_horflip_short_600ms.mp4	66.stroke_top_to_bottom_with_sponge_short_horflip_short_600ms.mp4	71.42020798821841	72.02848247425209	0.6082744860336788				
82.67431640625	0.2	169317	37	76	0	0	0	37	271	stimuli\Videos_short_600ms_vertflip\10.single_touch_with_knife_short_vertflip_short_600ms.mp4	10.single_touch_with_knife_short_vertflip_short_600ms.mp4	72.22014153849568	72.82847936583585	0.608337827340165				
83.474609375	0.2	170956	38	76	0	0	0	38	119	stimuli\Videos_short_600ms_horflip\36.single_slap_with_full_hand_short_horflip_short_600ms.mp4	36.single_slap_with_full_hand_short_horflip_short_600ms.mp4	73.0201196622852	73.62845690313179	0.6083372408465948				
84.2744140625	0.2	172594	39	76	0	0	0	39	222	stimuli\Videos_short_600ms_horvertflip\48.single_slap_with_hand_short_horvertflip_short_600ms.mp4	48.single_slap_with_hand_short_horvertflip_short_600ms.mp4	73.82011802010311	74.42845555419672	0.6083375340936072				
85.07421875	0.2	174232	40	76	0	0	0	40	303	stimuli\Videos_short_600ms_vertflip\4.repeated_tap_with_finger_slow_short_vertflip_short_600ms.mp4	4.repeated_tap_with_finger_slow_short_vertflip_short_600ms.mp4	74.62010494129618	75.2284342644798	0.6083293231836251				
85.87451171875	0.2	175871	41	76	0	0	0	41	0	stimuli\Videos_short_600ms\1.repeated_touch_with_finger_fast_short_short_600ms.mp4	1.repeated_touch_with_finger_fast_short_short_600ms.mp4	75.42009244898281	76.02842147891943	0.6083290299366126				
86.6826171875	0.2	177526	42	76	0	0	0	42	43	stimuli\Videos_short_600ms\49.repeated_slap_with_hand_short_short_600ms.mp4	49.repeated_slap_with_hand_short_short_600ms.mp4	76.22842018863366	76.83671725467048	0.6082970660368119				
87.48291015625	0.2	179165	43	76	0	0	0	43	221	stimuli\Videos_short_600ms_horvertflip\47.(long)scratching_with_finger_nails_short_horvertflip_short_600ms.mp4	47.(long)scratching_with_finger_nails_short_horvertflip_short_600ms.mp4	77.02843760749329	77.63673526002322	0.6082976525299273				
88.28271484375	0.2	180803	44	76	0	0	0	44	250	stimuli\Videos_short_600ms_horvertflip\73.single_stroke_with_flat_hand_short_horvertflip_short_600ms.mp4	73.single_stroke_with_flat_hand_short_horvertflip_short_600ms.mp4	77.82846353050945	78.43671514329344	0.6082516127839881				
89.08251953125	0.2	182441	45	76	0	0	0	45	302	stimuli\Videos_short_600ms_vertflip\39.single_stab_with_scissors_short_vertflip_short_600ms.mp4	39.single_stab_with_scissors_short_vertflip_short_600ms.mp4	78.62842640546569	79.23670441046079	0.6082780049950998				
89.8828125	0.2	184080	46	76	0	0	0	46	84	stimuli\Videos_short_600ms\86.touch_top_to_bottom_with_hair_brush_short_short_600ms.mp4	86.touch_top_to_bottom_with_hair_brush_short_short_600ms.mp4	79.42854675394847	80.03669015866672	0.6081434047182483				
90.6826171875	0.2	185718	47	76	0	0	0	47	74	stimuli\Videos_short_600ms\77.tapping_with_all_fingers_short_short_600ms.mp4	77.tapping_with_all_fingers_short_short_600ms.mp4	80.22842370759508	80.8366759068731	0.608252199278013				
91.482421875	0.2	187356	48	76	0	0	0	48	48	stimuli\Videos_short_600ms\53.touch_top_to_bottom_with_knife_short_short_600ms.mp4	53.touch_top_to_bottom_with_knife_short_short_600ms.mp4	81.02835168618367	81.63666693352116	0.6083152473374867				
92.28271484375	0.2	188995	49	76	0	0	0	49	251	stimuli\Videos_short_600ms_horvertflip\74.fingers_walking_from_top_to_bottom_short_horvertflip_short_600ms.mp4	74.fingers_walking_from_top_to_bottom_short_horvertflip_short_600ms.mp4	81.82833098296032	82.43663362068583	0.608302637725501				
93.08251953125	0.2	190633	50	76	0	0	0	50	336	stimuli\Videos_short_600ms_vertflip\7.repeated_touch_with_hairbrush_short_vertflip_short_600ms.mp4	7.repeated_touch_with_hairbrush_short_vertflip_short_600ms.mp4	82.62835954519733	83.23662318110019	0.6082636359028584				
93.88232421875	0.2	192271	51	76	0	0	0	51	307	stimuli\Videos_short_600ms_vertflip\43.touch_top_to_bottom_with_sharp_wooden_stick_short_vertflip_short_600ms.mp4	43.touch_top_to_bottom_with_sharp_wooden_stick_short_vertflip_short_600ms.mp4	83.42868399344616	84.03661127528039	0.607927281834236				
94.6826171875	0.2	193910	52	76	0	0	0	52	189	stimuli\Videos_short_600ms_horvertflip\18.single_stroke_from_top_to_bottom_with_rolling_pin_short_horvertflip_short_600ms.mp4	18.single_stroke_from_top_to_bottom_with_rolling_pin_short_horvertflip_short_600ms.mp4	84.22834042550676	84.83662194946328	0.6082815239565207				
95.482421875	0.2	195548	53	76	0	0	0	53	165	stimuli\Videos_short_600ms_horflip\78.single_stroke_top_to_bottom_with_soft_brush_short_horflip_short_600ms.mp4	78.single_stroke_top_to_bottom_with_soft_brush_short_horflip_short_600ms.mp4	85.0282440646115	85.63658746364081	0.6083433990293088				
96.2822265625	0.2	197186	54	76	0	0	0	54	323	stimuli\Videos_short_600ms_vertflip\58.single_slap_with_pencil_short_vertflip_short_600ms.mp4	58.single_slap_with_pencil_short_vertflip_short_600ms.mp4	85.82839168504597	86.43659403236916	0.6082023473231857				
97.08251953125	0.2	198825	55	76	0	0	0	55	145	stimuli\Videos_short_600ms_horflip\6.single_touch_with_flat_hand_short_horflip_short_600ms.mp4	6.single_touch_with_flat_hand_short_horflip_short_600ms.mp4	86.62872023874979	87.23661848915117	0.6078982504013766				
97.88232421875	0.2	200463	56	76	0	0	0	56	34	stimuli\Videos_short_600ms\40.repeated_push_with_finger_short_short_600ms.mp4	40.repeated_push_with_finger_short_short_600ms.mp4	87.42881712748931	88.03662036593096	0.6078032384416474				
98.68212890625	0.2	202101	57	76	0	0	1	57	369	stimuli\Targets_short_600ms_horflip\finger-tap_short_horflip_short_600ms.mp4	finger-tap_short_horflip_short_600ms.mp4	88.22838470577199	88.83651755360597	0.6081328478339856				
99.482421875	0.2	203740	58	76	0	0	0	58	141	stimuli\Videos_short_600ms_horflip\56.repeated_touch_with_nail_file_short_horflip_short_600ms.mp4	56.repeated_touch_with_nail_file_short_horflip_short_600ms.mp4	89.02821855214052	89.6366206005282	0.6084020483876884				
100.2822265625	0.2	205378	59	76	0	0	0	59	335	stimuli\Videos_short_600ms_vertflip\69.stroke_with_soft_sock_short_vertflip_short_600ms.mp4	69.stroke_with_soft_sock_short_vertflip_short_600ms.mp4	89.82822951957087	90.43651632196952	0.6082868023986521				
101.08203125	0.2	207016	60	76	0	0	0	60	207	stimuli\Videos_short_600ms_horvertflip\34.repeated_punch_with_hand_short_horvertflip_short_600ms.mp4	34.repeated_punch_with_hand_short_horvertflip_short_600ms.mp4	90.6281835971231	91.23658417927663	0.6084005821535357				
101.88232421875	0.2	208655	61	76	0	0	0	61	305	stimuli\Videos_short_600ms_vertflip\41.injection_with_blunt_syringe_short_vertflip_short_600ms.mp4	41.injection_with_blunt_syringe_short_vertflip_short_600ms.mp4	91.42816905208248	92.03650101448692	0.6083319624044634				
102.68212890625	0.2	210293	62	76	0	0	0	62	127	stimuli\Videos_short_600ms_horflip\43.touch_top_to_bottom_with_sharp_wooden_stick_short_horflip_short_600ms.mp4	43.touch_top_to_bottom_with_sharp_wooden_stick_short_horflip_short_600ms.mp4	92.22815421379482	92.83649761282412	0.6083433990293088				
103.48193359375	0.2	211931	63	76	0	0	0	63	249	stimuli\Videos_short_600ms_horvertflip\72.(short)stroke_with_finger_all_over_the_hand_short_horvertflip_short_600ms.mp4	72.(short)stroke_with_finger_all_over_the_hand_short_horvertflip_short_600ms.mp4	93.02812441992091	93.6364959706425	0.6083715507215857				
104.2822265625	0.2	213570	64	76	0	0	0	64	225	stimuli\Videos_short_600ms_horvertflip\50.single_(long)hard_push_with_thumb_short_horvertflip_short_600ms.mp4	50.single_(long)hard_push_with_thumb_short_horvertflip_short_600ms.mp4	93.82819667593004	94.436478199887	0.6082815239569754				
105.08203125	0.2	215208	65	76	0	0	0	65	353	stimuli\Videos_short_600ms_vertflip\85.touch_top_to_bottom_with_fabric_short_vertflip_short_600ms.mp4	85.touch_top_to_bottom_with_fabric_short_vertflip_short_600ms.mp4	94.62819737972268	95.23646688056078	0.6082695008381052				
105.88232421875	0.2	216847	66	76	0	0	0	66	214	stimuli\Videos_short_600ms_horvertflip\40.repeated_push_with_finger_short_horvertflip_short_600ms.mp4	40.repeated_push_with_finger_short_horvertflip_short_600ms.mp4	95.42822095676456	96.036455267988	0.6082343112234412				
106.68212890625	0.2	218485	67	76	0	0	0	67	32	stimuli\Videos_short_600ms\39.single_stab_with_scissors_short_short_600ms.mp4	39.single_stab_with_scissors_short_short_600ms.mp4	96.22820670497048	96.83644101619392	0.6082343112234412				
107.48193359375	0.2	220123	68	76	0	0	0	68	358	stimuli\Videos_short_600ms_vertflip\9.single_touch_with_hammer_short_vertflip_short_600ms.mp4	9.single_touch_with_hammer_short_vertflip_short_600ms.mp4	97.02822998876536	97.63643086985483	0.6082008810894877				
108.2822265625	0.2	221762	69	76	0	0	0	69	352	stimuli\Videos_short_600ms_vertflip\84.single_touch_with_cotton_bud_short_vertflip_short_600ms.mp4	84.single_touch_with_cotton_bud_short_vertflip_short_600ms.mp4	97.82809081383904	98.43641779104792	0.6083269772088897				
109.08203125	0.2	223400	70	76	0	0	0	70	30	stimuli\Videos_short_600ms\37.single_stab_with_nail_file_short_short_600ms.mp4	37.single_stab_with_nail_file_short_short_600ms.mp4	98.6280489968467	99.23640793795585	0.6083589411091452				
109.8818359375	0.2	225038	71	76	0	0	0	71	12	stimuli\Videos_short_600ms\20.single_touch_with_screwdriver_short_short_600ms.mp4	20.single_touch_with_screwdriver_short_short_600ms.mp4	99.42818957935788	100.03639485914891	0.6082052797910364				
110.68212890625	0.2	226677	72	76	0	0	0	72	169	stimuli\Videos_short_600ms_horflip\81.single_stroke_top_to_bottom_with_cotton_pad_short_horflip_short_600ms.mp4	81.single_stroke_top_to_bottom_with_cotton_pad_short_horflip_short_600ms.mp4	100.22807972911004	100.83642430112695	0.6083445720169038				
111.48193359375	0.2	228315	73	76	0	0	0	73	188	stimuli\Videos_short_600ms_horvertflip\17.repeated_touch_with_rolling_pin_short_horvertflip_short_600ms.mp4	17.repeated_touch_with_rolling_pin_short_horvertflip_short_600ms.mp4	101.02802530250574	101.63636782179492	0.6083425192891809				
112.28173828125	0.2	229953	74	76	0	0	0	74	88	stimuli\Videos_short_600ms\9.single_touch_with_hammer_short_short_600ms.mp4	9.single_touch_with_hammer_short_short_600ms.mp4	101.82814770371624	102.43635298350728	0.6082052797910364				
113.08203125	0.2	231592	75	76	0	0	0	75	94	stimuli\Videos_short_600ms_horflip\13.single_touch_with_pen_short_horflip_short_600ms.mp4	13.single_touch_with_pen_short_horflip_short_600ms.mp4	102.62807802827864	103.23632993430964	0.6082519060310005				
113.8818359375	0.2	233230	76	76	0	0	1	76	365	stimuli\Targets_short_600ms\hand-stroke_short_short_600ms.mp4	hand-stroke_short_short_600ms.mp4	103.42803591803975	104.03629808770802	0.6082621696682509				
114.681640625	0.2	234868	77	76	0	0	0	77	351	stimuli\Videos_short_600ms_vertflip\83.single_stroke_top_to_bottom_with_cotton_bud_short_vertflip_short_600ms.mp4	83.single_stroke_top_to_bottom_with_cotton_bud_short_vertflip_short_600ms.mp4	104.2280319298834	104.8363040699428	0.6082721400593982				
115.48193359375	0.2	236507	78	76	0	0	0	78	148	stimuli\Videos_short_600ms_horflip\62.touch_top_to_bottom_with_scissors_short_horflip_short_600ms.mp4	62.touch_top_to_bottom_with_scissors_short_horflip_short_600ms.mp4	105.02797046535623	105.63629157762944	0.6083211122731882				
116.28173828125	0.2	238145	79	76	0	0	0	79	118	stimuli\Videos_short_600ms_horflip\35.single_punch_with_hand_short_horflip_short_600ms.mp4	35.single_punch_with_hand_short_horflip_short_600ms.mp4	105.82802659279196	106.43627791232892	0.6082513195369756				
117.08154296875	0.2	239783	80	76	0	0	0	80	40	stimuli\Videos_short_600ms\46.scratching_top_to_bottom_with_finger_nails_short_short_600ms.mp4	46.scratching_top_to_bottom_with_finger_nails_short_short_600ms.mp4	106.62796688774506	107.23627157819828	0.6083046904532239				
117.8818359375	0.2	241422	81	76	0	0	0	81	89	stimuli\Videos_short_600ms\90.repeated_touch_with_sponge_short_short_600ms.mp4	90.repeated_touch_with_sponge_short_short_600ms.mp4	107.42796026036784	108.0362860645896	0.6083258042217494				
118.681640625	0.2	243060	82	76	0	0	0	82	288	stimuli\Videos_short_600ms_vertflip\26.single_touch_with_a_blunt_syringe_short_vertflip_short_600ms.mp4	26.single_touch_with_a_blunt_syringe_short_vertflip_short_600ms.mp4	108.22794864779507	108.83627445201682	0.6083258042217494				
119.4814453125	0.2	244698	83	76	0	0	0	83	261	stimuli\Videos_short_600ms_horvertflip\83.single_stroke_top_to_bottom_with_cotton_bud_short_horvertflip_short_600ms.mp4	83.single_stroke_top_to_bottom_with_cotton_bud_short_horvertflip_short_600ms.mp4	109.02804993523614	109.63625462853406	0.608204693297921				
120.28173828125	0.2	246337	84	76	0	0	0	84	228	stimuli\Videos_short_600ms_horvertflip\53.touch_top_to_bottom_with_knife_short_horvertflip_short_600ms.mp4	53.touch_top_to_bottom_with_knife_short_horvertflip_short_600ms.mp4	109.8279004966721	110.4362438957014	0.6083433990293088				
121.08154296875	0.2	247975	85	76	0	0	0	85	154	stimuli\Videos_short_600ms_horflip\68.stroke_top_to_bottom_with_shawl_short_horflip_short_600ms.mp4	68.stroke_top_to_bottom_with_shawl_short_horflip_short_600ms.mp4	110.62790823838714	111.23623169663506	0.6083234582479236				
121.88134765625	0.2	249613	86	76	0	0	0	86	210	stimuli\Videos_short_600ms_horvertflip\37.single_stab_with_nail_file_short_horvertflip_short_600ms.mp4	37.single_stab_with_nail_file_short_horvertflip_short_600ms.mp4	111.42789867854162	112.03621861782813	0.6083199392865026				
122.681640625	0.2	251252	87	76	0	0	0	87	313	stimuli\Videos_short_600ms_vertflip\49.repeated_slap_with_hand_short_vertflip_short_600ms.mp4	49.repeated_slap_with_hand_short_vertflip_short_600ms.mp4	112.2278858929817	112.8362090579826	0.6083231650009111				
123.4814453125	0.2	252890	88	76	0	0	0	88	298	stimuli\Videos_short_600ms_vertflip\35.single_punch_with_hand_short_vertflip_short_600ms.mp4	35.single_punch_with_hand_short_vertflip_short_600ms.mp4	113.02789246171004	113.63619539268213	0.6083029309720587				
124.28125	0.2	254528	89	76	0	0	0	89	195	stimuli\Videos_short_600ms_horvertflip\23.single_push_with_a_spoon_short_horvertflip_short_600ms.mp4	23.single_push_with_a_spoon_short_horvertflip_short_600ms.mp4	113.82788818030669	114.43618964504503	0.6083014647383607				
125.08154296875	0.2	256167	90	76	0	0	0	90	294	stimuli\Videos_short_600ms_vertflip\31.hand_grabbing_wrist_short_vertflip_short_600ms.mp4	31.hand_grabbing_wrist_short_vertflip_short_600ms.mp4	114.62785457422478	115.23617246078312	0.608317886558325				
125.88134765625	0.2	257805	91	76	0	0	0	91	139	stimuli\Videos_short_600ms_horflip\54.repeated_touch_with_knife_short_horflip_short_600ms.mp4	54.repeated_touch_with_knife_short_horflip_short_600ms.mp4	115.42781832892116	116.0361614347039	0.6083431057827511	2.0	2.0	2.275395098732133	1.0
160.47216796875	0.2	328647	92	76	1	0	0	0	96	stimuli\Videos_short_600ms_horflip\15.single_stroke_top_to_bottom_with_a_plastic_whisk_short_horflip_short_600ms.mp4	15.single_stroke_top_to_bottom_with_a_plastic_whisk_short_horflip_short_600ms.mp4	150.01900796370273	150.6273343544185	0.6083263907157743				
161.27197265625	0.2	330285	93	76	1	0	0	1	320	stimuli\Videos_short_600ms_vertflip\55.touch_top_to_bottom_with_nail_file_short_vertflip_short_600ms.mp4	55.touch_top_to_bottom_with_nail_file_short_vertflip_short_600ms.mp4	150.81899136593438	151.42731599716944	0.6083246312350639				
162.07177734375	0.2	331923	94	76	1	0	0	2	100	stimuli\Videos_short_600ms_horflip\19.single_touch_with_rolling_pin_short_horflip_short_600ms.mp4	19.single_touch_with_rolling_pin_short_horflip_short_600ms.mp4	151.61904309466854	152.22730438459666	0.608261289928123				
162.8720703125	0.2	333562	95	76	1	0	0	3	65	stimuli\Videos_short_600ms\69.stroke_with_soft_sock_short_short_600ms.mp4	69.stroke_with_soft_sock_short_short_600ms.mp4	152.41902913612105	153.02729306527044	0.6082639291494161				
163.671875	0.2	335200	96	76	1	0	0	4	324	stimuli\Videos_short_600ms_vertflip\59.single_push_with_long_side_pencil_short_vertflip_short_600ms.mp4	59.single_push_with_long_side_pencil_short_vertflip_short_600ms.mp4	153.2189392266555	153.8272612186688	0.608321992013316				
164.4716796875	0.2	336838	97	76	1	0	0	5	76	stimuli\Videos_short_600ms\79.long_with_soft_brush_all_over_the_hand_short_short_600ms.mp4	79.long_with_soft_brush_all_over_the_hand_short_short_600ms.mp4	154.019018813834	154.62727218609916	0.6082533722651533				
165.27197265625	0.2	338477	98	76	1	0	0	6	113	stimuli\Videos_short_600ms_horflip\30.finger_pulling_back_another_finger_short_horflip_short_600ms.mp4	30.finger_pulling_back_another_finger_short_horflip_short_600ms.mp4	154.81919605219446	155.42725588157737	0.6080598293829098				
166.07177734375	0.2	340115	99	76	1	0	1	7	376	stimuli\Targets_short_600ms_horvertflip\hand-pinch_short_vertflip_short_600ms.mp4	hand-pinch_short_vertflip_short_600ms.mp4	155.61895248141036	156.22724544199173	0.6082929605813661				
166.87158203125	0.2	341753	100	76	1	0	0	8	342	stimuli\Videos_short_600ms_vertflip\75.(long)stroke_with_fingers_all_over_the_hand_short_vertflip_short_600ms.mp4	75.(long)stroke_with_fingers_all_over_the_hand_short_vertflip_short_600ms.mp4	156.41888691142776	157.0272364686398	0.6083495572120228				
167.671875	0.2	343392	101	76	1	0	0	9	112	stimuli\Videos_short_600ms_horflip\3.single_push_with_finger_short_horflip_short_600ms.mp4	3.single_push_with_finger_short_horflip_short_600ms.mp4	157.21887588534855	157.82722192359915	0.6083460382506019				
168.4716796875	0.2	345030	102	76	1	0	0	10	11	stimuli\Videos_short_600ms\2.single_touch_with_finger_short_short_600ms.mp4	2.single_touch_with_finger_short_short_600ms.mp4	158.0188883190126	158.6272273193399	0.6083390003273053				
169.271484375	0.2	346668	103	76	1	0	0	11	83	stimuli\Videos_short_600ms\85.touch_top_to_bottom_with_fabric_short_short_600ms.mp4	85.touch_top_to_bottom_with_fabric_short_short_600ms.mp4	158.81891248254806	159.42717963741188	0.6082671548638245				
170.07177734375	0.2	348307	104	76	1	0	0	12	157	stimuli\Videos_short_600ms_horflip\70.(long)stroke_with_finger_all_over_the_hand_short_horflip_short_600ms.mp4	70.(long)stroke_with_finger_all_over_the_hand_short_horflip_short_600ms.mp4	159.61887213178943	160.22716333289054	0.6082912011011103				
170.87158203125	0.2	349945	105	76	1	0	0	13	77	stimuli\Videos_short_600ms\8.single_touch_with_hairbrush_short_short_600ms.mp4	8.single_touch_with_hairbrush_short_short_600ms.mp4	160.4189534784491	161.02716257044858	0.6082090919994698				
171.67138671875	0.2	351583	106	76	1	0	0	14	146	stimuli\Videos_short_600ms_horflip\60.single_push_with_tip_of_pencil_short_horflip_short_600ms.mp4	60.single_push_with_tip_of_pencil_short_horflip_short_600ms.mp4	161.21890843574238	161.8271178209884	0.6082093852460275				
172.4716796875	0.2	353222	107	76	1	0	0	15	153	stimuli\Videos_short_600ms_horflip\67.single_touch_with_sponge_short_horflip_short_600ms.mp4	67.single_touch_with_sponge_short_horflip_short_600ms.mp4	162.01884814420237	162.62710532867504	0.6082571844726772				
173.271484375	0.2	354860	108	76	1	0	1	16	379	stimuli\Targets_short_600ms_vertflip\chopstick-silver-tap_short_horvertflip_short_600ms.mp4	chopstick-silver-tap_short_horvertflip_short_600ms.mp4	162.81885940487882	163.42712245428766	0.6082630494088335				
174.07177734375	0.2	356499	109	76	1	0	0	17	116	stimuli\Videos_short_600ms_horflip\33.scratch_top_to_bottom_with_scissors_short_horflip_short_600ms.mp4	33.scratch_top_to_bottom_with_scissors_short_horflip_short_600ms.mp4	163.6187788793104	164.22710937548072	0.6083304961703107				
174.87158203125	0.2	358137	110	76	1	0	0	18	36	stimuli\Videos_short_600ms\42.single_slap_with_plastic_whisk_short_short_600ms.mp4	42.single_slap_with_plastic_whisk_short_short_600ms.mp4	164.4187924859616	165.02711213200064	0.6083196460390354				
175.67138671875	0.2	359775	111	76	1	0	0	19	142	stimuli\Videos_short_600ms_horflip\57.single_touch_with_nail_file_short_horflip_short_600ms.mp4	57.single_touch_with_nail_file_short_horflip_short_600ms.mp4	165.2187582933857	165.82711576826114	0.6083574748754472				
176.4716796875	0.2	361414	112	76	1	0	0	20	183	stimuli\Videos_short_600ms_horvertflip\12.repeated_touch_with_nail_file_short_horvertflip_short_600ms.mp4	12.repeated_touch_with_nail_file_short_horvertflip_short_600ms.mp4	166.0187692608156	166.62709594477792	0.608326683962332				
177.271484375	0.2	363052	113	76	1	0	0	21	316	stimuli\Videos_short_600ms_vertflip\51.repeated_touch_with_hammer_short_vertflip_short_600ms.mp4	51.repeated_touch_with_hammer_short_vertflip_short_600ms.mp4	166.81873506823968	167.42708110649028	0.6083460382506019				
178.0712890625	0.2	364690	114	76	1	0	0	22	350	stimuli\Videos_short_600ms_vertflip\82.repeated_touch_with_cotton_bud_short_vertflip_short_600ms.mp4	82.repeated_touch_with_cotton_bud_short_vertflip_short_600ms.mp4	167.6187219894332	168.22707506560664	0.6083530761734437				
178.87158203125	0.2	366329	115	76	1	0	1	23	368	stimuli\Targets_short_600ms_horflip\chopstickwood-tap_short_horflip_short_600ms.mp4	chopstickwood-tap_short_horflip_short_600ms.mp4	168.41871096335353	169.027060227319	0.6083492639654651				
179.67138671875	0.2	367967	116	76	1	0	0	24	39	stimuli\Videos_short_600ms\45.scratching_with_finger_nails_short_short_600ms.mp4	45.scratching_with_finger_nails_short_short_600ms.mp4	169.21871987805616	169.82704626877148	0.6083263907153196				
180.47119140625	0.2	369605	117	76	1	0	0	25	344	stimuli\Videos_short_600ms_vertflip\77.tapping_with_all_fingers_short_vertflip_short_600ms.mp4	77.tapping_with_all_fingers_short_vertflip_short_600ms.mp4	170.0186977085987	170.62703729542	0.6083395868213302				
181.271484375	0.2	371244	118	76	1	0	0	26	25	stimuli\Videos_short_600ms\32.single_(long)pinch_with_fingers_short_short_600ms.mp4	32.single_(long)pinch_with_fingers_short_short_600ms.mp4	170.8186608768019	171.42700368933765	0.6083428125357386				
182.0712890625	0.2	372882	119	76	1	0	0	27	174	stimuli\Videos_short_600ms_horflip\86.touch_top_to_bottom_with_hair_brush_short_horflip_short_600ms.mp4	86.touch_top_to_bottom_with_hair_brush_short_horflip_short_600ms.mp4	171.61869530397507	172.22695600740963	0.6082607034345529				
182.87109375	0.2	374520	120	76	1	0	0	28	106	stimuli\Videos_short_600ms_horflip\24.single_stroke_top_to_bottom_with_a_spoon_short_horflip_short_600ms.mp4	24.single_stroke_top_to_bottom_with_a_spoon_short_horflip_short_600ms.mp4	172.4186335462009	173.0270021644542	0.6083686182532801				
183.67138671875	0.2	376159	121	76	1	0	0	29	87	stimuli\Videos_short_600ms\89.single_touch_with_plastic_brush_short_short_600ms.mp4	89.single_touch_with_plastic_brush_short_short_600ms.mp4	173.218625159343	173.82698996538784	0.6083648060448468				
184.47119140625	0.2	377797	122	76	1	0	0	30	114	stimuli\Videos_short_600ms_horflip\31.hand_grabbing_wrist_short_horflip_short_600ms.mp4	31.hand_grabbing_wrist_short_horflip_short_600ms.mp4	174.0186988815858	174.62698245827005	0.6082835766842436				
185.27099609375	0.2	379435	123	76	1	0	0	31	242	stimuli\Videos_short_600ms_horvertflip\66.stroke_top_to_bottom_with_sponge_short_horvertflip_short_600ms.mp4	66.stroke_top_to_bottom_with_sponge_short_horvertflip_short_600ms.mp4	174.8186819905709	175.42696292803384	0.6082809374629505				
186.0712890625	0.2	381074	124	76	1	0	0	32	69	stimuli\Videos_short_600ms\72.(short)stroke_with_finger_all_over_the_hand_short_short_600ms.mp4	72.(short)stroke_with_finger_all_over_the_hand_short_short_600ms.mp4	175.61861407461402	176.2269275624708	0.6083134878567762				
186.87109375	0.2	382712	125	76	1	0	0	33	258	stimuli\Videos_short_600ms_horvertflip\80.stroke_with_sharp_stick_all_over_the_hand_short_horvertflip_short_600ms.mp4	80.stroke_with_sharp_stick_all_over_the_hand_short_horvertflip_short_600ms.mp4	176.41859777009267	177.0269012875583	0.6083035174656288				
187.6708984375	0.2	384350	126	76	1	0	0	34	29	stimuli\Videos_short_600ms\36.single_slap_with_full_hand_short_short_600ms.mp4	36.single_slap_with_full_hand_short_short_600ms.mp4	177.218625159343	177.8269046305718	0.6082794712287978				
188.47119140625	0.2	385989	127	76	1	0	0	35	290	stimuli\Videos_short_600ms_vertflip\28.single_injection_with_sharp_needle_short_vertflip_short_600ms.mp4	28.single_injection_with_sharp_needle_short_vertflip_short_600ms.mp4	178.01859155326065	178.62689008553116	0.6082985322705099				
189.27099609375	0.2	387627	128	76	1	0	1	36	378	stimuli\Targets_short_600ms_vertflip\brush-stroke_short_horvertflip_short_600ms.mp4	brush-stroke_short_horvertflip_short_600ms.mp4	178.81857876770073	179.4268896163362	0.6083108486354831				
190.07080078125	0.2	389265	129	76	1	0	0	37	49	stimuli\Videos_short_600ms\54.repeated_touch_with_knife_short_short_600ms.mp4	54.repeated_touch_with_knife_short_short_600ms.mp4	179.61863196266813	180.22687888350356	0.6082469208354269				
190.87109375	0.2	390904	130	76	1	0	0	38	301	stimuli\Videos_short_600ms_vertflip\38.double_slap_with_pencil_short_vertflip_short_600ms.mp4	38.double_slap_with_pencil_short_vertflip_short_600ms.mp4	180.41855730203545	181.0268836927512	0.6083263907157743				
191.6708984375	0.2	392542	131	76	1	0	0	39	101	stimuli\Videos_short_600ms_horflip\2.single_touch_with_finger_short_horflip_short_600ms.mp4	2.single_touch_with_finger_short_horflip_short_600ms.mp4	181.21860697804183	181.82687120043784	0.6082642223959738				
192.470703125	0.2	394180	132	76	1	0	0	40	233	stimuli\Videos_short_600ms_horvertflip\58.single_slap_with_pencil_short_horvertflip_short_600ms.mp4	58.single_slap_with_pencil_short_horvertflip_short_600ms.mp4	182.0185425810469	182.62686955825575	0.6083269772088897				
193.27099609375	0.2	395819	133	76	1	0	0	41	255	stimuli\Videos_short_600ms_horvertflip\78.single_stroke_top_to_bottom_with_soft_brush_short_horvertflip_short_600ms.mp4	78.single_stroke_top_to_bottom_with_soft_brush_short_horvertflip_short_600ms.mp4	182.8185239305508	183.42684856178585	0.6083246312350639				
194.07080078125	0.2	397457	134	76	1	0	0	42	105	stimuli\Videos_short_600ms_horflip\23.single_push_with_a_spoon_short_horflip_short_600ms.mp4	23.single_push_with_a_spoon_short_horflip_short_600ms.mp4	183.61851466395228	184.22683841544676	0.6083237514944813				
194.87109375	0.2	399096	135	76	1	0	0	43	15	stimuli\Videos_short_600ms\23.single_push_with_a_spoon_short_short_600ms.mp4	23.single_push_with_a_spoon_short_short_600ms.mp4	184.41849747969036	185.02682357715912	0.6083260974687619				
195.6708984375	0.2	400734	136	76	1	0	0	44	238	stimuli\Videos_short_600ms_horvertflip\62.touch_top_to_bottom_with_scissors_short_horvertflip_short_600ms.mp4	62.touch_top_to_bottom_with_scissors_short_horvertflip_short_600ms.mp4	185.21847384399916	185.82681372406705	0.6083398800678879				
196.470703125	0.2	402372	137	76	1	0	0	45	314	stimuli\Videos_short_600ms_vertflip\5.repeated_tap_with_finger_moving_from_top_to_bottom_short_vertflip_short_600ms.mp4	5.repeated_tap_with_finger_moving_from_top_to_bottom_short_vertflip_short_600ms.mp4	186.01845929895808	186.62680093850668	0.6083416395485983				
197.27099609375	0.2	404011	138	76	1	0	0	46	191	stimuli\Videos_short_600ms_horvertflip\2.single_touch_with_finger_short_horvertflip_short_600ms.mp4	2.single_touch_with_finger_short_horvertflip_short_600ms.mp4	186.8184204144336	187.42678991242747	0.6083694979938628				
198.07080078125	0.2	405649	139	76	1	0	0	47	202	stimuli\Videos_short_600ms_horvertflip\3.single_push_with_finger_short_horvertflip_short_600ms.mp4	3.single_push_with_finger_short_horvertflip_short_600ms.mp4	187.61860762318472	188.22677536738684	0.6081677442020919				
198.87060546875	0.2	407287	140	76	1	0	0	48	129	stimuli\Videos_short_600ms_horflip\45.scratching_with_finger_nails_short_horflip_short_600ms.mp4	45.scratching_with_finger_nails_short_horflip_short_600ms.mp4	188.41844880072313	189.0267640480606	0.6083152473374867				
199.6708984375	0.2	408926	141	76	1	0	0	49	234	stimuli\Videos_short_600ms_horvertflip\59.single_push_with_long_side_pencil_short_horvertflip_short_600ms.mp4	59.single_push_with_long_side_pencil_short_horvertflip_short_600ms.mp4	189.21847120477787	189.82675507470867	0.6082838699308013				
200.470703125	0.2	410564	142	76	1	0	0	50	187	stimuli\Videos_short_600ms_horvertflip\16.repeated_touch_with_plastic_brush_short_horvertflip_short_600ms.mp4	16.repeated_touch_with_plastic_brush_short_horvertflip_short_600ms.mp4	190.01840270232788	190.62671853615893	0.6083158338310568				
201.2705078125	0.2	412202	143	76	1	0	0	51	181	stimuli\Videos_short_600ms_horvertflip\10.single_touch_with_knife_short_horvertflip_short_600ms.mp4	10.single_touch_with_knife_short_horvertflip_short_600ms.mp4	190.8184122035236	191.4267151344961	0.6083029309725134				
202.07080078125	0.2	413841	144	76	1	0	0	52	136	stimuli\Videos_short_600ms_horflip\51.repeated_touch_with_hammer_short_horflip_short_600ms.mp4	51.repeated_touch_with_hammer_short_horflip_short_600ms.mp4	191.61840293692512	192.2266604146448	0.6082574777196896				
202.87060546875	0.2	415479	145	76	1	0	0	53	20	stimuli\Videos_short_600ms\28.single_injection_with_sharp_needle_short_short_600ms.mp4	28.single_injection_with_sharp_needle_short_short_600ms.mp4	192.41838428642905	193.02666170493103	0.6082774185019844				
203.67041015625	0.2	417117	146	76	1	0	0	54	52	stimuli\Videos_short_600ms\57.single_touch_with_nail_file_short_short_600ms.mp4	57.single_touch_with_nail_file_short_short_600ms.mp4	193.21835390606157	193.82664891937063	0.608295013309089				
204.470703125	0.2	418756	147	76	1	0	0	55	356	stimuli\Videos_short_600ms_vertflip\88.repeated_stroke_with_plastic_brush_short_vertflip_short_600ms.mp4	88.repeated_stroke_with_plastic_brush_short_vertflip_short_600ms.mp4	194.01837836284403	194.62667015043823	0.6082917875942258				
205.2705078125	0.2	420394	148	76	1	0	0	56	63	stimuli\Videos_short_600ms\67.single_touch_with_sponge_short_short_600ms.mp4	67.single_touch_with_sponge_short_short_600ms.mp4	194.8184010601458	195.42665560539763	0.6082545452518389				
206.0703125	0.2	422032	149	76	1	0	0	57	322	stimuli\Videos_short_600ms_vertflip\57.single_touch_with_nail_file_short_vertflip_short_600ms.mp4	57.single_touch_with_nail_file_short_vertflip_short_600ms.mp4	195.61833461042303	196.2265932611299	0.6082586507068299				
206.87060546875	0.2	423671	150	76	1	0	0	58	281	stimuli\Videos_short_600ms_vertflip\2.single_touch_with_finger_short_vertflip_short_600ms.mp4	2.single_touch_with_finger_short_vertflip_short_600ms.mp4	196.41832241135623	197.0266505615527	0.6083281501964848				
207.67041015625	0.2	425309	151	76	1	0	0	59	102	stimuli\Videos_short_600ms_horflip\20.single_touch_with_screwdriver_short_horflip_short_600ms.mp4	20.single_touch_with_screwdriver_short_horflip_short_600ms.mp4	197.2182882187808	197.82664334768197	0.6083551289011666				
208.47021484375	0.2	426947	152	76	1	0	0	60	274	stimuli\Videos_short_600ms_vertflip\13.single_touch_with_pen_short_vertflip_short_600ms.mp4	13.single_touch_with_pen_short_vertflip_short_600ms.mp4	198.01830006595085	198.62662792290075	0.6083278569499271				
209.2705078125	0.2	428586	153	76	1	0	0	61	327	stimuli\Videos_short_600ms_vertflip\61.single_hit_with_rolling_pin_short_vertflip_short_600ms.mp4	61.single_hit_with_rolling_pin_short_vertflip_short_600ms.mp4	198.8182649936348	199.42661484409385	0.6083498504590352				
210.0703125	0.2	430224	154	76	1	0	0	62	160	stimuli\Videos_short_600ms_horflip\73.single_stroke_with_flat_hand_short_horflip_short_600ms.mp4	73.single_stroke_with_flat_hand_short_horflip_short_600ms.mp4	199.6183340239295	200.22660880320973	0.6082747792802365				
210.8701171875	0.2	431862	155	76	1	0	1	63	382	stimuli\Targets_short_600ms_vertflip\hand-pinch_short_horvertflip_short_600ms.mp4	hand-pinch_short_horvertflip_short_600ms.mp4	200.41832681005823	201.02659308518196	0.6082662751236967				
211.67041015625	0.2	433501	156	76	1	0	0	64	209	stimuli\Videos_short_600ms_horvertflip\36.single_slap_with_full_hand_short_horvertflip_short_600ms.mp4	36.single_slap_with_full_hand_short_horvertflip_short_600ms.mp4	201.21824364526856	201.82657707390717	0.6083334286386162				
212.47021484375	0.2	435139	157	76	1	0	0	65	140	stimuli\Videos_short_600ms_horflip\55.touch_top_to_bottom_with_nail_file_short_horflip_short_600ms.mp4	55.touch_top_to_bottom_with_nail_file_short_horflip_short_600ms.mp4	202.01822616776008	202.6265645815938	0.6083384138337351				
213.2705078125	0.2	436778	158	76	1	0	0	66	42	stimuli\Videos_short_600ms\48.single_slap_with_hand_short_short_600ms.mp4	48.single_slap_with_hand_short_short_600ms.mp4	202.8181887494693	203.42655590148888	0.6083671520195821				
214.0703125	0.2	438416	159	76	1	0	0	67	297	stimuli\Videos_short_600ms_vertflip\34.repeated_punch_with_hand_short_vertflip_short_600ms.mp4	34.repeated_punch_with_hand_short_vertflip_short_600ms.mp4	203.6181753774158	204.22655719177465	0.608381814358836				
214.8701171875	0.2	440054	160	76	1	0	0	68	315	stimuli\Videos_short_600ms_vertflip\50.single_(long)hard_push_with_thumb_short_vertflip_short_600ms.mp4	50.single_(long)hard_push_with_thumb_short_vertflip_short_600ms.mp4	204.41819778147055	205.02651068283376	0.608312901363206				
215.67041015625	0.2	441693	161	76	1	0	0	69	61	stimuli\Videos_short_600ms\65.stroke_top_to_bottom_with_stanley_knife_short_short_600ms.mp4	65.stroke_top_to_bottom_with_stanley_knife_short_short_600ms.mp4	205.21818411617005	205.82652223675723	0.6083381205871774				
216.47021484375	0.2	443331	162	76	1	0	0	70	217	stimuli\Videos_short_600ms_horvertflip\43.touch_top_to_bottom_with_sharp_wooden_stick_short_horvertflip_short_600ms.mp4	43.touch_top_to_bottom_with_sharp_wooden_stick_short_horvertflip_short_600ms.mp4	206.0181874591835	206.6264848184669	0.6082973592833696				
217.27001953125	0.2	444969	163	76	1	0	0	71	115	stimuli\Videos_short_600ms_horflip\32.single_(long)pinch_with_fingers_short_horflip_short_600ms.mp4	32.single_(long)pinch_with_fingers_short_horflip_short_600ms.mp4	206.8181743803766	207.4264541448524	0.6082797644758102				
218.0703125	0.2	446608	164	76	1	0	0	72	308	stimuli\Videos_short_600ms_vertflip\44.pushing_top_to_bottom_with_finger_short_vertflip_short_600ms.mp4	44.pushing_top_to_bottom_with_finger_short_vertflip_short_600ms.mp4	207.61820206287393	208.22644253227963	0.6082404694057004				
218.8701171875	0.2	448246	165	76	1	0	0	73	267	stimuli\Videos_short_600ms_horvertflip\89.single_touch_with_plastic_brush_short_horvertflip_short_600ms.mp4	89.single_touch_with_plastic_brush_short_horvertflip_short_600ms.mp4	208.4181514484776	209.0264294534727	0.6082780049950998				
219.669921875	0.2	449884	166	76	1	0	0	74	91	stimuli\Videos_short_600ms_horflip\10.single_touch_with_knife_short_horflip_short_600ms.mp4	10.single_touch_with_knife_short_horflip_short_600ms.mp4	209.2181360236964	209.8264474588259	0.608311435129508				
220.47021484375	0.2	451523	167	76	1	0	0	75	219	stimuli\Videos_short_600ms_horvertflip\45.scratching_with_finger_nails_short_horvertflip_short_600ms.mp4	45.scratching_with_finger_nails_short_horvertflip_short_600ms.mp4	210.0181041770952	210.62643174079767	0.6083275637024599				
221.27001953125	0.2	453161	168	76	1	0	0	76	197	stimuli\Videos_short_600ms_horvertflip\25.single_touch_with_stanley_knife_short_horvertflip_short_600ms.mp4	25.single_touch_with_stanley_knife_short_horvertflip_short_600ms.mp4	210.81816616946665	211.42642745939472	0.608261289928123				
222.06982421875	0.2	454799	169	76	1	0	0	77	345	stimuli\Videos_short_600ms_vertflip\78.single_stroke_top_to_bottom_with_soft_brush_short_vertflip_short_600ms.mp4	78.single_stroke_top_to_bottom_with_soft_brush_short_vertflip_short_600ms.mp4	211.6180853506512	212.2264372538375	0.6083519031863034				
222.8701171875	0.2	456438	170	76	1	0	0	78	340	stimuli\Videos_short_600ms_vertflip\73.single_stroke_with_flat_hand_short_vertflip_short_600ms.mp4	73.single_stroke_with_flat_hand_short_vertflip_short_600ms.mp4	212.41808840041767	213.0264159641206	0.6083275637029146				
223.669921875	0.2	458076	171	76	1	0	0	79	245	stimuli\Videos_short_600ms_horvertflip\69.stroke_with_soft_sock_short_horvertflip_short_600ms.mp4	69.stroke_with_soft_sock_short_horvertflip_short_600ms.mp4	213.218111390966	213.82640259206664	0.6082912011006556				
224.4697265625	0.2	459714	172	76	1	0	0	80	343	stimuli\Videos_short_600ms_vertflip\76.tickle_with_fingers_from_top_to_bottom_short_vertflip_short_600ms.mp4	76.tickle_with_fingers_from_top_to_bottom_short_vertflip_short_600ms.mp4	214.01810153787392	214.62639420520873	0.6082926673348084				
225.27001953125	0.2	461353	173	76	1	0	0	81	62	stimuli\Videos_short_600ms\66.stroke_top_to_bottom_with_sponge_short_short_600ms.mp4	66.stroke_top_to_bottom_with_sponge_short_short_600ms.mp4	214.81803244893035	215.42638053990825	0.60834809097787				
226.06982421875	0.2	462991	174	76	1	0	1	82	375	stimuli\Targets_short_600ms_horvertflip\finger-tap_short_vertflip_short_600ms.mp4	finger-tap_short_vertflip_short_600ms.mp4	215.61804341636025	216.22636892733544	0.6083255109751917				
226.86962890625	0.2	464629	175	76	1	0	0	83	79	stimuli\Videos_short_600ms\81.single_stroke_top_to_bottom_with_cotton_pad_short_short_600ms.mp4	81.single_stroke_top_to_bottom_with_cotton_pad_short_short_600ms.mp4	216.41807901652055	217.02635966073697	0.6082806442163928				
227.669921875	0.2	466268	176	76	1	0	1	84	360	stimuli\Targets_short_600ms\brush-stroke_short_short_600ms.mp4	brush-stroke_short_short_600ms.mp4	217.21800435588784	217.8263407169943	0.6083363611064669				
228.4697265625	0.2	467906	177	76	1	0	0	85	247	stimuli\Videos_short_600ms_horvertflip\70.(long)stroke_with_finger_all_over_the_hand_short_horvertflip_short_600ms.mp4	70.(long)stroke_with_finger_all_over_the_hand_short_horvertflip_short_600ms.mp4	218.01796517811636	218.6263343828637	0.608369204747305				
229.26953125	0.2	469544	178	76	1	0	0	86	355	stimuli\Videos_short_600ms_vertflip\87.single_stroke_top_to_bottom_with_plastic_brush_short_vertflip_short_600ms.mp4	87.single_stroke_top_to_bottom_with_plastic_brush_short_vertflip_short_600ms.mp4	218.81796382918128	219.426319544576	0.6083557153947368				
230.06982421875	0.2	471183	179	76	1	0	0	87	331	stimuli\Videos_short_600ms_vertflip\65.stroke_top_to_bottom_with_stanley_knife_short_vertflip_short_600ms.mp4	65.stroke_top_to_bottom_with_stanley_knife_short_vertflip_short_600ms.mp4	219.6180011888223	220.2263079320028	0.608306743180492				
230.86962890625	0.2	472821	180	76	1	0	0	88	235	stimuli\Videos_short_600ms_horvertflip\6.single_touch_with_flat_hand_short_horvertflip_short_600ms.mp4	6.single_touch_with_flat_hand_short_horvertflip_short_600ms.mp4	220.41809250587264	221.02629866540428	0.608206159531619				
231.669921875	0.2	474460	181	76	1	0	0	89	236	stimuli\Videos_short_600ms_horvertflip\60.single_push_with_tip_of_pencil_short_horvertflip_short_600ms.mp4	60.single_push_with_tip_of_pencil_short_horvertflip_short_600ms.mp4	221.21794218756804	221.82626887153037	0.608326683962332				
232.4697265625	0.2	476098	182	76	1	0	0	90	248	stimuli\Videos_short_600ms_horvertflip\71.single_stroke_with_finger_top_to_bottom_short_horvertflip_short_600ms.mp4	71.single_stroke_with_finger_top_to_bottom_short_horvertflip_short_600ms.mp4	222.01795960642767	222.6262572589576	0.6082976525299273				
233.26953125	0.2	477736	183	76	1	0	0	91	126	stimuli\Videos_short_600ms_horflip\42.single_slap_with_plastic_whisk_short_horflip_short_600ms.mp4	42.single_slap_with_plastic_whisk_short_horflip_short_600ms.mp4	222.8179365572296	223.42624242066995	0.6083058634403642				
234.06982421875	0.2	479375	184	76	1	0	0	92	103	stimuli\Videos_short_600ms_horflip\21.repeated_touch_with_metal_chopstick_short_horflip_short_600ms.mp4	21.repeated_touch_with_metal_chopstick_short_horflip_short_600ms.mp4	223.61792846361823	224.22621028082176	0.6082818172035331				
234.86962890625	0.2	481013	185	76	1	0	0	93	31	stimuli\Videos_short_600ms\38.double_slap_with_pencil_short_short_600ms.mp4	38.double_slap_with_pencil_short_short_600ms.mp4	224.41789163182148	225.0262212482517	0.6083296164301828				
235.677734375	0.2	482668	186	76	1	0	0	94	179	stimuli\Videos_short_600ms_horflip\90.repeated_touch_with_sponge_short_horflip_short_600ms.mp4	90.repeated_touch_with_sponge_short_horflip_short_600ms.mp4	225.22619415224835	225.83455661231892	0.6083624600705662				
236.47802734375	0.2	484307	187	76	1	0	0	95	319	stimuli\Videos_short_600ms_vertflip\54.repeated_touch_with_knife_short_vertflip_short_600ms.mp4	54.repeated_touch_with_knife_short_vertflip_short_600ms.mp4	226.02616817058288	226.63453092390048	0.6083627533175786				
237.27783203125	0.2	485945	188	76	1	0	0	96	28	stimuli\Videos_short_600ms\35.single_punch_with_hand_short_short_600ms.mp4	35.single_punch_with_hand_short_short_600ms.mp4	226.8262524497104	227.43453338717336	0.6082809374629505	7.0	7.0	2.0922096937420065	1.0
272.2431640625	0.2	557554	189	76	2	0	0	0	279	stimuli\Videos_short_600ms_vertflip\18.single_stroke_from_top_to_bottom_with_rolling_pin_short_vertflip_short_600ms.mp4	18.single_stroke_from_top_to_bottom_with_rolling_pin_short_vertflip_short_600ms.mp4	261.79235106801934	262.40069094808723	0.6083398800678879				
273.04345703125	0.2	559193	190	76	2	0	0	1	338	stimuli\Videos_short_600ms_vertflip\71.single_stroke_with_finger_top_to_bottom_short_vertflip_short_600ms.mp4	71.single_stroke_with_finger_top_to_bottom_short_vertflip_short_600ms.mp4	262.5923549975264	263.2006778692803	0.6083228717538987				
273.84326171875	0.2	560831	191	76	2	0	0	2	300	stimuli\Videos_short_600ms_vertflip\37.single_stab_with_nail_file_short_vertflip_short_600ms.mp4	37.single_stab_with_nail_file_short_vertflip_short_600ms.mp4	263.39232579014606	264.0006665499541	0.6083407598080157				
274.64306640625	0.2	562469	192	76	2	0	0	3	110	stimuli\Videos_short_600ms_horflip\28.single_injection_with_sharp_needle_short_horflip_short_600ms.mp4	28.single_injection_with_sharp_needle_short_horflip_short_600ms.mp4	264.19256255760456	264.8006549373813	0.6080923797767355				
275.443359375	0.2	564108	193	76	2	0	0	4	199	stimuli\Videos_short_600ms_horvertflip\27.single_push_with_a_plastic_whisk_short_horvertflip_short_600ms.mp4	27.single_push_with_a_plastic_whisk_short_horvertflip_short_600ms.mp4	264.9923600413713	265.6006415653278	0.6082815239565207				
276.2431640625	0.2	565746	194	76	2	0	0	5	81	stimuli\Videos_short_600ms\83.single_stroke_top_to_bottom_with_cotton_bud_short_short_600ms.mp4	83.single_stroke_top_to_bottom_with_cotton_bud_short_short_600ms.mp4	265.79238420490674	266.4006314189887	0.6082472140819846				
277.04296875	0.2	567384	195	76	2	0	0	6	168	stimuli\Videos_short_600ms_horflip\80.stroke_with_sharp_stick_all_over_the_hand_short_horflip_short_600ms.mp4	80.stroke_with_sharp_stick_all_over_the_hand_short_horflip_short_600ms.mp4	266.5923016266106	267.2006200996625	0.6083184730518951				
277.84326171875	0.2	569023	196	76	2	0	0	7	252	stimuli\Videos_short_600ms_horvertflip\75.(long)stroke_with_fingers_all_over_the_hand_short_horvertflip_short_600ms.mp4	75.(long)stroke_with_fingers_all_over_the_hand_short_horvertflip_short_600ms.mp4	267.3924246143142	268.00058590708704	0.6081612927728202				
278.64306640625	0.2	570661	197	76	2	0	0	8	35	stimuli\Videos_short_600ms\41.injection_with_blunt_syringe_short_short_600ms.mp4	41.injection_with_blunt_syringe_short_short_600ms.mp4	268.19234174277153	268.80059042308767	0.6082486803161373				
279.443359375	0.2	572300	198	76	2	0	0	9	4	stimuli\Videos_short_600ms\13.single_touch_with_pen_short_short_600ms.mp4	13.single_touch_with_pen_short_short_600ms.mp4	268.99226532265766	269.6005380492106	0.6082727265529684				
280.2431640625	0.2	573938	199	76	2	0	0	10	71	stimuli\Videos_short_600ms\74.fingers_walking_from_top_to_bottom_short_short_600ms.mp4	74.fingers_walking_from_top_to_bottom_short_short_600ms.mp4	269.7922490181363	270.40052672988486	0.6082777117485421				
281.04296875	0.2	575576	200	76	2	0	1	11	377	stimuli\Targets_short_600ms_horvertflip\hand-stroke_short_vertflip_short_600ms.mp4	hand-stroke_short_vertflip_short_600ms.mp4	270.59223300686153	271.20051541055864	0.6082824036971033				
281.84326171875	0.2	577215	201	76	2	0	0	12	171	stimuli\Videos_short_600ms_horflip\83.single_stroke_top_to_bottom_with_cotton_bud_short_horflip_short_600ms.mp4	83.single_stroke_top_to_bottom_with_cotton_bud_short_horflip_short_600ms.mp4	271.392261569099	272.00053840110695	0.6082768320079595				
282.64306640625	0.2	578853	202	76	2	0	0	13	192	stimuli\Videos_short_600ms_horvertflip\20.single_touch_with_screwdriver_short_horvertflip_short_600ms.mp4	20.single_touch_with_screwdriver_short_horvertflip_short_600ms.mp4	272.19220948846896	272.80051799113016	0.6083085026612025				
283.44287109375	0.2	580491	203	76	2	0	0	14	348	stimuli\Videos_short_600ms_vertflip\80.stroke_with_sharp_stick_all_over_the_hand_short_vertflip_short_600ms.mp4	80.stroke_with_sharp_stick_all_over_the_hand_short_vertflip_short_600ms.mp4	272.992204913819	273.60053335726207	0.6083284434430425				
284.2431640625	0.2	582130	204	76	2	0	0	15	46	stimuli\Videos_short_600ms\51.repeated_touch_with_hammer_short_short_600ms.mp4	51.repeated_touch_with_hammer_short_short_600ms.mp4	273.7921748266981	274.4005199852086	0.608345158510474				
285.04296875	0.2	583768	205	76	2	0	0	16	72	stimuli\Videos_short_600ms\75.(long)stroke_with_fingers_all_over_the_hand_short_short_600ms.mp4	75.(long)stroke_with_fingers_all_over_the_hand_short_short_600ms.mp4	274.59214855178607	275.20050104146594	0.6083524896798735				
285.8427734375	0.2	585406	206	76	2	0	0	17	143	stimuli\Videos_short_600ms_horflip\58.single_slap_with_pencil_short_horflip_short_600ms.mp4	58.single_slap_with_pencil_short_horflip_short_600ms.mp4	275.3921624516838	276.00048327071045	0.6083208190266305				
286.64306640625	0.2	587045	207	76	2	0	0	18	124	stimuli\Videos_short_600ms_horflip\40.repeated_push_with_finger_short_horflip_short_600ms.mp4	40.repeated_push_with_finger_short_horflip_short_600ms.mp4	276.192150545864	276.8004663796951	0.6083158338310568				
287.44287109375	0.2	588683	208	76	2	0	1	19	363	stimuli\Targets_short_600ms\finger-tap_short_short_600ms.mp4	finger-tap_short_short_600ms.mp4	276.9921166465351	277.60040462192137	0.6082879753862471				
288.24267578125	0.2	590321	209	76	2	0	0	20	68	stimuli\Videos_short_600ms\71.single_stroke_with_finger_top_to_bottom_short_short_600ms.mp4	71.single_stroke_with_finger_top_to_bottom_short_short_600ms.mp4	277.7921003420138	278.4004455005238	0.6083451585100192				
289.04296875	0.2	591960	210	76	2	0	0	21	325	stimuli\Videos_short_600ms_vertflip\6.single_touch_with_flat_hand_short_vertflip_short_600ms.mp4	6.single_touch_with_flat_hand_short_vertflip_short_600ms.mp4	278.59208051853057	279.2004283162619	0.6083477977313123				
289.8427734375	0.2	593598	211	76	2	0	0	22	120	stimuli\Videos_short_600ms_horflip\37.single_stab_with_nail_file_short_horflip_short_600ms.mp4	37.single_stab_with_nail_file_short_horflip_short_600ms.mp4	279.39208180881633	280.00041729018267	0.6083354813663391				
290.642578125	0.2	595236	212	76	2	0	0	23	240	stimuli\Videos_short_600ms_horvertflip\64.repeated_touch_with_screwdriver_short_horvertflip_short_600ms.mp4	64.repeated_touch_with_screwdriver_short_horvertflip_short_600ms.mp4	280.1920520149424	280.8006261991959	0.6085741842534844				
291.44287109375	0.2	596875	213	76	2	0	0	24	291	stimuli\Videos_short_600ms_vertflip\29.single_pinch_with_tweezers_short_vertflip_short_600ms.mp4	29.single_pinch_with_tweezers_short_vertflip_short_600ms.mp4	280.99219201096	281.6003920123094	0.6082000013493598				
292.24267578125	0.2	598513	214	76	2	0	0	25	196	stimuli\Videos_short_600ms_horvertflip\24.single_stroke_top_to_bottom_with_a_spoon_short_horvertflip_short_600ms.mp4	24.single_stroke_top_to_bottom_with_a_spoon_short_horvertflip_short_600ms.mp4	281.7921205760422	282.40038069298316	0.6082601169409827				
293.04248046875	0.2	600151	215	76	2	0	0	26	310	stimuli\Videos_short_600ms_vertflip\46.scratching_top_to_bottom_with_finger_nails_short_vertflip_short_600ms.mp4	46.scratching_top_to_bottom_with_finger_nails_short_vertflip_short_600ms.mp4	282.5920570587873	283.20034884638153	0.6082917875942258				
293.8427734375	0.2	601790	216	76	2	0	0	27	193	stimuli\Videos_short_600ms_horvertflip\21.repeated_touch_with_metal_chopstick_short_horvertflip_short_600ms.mp4	21.repeated_touch_with_metal_chopstick_short_horvertflip_short_600ms.mp4	283.39227799091896	284.00031875926106	0.6080407683421072				
294.642578125	0.2	603428	217	76	2	0	0	28	226	stimuli\Videos_short_600ms_horvertflip\51.repeated_touch_with_hammer_short_horvertflip_short_600ms.mp4	51.repeated_touch_with_hammer_short_horvertflip_short_600ms.mp4	284.19203031467987	284.8003039209734	0.608273606293551				
295.4423828125	0.2	605066	218	76	2	0	0	29	334	stimuli\Videos_short_600ms_vertflip\68.stroke_top_to_bottom_with_shawl_short_vertflip_short_600ms.mp4	68.stroke_top_to_bottom_with_shawl_short_vertflip_short_600ms.mp4	284.99250549177896	285.6003002260636	0.6077947342846528				
296.24267578125	0.2	606705	219	76	2	0	0	30	186	stimuli\Videos_short_600ms_horvertflip\15.single_stroke_top_to_bottom_with_a_plastic_whisk_short_horvertflip_short_600ms.mp4	15.single_stroke_top_to_bottom_with_a_plastic_whisk_short_horvertflip_short_600ms.mp4	285.792653698707	286.40028216206156	0.6076284633545583				
297.04248046875	0.2	608343	220	76	2	0	0	31	190	stimuli\Videos_short_600ms_horvertflip\19.single_touch_with_rolling_pin_short_horvertflip_short_600ms.mp4	19.single_touch_with_rolling_pin_short_horvertflip_short_600ms.mp4	286.59209723359754	287.20029107676373	0.6081938431661911				
297.8427734375	0.2	609982	221	76	2	0	0	32	166	stimuli\Videos_short_600ms_horflip\79.long_with_soft_brush_all_over_the_hand_short_horflip_short_600ms.mp4	79.long_with_soft_brush_all_over_the_hand_short_horflip_short_600ms.mp4	287.39197682646545	288.00026333561755	0.6082865091520944				
298.642578125	0.2	611620	222	76	2	0	0	33	22	stimuli\Videos_short_600ms\3.single_push_with_finger_short_short_600ms.mp4	3.single_push_with_finger_short_short_600ms.mp4	288.1920177050679	288.80028280720444	0.6082651021365564				
299.4423828125	0.2	613258	223	76	2	0	1	34	372	stimuli\Targets_short_600ms_horvertflip\brush-stroke_short_vertflip_short_600ms.mp4	brush-stroke_short_vertflip_short_600ms.mp4	288.99192075767905	289.6002785258015	0.6083577681224597				
300.24267578125	0.2	614897	224	76	2	0	0	35	309	stimuli\Videos_short_600ms_vertflip\45.scratching_with_finger_nails_short_vertflip_short_600ms.mp4	45.scratching_with_finger_nails_short_vertflip_short_600ms.mp4	289.79228332801085	290.4002399345236	0.6079566065127437				
301.05078125	0.2	616552	225	76	2	0	0	36	138	stimuli\Videos_short_600ms_horflip\53.touch_top_to_bottom_with_knife_short_horflip_short_600ms.mp4	53.touch_top_to_bottom_with_knife_short_horflip_short_600ms.mp4	290.60028292450306	291.2085621024853	0.6082791779822401				
301.8505859375	0.2	618190	226	76	2	0	0	37	92	stimuli\Videos_short_600ms_horflip\11.single_touch_with_lighter_short_horflip_short_600ms.mp4	11.single_touch_with_lighter_short_horflip_short_600ms.mp4	291.40018363113995	292.0085282031564	0.6083445720164491				
302.6591796875	0.2	619846	227	76	2	0	0	38	278	stimuli\Videos_short_600ms_vertflip\17.repeated_touch_with_rolling_pin_short_vertflip_short_600ms.mp4	17.repeated_touch_with_rolling_pin_short_vertflip_short_600ms.mp4	292.20857617833144	292.8168629807301	0.6082868023986521				
303.458984375	0.2	621484	228	76	2	0	0	39	21	stimuli\Videos_short_600ms\29.single_pinch_with_tweezers_short_short_600ms.mp4	29.single_pinch_with_tweezers_short_short_600ms.mp4	293.0085088488686	293.6168290814012	0.6083202325326056				
304.2587890625	0.2	623122	229	76	2	0	0	40	339	stimuli\Videos_short_600ms_vertflip\72.(short)stroke_with_finger_all_over_the_hand_short_vertflip_short_600ms.mp4	72.(short)stroke_with_finger_all_over_the_hand_short_vertflip_short_600ms.mp4	293.8087758207462	294.41677993323947	0.6080041124932904				
305.05908203125	0.2	624761	230	76	2	0	0	41	205	stimuli\Videos_short_600ms_horvertflip\32.single_(long)pinch_with_fingers_short_horvertflip_short_600ms.mp4	32.single_(long)pinch_with_fingers_short_horvertflip_short_600ms.mp4	294.60851260242725	295.21677858430394	0.6082659818766842				
305.85888671875	0.2	626399	231	76	2	0	0	42	201	stimuli\Videos_short_600ms_horvertflip\29.single_pinch_with_tweezers_short_horvertflip_short_600ms.mp4	29.single_pinch_with_tweezers_short_horvertflip_short_600ms.mp4	295.40844146075597	296.01681858316624	0.6083771224102748				
306.65869140625	0.2	628037	232	76	2	0	1	43	366	stimuli\Targets_short_600ms_horflip\brush-stroke_short_horflip_short_600ms.mp4	brush-stroke_short_horflip_short_600ms.mp4	296.2084395253273	296.81679230825375	0.6083527829264312				
307.46728515625	0.2	629693	233	76	2	0	0	44	264	stimuli\Videos_short_600ms_horvertflip\86.touch_top_to_bottom_with_hair_brush_short_horvertflip_short_600ms.mp4	86.touch_top_to_bottom_with_hair_brush_short_horvertflip_short_600ms.mp4	297.0168112519964	297.62516608765054	0.6083548356541542				
308.26708984375	0.2	631331	234	76	2	0	0	45	45	stimuli\Videos_short_600ms\50.single_(long)hard_push_with_thumb_short_short_600ms.mp4	50.single_(long)hard_push_with_thumb_short_short_600ms.mp4	297.8167691417575	298.42512192468394	0.6083527829264312				
309.0673828125	0.2	632970	235	76	2	0	1	46	370	stimuli\Targets_short_600ms_horflip\hand-pinch_short_horflip_short_600ms.mp4	hand-pinch_short_horflip_short_600ms.mp4	298.61685693984646	299.2250891983422	0.6082322584957183				
309.8671875	0.2	634608	236	76	2	0	0	47	347	stimuli\Videos_short_600ms_vertflip\8.single_touch_with_hairbrush_short_vertflip_short_600ms.mp4	8.single_touch_with_hairbrush_short_vertflip_short_600ms.mp4	299.4167667371339	300.0251063239548	0.6083395868208754				
310.6669921875	0.2	636246	237	76	2	0	0	48	1	stimuli\Videos_short_600ms\10.single_touch_with_knife_short_short_600ms.mp4	10.single_touch_with_knife_short_short_600ms.mp4	300.2167970588516	300.8251296077501	0.6083325488984883				
311.46728515625	0.2	637885	238	76	2	0	0	49	80	stimuli\Videos_short_600ms\82.repeated_touch_with_cotton_bud_short_short_600ms.mp4	82.repeated_touch_with_cotton_bud_short_short_600ms.mp4	301.0169690187695	301.6251083180332	0.608139299263712				
312.26708984375	0.2	639523	239	76	2	0	0	50	67	stimuli\Videos_short_600ms\70.(long)stroke_with_finger_all_over_the_hand_short_short_600ms.mp4	70.(long)stroke_with_finger_all_over_the_hand_short_short_600ms.mp4	301.81731575377444	302.4251248571518	0.607809103377349				
313.06689453125	0.2	641161	240	76	2	0	0	51	27	stimuli\Videos_short_600ms\34.repeated_punch_with_hand_short_short_600ms.mp4	34.repeated_punch_with_hand_short_short_600ms.mp4	302.61706133285907	303.2250768819772	0.6080155491181358				
313.8671875	0.2	642800	241	76	2	0	0	52	260	stimuli\Videos_short_600ms_horvertflip\82.repeated_touch_with_cotton_bud_short_horvertflip_short_600ms.mp4	82.repeated_touch_with_cotton_bud_short_horvertflip_short_600ms.mp4	303.41680339298273	304.0250749465481	0.6082715535653733				
314.6669921875	0.2	644438	242	76	2	0	0	53	38	stimuli\Videos_short_600ms\44.pushing_top_to_bottom_with_finger_short_short_600ms.mp4	44.pushing_top_to_bottom_with_finger_short_short_600ms.mp4	304.216732251311	304.82505922852033	0.6083269772093445				
315.466796875	0.2	646076	243	76	2	0	0	54	6	stimuli\Videos_short_600ms\15.single_stroke_top_to_bottom_with_a_plastic_whisk_short_short_600ms.mp4	15.single_stroke_top_to_bottom_with_a_plastic_whisk_short_short_600ms.mp4	305.0167399930265	305.62502796841227	0.6082879753857924				
316.26708984375	0.2	647715	244	76	2	0	0	55	218	stimuli\Videos_short_600ms_horvertflip\44.pushing_top_to_bottom_with_finger_short_horvertflip_short_600ms.mp4	44.pushing_top_to_bottom_with_finger_short_horvertflip_short_600ms.mp4	305.81681958020545	306.4250386425956	0.6082190623901624				
317.06689453125	0.2	649353	245	76	2	0	0	56	295	stimuli\Videos_short_600ms_vertflip\32.single_(long)pinch_with_fingers_short_vertflip_short_600ms.mp4	32.single_(long)pinch_with_fingers_short_vertflip_short_600ms.mp4	306.6172076630078	307.2250199921	0.6078123290922122				
317.86669921875	0.2	650991	246	76	2	0	0	57	175	stimuli\Videos_short_600ms_horflip\87.single_stroke_top_to_bottom_with_plastic_brush_short_horflip_short_600ms.mp4	87.single_stroke_top_to_bottom_with_plastic_brush_short_horflip_short_600ms.mp4	307.416945617676	308.0250098457609	0.6080642280849133				
318.6669921875	0.2	652630	247	76	2	0	0	58	231	stimuli\Videos_short_600ms_horvertflip\56.repeated_touch_with_nail_file_short_horvertflip_short_600ms.mp4	56.repeated_touch_with_nail_file_short_horvertflip_short_600ms.mp4	308.2167087915677	308.82499647370696	0.6082876821392347				
319.466796875	0.2	654268	248	76	2	0	0	59	194	stimuli\Videos_short_600ms_horvertflip\22.single_touch_with_metal_chopstick_short_horvertflip_short_600ms.mp4	22.single_touch_with_metal_chopstick_short_horvertflip_short_600ms.mp4	309.01666169613327	309.62498398139405	0.6083222852607832				
320.2666015625	0.2	655906	249	76	2	0	1	60	374	stimuli\Targets_short_600ms_horvertflip\chopstickwood-tap_short_vertflip_short_600ms.mp4	chopstickwood-tap_short_vertflip_short_600ms.mp4	309.81662838329794	310.42497178232725	0.6083433990293088				
321.06689453125	0.2	657545	250	76	2	0	0	61	275	stimuli\Videos_short_600ms_vertflip\14.repeated_touch_with_pencil_short_vertflip_short_600ms.mp4	14.repeated_touch_with_pencil_short_vertflip_short_600ms.mp4	310.61664961436554	311.2249604630015	0.6083108486359379				
321.86669921875	0.2	659183	251	76	2	0	0	62	75	stimuli\Videos_short_600ms\78.single_stroke_top_to_bottom_with_soft_brush_short_short_600ms.mp4	78.single_stroke_top_to_bottom_with_soft_brush_short_short_600ms.mp4	311.41660310542466	312.02494709094753	0.6083439855228789				
322.66650390625	0.2	660821	252	76	2	0	0	63	122	stimuli\Videos_short_600ms_horflip\39.single_stab_with_scissors_short_horflip_short_600ms.mp4	39.single_stab_with_scissors_short_horflip_short_600ms.mp4	312.2165947185663	312.8249407568169	0.6083460382506019				
323.466796875	0.2	662460	253	76	2	0	0	64	229	stimuli\Videos_short_600ms_horvertflip\54.repeated_touch_with_knife_short_horvertflip_short_600ms.mp4	54.repeated_touch_with_knife_short_horvertflip_short_600ms.mp4	313.01659014391635	313.6249250387891	0.6083348948727689				
324.2666015625	0.2	664098	254	76	2	0	0	65	259	stimuli\Videos_short_600ms_horvertflip\81.single_stroke_top_to_bottom_with_cotton_pad_short_horvertflip_short_600ms.mp4	81.single_stroke_top_to_bottom_with_cotton_pad_short_horvertflip_short_600ms.mp4	313.81657237316085	314.4248949516682	0.608322578507341				
325.06689453125	0.2	665737	255	76	2	0	0	66	33	stimuli\Videos_short_600ms\4.repeated_tap_with_finger_slow_short_short_600ms.mp4	4.repeated_tap_with_finger_slow_short_short_600ms.mp4	314.6167672063284	315.22490327987725	0.6081360735488488				
325.86669921875	0.2	667375	256	76	2	0	1	67	364	stimuli\Targets_short_600ms\hand-pinch_short_short_600ms.mp4	hand-pinch_short_short_600ms.mp4	315.41661131633464	316.0248805239262	0.6082692075915475				
326.66650390625	0.2	669013	257	76	2	0	0	68	44	stimuli\Videos_short_600ms\5.repeated_tap_with_finger_moving_from_top_to_bottom_short_short_600ms.mp4	5.repeated_tap_with_finger_moving_from_top_to_bottom_short_short_600ms.mp4	316.2165448666119	316.8248712573277	0.6083263907157743				
327.466796875	0.2	670652	258	76	2	0	0	69	337	stimuli\Videos_short_600ms_vertflip\70.(long)stroke_with_finger_all_over_the_hand_short_vertflip_short_600ms.mp4	70.(long)stroke_with_finger_all_over_the_hand_short_vertflip_short_600ms.mp4	317.0167962964101	317.62482797410166	0.6080316776915424				
328.2666015625	0.2	672290	259	76	2	0	0	70	132	stimuli\Videos_short_600ms_horflip\48.single_slap_with_hand_short_horflip_short_600ms.mp4	48.single_slap_with_hand_short_horflip_short_600ms.mp4	317.8165975923848	318.4248351293231	0.6082375369383044				
329.06640625	0.2	673928	260	76	2	0	0	71	200	stimuli\Videos_short_600ms_horvertflip\28.single_injection_with_sharp_needle_short_horvertflip_short_600ms.mp4	28.single_injection_with_sharp_needle_short_horvertflip_short_600ms.mp4	318.6165188262971	319.2248985879287	0.6083797616315678				
329.86669921875	0.2	675567	261	76	2	0	0	72	41	stimuli\Videos_short_600ms\47.(long)scratching_with_finger_nails_short_short_600ms.mp4	47.(long)scratching_with_finger_nails_short_short_600ms.mp4	319.4165127854135	320.024908968865	0.6083961834515321				
330.66650390625	0.2	677205	262	76	2	0	0	73	283	stimuli\Videos_short_600ms_vertflip\21.repeated_touch_with_metal_chopstick_short_vertflip_short_600ms.mp4	21.repeated_touch_with_metal_chopstick_short_vertflip_short_600ms.mp4	320.21654867882035	320.82482345810104	0.6082747792806913				
331.46630859375	0.2	678843	263	76	2	0	0	74	286	stimuli\Videos_short_600ms_vertflip\24.single_stroke_top_to_bottom_with_a_spoon_short_vertflip_short_600ms.mp4	24.single_stroke_top_to_bottom_with_a_spoon_short_vertflip_short_600ms.mp4	321.0165203511806	321.62481301851494	0.6082926673343536				
332.2666015625	0.2	680482	264	76	2	0	0	75	3	stimuli\Videos_short_600ms\12.repeated_touch_with_nail_file_short_short_600ms.mp4	12.repeated_touch_with_nail_file_short_short_600ms.mp4	321.8165465674433	322.4247964207466	0.6082498533032776				
333.06640625	0.2	682120	265	76	2	0	0	76	161	stimuli\Videos_short_600ms_horflip\74.fingers_walking_from_top_to_bottom_short_horflip_short_600ms.mp4	74.fingers_walking_from_top_to_bottom_short_horflip_short_600ms.mp4	322.61646076343277	323.2247830486931	0.6083222852603285				
333.8662109375	0.2	683758	266	76	2	0	0	77	17	stimuli\Videos_short_600ms\25.single_touch_with_stanley_knife_short_short_600ms.mp4	25.single_touch_with_stanley_knife_short_short_600ms.mp4	323.41644973735356	324.02477084962675	0.6083211122731882				
334.66650390625	0.2	685397	267	76	2	0	1	78	362	stimuli\Targets_short_600ms\chopstickwood-tap_short_short_600ms.mp4	chopstickwood-tap_short_short_600ms.mp4	324.2164428167289	324.8247565978327	0.6083137811037886				
335.46630859375	0.2	687035	268	76	2	0	0	79	66	stimuli\Videos_short_600ms\7.repeated_touch_with_hairbrush_short_short_600ms.mp4	7.repeated_touch_with_hairbrush_short_short_600ms.mp4	325.0164370690918	325.624745865	0.608308795908215				
336.26611328125	0.2	688673	269	76	2	0	0	80	164	stimuli\Videos_short_600ms_horflip\77.tapping_with_all_fingers_short_horflip_short_600ms.mp4	77.tapping_with_all_fingers_short_horflip_short_600ms.mp4	325.8163703261225	326.42473835788223	0.60836803175971				
337.06640625	0.2	690312	270	76	2	0	0	81	173	stimuli\Videos_short_600ms_horflip\85.touch_top_to_bottom_with_fabric_short_horflip_short_600ms.mp4	85.touch_top_to_bottom_with_fabric_short_horflip_short_600ms.mp4	326.61635959328987	327.22472058712674	0.6083609938368681				
337.8662109375	0.2	691950	271	76	2	0	0	82	282	stimuli\Videos_short_600ms_vertflip\20.single_touch_with_screwdriver_short_vertflip_short_600ms.mp4	20.single_touch_with_screwdriver_short_vertflip_short_600ms.mp4	327.41647994177265	328.02470897455396	0.6082290327813098				
338.666015625	0.2	693588	272	76	2	0	0	83	37	stimuli\Videos_short_600ms\43.touch_top_to_bottom_with_sharp_wooden_stick_short_short_600ms.mp4	43.touch_top_to_bottom_with_sharp_wooden_stick_short_short_600ms.mp4	328.2164108528291	328.82469794847475	0.6082870956456645				
339.46630859375	0.2	695227	273	76	2	0	1	84	381	stimuli\Targets_short_600ms_vertflip\finger-tap_short_horvertflip_short_600ms.mp4	finger-tap_short_horvertflip_short_600ms.mp4	329.01641390259556	329.6246795912257	0.6082656886301265				
340.26611328125	0.2	696865	274	76	2	0	0	85	244	stimuli\Videos_short_600ms_horvertflip\68.stroke_top_to_bottom_with_shawl_short_horvertflip_short_600ms.mp4	68.stroke_top_to_bottom_with_shawl_short_horvertflip_short_600ms.mp4	329.81636299495267	330.42469349112343	0.6083304961707654				
341.06591796875	0.2	698503	275	76	2	0	0	86	10	stimuli\Videos_short_600ms\19.single_touch_with_rolling_pin_short_short_600ms.mp4	19.single_touch_with_rolling_pin_short_short_600ms.mp4	330.616394782905	331.22462000347787	0.6082252205728764				
341.8662109375	0.2	700142	276	76	2	0	0	87	198	stimuli\Videos_short_600ms_horvertflip\26.single_touch_with_a_blunt_syringe_short_horvertflip_short_600ms.mp4	26.single_touch_with_a_blunt_syringe_short_horvertflip_short_600ms.mp4	331.4163309724031	332.0246195342829	0.6082885618798173				
342.666015625	0.2	701780	277	76	2	0	0	88	150	stimuli\Videos_short_600ms_horflip\64.repeated_touch_with_screwdriver_short_horflip_short_600ms.mp4	64.repeated_touch_with_screwdriver_short_horflip_short_600ms.mp4	332.21642727464905	332.8246002972933	0.6081730226442232				
343.4658203125	0.2	703418	278	76	2	0	0	89	135	stimuli\Videos_short_600ms_horflip\50.single_(long)hard_push_with_thumb_short_horflip_short_600ms.mp4	50.single_(long)hard_push_with_thumb_short_horflip_short_600ms.mp4	333.0163564262248	333.6246133174509	0.6082568912261195				
344.26611328125	0.2	705057	279	76	2	0	0	90	172	stimuli\Videos_short_600ms_horflip\84.single_touch_with_cotton_bud_short_horflip_short_600ms.mp4	84.single_touch_with_cotton_bud_short_horflip_short_600ms.mp4	333.8162717952009	334.42459525344884	0.6083234582479236				
345.06591796875	0.2	706695	280	76	2	0	0	91	211	stimuli\Videos_short_600ms_horvertflip\38.double_slap_with_pencil_short_horvertflip_short_600ms.mp4	38.double_slap_with_pencil_short_horvertflip_short_600ms.mp4	334.616649321119	335.22461179256743	0.6079624714484453				
345.8662109375	0.2	708334	281	76	2	0	0	92	277	stimuli\Videos_short_600ms_vertflip\16.repeated_touch_with_plastic_brush_short_vertflip_short_600ms.mp4	16.repeated_touch_with_plastic_brush_short_vertflip_short_600ms.mp4	335.41628141369574	336.02459402181194	0.6083126081161936				
346.666015625	0.2	709972	282	76	2	0	0	93	230	stimuli\Videos_short_600ms_horvertflip\55.touch_top_to_bottom_with_nail_file_short_horvertflip_short_600ms.mp4	55.touch_top_to_bottom_with_nail_file_short_horvertflip_short_600ms.mp4	336.21625689826396	336.82457918352475	0.6083222852607832				
347.4658203125	0.2	711610	283	76	2	0	0	94	111	stimuli\Videos_short_600ms_horflip\29.single_pinch_with_tweezers_short_horflip_short_600ms.mp4	29.single_pinch_with_tweezers_short_horflip_short_600ms.mp4	337.0163763670066	337.6245675709515	0.608191203944898				
348.26611328125	0.2	713249	284	76	2	0	0	95	263	stimuli\Videos_short_600ms_horvertflip\85.touch_top_to_bottom_with_fabric_short_horvertflip_short_600ms.mp4	85.touch_top_to_bottom_with_fabric_short_horvertflip_short_600ms.mp4	337.8162800061109	338.4245544921446	0.6082744860336788				
349.06591796875	0.2	714887	285	76	2	0	0	96	104	stimuli\Videos_short_600ms_horflip\22.single_touch_with_metal_chopstick_short_horflip_short_600ms.mp4	22.single_touch_with_metal_chopstick_short_horflip_short_600ms.mp4	338.6162859883457	339.22454229307823	0.6082563047325493				
349.86572265625	0.2	716525	286	76	2	0	0	97	82	stimuli\Videos_short_600ms\84.single_touch_with_cotton_bud_short_short_600ms.mp4	84.single_touch_with_cotton_bud_short_short_600ms.mp4	339.416185815242	340.0245318534926	0.6083460382506019				
350.666015625	0.2	718164	287	76	2	0	0	98	321	stimuli\Videos_short_600ms_vertflip\56.repeated_touch_with_nail_file_short_vertflip_short_600ms.mp4	56.repeated_touch_with_nail_file_short_vertflip_short_600ms.mp4	340.21616276604436	340.8245164287114	0.6083536626670139	9.0	0.0	1.949472405036886	0.0
383.806640625	0.2	786036	288	76	3	0	0	0	270	stimuli\Videos_short_600ms_vertflip\1.repeated_touch_with_finger_fast_short_vertflip_short_600ms.mp4	1.repeated_touch_with_finger_fast_short_vertflip_short_600ms.mp4	373.3573698929972	373.965661973838	0.6082920808407835				
384.6064453125	0.2	787674	289	76	3	0	0	1	208	stimuli\Videos_short_600ms_horvertflip\35.single_punch_with_hand_short_horvertflip_short_600ms.mp4	35.single_punch_with_hand_short_horvertflip_short_600ms.mp4	374.1573521222417	374.7656400976275	0.6082879753857924				
385.40625	0.2	789312	290	76	3	0	0	2	55	stimuli\Videos_short_600ms\6.single_touch_with_flat_hand_short_short_600ms.mp4	6.single_touch_with_flat_hand_short_short_600ms.mp4	374.9574155808468	375.56562525933987	0.60820967849304				
386.20654296875	0.2	790951	291	76	3	0	0	3	318	stimuli\Videos_short_600ms_vertflip\53.touch_top_to_bottom_with_knife_short_vertflip_short_600ms.mp4	53.touch_top_to_bottom_with_knife_short_vertflip_short_600ms.mp4	375.757547952448	376.3655972249466	0.608049272498647				
387.00634765625	0.2	792589	292	76	3	0	0	4	328	stimuli\Videos_short_600ms_vertflip\62.touch_top_to_bottom_with_scissors_short_vertflip_short_600ms.mp4	62.touch_top_to_bottom_with_scissors_short_vertflip_short_600ms.mp4	376.55731669802935	377.16558443938675	0.6082677413573947				
387.80615234375	0.2	794227	293	76	3	0	0	5	293	stimuli\Videos_short_600ms_vertflip\30.finger_pulling_back_another_finger_short_vertflip_short_600ms.mp4	30.finger_pulling_back_another_finger_short_vertflip_short_600ms.mp4	377.3572839716876	377.9655652023971	0.6082812307095082				
388.6064453125	0.2	795866	294	76	3	0	0	6	107	stimuli\Videos_short_600ms_horflip\25.single_touch_with_stanley_knife_short_horflip_short_600ms.mp4	25.single_touch_with_stanley_knife_short_horflip_short_600ms.mp4	378.1573307152257	378.76554449917376	0.608213783948031				
389.40625	0.2	797504	295	76	3	0	0	7	280	stimuli\Videos_short_600ms_vertflip\19.single_touch_with_rolling_pin_short_vertflip_short_600ms.mp4	19.single_touch_with_rolling_pin_short_vertflip_short_600ms.mp4	378.95733112577136	379.5655323001074	0.6082011743360454				
390.2060546875	0.2	799142	296	76	3	0	0	8	204	stimuli\Videos_short_600ms_horvertflip\31.hand_grabbing_wrist_short_horvertflip_short_600ms.mp4	31.hand_grabbing_wrist_short_horvertflip_short_600ms.mp4	379.7578171530017	380.36554062831647	0.6077234753147422				
391.00634765625	0.2	800781	297	76	3	0	0	9	86	stimuli\Videos_short_600ms\88.repeated_stroke_with_plastic_brush_short_short_600ms.mp4	88.repeated_stroke_with_plastic_brush_short_short_600ms.mp4	380.55723664165544	381.1655290157432	0.6082923740877959				
391.80615234375	0.2	802419	298	76	3	0	0	10	182	stimuli\Videos_short_600ms_horvertflip\11.single_touch_with_lighter_short_horvertflip_short_600ms.mp4	11.single_touch_with_lighter_short_horvertflip_short_600ms.mp4	381.3572115397301	381.96551769641746	0.6083061566873766				
392.60595703125	0.2	804057	299	76	3	0	0	11	2	stimuli\Videos_short_600ms\11.single_touch_with_lighter_short_short_600ms.mp4	11.single_touch_with_lighter_short_short_600ms.mp4	382.15724039521456	382.7655081365719	0.6082677413573947				
393.40625	0.2	805696	300	76	3	0	0	12	95	stimuli\Videos_short_600ms_horflip\14.repeated_touch_with_pencil_short_horflip_short_600ms.mp4	14.repeated_touch_with_pencil_short_horflip_short_600ms.mp4	382.9571976984817	383.565495057765	0.6082973592833696				
394.2060546875	0.2	807334	301	76	3	0	0	13	276	stimuli\Videos_short_600ms_vertflip\15.single_stroke_top_to_bottom_with_a_plastic_whisk_short_vertflip_short_600ms.mp4	15.single_stroke_top_to_bottom_with_a_plastic_whisk_short_vertflip_short_600ms.mp4	383.75756847972343	384.3654828586986	0.6079143789752379				
395.005859375	0.2	808972	302	76	3	0	0	14	262	stimuli\Videos_short_600ms_horvertflip\84.single_touch_with_cotton_bud_short_horvertflip_short_600ms.mp4	84.single_touch_with_cotton_bud_short_horvertflip_short_600ms.mp4	384.5571756463232	385.1654747650873	0.60829911876408				
395.80615234375	0.2	810611	303	76	3	0	0	15	241	stimuli\Videos_short_600ms_horvertflip\65.stroke_top_to_bottom_with_stanley_knife_short_horvertflip_short_600ms.mp4	65.stroke_top_to_bottom_with_stanley_knife_short_horvertflip_short_600ms.mp4	385.3571924786888	385.9654634457611	0.6082709670722579				
396.60595703125	0.2	812249	304	76	3	0	0	16	59	stimuli\Videos_short_600ms\63.stroke_top_to_bottom_with_screwdriver_short_short_600ms.mp4	63.stroke_top_to_bottom_with_screwdriver_short_short_600ms.mp4	386.15717412143977	386.76545476565616	0.6082806442163928				
397.40576171875	0.2	813887	305	76	3	0	1	17	373	stimuli\Targets_short_600ms_horvertflip\chopstick-silver-tap_short_vertflip_short_600ms.mp4	chopstick-silver-tap_short_vertflip_short_600ms.mp4	386.95728098057	387.5654199865867	0.6081390060166996				
398.2060546875	0.2	815526	306	76	3	0	0	18	131	stimuli\Videos_short_600ms_horflip\47.(long)scratching_with_finger_nails_short_horflip_short_600ms.mp4	47.(long)scratching_with_finger_nails_short_horflip_short_600ms.mp4	387.75721541058783	388.365401042844	0.6081856322562089				
399.005859375	0.2	817164	307	76	3	0	0	19	73	stimuli\Videos_short_600ms\76.tickle_with_fingers_from_top_to_bottom_short_short_600ms.mp4	76.tickle_with_fingers_from_top_to_bottom_short_short_600ms.mp4	388.5572304834727	389.16541201027394	0.6081815268012178				
399.8056640625	0.2	818802	308	76	3	0	0	20	359	stimuli\Videos_short_600ms_vertflip\90.repeated_touch_with_sponge_short_vertflip_short_600ms.mp4	90.repeated_touch_with_sponge_short_vertflip_short_600ms.mp4	389.35713470907103	389.9653786974386	0.6082439883675761				
400.60595703125	0.2	820441	309	76	3	0	0	21	220	stimuli\Videos_short_600ms_horvertflip\46.scratching_top_to_bottom_with_finger_nails_short_horvertflip_short_600ms.mp4	46.scratching_top_to_bottom_with_finger_nails_short_horvertflip_short_600ms.mp4	390.15711048688627	390.7653952365577	0.6082847496713839				
401.40576171875	0.2	822079	310	76	3	0	0	22	333	stimuli\Videos_short_600ms_vertflip\67.single_touch_with_sponge_short_vertflip_short_600ms.mp4	67.single_touch_with_sponge_short_vertflip_short_600ms.mp4	390.95709946080706	391.56537746580216	0.6082780049950998				
402.2060546875	0.2	823718	311	76	3	0	0	23	54	stimuli\Videos_short_600ms\59.single_push_with_long_side_pencil_short_short_600ms.mp4	59.single_push_with_long_side_pencil_short_short_600ms.mp4	391.75706556147816	392.36536028154023	0.6082947200620765				
403.005859375	0.2	825356	312	76	3	0	0	24	223	stimuli\Videos_short_600ms_horvertflip\49.repeated_slap_with_hand_short_horvertflip_short_600ms.mp4	49.repeated_slap_with_hand_short_horvertflip_short_600ms.mp4	392.5570706639723	393.1653466162398	0.6082759522673769				
403.8056640625	0.2	826994	313	76	3	0	0	25	156	stimuli\Videos_short_600ms_horflip\7.repeated_touch_with_hairbrush_short_horflip_short_600ms.mp4	7.repeated_touch_with_hairbrush_short_horflip_short_600ms.mp4	393.35706198386697	393.96533646990065	0.6082744860336788				
404.60595703125	0.2	828633	314	76	3	0	0	26	329	stimuli\Videos_short_600ms_vertflip\63.stroke_top_to_bottom_with_screwdriver_short_vertflip_short_600ms.mp4	63.stroke_top_to_bottom_with_screwdriver_short_vertflip_short_600ms.mp4	394.1570486118135	394.76532368434073	0.608275072527249				
405.40576171875	0.2	830271	315	76	3	0	0	27	85	stimuli\Videos_short_600ms\87.single_stroke_top_to_bottom_with_plastic_brush_short_short_600ms.mp4	87.single_stroke_top_to_bottom_with_plastic_brush_short_short_600ms.mp4	394.95701500573114	395.5653123650145	0.6082973592833696				
406.20556640625	0.2	831909	316	76	3	0	0	28	128	stimuli\Videos_short_600ms_horflip\44.pushing_top_to_bottom_with_finger_short_horflip_short_600ms.mp4	44.pushing_top_to_bottom_with_finger_short_horflip_short_600ms.mp4	395.7571438583709	396.3653004591952	0.6081566008242589				
407.005859375	0.2	833548	317	76	3	0	0	29	256	stimuli\Videos_short_600ms_horvertflip\79.long_with_soft_brush_all_over_the_hand_short_horvertflip_short_600ms.mp4	79.long_with_soft_brush_all_over_the_hand_short_horvertflip_short_600ms.mp4	396.5570181727967	397.1652876736348	0.6082695008381052				
407.8056640625	0.2	835186	318	76	3	0	0	30	227	stimuli\Videos_short_600ms_horvertflip\52.touch_top_to_bottom_with_hammer_short_horvertflip_short_600ms.mp4	52.touch_top_to_bottom_with_hammer_short_horvertflip_short_600ms.mp4	397.35698632619506	397.9652910166483	0.6083046904532239				
408.60546875	0.2	836824	319	76	3	0	0	31	213	stimuli\Videos_short_600ms_horvertflip\4.repeated_tap_with_finger_slow_short_horvertflip_short_600ms.mp4	4.repeated_tap_with_finger_slow_short_horvertflip_short_600ms.mp4	398.15698644349413	398.7653125409629	0.6083260974687619				
409.40576171875	0.2	838463	320	76	3	0	0	32	58	stimuli\Videos_short_600ms\62.touch_top_to_bottom_with_scissors_short_short_600ms.mp4	62.touch_top_to_bottom_with_scissors_short_short_600ms.mp4	398.9576196806129	399.5652965296881	0.6076768490752329				
410.20556640625	0.2	840101	321	76	3	0	0	33	306	stimuli\Videos_short_600ms_vertflip\42.single_slap_with_plastic_whisk_short_vertflip_short_600ms.mp4	42.single_slap_with_plastic_whisk_short_vertflip_short_600ms.mp4	399.7576104140144	400.3652423963304	0.6076319823159793				
411.00537109375	0.2	841739	322	76	3	0	0	34	97	stimuli\Videos_short_600ms_horflip\16.repeated_touch_with_plastic_brush_short_horflip_short_600ms.mp4	16.repeated_touch_with_plastic_brush_short_horflip_short_600ms.mp4	400.5571724206084	401.16527799649066	0.6081055758822913				
411.8056640625	0.2	843378	323	76	3	0	0	35	13	stimuli\Videos_short_600ms\21.repeated_touch_with_metal_chopstick_short_short_600ms.mp4	21.repeated_touch_with_metal_chopstick_short_short_600ms.mp4	401.3570567054248	401.9652030426114	0.6081463371865539				
412.60546875	0.2	845016	324	76	3	0	0	36	243	stimuli\Videos_short_600ms_horvertflip\67.single_touch_with_sponge_short_horvertflip_short_600ms.mp4	67.single_touch_with_sponge_short_horvertflip_short_600ms.mp4	402.1570445063585	402.7651829258816	0.6081384195231294				
413.4052734375	0.2	846654	325	76	3	0	0	37	317	stimuli\Videos_short_600ms_vertflip\52.touch_top_to_bottom_with_hammer_short_vertflip_short_600ms.mp4	52.touch_top_to_bottom_with_hammer_short_vertflip_short_600ms.mp4	402.95692263299225	403.5651739525297	0.6082513195374304				
414.20556640625	0.2	848293	326	76	3	0	0	38	134	stimuli\Videos_short_600ms_horflip\5.repeated_tap_with_finger_moving_from_top_to_bottom_short_horflip_short_600ms.mp4	5.repeated_tap_with_finger_moving_from_top_to_bottom_short_horflip_short_600ms.mp4	403.7569075014581	404.3651805212576	0.6082730197995261				
415.00537109375	0.2	849931	327	76	3	0	0	39	224	stimuli\Videos_short_600ms_horvertflip\5.repeated_tap_with_finger_moving_from_top_to_bottom_short_horvertflip_short_600ms.mp4	5.repeated_tap_with_finger_moving_from_top_to_bottom_short_horvertflip_short_600ms.mp4	404.55695248551547	405.1651944211558	0.6082419356403079				
415.80517578125	0.2	851569	328	76	3	0	0	40	266	stimuli\Videos_short_600ms_horvertflip\88.repeated_stroke_with_plastic_brush_short_horvertflip_short_600ms.mp4	88.repeated_stroke_with_plastic_brush_short_horvertflip_short_600ms.mp4	405.3571657932312	405.9651880870251	0.6080222937939652				
416.60546875	0.2	853208	329	76	3	0	0	41	304	stimuli\Videos_short_600ms_vertflip\40.repeated_push_with_finger_short_vertflip_short_600ms.mp4	40.repeated_push_with_finger_short_vertflip_short_600ms.mp4	406.1568773556878	406.7651832191282	0.6083058634403642				
417.4052734375	0.2	854846	330	76	3	0	0	42	16	stimuli\Videos_short_600ms\24.single_stroke_top_to_bottom_with_a_spoon_short_short_600ms.mp4	24.single_stroke_top_to_bottom_with_a_spoon_short_short_600ms.mp4	406.9569109031208	407.5651856824011	0.6082747792802365				
418.205078125	0.2	856484	331	76	3	0	0	43	273	stimuli\Videos_short_600ms_vertflip\12.repeated_touch_with_nail_file_short_vertflip_short_600ms.mp4	12.repeated_touch_with_nail_file_short_vertflip_short_600ms.mp4	407.75684357365753	408.365163512944	0.6083199392865026				
419.00537109375	0.2	858123	332	76	3	0	0	44	232	stimuli\Videos_short_600ms_horvertflip\57.single_touch_with_nail_file_short_horvertflip_short_600ms.mp4	57.single_touch_with_nail_file_short_horvertflip_short_600ms.mp4	408.5568299083575	409.16515072738366	0.6083208190261757				
419.80517578125	0.2	859761	333	76	3	0	0	45	332	stimuli\Videos_short_600ms_vertflip\66.stroke_top_to_bottom_with_sponge_short_vertflip_short_600ms.mp4	66.stroke_top_to_bottom_with_sponge_short_vertflip_short_600ms.mp4	409.3568180025377	409.9651452729936	0.6083272704559022				
420.61376953125	0.2	861417	334	76	3	0	0	46	18	stimuli\Videos_short_600ms\26.single_touch_with_a_blunt_syringe_short_short_600ms.mp4	26.single_touch_with_a_blunt_syringe_short_short_600ms.mp4	410.16513694478454	410.77344750017346	0.6083105553889254				
421.41357421875	0.2	863055	335	76	3	0	0	47	272	stimuli\Videos_short_600ms_vertflip\11.single_touch_with_lighter_short_vertflip_short_600ms.mp4	11.single_touch_with_lighter_short_vertflip_short_600ms.mp4	410.9651256254588	411.5734353011071	0.6083096756483428				
422.21337890625	0.2	864693	336	76	3	0	0	48	117	stimuli\Videos_short_600ms_horflip\34.repeated_punch_with_hand_short_horflip_short_600ms.mp4	34.repeated_punch_with_hand_short_horflip_short_600ms.mp4	411.76511401288553	412.3734477347712	0.6083337218856286				
423.013671875	0.2	866332	337	76	3	0	0	49	185	stimuli\Videos_short_600ms_horvertflip\14.repeated_touch_with_pencil_short_horvertflip_short_600ms.mp4	14.repeated_touch_with_pencil_short_horvertflip_short_600ms.mp4	412.5651912540902	413.1734258585607	0.6082346044704536				
423.8134765625	0.2	867970	338	76	3	0	0	50	47	stimuli\Videos_short_600ms\52.touch_top_to_bottom_with_hammer_short_short_600ms.mp4	52.touch_top_to_bottom_with_hammer_short_short_600ms.mp4	413.3650503196827	413.9734268555994	0.6083765359167046				
424.61328125	0.2	869608	339	76	3	0	0	51	330	stimuli\Videos_short_600ms_vertflip\64.repeated_touch_with_screwdriver_short_vertflip_short_600ms.mp4	64.repeated_touch_with_screwdriver_short_vertflip_short_600ms.mp4	414.1651008754293	414.7734017536741	0.6083008782447905				
425.41357421875	0.2	871247	340	76	3	0	0	52	130	stimuli\Videos_short_600ms_horflip\46.scratching_top_to_bottom_with_finger_nails_short_horflip_short_600ms.mp4	46.scratching_top_to_bottom_with_finger_nails_short_horflip_short_600ms.mp4	414.965131783641	415.5733904343483	0.6082586507072847				
426.21337890625	0.2	872885	341	76	3	0	0	53	51	stimuli\Videos_short_600ms\56.repeated_touch_with_nail_file_short_short_600ms.mp4	56.repeated_touch_with_nail_file_short_short_600ms.mp4	415.7650102035218	416.3733773555414	0.6083671520195821				
427.01318359375	0.2	874523	342	76	3	0	0	54	296	stimuli\Videos_short_600ms_vertflip\33.scratch_top_to_bottom_with_scissors_short_vertflip_short_600ms.mp4	33.scratch_top_to_bottom_with_scissors_short_vertflip_short_600ms.mp4	416.5650698499189	417.173364863228	0.608295013309089				
427.8134765625	0.2	876162	343	76	3	0	0	55	98	stimuli\Videos_short_600ms_horflip\17.repeated_touch_with_rolling_pin_short_horflip_short_600ms.mp4	17.repeated_touch_with_rolling_pin_short_horflip_short_600ms.mp4	417.36500662591106	417.9733517844211	0.6083451585100192				
428.61328125	0.2	877800	344	76	3	0	0	56	56	stimuli\Videos_short_600ms\60.single_push_with_tip_of_pencil_short_short_600ms.mp4	60.single_push_with_tip_of_pencil_short_short_600ms.mp4	418.1649750725565	418.7733404650953	0.6083653925388717				
429.4130859375	0.2	879438	345	76	3	0	0	57	133	stimuli\Videos_short_600ms_horflip\49.repeated_slap_with_hand_short_horflip_short_600ms.mp4	49.repeated_slap_with_hand_short_horflip_short_600ms.mp4	418.9650643368795	419.57332767953494	0.6082633426553912				
430.21337890625	0.2	881077	346	76	3	0	0	58	14	stimuli\Videos_short_600ms\22.single_touch_with_metal_chopstick_short_short_600ms.mp4	22.single_touch_with_metal_chopstick_short_short_600ms.mp4	419.76497501390713	420.3733198791706	0.6083448652634615				
431.01318359375	0.2	882715	347	76	3	0	0	59	53	stimuli\Videos_short_600ms\58.single_slap_with_pencil_short_short_600ms.mp4	58.single_slap_with_pencil_short_short_600ms.mp4	420.56499360575344	421.1733073868572	0.6083137811037886				
431.81298828125	0.2	884353	348	76	3	0	0	60	151	stimuli\Videos_short_600ms_horflip\65.stroke_top_to_bottom_with_stanley_knife_short_horflip_short_600ms.mp4	65.stroke_top_to_bottom_with_stanley_knife_short_horflip_short_600ms.mp4	421.3651139542362	421.97327524700904	0.6081612927728202				
432.61328125	0.2	885992	349	76	3	0	0	61	180	stimuli\Videos_short_600ms_horvertflip\1.repeated_touch_with_finger_fast_short_horvertflip_short_600ms.mp4	1.repeated_touch_with_finger_fast_short_horvertflip_short_600ms.mp4	422.164971260348	422.77324310716085	0.6082718468128405				
433.4130859375	0.2	887630	350	76	3	0	0	62	24	stimuli\Videos_short_600ms\31.hand_grabbing_wrist_short_short_600ms.mp4	31.hand_grabbing_wrist_short_short_600ms.mp4	422.9650901425971	423.57324557043376	0.6081554278366639				
434.212890625	0.2	889268	351	76	3	0	0	63	5	stimuli\Videos_short_600ms\14.repeated_touch_with_pencil_short_short_600ms.mp4	14.repeated_touch_with_pencil_short_short_600ms.mp4	423.76502515910806	424.373212550845	0.6081873917369194				
435.01318359375	0.2	890907	352	76	3	0	0	64	60	stimuli\Videos_short_600ms\64.repeated_touch_with_screwdriver_short_short_600ms.mp4	64.repeated_touch_with_screwdriver_short_short_600ms.mp4	424.565044923942	425.17322351827534	0.6081785943333671				
435.81298828125	0.2	892545	353	76	3	0	1	65	371	stimuli\Targets_short_600ms_horflip\hand-stroke_short_horflip_short_600ms.mp4	hand-stroke_short_horflip_short_600ms.mp4	425.3649629321394	425.97320926648126	0.6082463343418567				
436.61279296875	0.2	894183	354	76	3	0	0	66	312	stimuli\Videos_short_600ms_vertflip\48.single_slap_with_hand_short_vertflip_short_600ms.mp4	48.single_slap_with_hand_short_vertflip_short_600ms.mp4	426.1649615832039	426.7732029323506	0.6082413491467378				
437.4130859375	0.2	895822	355	76	3	0	1	67	380	stimuli\Targets_short_600ms_vertflip\chopstickwood-tap_short_horvertflip_short_600ms.mp4	chopstickwood-tap_short_horvertflip_short_600ms.mp4	426.9649831075185	427.5732127267934	0.60822961927488				
438.212890625	0.2	897460	356	76	3	0	0	68	50	stimuli\Videos_short_600ms\55.touch_top_to_bottom_with_nail_file_short_short_600ms.mp4	55.touch_top_to_bottom_with_nail_file_short_short_600ms.mp4	427.76489055883167	428.3732008209736	0.608310262141913				
439.01318359375	0.2	899099	357	76	3	0	0	69	311	stimuli\Videos_short_600ms_vertflip\47.(long)scratching_with_finger_nails_short_vertflip_short_600ms.mp4	47.(long)scratching_with_finger_nails_short_vertflip_short_600ms.mp4	428.5651718998019	429.1731927273622	0.6080208275602672				
439.81298828125	0.2	900737	358	76	3	0	0	70	203	stimuli\Videos_short_600ms_horvertflip\30.finger_pulling_back_another_finger_short_horvertflip_short_600ms.mp4	30.finger_pulling_back_another_finger_short_horvertflip_short_600ms.mp4	429.364827745369	429.973172903879	0.6083451585100192				
440.61279296875	0.2	902375	359	76	3	0	0	71	57	stimuli\Videos_short_600ms\61.single_hit_with_rolling_pin_short_short_600ms.mp4	61.single_hit_with_rolling_pin_short_short_600ms.mp4	430.16495630476174	430.77317243468406	0.6082161299223117				
441.4130859375	0.2	904014	360	76	3	0	0	72	99	stimuli\Videos_short_600ms_horflip\18.single_stroke_from_top_to_bottom_with_rolling_pin_short_horflip_short_600ms.mp4	18.single_stroke_from_top_to_bottom_with_rolling_pin_short_horflip_short_600ms.mp4	430.9648326719153	431.57314352055073	0.6083108486354831				
442.212890625	0.2	905652	361	76	3	0	0	73	109	stimuli\Videos_short_600ms_horflip\27.single_push_with_a_plastic_whisk_short_horflip_short_600ms.mp4	27.single_push_with_a_plastic_whisk_short_horflip_short_600ms.mp4	431.7648110889513	432.3731327877181	0.6083216987667583				
443.0126953125	0.2	907290	362	76	3	0	0	74	246	stimuli\Videos_short_600ms_horvertflip\7.repeated_touch_with_hairbrush_short_horvertflip_short_600ms.mp4	7.repeated_touch_with_hairbrush_short_horvertflip_short_600ms.mp4	432.56475871507473	433.1731191224176	0.6083604073428432				
443.81298828125	0.2	908929	363	76	3	0	0	75	254	stimuli\Videos_short_600ms_horvertflip\77.tapping_with_all_fingers_short_horvertflip_short_600ms.mp4	77.tapping_with_all_fingers_short_horvertflip_short_600ms.mp4	433.3647969544558	433.9731083895854	0.608311435129508				
444.61279296875	0.2	910567	364	76	3	0	0	76	170	stimuli\Videos_short_600ms_horflip\82.repeated_touch_with_cotton_bud_short_horflip_short_600ms.mp4	82.repeated_touch_with_cotton_bud_short_horflip_short_600ms.mp4	434.1648829930641	434.7730970702591	0.6082140771950435				
445.41259765625	0.2	912205	365	76	3	0	0	77	269	stimuli\Videos_short_600ms_horvertflip\90.repeated_touch_with_sponge_short_horvertflip_short_600ms.mp4	90.repeated_touch_with_sponge_short_horvertflip_short_600ms.mp4	434.9648068661977	435.57308340495865	0.608276538760947				
446.212890625	0.2	913844	366	76	3	0	0	78	78	stimuli\Videos_short_600ms\80.stroke_with_sharp_stick_all_over_the_hand_short_short_600ms.mp4	80.stroke_with_sharp_stick_all_over_the_hand_short_short_600ms.mp4	435.7650559500212	436.37307149913886	0.6080155491176811				
447.0126953125	0.2	915482	367	76	3	0	0	79	289	stimuli\Videos_short_600ms_vertflip\27.single_push_with_a_plastic_whisk_short_vertflip_short_600ms.mp4	27.single_push_with_a_plastic_whisk_short_vertflip_short_600ms.mp4	436.5651276195367	437.17304258500553	0.6079149654688081				
447.8125	0.2	917120	368	76	3	0	0	80	144	stimuli\Videos_short_600ms_horflip\59.single_push_with_long_side_pencil_short_horflip_short_600ms.mp4	59.single_push_with_long_side_pencil_short_horflip_short_600ms.mp4	437.3648465131637	437.9730558984097	0.6082093852460275				
448.61279296875	0.2	918759	369	76	3	0	0	81	253	stimuli\Videos_short_600ms_horvertflip\76.tickle_with_fingers_from_top_to_bottom_short_horvertflip_short_600ms.mp4	76.tickle_with_fingers_from_top_to_bottom_short_horvertflip_short_600ms.mp4	438.16471818836817	438.7729929676484	0.6082747792802365				
449.41259765625	0.2	920397	370	76	3	0	1	82	361	stimuli\Targets_short_600ms\chopstick-silver-tap_short_short_600ms.mp4	chopstick-silver-tap_short_short_600ms.mp4	438.96468898098783	439.5729801820885	0.6082912011006556				
450.21240234375	0.2	922035	371	76	3	0	0	83	292	stimuli\Videos_short_600ms_vertflip\3.single_push_with_finger_short_vertflip_short_600ms.mp4	3.single_push_with_finger_short_vertflip_short_600ms.mp4	439.7647524395934	440.3729911495184	0.60823870992499				
451.0126953125	0.2	923674	372	76	3	0	0	84	123	stimuli\Videos_short_600ms_horflip\4.repeated_tap_with_finger_slow_short_horflip_short_600ms.mp4	4.repeated_tap_with_finger_slow_short_horflip_short_600ms.mp4	440.56465431921697	441.17298246941345	0.6083281501964848				
451.8125	0.2	925312	373	76	3	0	0	85	206	stimuli\Videos_short_600ms_horvertflip\33.scratch_top_to_bottom_with_scissors_short_horvertflip_short_600ms.mp4	33.scratch_top_to_bottom_with_scissors_short_horvertflip_short_600ms.mp4	441.3646512108012	441.9729693906065	0.6083181798053374				
452.6123046875	0.2	926950	374	76	3	0	0	86	125	stimuli\Videos_short_600ms_horflip\41.injection_with_blunt_syringe_short_horflip_short_600ms.mp4	41.injection_with_blunt_syringe_short_horflip_short_600ms.mp4	442.16465015511267	442.7729818242706	0.6083316691579057				
