onset	duration	onsetsample	eventnumber	subjectnr	sequencenumber	blocksequencenumber	istarget	presentationnumber	stimnumber	stim	stimname	time_stimon	time_stimoff	stimdur	cresp	resp	rt	correct
55.97509765625	0.2	114637	0	23	0	0	0	0	178	stimuli\Videos_short_600ms_horflip\9.single_touch_with_hammer_short_horflip_short_600ms.mp4	9.single_touch_with_hammer_short_horflip_short_600ms.mp4	106.6047220667208	107.21668112853604	0.6119590618152415				
56.775390625	0.2	116276	1	23	0	0	0	1	160	stimuli\Videos_short_600ms_horflip\73.single_stroke_with_flat_hand_short_horflip_short_600ms.mp4	73.single_stroke_with_flat_hand_short_horflip_short_600ms.mp4	107.40834933229551	108.01669004318614	0.6083407108906158				
57.5751953125	0.2	117914	2	23	0	0	0	2	237	stimuli\Videos_short_600ms_horvertflip\61.single_hit_with_rolling_pin_short_horvertflip_short_600ms.mp4	61.single_hit_with_rolling_pin_short_horvertflip_short_600ms.mp4	108.20830575607806	108.8166581967714	0.608352440693352				
58.375	0.2	119552	3	23	0	0	1	3	361	stimuli\Targets_short_600ms\chopstick-silver-tap_short_short_600ms.mp4	chopstick-silver-tap_short_short_600ms.mp4	109.0082882786719	109.6166442383062	0.6083559596343093				
59.17529296875	0.2	121191	4	23	0	0	0	4	80	stimuli\Videos_short_600ms\82.repeated_touch_with_cotton_bud_short_short_600ms.mp4	82.repeated_touch_with_cotton_bud_short_short_600ms.mp4	109.8084045210178	110.41661825679284	0.6082137357750526				
59.97509765625	0.2	122829	5	23	0	0	0	5	262	stimuli\Videos_short_600ms_horvertflip\84.single_touch_with_cotton_bud_short_horvertflip_short_600ms.mp4	84.single_touch_with_cotton_bud_short_horvertflip_short_600ms.mp4	110.60836417049607	111.21659989965156	0.6082357291554672				
60.77490234375	0.2	124467	6	23	0	0	0	6	311	stimuli\Videos_short_600ms_vertflip\47.(long)scratching_with_finger_nails_short_vertflip_short_600ms.mp4	47.(long)scratching_with_finger_nails_short_vertflip_short_600ms.mp4	111.40850181973224	112.01655925588466	0.6080574361524214				
61.5751953125	0.2	126106	7	23	0	0	0	7	70	stimuli\Videos_short_600ms\73.single_stroke_with_flat_hand_short_short_600ms.mp4	73.single_stroke_with_flat_hand_short_short_600ms.mp4	112.20885998926131	112.81656641106451	0.6077064218031865				
62.375	0.2	127744	8	23	0	0	0	8	254	stimuli\Videos_short_600ms_horvertflip\77.tapping_with_all_fingers_short_horvertflip_short_600ms.mp4	77.tapping_with_all_fingers_short_horvertflip_short_600ms.mp4	113.00834076953949	113.6165509863738	0.6082102168343226				
63.1748046875	0.2	129382	9	23	0	0	0	9	340	stimuli\Videos_short_600ms_vertflip\73.single_stroke_with_flat_hand_short_vertflip_short_600ms.mp4	73.single_stroke_with_flat_hand_short_vertflip_short_600ms.mp4	113.80826669583462	114.4165338022126	0.6082671063779799				
63.97509765625	0.2	131021	10	23	0	0	0	10	249	stimuli\Videos_short_600ms_horvertflip\72.(short)stroke_with_finger_all_over_the_hand_short_horvertflip_short_600ms.mp4	72.(short)stroke_with_finger_all_over_the_hand_short_horvertflip_short_600ms.mp4	114.60817532067084	115.21651867076709	0.6083433500962201				
64.77490234375	0.2	132659	11	23	0	0	0	11	205	stimuli\Videos_short_600ms_horvertflip\32.single_(long)pinch_with_fingers_short_horvertflip_short_600ms.mp4	32.single_(long)pinch_with_fingers_short_horvertflip_short_600ms.mp4	115.40819655161386	116.0164997271354	0.6083031755215416				
65.57470703125	0.2	134297	12	23	0	0	0	12	15	stimuli\Videos_short_600ms\23.single_push_with_a_spoon_short_short_600ms.mp4	23.single_push_with_a_spoon_short_short_600ms.mp4	116.20845267185835	116.81648459568989	0.6080319238315042				
66.375	0.2	135936	13	23	0	0	0	13	182	stimuli\Videos_short_600ms_horvertflip\11.single_touch_with_lighter_short_horvertflip_short_600ms.mp4	11.single_touch_with_lighter_short_horvertflip_short_600ms.mp4	117.00850088134804	117.61646741152867	0.6079665301806472				
67.1748046875	0.2	137574	14	23	0	0	0	14	224	stimuli\Videos_short_600ms_horvertflip\5.repeated_tap_with_finger_moving_from_top_to_bottom_short_horvertflip_short_600ms.mp4	5.repeated_tap_with_finger_moving_from_top_to_bottom_short_horvertflip_short_600ms.mp4	117.80824646192492	118.41645052061268	0.6082040586877611				
67.974609375	0.2	139212	15	23	0	0	0	15	307	stimuli\Videos_short_600ms_vertflip\43.touch_top_to_bottom_with_sharp_wooden_stick_short_vertflip_short_600ms.mp4	43.touch_top_to_bottom_with_sharp_wooden_stick_short_vertflip_short_600ms.mp4	118.60815596649604	119.21643304320628	0.6082770767102375				
68.77490234375	0.2	140851	16	23	0	0	0	16	92	stimuli\Videos_short_600ms_horflip\11.single_touch_with_lighter_short_horflip_short_600ms.mp4	11.single_touch_with_lighter_short_horflip_short_600ms.mp4	119.40828305890956	120.01641527255516	0.6081322136456038				
69.57470703125	0.2	142489	17	23	0	0	1	17	376	stimuli\Targets_short_600ms_horvertflip\hand-pinch_short_vertflip_short_600ms.mp4	hand-pinch_short_vertflip_short_600ms.mp4	120.2081691038752	120.81640952495172	0.6082404210765162				
70.375	0.2	144128	18	23	0	0	0	18	195	stimuli\Videos_short_600ms_horvertflip\23.single_push_with_a_spoon_short_horvertflip_short_600ms.mp4	23.single_push_with_a_spoon_short_horvertflip_short_600ms.mp4	121.00811027891405	121.61637885151733	0.6082685726032651				
71.1748046875	0.2	145766	19	23	0	0	0	19	63	stimuli\Videos_short_600ms\67.single_touch_with_sponge_short_short_600ms.mp4	67.single_touch_with_sponge_short_short_600ms.mp4	121.80802124971068	122.41636284033645	0.6083415906257414				
71.974609375	0.2	147404	20	23	0	0	1	20	383	stimuli\Targets_short_600ms_vertflip\hand-stroke_short_horvertflip_short_600ms.mp4	hand-stroke_short_horvertflip_short_600ms.mp4	122.60803104409617	123.21634858862603	0.6083175445298821				
72.77490234375	0.2	149043	21	23	0	0	0	21	229	stimuli\Videos_short_600ms_horvertflip\54.repeated_touch_with_knife_short_horvertflip_short_600ms.mp4	54.repeated_touch_with_knife_short_horvertflip_short_600ms.mp4	123.40810329968144	124.0163349234058	0.6082316237243504				
73.57470703125	0.2	150681	22	23	0	0	0	22	257	stimuli\Videos_short_600ms_horvertflip\8.single_touch_with_hairbrush_short_horvertflip_short_600ms.mp4	8.single_touch_with_hairbrush_short_horvertflip_short_600ms.mp4	124.20810312373442	124.81634471779124	0.6082415940568353				
74.37451171875	0.2	152319	23	23	0	0	0	23	1	stimuli\Videos_short_600ms\10.single_touch_with_knife_short_short_600ms.mp4	10.single_touch_with_knife_short_short_600ms.mp4	125.0080671718888	125.61629879561316	0.6082316237243504				
75.1748046875	0.2	153958	24	23	0	0	0	24	332	stimuli\Videos_short_600ms_vertflip\66.stroke_top_to_bottom_with_sponge_short_vertflip_short_600ms.mp4	66.stroke_top_to_bottom_with_sponge_short_vertflip_short_600ms.mp4	125.8080253551418	126.41629392774485	0.6082685726030377				
75.974609375	0.2	155596	25	23	0	0	0	25	143	stimuli\Videos_short_600ms_horflip\58.single_slap_with_pencil_short_horflip_short_600ms.mp4	58.single_slap_with_pencil_short_horflip_short_600ms.mp4	126.60791990421444	127.2162667732514	0.60834686903695				
76.7744140625	0.2	157234	26	23	0	0	0	26	21	stimuli\Videos_short_600ms\29.single_pinch_with_tweezers_short_short_600ms.mp4	29.single_pinch_with_tweezers_short_short_600ms.mp4	127.40812265385604	128.0162481228649	0.6081254690088826				
77.57470703125	0.2	158873	27	23	0	0	0	27	62	stimuli\Videos_short_600ms\66.stroke_top_to_bottom_with_sponge_short_short_600ms.mp4	66.stroke_top_to_bottom_with_sponge_short_short_600ms.mp4	128.20788758860772	128.81623211168403	0.6083445230763118				
78.37451171875	0.2	160511	28	23	0	0	0	28	29	stimuli\Videos_short_600ms\36.single_slap_with_full_hand_short_short_600ms.mp4	36.single_slap_with_full_hand_short_short_600ms.mp4	129.0085041070438	129.6162184464638	0.6077143394199993				
79.17431640625	0.2	162149	29	23	0	0	0	29	225	stimuli\Videos_short_600ms_horvertflip\50.single_(long)hard_push_with_thumb_short_horvertflip_short_600ms.mp4	50.single_(long)hard_push_with_thumb_short_horvertflip_short_600ms.mp4	129.80795351009942	130.416198623097	0.6082451129975652				
79.974609375	0.2	163788	30	23	0	0	0	30	270	stimuli\Videos_short_600ms_vertflip\1.repeated_touch_with_finger_fast_short_vertflip_short_600ms.mp4	1.repeated_touch_with_finger_fast_short_vertflip_short_600ms.mp4	130.60798735058052	131.21618143893602	0.6081940883555035				
80.7744140625	0.2	165426	31	23	0	0	0	31	211	stimuli\Videos_short_600ms_horvertflip\38.double_slap_with_pencil_short_horvertflip_short_600ms.mp4	38.double_slap_with_pencil_short_horvertflip_short_600ms.mp4	131.40803204112945	132.01616630749027	0.6081342663608211				
81.57421875	0.2	167064	32	23	0	0	0	32	129	stimuli\Videos_short_600ms_horflip\45.scratching_with_finger_nails_short_horflip_short_600ms.mp4	45.scratching_with_finger_nails_short_horflip_short_600ms.mp4	132.20788055072603	132.8161485368389	0.6082679861128781				
82.37451171875	0.2	168703	33	23	0	0	0	33	144	stimuli\Videos_short_600ms_horflip\59.single_push_with_long_side_pencil_short_horflip_short_600ms.mp4	59.single_push_with_long_side_pencil_short_horflip_short_600ms.mp4	133.00784811782114	133.6161342851285	0.6082861673073694				
83.17431640625	0.2	170341	34	23	0	0	0	34	155	stimuli\Videos_short_600ms_horflip\69.stroke_with_soft_sock_short_horflip_short_600ms.mp4	69.stroke_with_soft_sock_short_horflip_short_600ms.mp4	133.80790776386857	134.41611534149706	0.608207577628491				
83.97412109375	0.2	171979	35	23	0	0	0	35	161	stimuli\Videos_short_600ms_horflip\74.fingers_walking_from_top_to_bottom_short_horflip_short_600ms.mp4	74.fingers_walking_from_top_to_bottom_short_horflip_short_600ms.mp4	134.60778266552143	135.21609962356115	0.6083169580397225				
84.7744140625	0.2	173618	36	23	0	0	0	36	196	stimuli\Videos_short_600ms_horvertflip\24.single_stroke_top_to_bottom_with_a_spoon_short_horvertflip_short_600ms.mp4	24.single_stroke_top_to_bottom_with_a_spoon_short_horvertflip_short_600ms.mp4	135.40774231499972	136.0160601527748	0.6083178377750755				
85.57421875	0.2	175256	37	23	0	0	0	37	59	stimuli\Videos_short_600ms\63.stroke_top_to_bottom_with_screwdriver_short_short_600ms.mp4	63.stroke_top_to_bottom_with_screwdriver_short_short_600ms.mp4	136.2078315787992	136.8160637890137	0.6082322102145099				
86.3740234375	0.2	176894	38	23	0	0	0	38	220	stimuli\Videos_short_600ms_horvertflip\46.scratching_top_to_bottom_with_finger_nails_short_horvertflip_short_600ms.mp4	46.scratching_top_to_bottom_with_finger_nails_short_horvertflip_short_600ms.mp4	137.0078281771564	137.61604631160753	0.6082181344511355				
87.17431640625	0.2	178533	39	23	0	0	0	39	169	stimuli\Videos_short_600ms_horflip\81.single_stroke_top_to_bottom_with_cotton_pad_short_horflip_short_600ms.mp4	81.single_stroke_top_to_bottom_with_cotton_pad_short_horflip_short_600ms.mp4	137.80783269313042	138.41605463976748	0.6082219466370589				
87.97412109375	0.2	180171	40	23	0	0	0	40	89	stimuli\Videos_short_600ms\90.repeated_touch_with_sponge_short_short_600ms.mp4	90.repeated_touch_with_sponge_short_short_600ms.mp4	138.60767181888468	139.21604097454724	0.6083691556625581				
88.77392578125	0.2	181809	41	23	0	0	0	41	248	stimuli\Videos_short_600ms_horvertflip\71.single_stroke_with_finger_top_to_bottom_short_horvertflip_short_600ms.mp4	71.single_stroke_with_finger_top_to_bottom_short_horvertflip_short_600ms.mp4	139.40765434147852	140.01600707541706	0.6083527339385455				
89.57421875	0.2	183448	42	23	0	0	0	42	151	stimuli\Videos_short_600ms_horflip\65.stroke_top_to_bottom_with_stanley_knife_short_horflip_short_600ms.mp4	65.stroke_top_to_bottom_with_stanley_knife_short_horflip_short_600ms.mp4	140.2076638426188	140.81598549257978	0.6083216499609989				
90.3740234375	0.2	185086	43	23	0	0	0	43	291	stimuli\Videos_short_600ms_vertflip\29.single_pinch_with_tweezers_short_vertflip_short_600ms.mp4	29.single_pinch_with_tweezers_short_vertflip_short_600ms.mp4	141.00761997315635	141.61594250285248	0.6083225296961245				
91.17431640625	0.2	186725	44	23	0	0	0	44	107	stimuli\Videos_short_600ms_horflip\25.single_touch_with_stanley_knife_short_horflip_short_600ms.mp4	25.single_touch_with_stanley_knife_short_horflip_short_600ms.mp4	141.80769310847677	142.4159499512773	0.6082568428005288				
91.97412109375	0.2	188363	45	23	0	0	0	45	305	stimuli\Videos_short_600ms_vertflip\41.injection_with_blunt_syringe_short_vertflip_short_600ms.mp4	41.injection_with_blunt_syringe_short_vertflip_short_600ms.mp4	142.60770964749895	143.2159342333416	0.6082245858426631				
92.77392578125	0.2	190001	46	23	0	0	0	46	66	stimuli\Videos_short_600ms\7.repeated_touch_with_hairbrush_short_short_600ms.mp4	7.repeated_touch_with_hairbrush_short_short_600ms.mp4	143.40759627895454	144.01591968838602	0.6083234094314776				
93.57421875	0.2	191640	47	23	0	0	0	47	269	stimuli\Videos_short_600ms_horvertflip\90.repeated_touch_with_sponge_short_horvertflip_short_600ms.mp4	90.repeated_touch_with_sponge_short_horvertflip_short_600ms.mp4	144.20767146699063	144.81589957177425	0.6082281047836204				
94.3740234375	0.2	193278	48	23	0	0	0	48	351	stimuli\Videos_short_600ms_vertflip\83.single_stroke_top_to_bottom_with_cotton_bud_short_vertflip_short_600ms.mp4	83.single_stroke_top_to_bottom_with_cotton_bud_short_vertflip_short_600ms.mp4	145.00754666188868	145.61588356059335	0.6083368987046924				
95.173828125	0.2	194916	49	23	0	0	0	49	86	stimuli\Videos_short_600ms\88.repeated_stroke_with_plastic_brush_short_short_600ms.mp4	88.repeated_stroke_with_plastic_brush_short_short_600ms.mp4	145.80757786316417	146.41586696292234	0.6082890997581671				
95.97412109375	0.2	196555	50	23	0	0	0	50	102	stimuli\Videos_short_600ms_horflip\20.single_touch_with_screwdriver_short_horflip_short_600ms.mp4	20.single_touch_with_screwdriver_short_horflip_short_600ms.mp4	146.60750994760588	147.21585212472178	0.608342177115901				
96.77392578125	0.2	198193	51	23	0	0	0	51	298	stimuli\Videos_short_600ms_vertflip\35.single_punch_with_hand_short_vertflip_short_600ms.mp4	35.single_punch_with_hand_short_vertflip_short_600ms.mp4	147.4074995080814	148.01583699327605	0.6083374851946246				
97.57373046875	0.2	199831	52	23	0	0	0	52	338	stimuli\Videos_short_600ms_vertflip\71.single_stroke_with_finger_top_to_bottom_short_vertflip_short_600ms.mp4	71.single_stroke_with_finger_top_to_bottom_short_vertflip_short_600ms.mp4	148.2075700041962	148.81581804964458	0.608248045448363				
98.3740234375	0.2	201470	53	23	0	0	0	53	61	stimuli\Videos_short_600ms\65.stroke_top_to_bottom_with_stanley_knife_short_short_600ms.mp4	65.stroke_top_to_bottom_with_stanley_knife_short_short_600ms.mp4	149.0077170372747	149.6157988127679	0.6080817754932468				
99.173828125	0.2	203108	54	23	0	0	0	54	55	stimuli\Videos_short_600ms\6.single_touch_with_flat_hand_short_short_600ms.mp4	6.single_touch_with_flat_hand_short_short_600ms.mp4	149.80757405097825	150.4157807488716	0.6082066978933653				
99.9736328125	0.2	204746	55	23	0	0	0	55	347	stimuli\Videos_short_600ms_vertflip\8.single_touch_with_hairbrush_short_vertflip_short_600ms.mp4	8.single_touch_with_hairbrush_short_vertflip_short_600ms.mp4	150.60754836271008	151.21577412153306	0.6082257588229822				
100.77392578125	0.2	206385	56	23	0	0	0	56	216	stimuli\Videos_short_600ms_horvertflip\42.single_slap_with_plastic_whisk_short_horvertflip_short_600ms.mp4	42.single_slap_with_plastic_whisk_short_horvertflip_short_600ms.mp4	151.4074323549603	152.01574901975505	0.6083166647947564				
101.57373046875	0.2	208023	57	23	0	0	0	57	100	stimuli\Videos_short_600ms_horflip\19.single_touch_with_rolling_pin_short_horflip_short_600ms.mp4	19.single_touch_with_rolling_pin_short_horflip_short_600ms.mp4	152.20742631411167	152.8157447383769	0.6083184242652351				
102.37353515625	0.2	209661	58	23	0	0	0	58	130	stimuli\Videos_short_600ms_horflip\46.scratching_top_to_bottom_with_finger_nails_short_horflip_short_600ms.mp4	46.scratching_top_to_bottom_with_finger_nails_short_horflip_short_600ms.mp4	153.0073721810718	153.6157140649425	0.6083418838707075				
103.173828125	0.2	211300	59	23	0	0	0	59	77	stimuli\Videos_short_600ms\8.single_touch_with_hairbrush_short_short_600ms.mp4	8.single_touch_with_hairbrush_short_short_600ms.mp4	153.80735441042043	154.41570509164353	0.6083506812231008				
103.9736328125	0.2	212938	60	23	0	0	0	60	191	stimuli\Videos_short_600ms_horvertflip\2.single_touch_with_finger_short_horvertflip_short_600ms.mp4	2.single_touch_with_finger_short_horvertflip_short_600ms.mp4	154.6078679998368	155.21568732099217	0.6078193211553753				
104.7734375	0.2	214576	61	23	0	0	0	61	242	stimuli\Videos_short_600ms_horvertflip\66.stroke_top_to_bottom_with_sponge_short_horvertflip_short_600ms.mp4	66.stroke_top_to_bottom_with_sponge_short_horvertflip_short_600ms.mp4	155.40759774518006	156.01567717471266	0.6080794295326086				
105.57373046875	0.2	216215	62	23	0	0	0	62	49	stimuli\Videos_short_600ms\54.repeated_touch_with_knife_short_short_600ms.mp4	54.repeated_touch_with_knife_short_short_600ms.mp4	156.20791544688927	156.81565119319953	0.6077357463102544				
106.37353515625	0.2	217853	63	23	0	0	0	63	16	stimuli\Videos_short_600ms\24.single_stroke_top_to_bottom_with_a_spoon_short_short_600ms.mp4	24.single_stroke_top_to_bottom_with_a_spoon_short_short_600ms.mp4	157.0078360947732	157.61563430228352	0.6077982075103137				
107.17333984375	0.2	219491	64	23	0	0	0	64	293	stimuli\Videos_short_600ms_vertflip\30.finger_pulling_back_another_finger_short_vertflip_short_600ms.mp4	30.finger_pulling_back_another_finger_short_vertflip_short_600ms.mp4	157.80738989307406	158.41561711812233	0.6082272250482674				
107.9736328125	0.2	221130	65	23	0	0	0	65	265	stimuli\Videos_short_600ms_horvertflip\87.single_stroke_top_to_bottom_with_plastic_brush_short_horvertflip_short_600ms.mp4	87.single_stroke_top_to_bottom_with_plastic_brush_short_horvertflip_short_600ms.mp4	158.60733165460306	159.21560550561753	0.6082738510144736				
108.7734375	0.2	222768	66	23	0	0	0	66	287	stimuli\Videos_short_600ms_vertflip\25.single_touch_with_stanley_knife_short_vertflip_short_600ms.mp4	25.single_touch_with_stanley_knife_short_vertflip_short_600ms.mp4	159.4073883681997	160.01558773496618	0.6081993667664847				
109.57373046875	0.2	224407	67	23	0	0	0	67	312	stimuli\Videos_short_600ms_vertflip\48.single_slap_with_hand_short_vertflip_short_600ms.mp4	48.single_slap_with_hand_short_vertflip_short_600ms.mp4	160.20725124680462	160.81557231027546	0.6083210634708394				
110.37353515625	0.2	226045	68	23	0	0	0	68	244	stimuli\Videos_short_600ms_horvertflip\68.stroke_top_to_bottom_with_shawl_short_horvertflip_short_600ms.mp4	68.stroke_top_to_bottom_with_shawl_short_horvertflip_short_600ms.mp4	161.0072718912577	161.61555102068337	0.6082791294256822				
111.17333984375	0.2	227683	69	23	0	0	0	69	23	stimuli\Videos_short_600ms\30.finger_pulling_back_another_finger_short_short_600ms.mp4	30.finger_pulling_back_another_finger_short_short_600ms.mp4	161.80730631822894	162.41553559599265	0.6082292777637122				
111.9736328125	0.2	229322	70	23	0	0	0	70	215	stimuli\Videos_short_600ms_horvertflip\41.injection_with_blunt_syringe_short_horvertflip_short_600ms.mp4	41.injection_with_blunt_syringe_short_horvertflip_short_600ms.mp4	162.6072967584396	163.21552105103729	0.6082242925976971				
112.7734375	0.2	230960	71	23	0	0	0	71	173	stimuli\Videos_short_600ms_horflip\85.touch_top_to_bottom_with_fabric_short_horflip_short_600ms.mp4	85.touch_top_to_bottom_with_fabric_short_horflip_short_600ms.mp4	163.4071602235349	164.01550416012105	0.6083439365861523				
113.5732421875	0.2	232598	72	23	0	0	0	72	186	stimuli\Videos_short_600ms_horvertflip\15.single_stroke_top_to_bottom_with_a_plastic_whisk_short_horvertflip_short_600ms.mp4	15.single_stroke_top_to_bottom_with_a_plastic_whisk_short_horvertflip_short_600ms.mp4	164.20720403434825	164.8154904949008	0.6082864605525629				
114.37353515625	0.2	234237	73	23	0	0	0	73	188	stimuli\Videos_short_600ms_horvertflip\17.repeated_touch_with_rolling_pin_short_horvertflip_short_600ms.mp4	17.repeated_touch_with_rolling_pin_short_horvertflip_short_600ms.mp4	165.00729300490275	165.61547389722978	0.6081808923270273				
115.17333984375	0.2	235875	74	23	0	0	0	74	300	stimuli\Videos_short_600ms_vertflip\37.single_stab_with_nail_file_short_vertflip_short_600ms.mp4	37.single_stab_with_nail_file_short_vertflip_short_600ms.mp4	165.80736995240932	166.41543296021814	0.6080630078088234				
115.97314453125	0.2	237513	75	23	0	0	0	75	93	stimuli\Videos_short_600ms_horflip\12.repeated_touch_with_nail_file_short_horflip_short_600ms.mp4	12.repeated_touch_with_nail_file_short_horflip_short_600ms.mp4	166.6075040827045	167.2154339572512	0.6079298745466986				
116.7734375	0.2	239152	76	23	0	0	0	76	124	stimuli\Videos_short_600ms_horflip\40.repeated_push_with_finger_short_horflip_short_600ms.mp4	40.repeated_push_with_finger_short_horflip_short_600ms.mp4	167.4071983453939	168.015419998786	0.6082216533920928				
117.5732421875	0.2	240790	77	23	0	0	0	77	88	stimuli\Videos_short_600ms\9.single_touch_with_hammer_short_short_600ms.mp4	9.single_touch_with_hammer_short_short_600ms.mp4	168.207202274878	168.8153770090587	0.6081747341806931				
118.373046875	0.2	242428	78	23	0	0	0	78	339	stimuli\Videos_short_600ms_vertflip\72.(short)stroke_with_finger_all_over_the_hand_short_vertflip_short_600ms.mp4	72.(short)stroke_with_finger_all_over_the_hand_short_vertflip_short_600ms.mp4	169.00706779268853	169.6153882696692	0.6083204769806798				
119.17333984375	0.2	244067	79	23	0	0	0	79	234	stimuli\Videos_short_600ms_horvertflip\59.single_push_with_long_side_pencil_short_horvertflip_short_600ms.mp4	59.single_push_with_long_side_pencil_short_horvertflip_short_600ms.mp4	169.80702509620642	170.41539278564346	0.6083676894370456				
119.97314453125	0.2	245705	80	23	0	0	0	80	54	stimuli\Videos_short_600ms\59.single_push_with_long_side_pencil_short_short_600ms.mp4	59.single_push_with_long_side_pencil_short_short_600ms.mp4	170.6071167059663	171.21536211220905	0.6082454062427587				
120.77294921875	0.2	247343	81	23	0	0	0	81	64	stimuli\Videos_short_600ms\68.stroke_top_to_bottom_with_shawl_short_short_600ms.mp4	68.stroke_top_to_bottom_with_shawl_short_short_600ms.mp4	171.4070185861658	172.0153417023521	0.6083231161862841				
121.5732421875	0.2	248982	82	23	0	0	0	82	135	stimuli\Videos_short_600ms_horflip\50.single_(long)hard_push_with_thumb_short_horflip_short_600ms.mp4	50.single_(long)hard_push_with_thumb_short_horflip_short_600ms.mp4	172.20699846955404	172.81532217223048	0.6083237026764436				
122.373046875	0.2	250620	83	23	0	0	0	83	319	stimuli\Videos_short_600ms_vertflip\54.repeated_touch_with_knife_short_vertflip_short_600ms.mp4	54.repeated_touch_with_knife_short_vertflip_short_600ms.mp4	173.0069871502942	173.61530498806928	0.6083178377750755				
123.1728515625	0.2	252258	84	23	0	0	0	84	245	stimuli\Videos_short_600ms_horvertflip\69.stroke_with_soft_sock_short_horvertflip_short_600ms.mp4	69.stroke_with_soft_sock_short_horvertflip_short_600ms.mp4	173.80709459528794	174.415291616094	0.6081970208060739				
123.97314453125	0.2	253897	85	23	0	0	0	85	218	stimuli\Videos_short_600ms_horvertflip\44.pushing_top_to_bottom_with_finger_short_horvertflip_short_600ms.mp4	44.pushing_top_to_bottom_with_finger_short_horvertflip_short_600ms.mp4	174.60706920026496	175.2152720859724	0.608202885707442				
124.77294921875	0.2	255535	86	23	0	0	0	86	69	stimuli\Videos_short_600ms\72.(short)stroke_with_finger_all_over_the_hand_short_short_600ms.mp4	72.(short)stroke_with_finger_all_over_the_hand_short_short_600ms.mp4	175.40718808181646	176.01525548830136	0.6080674064849063				
125.57275390625	0.2	257173	87	23	0	0	0	87	352	stimuli\Videos_short_600ms_vertflip\84.single_touch_with_cotton_bud_short_vertflip_short_600ms.mp4	84.single_touch_with_cotton_bud_short_vertflip_short_600ms.mp4	176.20692398530605	176.81524094334577	0.6083169580397225				
126.373046875	0.2	258812	88	23	0	0	0	88	273	stimuli\Videos_short_600ms_vertflip\12.repeated_touch_with_nail_file_short_vertflip_short_600ms.mp4	12.repeated_touch_with_nail_file_short_vertflip_short_600ms.mp4	177.00695078790545	177.61522287944945	0.608272091543995				
127.1728515625	0.2	260450	89	23	0	0	0	89	187	stimuli\Videos_short_600ms_horvertflip\16.repeated_touch_with_plastic_brush_short_horvertflip_short_600ms.mp4	16.repeated_touch_with_plastic_brush_short_horvertflip_short_600ms.mp4	177.80697759050486	178.41520774800392	0.6082301574990652				
127.97314453125	0.2	262089	90	23	0	0	0	90	9	stimuli\Videos_short_600ms\18.single_stroke_from_top_to_bottom_with_rolling_pin_short_short_600ms.mp4	18.single_stroke_from_top_to_bottom_with_rolling_pin_short_short_600ms.mp4	178.60690029110424	179.21519173682304	0.6082914457188053				
128.77294921875	0.2	263727	91	23	0	0	0	91	122	stimuli\Videos_short_600ms_horflip\39.single_stab_with_scissors_short_horflip_short_600ms.mp4	39.single_stab_with_scissors_short_horflip_short_600ms.mp4	179.4069816372869	180.01517601888736	0.6081943816004696				
129.57275390625	0.2	265365	92	23	0	0	0	92	199	stimuli\Videos_short_600ms_horvertflip\27.single_push_with_a_plastic_whisk_short_horvertflip_short_600ms.mp4	27.single_push_with_a_plastic_whisk_short_horvertflip_short_600ms.mp4	180.20682662794252	180.8151541428051	0.6083275148625944	3.0	3.0	2.437014624424819	1.0
165.07177734375	0.2	338067	93	23	1	0	0	0	71	stimuli\Videos_short_600ms\74.fingers_walking_from_top_to_bottom_short_short_600ms.mp4	74.fingers_walking_from_top_to_bottom_short_short_600ms.mp4	216.5060629884547	217.11441425616772	0.6083512677130329				
165.87158203125	0.2	339705	94	23	1	0	0	1	331	stimuli\Videos_short_600ms_vertflip\65.stroke_top_to_bottom_with_stanley_knife_short_vertflip_short_600ms.mp4	65.stroke_top_to_bottom_with_stanley_knife_short_vertflip_short_600ms.mp4	217.30607630178088	217.9143721461755	0.6082958443946609				
166.671875	0.2	341344	95	23	1	0	0	2	145	stimuli\Videos_short_600ms_horflip\6.single_touch_with_flat_hand_short_horflip_short_600ms.mp4	6.single_touch_with_flat_hand_short_horflip_short_600ms.mp4	218.1059846333717	218.71446258295532	0.6084779495836301				
167.4716796875	0.2	342982	96	23	1	0	0	3	150	stimuli\Videos_short_600ms_horflip\64.repeated_touch_with_screwdriver_short_horflip_short_600ms.mp4	64.repeated_touch_with_screwdriver_short_horflip_short_600ms.mp4	218.90602639146985	219.51434217652945	0.6083157850596308				
168.271484375	0.2	344620	97	23	1	0	0	4	33	stimuli\Videos_short_600ms\4.repeated_tap_with_finger_slow_short_short_600ms.mp4	4.repeated_tap_with_finger_slow_short_short_600ms.mp4	219.70598574770293	220.31432909779917	0.6083433500962201				
169.07177734375	0.2	346259	98	23	1	0	0	5	13	stimuli\Videos_short_600ms\21.repeated_touch_with_metal_chopstick_short_short_600ms.mp4	21.repeated_touch_with_metal_chopstick_short_short_600ms.mp4	220.50599583533335	221.1142773107199	0.6082814753865478				
169.87158203125	0.2	347897	99	23	1	0	0	6	294	stimuli\Videos_short_600ms_vertflip\31.hand_grabbing_wrist_short_vertflip_short_600ms.mp4	31.hand_grabbing_wrist_short_vertflip_short_600ms.mp4	221.30594140904827	221.9142574873531	0.6083160783048243				
170.67138671875	0.2	349535	100	23	1	0	0	7	333	stimuli\Videos_short_600ms_vertflip\67.single_touch_with_sponge_short_vertflip_short_600ms.mp4	67.single_touch_with_sponge_short_vertflip_short_600ms.mp4	222.105939473631	222.71428194399184	0.6083424703608671				
171.4716796875	0.2	351174	101	23	1	0	0	8	285	stimuli\Videos_short_600ms_vertflip\23.single_push_with_a_spoon_short_vertflip_short_600ms.mp4	23.single_push_with_a_spoon_short_vertflip_short_600ms.mp4	222.90593431251773	223.51446035429285	0.6085260417751215				
172.271484375	0.2	352812	102	23	1	0	0	9	50	stimuli\Videos_short_600ms\55.touch_top_to_bottom_with_nail_file_short_short_600ms.mp4	55.touch_top_to_bottom_with_nail_file_short_short_600ms.mp4	223.70591566213125	224.31424933514015	0.6083336730089286				
173.0712890625	0.2	354450	103	23	1	0	0	10	134	stimuli\Videos_short_600ms_horflip\5.repeated_tap_with_finger_moving_from_top_to_bottom_short_horflip_short_600ms.mp4	5.repeated_tap_with_finger_moving_from_top_to_bottom_short_horflip_short_600ms.mp4	224.5059046361166	225.11423244422392	0.6083278081073331				
173.87158203125	0.2	356089	104	23	1	0	0	11	74	stimuli\Videos_short_600ms\77.tapping_with_all_fingers_short_short_600ms.mp4	77.tapping_with_all_fingers_short_short_600ms.mp4	225.30595577805684	225.9142132073473	0.608257429290461				
174.67138671875	0.2	357727	105	23	1	0	0	12	149	stimuli\Videos_short_600ms_horflip\63.stroke_top_to_bottom_with_screwdriver_short_horflip_short_600ms.mp4	63.stroke_top_to_bottom_with_screwdriver_short_horflip_short_600ms.mp4	226.10586264342237	226.71417549603143	0.6083128526090604				
175.47119140625	0.2	359365	106	23	1	0	0	13	46	stimuli\Videos_short_600ms\51.repeated_touch_with_hammer_short_short_600ms.mp4	51.repeated_touch_with_hammer_short_short_600ms.mp4	226.9058686256219	227.5141803052504	0.608311679628514				
176.271484375	0.2	361004	107	23	1	0	0	14	7	stimuli\Videos_short_600ms\16.repeated_touch_with_plastic_brush_short_short_600ms.mp4	16.repeated_touch_with_plastic_brush_short_short_600ms.mp4	227.7062420438947	228.31411473565277	0.6078726917580752				
177.0712890625	0.2	362642	108	23	1	0	0	15	228	stimuli\Videos_short_600ms_horvertflip\53.touch_top_to_bottom_with_knife_short_horvertflip_short_600ms.mp4	53.touch_top_to_bottom_with_knife_short_horvertflip_short_600ms.mp4	228.50583924246575	229.11413889904657	0.6082996565808116				
177.87158203125	0.2	364281	109	23	1	0	0	16	48	stimuli\Videos_short_600ms\53.touch_top_to_bottom_with_knife_short_short_600ms.mp4	53.touch_top_to_bottom_with_knife_short_short_600ms.mp4	229.30596516189917	229.91410851885712	0.6081433569579531				
178.67138671875	0.2	365919	110	23	1	0	0	17	261	stimuli\Videos_short_600ms_horvertflip\83.single_stroke_top_to_bottom_with_cotton_bud_short_horvertflip_short_600ms.mp4	83.single_stroke_top_to_bottom_with_cotton_bud_short_horvertflip_short_600ms.mp4	230.10580839308432	230.7140933874116	0.6082849943272777				
179.47119140625	0.2	367557	111	23	1	0	0	18	184	stimuli\Videos_short_600ms_horvertflip\13.single_touch_with_pen_short_horvertflip_short_600ms.mp4	13.single_touch_with_pen_short_horvertflip_short_600ms.mp4	230.9057560195149	231.51408206815177	0.6083260486368545				
180.271484375	0.2	369196	112	23	1	0	0	19	212	stimuli\Videos_short_600ms_horvertflip\39.single_stab_with_scissors_short_horvertflip_short_600ms.mp4	39.single_stab_with_scissors_short_horvertflip_short_600ms.mp4	231.70569426210295	232.3140909828021	0.6083967206991474				
181.0712890625	0.2	370834	113	23	1	0	0	20	219	stimuli\Videos_short_600ms_horvertflip\45.scratching_with_finger_nails_short_horvertflip_short_600ms.mp4	45.scratching_with_finger_nails_short_horvertflip_short_600ms.mp4	232.5057339674854	233.11407878380712	0.6083448163217327				
181.87109375	0.2	372472	114	23	1	0	0	21	84	stimuli\Videos_short_600ms\86.touch_top_to_bottom_with_hair_brush_short_short_600ms.mp4	86.touch_top_to_bottom_with_hair_brush_short_short_600ms.mp4	233.30576692823135	233.91403726030512	0.6082703320737437				
182.67138671875	0.2	374111	115	23	1	0	0	22	167	stimuli\Videos_short_600ms_horflip\8.single_touch_with_hairbrush_short_horflip_short_600ms.mp4	8.single_touch_with_hairbrush_short_horflip_short_600ms.mp4	234.1056670489604	234.71398107454957	0.6083140255891522				
183.47119140625	0.2	375749	116	23	1	0	0	23	226	stimuli\Videos_short_600ms_horvertflip\51.repeated_touch_with_hammer_short_horvertflip_short_600ms.mp4	51.repeated_touch_with_hammer_short_horvertflip_short_600ms.mp4	234.9056956110303	235.51402429887295	0.6083286878426861				
184.279296875	0.2	377404	117	23	1	0	0	24	79	stimuli\Videos_short_600ms\81.single_stroke_top_to_bottom_with_cotton_pad_short_short_600ms.mp4	81.single_stroke_top_to_bottom_with_cotton_pad_short_short_600ms.mp4	235.7141191929777	236.32226401616117	0.6081448231834656				
185.07958984375	0.2	379043	118	23	1	0	1	25	379	stimuli\Targets_short_600ms_vertflip\chopstick-silver-tap_short_horvertflip_short_600ms.mp4	chopstick-silver-tap_short_horvertflip_short_600ms.mp4	236.51504391198296	237.1222975633973	0.6072536514143394				
185.8876953125	0.2	380698	119	23	1	0	0	26	321	stimuli\Videos_short_600ms_vertflip\56.repeated_touch_with_nail_file_short_vertflip_short_600ms.mp4	56.repeated_touch_with_nail_file_short_vertflip_short_600ms.mp4	237.32231914623455	237.9306361042743	0.6083169580397225				
186.6875	0.2	382336	120	23	1	0	0	27	328	stimuli\Videos_short_600ms_vertflip\62.touch_top_to_bottom_with_scissors_short_vertflip_short_600ms.mp4	62.touch_top_to_bottom_with_scissors_short_vertflip_short_600ms.mp4	238.1224157411607	238.73060865653588	0.6081929153751844				
187.48779296875	0.2	383975	121	23	1	0	0	28	52	stimuli\Videos_short_600ms\57.single_touch_with_nail_file_short_short_600ms.mp4	57.single_touch_with_nail_file_short_short_600ms.mp4	238.92229621446995	239.5306187441663	0.6083225296963519				
188.28759765625	0.2	385613	122	23	1	0	0	29	197	stimuli\Videos_short_600ms_horvertflip\25.single_touch_with_stanley_knife_short_horvertflip_short_600ms.mp4	25.single_touch_with_stanley_knife_short_horvertflip_short_600ms.mp4	239.72305319729503	240.33058748424173	0.6075342869467022				
189.087890625	0.2	387252	123	23	1	0	0	30	20	stimuli\Videos_short_600ms\28.single_injection_with_sharp_needle_short_short_600ms.mp4	28.single_injection_with_sharp_needle_short_short_600ms.mp4	240.5229811763056	241.1305697135904	0.6075885372847551				
189.8876953125	0.2	388890	124	23	1	0	0	31	246	stimuli\Videos_short_600ms_horvertflip\7.repeated_touch_with_hairbrush_short_horvertflip_short_600ms.mp4	7.repeated_touch_with_hairbrush_short_horvertflip_short_600ms.mp4	241.3227704503979	241.9305495969786	0.6077791465806968				
190.6875	0.2	390528	125	23	1	0	0	32	165	stimuli\Videos_short_600ms_horflip\78.single_stroke_top_to_bottom_with_soft_brush_short_horflip_short_600ms.mp4	78.single_stroke_top_to_bottom_with_soft_brush_short_horflip_short_600ms.mp4	242.12228700657488	242.73053915745413	0.6082521508792524				
191.48779296875	0.2	392167	126	23	1	0	0	33	240	stimuli\Videos_short_600ms_horvertflip\64.repeated_touch_with_screwdriver_short_horvertflip_short_600ms.mp4	64.repeated_touch_with_screwdriver_short_horvertflip_short_600ms.mp4	242.92215457710108	243.5304797460028	0.6083251689017288				
192.28759765625	0.2	393805	127	23	1	0	0	34	341	stimuli\Videos_short_600ms_vertflip\74.fingers_walking_from_top_to_bottom_short_vertflip_short_600ms.mp4	74.fingers_walking_from_top_to_bottom_short_vertflip_short_600ms.mp4	243.7221919365229	244.3305247297967	0.608332793273803				
193.08740234375	0.2	395443	128	23	1	0	0	35	342	stimuli\Videos_short_600ms_vertflip\75.(long)stroke_with_fingers_all_over_the_hand_short_vertflip_short_600ms.mp4	75.(long)stroke_with_fingers_all_over_the_hand_short_vertflip_short_600ms.mp4	244.52214689408015	245.13047998059892	0.608333086518769				
193.8876953125	0.2	397082	129	23	1	0	0	36	309	stimuli\Videos_short_600ms_vertflip\45.scratching_with_finger_nails_short_vertflip_short_600ms.mp4	45.scratching_with_finger_nails_short_vertflip_short_600ms.mp4	245.32231357457815	245.93046807484893	0.6081545002707571				
194.6875	0.2	398720	130	23	1	0	0	37	323	stimuli\Videos_short_600ms_vertflip\58.single_slap_with_pencil_short_vertflip_short_600ms.mp4	58.single_slap_with_pencil_short_vertflip_short_600ms.mp4	246.12213422589295	246.7304500109526	0.6083157850596308				
195.4873046875	0.2	400358	131	23	1	0	0	38	28	stimuli\Videos_short_600ms\35.single_punch_with_hand_short_short_600ms.mp4	35.single_punch_with_hand_short_short_600ms.mp4	246.9221129363009	247.5303982238731	0.6082852875722438				
196.28759765625	0.2	401997	132	23	1	0	0	39	264	stimuli\Videos_short_600ms_horvertflip\86.touch_top_to_bottom_with_hair_brush_short_horvertflip_short_600ms.mp4	86.touch_top_to_bottom_with_hair_brush_short_horvertflip_short_600ms.mp4	247.72204648696788	248.33041740210092	0.6083709151330368				
197.08740234375	0.2	403635	133	23	1	0	0	40	198	stimuli\Videos_short_600ms_horvertflip\26.single_touch_with_a_blunt_syringe_short_horvertflip_short_600ms.mp4	26.single_touch_with_a_blunt_syringe_short_horvertflip_short_600ms.mp4	248.52215627792248	249.13040139092004	0.6082451129975652				
197.88720703125	0.2	405273	134	23	1	0	0	41	201	stimuli\Videos_short_600ms_horvertflip\29.single_pinch_with_tweezers_short_horvertflip_short_600ms.mp4	29.single_pinch_with_tweezers_short_horvertflip_short_600ms.mp4	249.3220449620935	249.93035752145735	0.608312559363867				
198.6875	0.2	406912	135	23	1	0	0	42	317	stimuli\Videos_short_600ms_vertflip\52.touch_top_to_bottom_with_hammer_short_vertflip_short_600ms.mp4	52.touch_top_to_bottom_with_hammer_short_vertflip_short_600ms.mp4	250.1220436131664	250.7303881362427	0.6083445230763118				
199.4873046875	0.2	408550	136	23	1	0	0	43	99	stimuli\Videos_short_600ms_horflip\18.single_stroke_from_top_to_bottom_with_rolling_pin_short_horflip_short_600ms.mp4	18.single_stroke_from_top_to_bottom_with_rolling_pin_short_horflip_short_600ms.mp4	250.92212759855445	251.53036655340568	0.608238954851231				
200.287109375	0.2	410188	137	23	1	0	0	44	208	stimuli\Videos_short_600ms_horvertflip\35.single_punch_with_hand_short_horvertflip_short_600ms.mp4	35.single_punch_with_hand_short_horvertflip_short_600ms.mp4	251.722091939954	252.3303543544107	0.6082624144567035				
201.08740234375	0.2	411827	138	23	1	0	0	45	344	stimuli\Videos_short_600ms_vertflip\77.tapping_with_all_fingers_short_vertflip_short_600ms.mp4	77.tapping_with_all_fingers_short_vertflip_short_600ms.mp4	252.52219439978148	253.1303359972692	0.6081415974877018				
201.88720703125	0.2	413465	139	23	1	0	0	46	11	stimuli\Videos_short_600ms\2.single_touch_with_finger_short_short_600ms.mp4	2.single_touch_with_finger_short_short_600ms.mp4	253.32209012183444	253.93029506025732	0.6082049384228867				
202.68701171875	0.2	415103	140	23	1	0	0	47	157	stimuli\Videos_short_600ms_horflip\70.(long)stroke_with_finger_all_over_the_hand_short_horflip_short_600ms.mp4	70.(long)stroke_with_finger_all_over_the_hand_short_horflip_short_600ms.mp4	254.12208525396636	254.73027758285116	0.6081923288847975				
203.4873046875	0.2	416742	141	23	1	0	0	48	76	stimuli\Videos_short_600ms\79.long_with_soft_brush_all_over_the_hand_short_short_600ms.mp4	79.long_with_soft_brush_all_over_the_hand_short_short_600ms.mp4	254.9219674867461	255.5302832718055	0.6083157850594034				
204.287109375	0.2	418380	142	23	1	0	0	49	8	stimuli\Videos_short_600ms\17.repeated_touch_with_rolling_pin_short_short_600ms.mp4	17.repeated_touch_with_rolling_pin_short_short_600ms.mp4	255.72201598948072	256.33024526724444	0.6082292777637122				
205.0869140625	0.2	420018	143	23	1	0	0	50	180	stimuli\Videos_short_600ms_horvertflip\1.repeated_touch_with_finger_fast_short_horvertflip_short_600ms.mp4	1.repeated_touch_with_finger_fast_short_horvertflip_short_600ms.mp4	256.5221161033478	257.13023453447477	0.6081184311269681				
205.88720703125	0.2	421657	144	23	1	0	0	51	112	stimuli\Videos_short_600ms_horflip\3.single_push_with_finger_short_horflip_short_600ms.mp4	3.single_push_with_finger_short_horflip_short_600ms.mp4	257.3219860198344	257.9302405166743	0.6082544968398906				
206.68701171875	0.2	423295	145	23	1	0	0	52	166	stimuli\Videos_short_600ms_horflip\79.long_with_soft_brush_all_over_the_hand_short_horflip_short_600ms.mp4	79.long_with_soft_brush_all_over_the_hand_short_horflip_short_600ms.mp4	258.12206443356627	258.73023271635543	0.6081682827891655				
207.4873046875	0.2	424934	146	23	1	0	0	53	109	stimuli\Videos_short_600ms_horflip\27.single_push_with_a_plastic_whisk_short_horflip_short_600ms.mp4	27.single_push_with_a_plastic_whisk_short_horflip_short_600ms.mp4	258.9219674867461	259.53020614835214	0.6082386616060376				
208.287109375	0.2	426572	147	23	1	0	0	54	200	stimuli\Videos_short_600ms_horvertflip\28.single_injection_with_sharp_needle_short_horvertflip_short_600ms.mp4	28.single_injection_with_sharp_needle_short_horvertflip_short_600ms.mp4	259.7218690737004	260.3301992277684	0.6083301540679713				
209.0869140625	0.2	428210	148	23	1	0	0	55	304	stimuli\Videos_short_600ms_vertflip\40.repeated_push_with_finger_short_vertflip_short_600ms.mp4	40.repeated_push_with_finger_short_vertflip_short_600ms.mp4	260.5218518895392	261.13017031380446	0.6083184242652351				
209.88720703125	0.2	429849	149	23	1	0	0	56	230	stimuli\Videos_short_600ms_horvertflip\55.touch_top_to_bottom_with_nail_file_short_horvertflip_short_600ms.mp4	55.touch_top_to_bottom_with_nail_file_short_horvertflip_short_600ms.mp4	261.32192825055563	261.93015606209406	0.608227811538427				
210.68701171875	0.2	431487	150	23	1	0	0	57	353	stimuli\Videos_short_600ms_vertflip\85.touch_top_to_bottom_with_fabric_short_vertflip_short_600ms.mp4	85.touch_top_to_bottom_with_fabric_short_vertflip_short_600ms.mp4	262.12190432175794	262.7301382914427	0.6082339696847612				
211.48681640625	0.2	433125	151	23	1	0	0	58	68	stimuli\Videos_short_600ms\71.single_stroke_with_finger_top_to_bottom_short_short_600ms.mp4	71.single_stroke_with_finger_top_to_bottom_short_short_600ms.mp4	262.92177629096	263.53012345324214	0.6083471622821435				
212.287109375	0.2	434764	152	23	1	0	0	59	5	stimuli\Videos_short_600ms\14.repeated_touch_with_pencil_short_short_600ms.mp4	14.repeated_touch_with_pencil_short_short_600ms.mp4	263.721896638737	264.3301083217966	0.6082116830596078				
213.0869140625	0.2	436402	153	23	1	0	0	60	271	stimuli\Videos_short_600ms_vertflip\10.single_touch_with_knife_short_vertflip_short_600ms.mp4	10.single_touch_with_knife_short_vertflip_short_600ms.mp4	264.52251403690843	265.1300943633312	0.6075803264227488				
213.88671875	0.2	438040	154	23	1	0	0	61	142	stimuli\Videos_short_600ms_horflip\57.single_touch_with_nail_file_short_horflip_short_600ms.mp4	57.single_touch_with_nail_file_short_horflip_short_600ms.mp4	265.32218073456124	265.9300692615532	0.6078885269919283				
214.68701171875	0.2	439679	155	23	1	0	0	62	104	stimuli\Videos_short_600ms_horflip\22.single_touch_with_metal_chopstick_short_horflip_short_600ms.mp4	22.single_touch_with_metal_chopstick_short_horflip_short_600ms.mp4	266.1221491813917	266.730060288254	0.6079111068622751				
215.48681640625	0.2	441317	156	23	1	0	0	63	162	stimuli\Videos_short_600ms_horflip\75.(long)stroke_with_fingers_all_over_the_hand_short_horflip_short_600ms.mp4	75.(long)stroke_with_fingers_all_over_the_hand_short_horflip_short_600ms.mp4	266.9220123532418	267.53003958515205	0.6080272319102278				
216.28662109375	0.2	442955	157	23	1	0	0	64	280	stimuli\Videos_short_600ms_vertflip\19.single_touch_with_rolling_pin_short_vertflip_short_600ms.mp4	19.single_touch_with_rolling_pin_short_vertflip_short_600ms.mp4	267.72194267821305	268.3300256266866	0.6080829484735659				
217.0869140625	0.2	444594	158	23	1	0	0	65	350	stimuli\Videos_short_600ms_vertflip\82.repeated_touch_with_cotton_bud_short_vertflip_short_600ms.mp4	82.repeated_touch_with_cotton_bud_short_vertflip_short_600ms.mp4	268.5217750593308	269.1300087357706	0.6082336764397951				
217.88671875	0.2	446232	159	23	1	0	0	66	235	stimuli\Videos_short_600ms_horvertflip\6.single_touch_with_flat_hand_short_horvertflip_short_600ms.mp4	6.single_touch_with_flat_hand_short_horvertflip_short_600ms.mp4	269.3216772327753	269.9299903786291	0.6083131458537991				
218.6865234375	0.2	447870	160	23	1	0	0	67	185	stimuli\Videos_short_600ms_horvertflip\14.repeated_touch_with_pencil_short_horvertflip_short_600ms.mp4	14.repeated_touch_with_pencil_short_horvertflip_short_600ms.mp4	270.1216518377521	270.7299512010877	0.6082993633356182				
219.48681640625	0.2	449509	161	23	1	0	0	68	325	stimuli\Videos_short_600ms_vertflip\6.single_touch_with_flat_hand_short_vertflip_short_600ms.mp4	6.single_touch_with_flat_hand_short_vertflip_short_600ms.mp4	270.9216100210051	271.52993255070123	0.6083225296961245				
220.28662109375	0.2	451147	162	23	1	0	0	69	288	stimuli\Videos_short_600ms_vertflip\26.single_touch_with_a_blunt_syringe_short_vertflip_short_600ms.mp4	26.single_touch_with_a_blunt_syringe_short_vertflip_short_600ms.mp4	271.721596942275	272.329943518067	0.6083465757919839				
221.08642578125	0.2	452785	163	23	1	0	0	70	251	stimuli\Videos_short_600ms_horvertflip\74.fingers_walking_from_top_to_bottom_short_horvertflip_short_600ms.mp4	74.fingers_walking_from_top_to_bottom_short_horvertflip_short_600ms.mp4	272.52160321771953	273.1299289731114	0.6083257553918884				
221.88671875	0.2	454424	164	23	1	0	0	71	127	stimuli\Videos_short_600ms_horflip\43.touch_top_to_bottom_with_sharp_wooden_stick_short_horflip_short_600ms.mp4	43.touch_top_to_bottom_with_sharp_wooden_stick_short_horflip_short_600ms.mp4	273.32167400707954	273.92991560113614	0.6082415940566079				
222.6865234375	0.2	456062	165	23	1	0	1	72	374	stimuli\Targets_short_600ms_horvertflip\chopstickwood-tap_short_vertflip_short_600ms.mp4	chopstickwood-tap_short_vertflip_short_600ms.mp4	274.1216574094085	274.7298922588286	0.6082348494201142				
223.486328125	0.2	457700	166	23	1	0	0	73	189	stimuli\Videos_short_600ms_horvertflip\18.single_stroke_from_top_to_bottom_with_rolling_pin_short_horvertflip_short_600ms.mp4	18.single_stroke_from_top_to_bottom_with_rolling_pin_short_horvertflip_short_600ms.mp4	274.9216270292193	275.52987478142245	0.6082477522031695				
224.28662109375	0.2	459339	167	23	1	0	0	74	37	stimuli\Videos_short_600ms\43.touch_top_to_bottom_with_sharp_wooden_stick_short_short_600ms.mp4	43.touch_top_to_bottom_with_sharp_wooden_stick_short_short_600ms.mp4	275.72161307075385	276.3298581837514	0.6082451129975652				
225.08642578125	0.2	460977	168	23	1	0	0	75	91	stimuli\Videos_short_600ms_horflip\10.single_touch_with_knife_short_horflip_short_600ms.mp4	10.single_touch_with_knife_short_horflip_short_600ms.mp4	276.52163166249125	277.1298409995902	0.6082093370989696				
225.88671875	0.2	462616	169	23	1	0	0	76	210	stimuli\Videos_short_600ms_horvertflip\37.single_stab_with_nail_file_short_horvertflip_short_600ms.mp4	37.single_stab_with_nail_file_short_horvertflip_short_600ms.mp4	277.32150597765417	277.92982469516437	0.6083187175102012				
226.6865234375	0.2	464254	170	23	1	0	1	77	364	stimuli\Targets_short_600ms\hand-pinch_short_short_600ms.mp4	hand-pinch_short_short_600ms.mp4	278.1214896732281	278.72980956371885	0.6083198904907476				
227.486328125	0.2	465892	171	23	1	0	0	78	322	stimuli\Videos_short_600ms_vertflip\57.single_touch_with_nail_file_short_vertflip_short_600ms.mp4	57.single_touch_with_nail_file_short_vertflip_short_600ms.mp4	278.9214522551572	279.52979355253797	0.6083412973807754				
228.28662109375	0.2	467531	172	23	1	0	0	79	78	stimuli\Videos_short_600ms\80.stroke_with_sharp_stick_all_over_the_hand_short_short_600ms.mp4	80.stroke_with_sharp_stick_all_over_the_hand_short_short_600ms.mp4	279.72143301828055	280.3297760751316	0.6083430568510266				
229.08642578125	0.2	469169	173	23	1	0	0	80	108	stimuli\Videos_short_600ms_horflip\26.single_touch_with_a_blunt_syringe_short_horflip_short_600ms.mp4	26.single_touch_with_a_blunt_syringe_short_horflip_short_600ms.mp4	280.521417886835	281.1297600639509	0.608342177115901				
229.88623046875	0.2	470807	174	23	1	0	0	81	39	stimuli\Videos_short_600ms\45.scratching_with_finger_nails_short_short_600ms.mp4	45.scratching_with_finger_nails_short_short_600ms.mp4	281.32151301553586	281.9297428797897	0.6082298642538717				
230.6865234375	0.2	472446	175	23	1	0	0	82	239	stimuli\Videos_short_600ms_horvertflip\63.stroke_top_to_bottom_with_screwdriver_short_horvertflip_short_600ms.mp4	63.stroke_top_to_bottom_with_screwdriver_short_horvertflip_short_600ms.mp4	282.12146445415215	282.729702822513	0.6082383683608441				
231.486328125	0.2	474084	176	23	1	0	0	83	96	stimuli\Videos_short_600ms_horflip\15.single_stroke_top_to_bottom_with_a_plastic_whisk_short_horflip_short_600ms.mp4	15.single_stroke_top_to_bottom_with_a_plastic_whisk_short_horflip_short_600ms.mp4	282.9213780641544	283.52971232365326	0.6083342594988608				
232.2861328125	0.2	475722	177	23	1	0	0	84	10	stimuli\Videos_short_600ms\19.single_touch_with_rolling_pin_short_short_600ms.mp4	19.single_touch_with_rolling_pin_short_short_600ms.mp4	283.72143419126087	284.32968986108085	0.6082556698199824				
233.08642578125	0.2	477361	178	23	1	0	0	85	324	stimuli\Videos_short_600ms_vertflip\59.single_push_with_long_side_pencil_short_vertflip_short_600ms.mp4	59.single_push_with_long_side_pencil_short_vertflip_short_600ms.mp4	284.52136686219274	285.1296559619509	0.6082890997581671				
233.88623046875	0.2	478999	179	23	1	0	0	86	35	stimuli\Videos_short_600ms\41.injection_with_blunt_syringe_short_short_600ms.mp4	41.injection_with_blunt_syringe_short_short_600ms.mp4	285.32131478186807	285.92966429011085	0.6083495082427817				
234.68603515625	0.2	480637	180	23	1	0	0	87	343	stimuli\Videos_short_600ms_vertflip\76.tickle_with_fingers_from_top_to_bottom_short_vertflip_short_600ms.mp4	76.tickle_with_fingers_from_top_to_bottom_short_vertflip_short_600ms.mp4	286.12129671797175	286.72961836793274	0.6083216499609989				
235.486328125	0.2	482276	181	23	1	0	0	88	34	stimuli\Videos_short_600ms\40.repeated_push_with_finger_short_short_600ms.mp4	40.repeated_push_with_finger_short_short_600ms.mp4	286.92140474945586	287.5296240568871	0.6082193074312272				
236.2861328125	0.2	483914	182	23	1	0	0	89	45	stimuli\Videos_short_600ms\50.single_(long)hard_push_with_thumb_short_short_600ms.mp4	50.single_(long)hard_push_with_thumb_short_short_600ms.mp4	287.72175558785807	288.32962270795974	0.6078671201016732				
237.0859375	0.2	485552	183	23	1	0	0	90	156	stimuli\Videos_short_600ms_horflip\7.repeated_touch_with_hairbrush_short_horflip_short_600ms.mp4	7.repeated_touch_with_hairbrush_short_horflip_short_600ms.mp4	288.52138826908276	289.1295996588972	0.6082113898144144				
237.88623046875	0.2	487191	184	23	1	0	0	91	179	stimuli\Videos_short_600ms_horflip\90.repeated_touch_with_sponge_short_horflip_short_600ms.mp4	90.repeated_touch_with_sponge_short_horflip_short_600ms.mp4	289.3213429333948	289.92955402996427	0.6082110965694483				
238.68603515625	0.2	488829	185	23	1	0	0	92	2	stimuli\Videos_short_600ms\11.single_touch_with_lighter_short_short_600ms.mp4	11.single_touch_with_lighter_short_short_600ms.mp4	290.121293492276	290.7295614783891	0.6082679861131055	3.0	3.0	1.9052454798472809	1.0
273.5849609375	0.2	560302	186	23	2	0	0	0	168	stimuli\Videos_short_600ms_horflip\80.stroke_with_sharp_stick_all_over_the_hand_short_horflip_short_600ms.mp4	80.stroke_with_sharp_stick_all_over_the_hand_short_horflip_short_600ms.mp4	325.02106584612784	325.628835315621	0.6077694694931779				
274.384765625	0.2	561940	187	23	2	0	0	1	326	stimuli\Videos_short_600ms_vertflip\60.single_push_with_tip_of_pencil_short_vertflip_short_600ms.mp4	60.single_push_with_tip_of_pencil_short_vertflip_short_600ms.mp4	325.8212310604006	326.4288210639106	0.6075900035100403				
275.18505859375	0.2	563579	188	23	2	0	0	2	141	stimuli\Videos_short_600ms_horflip\56.repeated_touch_with_nail_file_short_horflip_short_600ms.mp4	56.repeated_touch_with_nail_file_short_horflip_short_600ms.mp4	326.62069072703366	327.22890241009327	0.6082116830596078				
275.98486328125	0.2	565217	189	23	2	0	0	3	256	stimuli\Videos_short_600ms_horvertflip\79.long_with_soft_brush_all_over_the_hand_short_horvertflip_short_600ms.mp4	79.long_with_soft_brush_all_over_the_hand_short_horvertflip_short_600ms.mp4	327.42044422522736	328.0287916807547	0.6083474555273369				
276.78466796875	0.2	566855	190	23	2	0	0	4	310	stimuli\Videos_short_600ms_vertflip\46.scratching_top_to_bottom_with_finger_nails_short_vertflip_short_600ms.mp4	46.scratching_top_to_bottom_with_finger_nails_short_vertflip_short_600ms.mp4	328.22049067524654	328.82874869102716	0.6082580157806206				
277.5849609375	0.2	568494	191	23	2	0	0	5	183	stimuli\Videos_short_600ms_horvertflip\12.repeated_touch_with_nail_file_short_horvertflip_short_600ms.mp4	12.repeated_touch_with_nail_file_short_horvertflip_short_600ms.mp4	329.02042305293344	329.6287602448831	0.6083371919496585				
278.384765625	0.2	570132	192	23	2	0	0	6	60	stimuli\Videos_short_600ms\64.repeated_touch_with_screwdriver_short_short_600ms.mp4	64.repeated_touch_with_screwdriver_short_short_600ms.mp4	329.8204941355384	330.42871490919515	0.6082207736567398				
279.1845703125	0.2	571770	193	23	2	0	0	7	202	stimuli\Videos_short_600ms_horvertflip\3.single_push_with_finger_short_horvertflip_short_600ms.mp4	3.single_push_with_finger_short_horvertflip_short_600ms.mp4	330.6204995312478	331.22869537907354	0.6081958478257548				
279.98486328125	0.2	573409	194	23	2	0	0	8	133	stimuli\Videos_short_600ms_horflip\49.repeated_slap_with_hand_short_horflip_short_600ms.mp4	49.repeated_slap_with_hand_short_horflip_short_600ms.mp4	331.42035947740214	332.0286799543828	0.6083204769806798				
280.78466796875	0.2	575047	195	23	2	0	0	9	259	stimuli\Videos_short_600ms_horvertflip\81.single_stroke_top_to_bottom_with_cotton_pad_short_horvertflip_short_600ms.mp4	81.single_stroke_top_to_bottom_with_cotton_pad_short_horvertflip_short_600ms.mp4	332.2204895022662	332.82866364995675	0.6081741476905336				
281.5849609375	0.2	576686	196	23	2	0	0	10	17	stimuli\Videos_short_600ms\25.single_touch_with_stanley_knife_short_short_600ms.mp4	25.single_touch_with_stanley_knife_short_short_600ms.mp4	333.02042686511913	333.6286555563929	0.60822869127378				
282.384765625	0.2	578324	197	23	2	0	0	11	148	stimuli\Videos_short_600ms_horflip\62.touch_top_to_bottom_with_scissors_short_horflip_short_600ms.mp4	62.touch_top_to_bottom_with_scissors_short_horflip_short_600ms.mp4	333.8203360764455	334.42871373621483	0.6083776597693031				
283.1845703125	0.2	579962	198	23	2	0	0	12	279	stimuli\Videos_short_600ms_vertflip\18.single_stroke_from_top_to_bottom_with_rolling_pin_short_vertflip_short_600ms.mp4	18.single_stroke_from_top_to_bottom_with_rolling_pin_short_vertflip_short_600ms.mp4	334.6203851656703	335.2286411287355	0.6082559630651758				
283.98486328125	0.2	581601	199	23	2	0	0	13	19	stimuli\Videos_short_600ms\27.single_push_with_a_plastic_whisk_short_short_600ms.mp4	27.single_push_with_a_plastic_whisk_short_short_600ms.mp4	335.4203902681345	336.02863450139694	0.6082442332624396				
284.78466796875	0.2	583239	200	23	2	0	0	14	18	stimuli\Videos_short_600ms\26.single_touch_with_a_blunt_syringe_short_short_600ms.mp4	26.single_touch_with_a_blunt_syringe_short_short_600ms.mp4	336.2202648765424	336.82860910637373	0.6083442298313457				
285.58447265625	0.2	584877	201	23	2	0	0	15	110	stimuli\Videos_short_600ms_horflip\28.single_injection_with_sharp_needle_short_horflip_short_600ms.mp4	28.single_injection_with_sharp_needle_short_horflip_short_600ms.mp4	337.0202462261559	337.62858781678165	0.6083415906257414				
286.384765625	0.2	586516	202	23	2	0	0	16	274	stimuli\Videos_short_600ms_vertflip\13.single_touch_with_pen_short_vertflip_short_600ms.mp4	13.single_touch_with_pen_short_vertflip_short_600ms.mp4	337.8202287487495	338.4285703393755	0.6083415906259688				
287.1845703125	0.2	588154	203	23	2	0	1	17	360	stimuli\Targets_short_600ms\brush-stroke_short_short_600ms.mp4	brush-stroke_short_short_600ms.mp4	338.62035026950684	339.2285555011749	0.6082052316680802				
287.984375	0.2	589792	204	23	2	0	0	18	136	stimuli\Videos_short_600ms_horflip\51.repeated_touch_with_hammer_short_horflip_short_600ms.mp4	51.repeated_touch_with_hammer_short_horflip_short_600ms.mp4	339.4203876289289	340.02853919674885	0.6081515678199594				
288.78466796875	0.2	591431	205	23	2	0	0	19	315	stimuli\Videos_short_600ms_vertflip\50.single_(long)hard_push_with_thumb_short_vertflip_short_600ms.mp4	50.single_(long)hard_push_with_thumb_short_vertflip_short_600ms.mp4	340.22028862939305	340.82852494503845	0.6082363156453994				
289.58447265625	0.2	593069	206	23	2	0	1	20	375	stimuli\Targets_short_600ms_horvertflip\finger-tap_short_vertflip_short_600ms.mp4	finger-tap_short_vertflip_short_600ms.mp4	341.02029343861227	341.6287162581225	0.6084228195102241				
290.38427734375	0.2	594707	207	23	2	0	0	21	318	stimuli\Videos_short_600ms_vertflip\53.touch_top_to_bottom_with_knife_short_vertflip_short_600ms.mp4	53.touch_top_to_bottom_with_knife_short_vertflip_short_600ms.mp4	341.82017625788194	342.4284917496966	0.6083154918146647				
291.1845703125	0.2	596346	208	23	2	0	0	22	283	stimuli\Videos_short_600ms_vertflip\21.repeated_touch_with_metal_chopstick_short_vertflip_short_600ms.mp4	21.repeated_touch_with_metal_chopstick_short_vertflip_short_600ms.mp4	342.6201271100083	343.2284730993101	0.6083459893018244				
291.984375	0.2	597984	209	23	2	0	0	23	292	stimuli\Videos_short_600ms_vertflip\3.single_push_with_finger_short_vertflip_short_600ms.mp4	3.single_push_with_finger_short_vertflip_short_600ms.mp4	343.42012165564984	344.02845444892364	0.608332793273803				
292.7841796875	0.2	599622	210	23	2	0	0	24	121	stimuli\Videos_short_600ms_horflip\38.double_slap_with_pencil_short_horflip_short_600ms.mp4	38.double_slap_with_pencil_short_horflip_short_600ms.mp4	344.220251094024	344.82843843774276	0.6081873437187824				
293.58447265625	0.2	601261	211	23	2	0	0	25	30	stimuli\Videos_short_600ms\37.single_stab_with_nail_file_short_short_600ms.mp4	37.single_stab_with_nail_file_short_short_600ms.mp4	345.02019637449393	345.6284197873563	0.608223412862344				
294.38427734375	0.2	602899	212	23	2	0	0	26	192	stimuli\Videos_short_600ms_horvertflip\20.single_touch_with_screwdriver_short_horvertflip_short_600ms.mp4	20.single_touch_with_screwdriver_short_horvertflip_short_600ms.mp4	345.8201991309975	346.42841257352757	0.6082134425300865				
295.18408203125	0.2	604537	213	23	2	0	0	27	72	stimuli\Videos_short_600ms\75.(long)stroke_with_fingers_all_over_the_hand_short_short_600ms.mp4	75.(long)stroke_with_fingers_all_over_the_hand_short_short_600ms.mp4	346.62019748882517	347.2285924500536	0.6083949612284414				
295.984375	0.2	606176	214	23	2	0	1	28	369	stimuli\Targets_short_600ms_horflip\finger-tap_short_horflip_short_600ms.mp4	finger-tap_short_horflip_short_600ms.mp4	347.4200451186864	348.0283603172559	0.6083151985694712				
296.7841796875	0.2	607814	215	23	2	0	0	29	65	stimuli\Videos_short_600ms\69.stroke_with_soft_sock_short_short_600ms.mp4	69.stroke_with_soft_sock_short_short_600ms.mp4	348.22001121955645	348.8285067638442	0.6084955442877344				
297.583984375	0.2	609452	216	23	2	0	0	30	170	stimuli\Videos_short_600ms_horflip\82.repeated_touch_with_cotton_bud_short_horflip_short_600ms.mp4	82.repeated_touch_with_cotton_bud_short_horflip_short_600ms.mp4	349.0201415376657	349.6283426639027	0.6082011262369633				
298.38427734375	0.2	611091	217	23	2	0	0	31	247	stimuli\Videos_short_600ms_horvertflip\70.(long)stroke_with_finger_all_over_the_hand_short_horvertflip_short_600ms.mp4	70.(long)stroke_with_finger_all_over_the_hand_short_horvertflip_short_600ms.mp4	349.8199765579891	350.4283471798767	0.6083706218876159				
299.18408203125	0.2	612729	218	23	2	0	0	32	233	stimuli\Videos_short_600ms_horvertflip\58.single_slap_with_pencil_short_horvertflip_short_600ms.mp4	58.single_slap_with_pencil_short_horvertflip_short_600ms.mp4	350.6203960157379	351.2283179726678	0.6079219569298857				
299.984375	0.2	614368	219	23	2	0	1	33	362	stimuli\Targets_short_600ms\chopstickwood-tap_short_short_600ms.mp4	chopstickwood-tap_short_short_600ms.mp4	351.4200606606753	352.02829580334037	0.6082351426650803				
300.7841796875	0.2	616006	220	23	2	0	0	34	3	stimuli\Videos_short_600ms\12.repeated_touch_with_nail_file_short_short_600ms.mp4	12.repeated_touch_with_nail_file_short_short_600ms.mp4	352.22006195095355	352.82828301785526	0.6082210669017059				
301.583984375	0.2	617644	221	23	2	0	0	35	272	stimuli\Videos_short_600ms_vertflip\11.single_touch_with_lighter_short_vertflip_short_600ms.mp4	11.single_touch_with_lighter_short_vertflip_short_600ms.mp4	353.0200400748713	353.62825263766604	0.6082125627947335				
302.38427734375	0.2	619283	222	23	2	0	0	36	85	stimuli\Videos_short_600ms\87.single_stroke_top_to_bottom_with_plastic_brush_short_short_600ms.mp4	87.single_stroke_top_to_bottom_with_plastic_brush_short_short_600ms.mp4	353.8200366732285	354.42823926569076	0.6082025924622485				
303.18408203125	0.2	620921	223	23	2	0	0	37	290	stimuli\Videos_short_600ms_vertflip\28.single_injection_with_sharp_needle_short_vertflip_short_600ms.mp4	28.single_injection_with_sharp_needle_short_vertflip_short_600ms.mp4	354.61990219103905	355.22822530722556	0.6083231161865115				
303.98388671875	0.2	622559	224	23	2	0	1	38	380	stimuli\Targets_short_600ms_vertflip\chopstickwood-tap_short_horvertflip_short_600ms.mp4	chopstickwood-tap_short_horvertflip_short_600ms.mp4	355.4198747433006	356.0282034311433	0.6083286878426861				
304.7841796875	0.2	624198	225	23	2	0	0	39	302	stimuli\Videos_short_600ms_vertflip\39.single_stab_with_scissors_short_vertflip_short_600ms.mp4	39.single_stab_with_scissors_short_vertflip_short_600ms.mp4	356.2198428968859	356.8281868334723	0.6083439365863796				
305.583984375	0.2	625836	226	23	2	0	0	40	281	stimuli\Videos_short_600ms_vertflip\2.single_touch_with_finger_short_vertflip_short_600ms.mp4	2.single_touch_with_finger_short_vertflip_short_600ms.mp4	357.0198260059699	357.6281655438802	0.6083395379102967				
306.3837890625	0.2	627474	227	23	2	0	0	41	227	stimuli\Videos_short_600ms_horvertflip\52.touch_top_to_bottom_with_hammer_short_horvertflip_short_600ms.mp4	52.touch_top_to_bottom_with_hammer_short_horvertflip_short_600ms.mp4	357.8199296387777	358.4281536381302	0.6082239993525036				
307.18408203125	0.2	629113	228	23	2	0	0	42	123	stimuli\Videos_short_600ms_horflip\4.repeated_tap_with_finger_slow_short_horflip_short_600ms.mp4	4.repeated_tap_with_finger_slow_short_horflip_short_600ms.mp4	358.6197986755292	359.2281698839072	0.6083712083780028				
307.98388671875	0.2	630751	229	23	2	0	0	43	115	stimuli\Videos_short_600ms_horflip\32.single_(long)pinch_with_fingers_short_horflip_short_600ms.mp4	32.single_(long)pinch_with_fingers_short_horflip_short_600ms.mp4	359.4200108090133	360.02828671274324	0.6082759037299184				
308.78369140625	0.2	632389	230	23	2	0	0	44	243	stimuli\Videos_short_600ms_horvertflip\67.single_touch_with_sponge_short_horvertflip_short_600ms.mp4	67.single_touch_with_sponge_short_horvertflip_short_600ms.mp4	360.21977720999007	360.82812818445814	0.6083509744680669				
309.583984375	0.2	634028	231	23	2	0	0	45	164	stimuli\Videos_short_600ms_horflip\77.tapping_with_all_fingers_short_horflip_short_600ms.mp4	77.tapping_with_all_fingers_short_horflip_short_600ms.mp4	361.01975474741766	361.6280966312886	0.6083418838709349				
310.3837890625	0.2	635666	232	23	2	0	0	46	238	stimuli\Videos_short_600ms_horvertflip\62.touch_top_to_bottom_with_scissors_short_horvertflip_short_600ms.mp4	62.touch_top_to_bottom_with_scissors_short_horvertflip_short_600ms.mp4	361.8197270064341	362.428144840778	0.6084178343439817				
311.18359375	0.2	637304	233	23	2	0	0	47	258	stimuli\Videos_short_600ms_horvertflip\80.stroke_with_sharp_stick_all_over_the_hand_short_horvertflip_short_600ms.mp4	80.stroke_with_sharp_stick_all_over_the_hand_short_horvertflip_short_600ms.mp4	362.6197344548589	363.22810859568744	0.6083741408285732				
311.98388671875	0.2	638943	234	23	2	0	0	48	111	stimuli\Videos_short_600ms_horflip\29.single_pinch_with_tweezers_short_horflip_short_600ms.mp4	29.single_pinch_with_tweezers_short_horflip_short_600ms.mp4	363.419693517847	364.0280562221178	0.6083627042708031				
312.78369140625	0.2	640581	235	23	2	0	0	49	276	stimuli\Videos_short_600ms_vertflip\15.single_stroke_top_to_bottom_with_a_plastic_whisk_short_vertflip_short_600ms.mp4	15.single_stroke_top_to_bottom_with_a_plastic_whisk_short_vertflip_short_600ms.mp4	364.21970331223224	364.8280290676243	0.6083257553921158				
313.58349609375	0.2	642219	236	23	2	0	0	50	126	stimuli\Videos_short_600ms_horflip\42.single_slap_with_plastic_whisk_short_horflip_short_600ms.mp4	42.single_slap_with_plastic_whisk_short_horflip_short_600ms.mp4	365.0198139829219	365.62812742202095	0.6083134390989926				
314.3837890625	0.2	643858	237	23	2	0	0	51	152	stimuli\Videos_short_600ms_horflip\66.stroke_top_to_bottom_with_sponge_short_horflip_short_600ms.mp4	66.stroke_top_to_bottom_with_sponge_short_horflip_short_600ms.mp4	365.8198639518818	366.42811199733023	0.608248045448363				
315.18359375	0.2	645496	238	23	2	0	0	52	232	stimuli\Videos_short_600ms_horvertflip\57.single_touch_with_nail_file_short_horvertflip_short_600ms.mp4	57.single_touch_with_nail_file_short_horvertflip_short_600ms.mp4	366.6200362040363	367.227985726003	0.6079495219667024				
315.9833984375	0.2	647134	239	23	2	0	0	53	105	stimuli\Videos_short_600ms_horflip\23.single_push_with_a_spoon_short_horflip_short_600ms.mp4	23.single_push_with_a_spoon_short_horflip_short_600ms.mp4	367.4196911718864	368.0279623836952	0.6082712118088693				
316.78369140625	0.2	648773	240	23	2	0	0	54	94	stimuli\Videos_short_600ms_horflip\13.single_touch_with_pen_short_horflip_short_600ms.mp4	13.single_touch_with_pen_short_horflip_short_600ms.mp4	368.21979539118456	368.8279443197989	0.6081489286143551				
317.58349609375	0.2	650411	241	23	2	0	0	55	278	stimuli\Videos_short_600ms_vertflip\17.repeated_touch_with_rolling_pin_short_vertflip_short_600ms.mp4	17.repeated_touch_with_rolling_pin_short_vertflip_short_600ms.mp4	369.0195758679247	369.6279268423927	0.6083509744680669				
318.3837890625	0.2	652050	242	23	2	0	0	56	176	stimuli\Videos_short_600ms_horflip\88.repeated_stroke_with_plastic_brush_short_horflip_short_600ms.mp4	88.repeated_stroke_with_plastic_brush_short_horflip_short_600ms.mp4	369.8195613229693	370.4279120041922	0.6083506812228734				
319.18359375	0.2	653688	243	23	2	0	0	57	299	stimuli\Videos_short_600ms_vertflip\36.single_slap_with_full_hand_short_vertflip_short_600ms.mp4	36.single_slap_with_full_hand_short_vertflip_short_600ms.mp4	370.6197057168419	371.2278933538057	0.6081876369637484				
319.9833984375	0.2	655326	244	23	2	0	0	58	27	stimuli\Videos_short_600ms\34.repeated_punch_with_hand_short_short_600ms.mp4	34.repeated_punch_with_hand_short_short_600ms.mp4	371.4196926381119	372.0278785156051	0.6081858774932698				
320.78369140625	0.2	656965	245	23	2	0	0	59	241	stimuli\Videos_short_600ms_horvertflip\65.stroke_top_to_bottom_with_stanley_knife_short_horvertflip_short_600ms.mp4	65.stroke_top_to_bottom_with_stanley_knife_short_horvertflip_short_600ms.mp4	372.2201502177197	372.82782995422144	0.6076797365017228				
321.58349609375	0.2	658603	246	23	2	0	0	60	36	stimuli\Videos_short_600ms\42.single_slap_with_plastic_whisk_short_short_600ms.mp4	42.single_slap_with_plastic_whisk_short_short_600ms.mp4	373.0195412650064	373.6280180416097	0.608476776603311				
322.38330078125	0.2	660241	247	23	2	0	0	61	14	stimuli\Videos_short_600ms\22.single_touch_with_metal_chopstick_short_short_600ms.mp4	22.single_touch_with_metal_chopstick_short_short_600ms.mp4	373.8194880117017	374.42778063040055	0.6082926186988971				
323.18359375	0.2	661880	248	23	2	0	0	62	263	stimuli\Videos_short_600ms_horvertflip\85.touch_top_to_bottom_with_fabric_short_horvertflip_short_600ms.mp4	85.touch_top_to_bottom_with_fabric_short_horvertflip_short_600ms.mp4	374.6194611504531	375.2277813341889	0.6083201837357137				
323.9833984375	0.2	663518	249	23	2	0	0	63	159	stimuli\Videos_short_600ms_horflip\72.(short)stroke_with_finger_all_over_the_hand_short_horflip_short_600ms.mp4	72.(short)stroke_with_finger_all_over_the_hand_short_horflip_short_600ms.mp4	375.4197284140105	376.0277568189008	0.6080284048903195				
324.783203125	0.2	665156	250	23	2	0	0	64	154	stimuli\Videos_short_600ms_horflip\68.stroke_top_to_bottom_with_shawl_short_horflip_short_600ms.mp4	68.stroke_top_to_bottom_with_shawl_short_horflip_short_600ms.mp4	376.2194408578944	376.82772819818206	0.6082873402876885				
325.58349609375	0.2	666795	251	23	2	0	0	65	139	stimuli\Videos_short_600ms_horflip\54.repeated_touch_with_knife_short_horflip_short_600ms.mp4	54.repeated_touch_with_knife_short_horflip_short_600ms.mp4	377.0194166358515	377.6276896071308	0.608272971279348				
326.38330078125	0.2	668433	252	23	2	0	0	66	153	stimuli\Videos_short_600ms_horflip\67.single_touch_with_sponge_short_horflip_short_600ms.mp4	67.single_touch_with_sponge_short_horflip_short_600ms.mp4	377.8194751089186	378.4277005744964	0.6082254655777888				
327.18310546875	0.2	670071	253	23	2	0	0	67	327	stimuli\Videos_short_600ms_vertflip\61.single_hit_with_rolling_pin_short_vertflip_short_600ms.mp4	61.single_hit_with_rolling_pin_short_vertflip_short_600ms.mp4	378.6194755194615	379.2276543590733	0.60817883961181				
327.9833984375	0.2	671710	254	23	2	0	0	68	308	stimuli\Videos_short_600ms_vertflip\44.pushing_top_to_bottom_with_finger_short_vertflip_short_600ms.mp4	44.pushing_top_to_bottom_with_finger_short_vertflip_short_600ms.mp4	379.41949352470897	380.0276811616727	0.6081876369637484				
328.783203125	0.2	673348	255	23	2	0	0	69	194	stimuli\Videos_short_600ms_horvertflip\22.single_touch_with_metal_chopstick_short_horvertflip_short_600ms.mp4	22.single_touch_with_metal_chopstick_short_horvertflip_short_600ms.mp4	380.2194232631901	380.82776133487505	0.6083380716850115				
329.5830078125	0.2	674986	256	23	2	0	0	70	53	stimuli\Videos_short_600ms\58.single_slap_with_pencil_short_short_600ms.mp4	58.single_slap_with_pencil_short_short_600ms.mp4	381.01935241518095	381.62762743917574	0.6082750239947927				
330.38330078125	0.2	676625	257	23	2	0	0	71	120	stimuli\Videos_short_600ms_horflip\37.single_stab_with_nail_file_short_horflip_short_600ms.mp4	37.single_stab_with_nail_file_short_horflip_short_600ms.mp4	381.819389481358	382.4276023373978	0.6082128560396995				
331.18310546875	0.2	678263	258	23	2	0	0	72	217	stimuli\Videos_short_600ms_horvertflip\43.touch_top_to_bottom_with_sharp_wooden_stick_short_horvertflip_short_600ms.mp4	43.touch_top_to_bottom_with_sharp_wooden_stick_short_horvertflip_short_600ms.mp4	382.6193200995742	383.227595416814	0.6082753172397588				
331.98291015625	0.2	679901	259	23	2	0	0	73	346	stimuli\Videos_short_600ms_vertflip\79.long_with_soft_brush_all_over_the_hand_short_vertflip_short_600ms.mp4	79.long_with_soft_brush_all_over_the_hand_short_vertflip_short_600ms.mp4	383.41930262216806	384.0275685555657	0.6082659333976608				
332.783203125	0.2	681540	260	23	2	0	0	74	203	stimuli\Videos_short_600ms_horvertflip\30.finger_pulling_back_another_finger_short_horvertflip_short_600ms.mp4	30.finger_pulling_back_another_finger_short_horvertflip_short_600ms.mp4	384.2195804425478	384.8275519578947	0.6079715153468896				
333.5830078125	0.2	683178	261	23	2	0	0	75	253	stimuli\Videos_short_600ms_horvertflip\76.tickle_with_fingers_from_top_to_bottom_short_horvertflip_short_600ms.mp4	76.tickle_with_fingers_from_top_to_bottom_short_horvertflip_short_600ms.mp4	385.0193720626007	385.6275347737335	0.6081627111327634				
334.38330078125	0.2	684817	262	23	2	0	0	76	97	stimuli\Videos_short_600ms_horflip\16.repeated_touch_with_plastic_brush_short_horflip_short_600ms.mp4	16.repeated_touch_with_plastic_brush_short_horflip_short_600ms.mp4	385.8192534156451	386.4275190557978	0.6082656401526947				
335.18310546875	0.2	686455	263	23	2	0	0	77	83	stimuli\Videos_short_600ms\85.touch_top_to_bottom_with_fabric_short_short_600ms.mp4	85.touch_top_to_bottom_with_fabric_short_short_600ms.mp4	386.61927054115745	387.2275018716366	0.6082313304791569				
335.98291015625	0.2	688093	264	23	2	0	0	78	206	stimuli\Videos_short_600ms_horvertflip\33.scratch_top_to_bottom_with_scissors_short_horvertflip_short_600ms.mp4	33.scratch_top_to_bottom_with_scissors_short_horvertflip_short_600ms.mp4	387.419298223492	388.0274843942304	0.6081861707384633				
336.783203125	0.2	689732	265	23	2	0	0	79	193	stimuli\Videos_short_600ms_horvertflip\21.repeated_touch_with_metal_chopstick_short_horvertflip_short_600ms.mp4	21.repeated_touch_with_metal_chopstick_short_horvertflip_short_600ms.mp4	388.2191804562717	388.8274680898046	0.608287633532882				
337.5830078125	0.2	691370	266	23	2	0	0	80	128	stimuli\Videos_short_600ms_horflip\44.pushing_top_to_bottom_with_finger_short_horflip_short_600ms.mp4	44.pushing_top_to_bottom_with_finger_short_horflip_short_600ms.mp4	389.0191591666796	389.6274509056434	0.6082917389637714				
338.3828125	0.2	693008	267	23	2	0	0	81	255	stimuli\Videos_short_600ms_horvertflip\78.single_stroke_top_to_bottom_with_soft_brush_short_horvertflip_short_600ms.mp4	78.single_stroke_top_to_bottom_with_soft_brush_short_horvertflip_short_600ms.mp4	389.8192349412059	390.4274340147274	0.6081990735215186				
339.18310546875	0.2	694647	268	23	2	0	0	82	114	stimuli\Videos_short_600ms_horflip\31.hand_grabbing_wrist_short_horflip_short_600ms.mp4	31.hand_grabbing_wrist_short_horflip_short_600ms.mp4	390.61925939784464	391.22746023083664	0.6082008329919972				
339.98291015625	0.2	696285	269	23	2	0	1	83	378	stimuli\Targets_short_600ms_vertflip\brush-stroke_short_horvertflip_short_600ms.mp4	brush-stroke_short_horvertflip_short_600ms.mp4	391.4192263784498	392.0275222228445	0.6082958443946609				
340.78271484375	0.2	697923	270	23	2	0	0	84	12	stimuli\Videos_short_600ms\20.single_touch_with_screwdriver_short_short_600ms.mp4	20.single_touch_with_screwdriver_short_short_600ms.mp4	392.21912503295334	392.8274331936411	0.608308160687784				
341.5830078125	0.2	699562	271	23	2	0	0	85	174	stimuli\Videos_short_600ms_horflip\86.touch_top_to_bottom_with_hair_brush_short_horflip_short_600ms.mp4	86.touch_top_to_bottom_with_hair_brush_short_horflip_short_600ms.mp4	393.0190744188542	393.6274649814068	0.6083905625525858				
342.3828125	0.2	701200	272	23	2	0	0	86	260	stimuli\Videos_short_600ms_horvertflip\82.repeated_touch_with_cotton_bud_short_horvertflip_short_600ms.mp4	82.repeated_touch_with_cotton_bud_short_horvertflip_short_600ms.mp4	393.8190616333691	394.42738357657527	0.6083219432061924				
343.1826171875	0.2	702838	273	23	2	0	0	87	47	stimuli\Videos_short_600ms\52.touch_top_to_bottom_with_hammer_short_short_600ms.mp4	52.touch_top_to_bottom_with_hammer_short_short_600ms.mp4	394.6190661493433	395.2273335489662	0.608267399622946				
343.98291015625	0.2	704477	274	23	2	0	0	88	223	stimuli\Videos_short_600ms_horvertflip\49.repeated_slap_with_hand_short_horvertflip_short_600ms.mp4	49.repeated_slap_with_hand_short_horvertflip_short_600ms.mp4	395.41917330109186	396.0273225229514	0.6081492218595486				
344.78271484375	0.2	706115	275	23	2	0	0	89	116	stimuli\Videos_short_600ms_horflip\33.scratch_top_to_bottom_with_scissors_short_horflip_short_600ms.mp4	33.scratch_top_to_bottom_with_scissors_short_horflip_short_600ms.mp4	396.2190332472462	396.8273073915059	0.6082741442596671				
345.58251953125	0.2	707753	276	23	2	0	0	90	106	stimuli\Videos_short_600ms_horflip\24.single_stroke_top_to_bottom_with_a_spoon_short_horflip_short_600ms.mp4	24.single_stroke_top_to_bottom_with_a_spoon_short_horflip_short_600ms.mp4	397.0193711828656	397.6273356603306	0.6079644774649751				
346.3828125	0.2	709392	277	23	2	0	0	91	295	stimuli\Videos_short_600ms_vertflip\32.single_(long)pinch_with_fingers_short_vertflip_short_600ms.mp4	32.single_(long)pinch_with_fingers_short_vertflip_short_600ms.mp4	397.8190630995946	398.4272683312624	0.6082052316678528				
347.1826171875	0.2	711030	278	23	2	0	0	92	101	stimuli\Videos_short_600ms_horflip\2.single_touch_with_finger_short_horflip_short_600ms.mp4	2.single_touch_with_finger_short_horflip_short_600ms.mp4	398.6189834542334	399.227249387631	0.6082659333976608				
347.982421875	0.2	712668	279	23	2	0	0	93	22	stimuli\Videos_short_600ms\3.single_push_with_finger_short_short_600ms.mp4	3.single_push_with_finger_short_short_600ms.mp4	399.41899618106936	400.0272319102248	0.6082357291554672				
348.78271484375	0.2	714307	280	23	2	0	0	94	119	stimuli\Videos_short_600ms_horflip\36.single_slap_with_full_hand_short_horflip_short_600ms.mp4	36.single_slap_with_full_hand_short_horflip_short_600ms.mp4	400.2190147728067	400.8272197112299	0.6082049384231141				
349.58251953125	0.2	715945	281	23	2	0	0	95	358	stimuli\Videos_short_600ms_vertflip\9.single_touch_with_hammer_short_vertflip_short_600ms.mp4	9.single_touch_with_hammer_short_vertflip_short_600ms.mp4	401.0191506625724	401.62722100150813	0.6080703389357041	6.0	6.0	2.006147296412337	1.0
384.806640625	0.2	788084	282	23	3	0	0	0	335	stimuli\Videos_short_600ms_vertflip\69.stroke_with_soft_sock_short_vertflip_short_600ms.mp4	69.stroke_with_soft_sock_short_vertflip_short_600ms.mp4	436.243177286879	436.8515118396231	0.6083345527440542				
385.6064453125	0.2	789722	283	23	3	0	0	1	359	stimuli\Videos_short_600ms_vertflip\90.repeated_touch_with_sponge_short_vertflip_short_600ms.mp4	90.repeated_touch_with_sponge_short_vertflip_short_600ms.mp4	437.0432466100135	437.6514970014225	0.6082503914090012				
386.40625	0.2	791360	284	23	3	0	0	2	349	stimuli\Videos_short_600ms_vertflip\81.single_stroke_top_to_bottom_with_cotton_pad_short_vertflip_short_600ms.mp4	81.single_stroke_top_to_bottom_with_cotton_pad_short_vertflip_short_600ms.mp4	437.8431616862413	438.4514821632219	0.6083204769806798				
387.20654296875	0.2	792999	285	23	3	0	0	3	58	stimuli\Videos_short_600ms\62.touch_top_to_bottom_with_scissors_short_short_600ms.mp4	62.touch_top_to_bottom_with_scissors_short_short_600ms.mp4	438.6432242647393	439.2514690844919	0.6082448197525991				
388.00634765625	0.2	794637	286	23	3	0	0	4	82	stimuli\Videos_short_600ms\84.single_touch_with_cotton_bud_short_short_600ms.mp4	84.single_touch_with_cotton_bud_short_short_600ms.mp4	439.44324051051626	440.0514214028433	0.6081808923270273				
388.80615234375	0.2	796275	287	23	3	0	0	5	146	stimuli\Videos_short_600ms_horflip\60.single_push_with_tip_of_pencil_short_horflip_short_600ms.mp4	60.single_push_with_tip_of_pencil_short_horflip_short_600ms.mp4	440.2432444400001	440.8514300242484	0.6081855842483037				
389.6064453125	0.2	797914	288	23	3	0	0	6	345	stimuli\Videos_short_600ms_vertflip\78.single_stroke_top_to_bottom_with_soft_brush_short_vertflip_short_600ms.mp4	78.single_stroke_top_to_bottom_with_soft_brush_short_vertflip_short_600ms.mp4	441.0431313647009	441.65141254684227	0.6082811821413543				
390.40625	0.2	799552	289	23	3	0	0	7	334	stimuli\Videos_short_600ms_vertflip\68.stroke_top_to_bottom_with_shawl_short_vertflip_short_600ms.mp4	68.stroke_top_to_bottom_with_shawl_short_vertflip_short_600ms.mp4	441.8433168128836	442.4513956559261	0.6080788430424491				
391.2060546875	0.2	801190	290	23	3	0	0	8	117	stimuli\Videos_short_600ms_horflip\34.repeated_punch_with_hand_short_horflip_short_600ms.mp4	34.repeated_punch_with_hand_short_horflip_short_600ms.mp4	442.6431840901646	443.2513825771959	0.608198487031359				
392.00634765625	0.2	802829	291	23	3	0	0	9	336	stimuli\Videos_short_600ms_vertflip\7.repeated_touch_with_hairbrush_short_vertflip_short_600ms.mp4	7.repeated_touch_with_hairbrush_short_vertflip_short_600ms.mp4	443.4430968204317	444.0513580619081	0.6082612414763844				
392.80615234375	0.2	804467	292	23	3	0	0	10	356	stimuli\Videos_short_600ms_vertflip\88.repeated_stroke_with_plastic_brush_short_vertflip_short_600ms.mp4	88.repeated_stroke_with_plastic_brush_short_vertflip_short_600ms.mp4	444.2430805160057	444.8513476223836	0.6082671063779799				
393.60595703125	0.2	806105	293	23	3	0	0	11	25	stimuli\Videos_short_600ms\32.single_(long)pinch_with_fingers_short_short_600ms.mp4	32.single_(long)pinch_with_fingers_short_short_600ms.mp4	445.04310467939945	445.651328385507	0.6082237061075375				
394.40625	0.2	807744	294	23	3	0	1	12	363	stimuli\Targets_short_600ms\finger-tap_short_short_600ms.mp4	finger-tap_short_short_600ms.mp4	445.84301799615673	446.4513100283654	0.6082920322087375				
395.2060546875	0.2	809382	295	23	3	0	0	13	4	stimuli\Videos_short_600ms\13.single_touch_with_pen_short_short_600ms.mp4	13.single_touch_with_pen_short_short_600ms.mp4	446.6429392305308	447.2512963631452	0.608357132614401				
396.005859375	0.2	811020	296	23	3	0	0	14	51	stimuli\Videos_short_600ms\56.repeated_touch_with_nail_file_short_short_600ms.mp4	56.repeated_touch_with_nail_file_short_short_600ms.mp4	447.4429240990851	448.0512774195138	0.608353320428705				
396.80615234375	0.2	812659	297	23	3	0	0	15	301	stimuli\Videos_short_600ms_vertflip\38.double_slap_with_pencil_short_vertflip_short_600ms.mp4	38.double_slap_with_pencil_short_vertflip_short_600ms.mp4	448.2430356495099	448.8512587691273	0.608223119617378				
397.60595703125	0.2	814297	298	23	3	0	0	16	0	stimuli\Videos_short_600ms\1.repeated_touch_with_finger_fast_short_short_600ms.mp4	1.repeated_touch_with_finger_fast_short_short_600ms.mp4	449.0430108409769	449.6512427579464	0.6082319169695438				
398.40625	0.2	815936	299	23	3	0	0	17	313	stimuli\Videos_short_600ms_vertflip\49.repeated_slap_with_hand_short_vertflip_short_600ms.mp4	49.repeated_slap_with_hand_short_vertflip_short_600ms.mp4	449.8430042136383	450.451228506236	0.6082242925976971				
399.2060546875	0.2	817574	300	23	3	0	0	18	329	stimuli\Videos_short_600ms_vertflip\63.stroke_top_to_bottom_with_screwdriver_short_vertflip_short_600ms.mp4	63.stroke_top_to_bottom_with_screwdriver_short_vertflip_short_600ms.mp4	450.6430905449872	451.2512101490945	0.6081196041072872				
400.005859375	0.2	819212	301	23	3	0	0	19	348	stimuli\Videos_short_600ms_vertflip\80.stroke_with_sharp_stick_all_over_the_hand_short_vertflip_short_600ms.mp4	80.stroke_with_sharp_stick_all_over_the_hand_short_vertflip_short_600ms.mp4	451.4429827480992	452.0511932581785	0.6082105100792887				
400.80615234375	0.2	820851	302	23	3	0	0	20	24	stimuli\Videos_short_600ms\31.hand_grabbing_wrist_short_short_600ms.mp4	31.hand_grabbing_wrist_short_short_600ms.mp4	452.2428987040621	452.8511778334878	0.6082791294256822				
401.60595703125	0.2	822489	303	23	3	0	0	21	306	stimuli\Videos_short_600ms_vertflip\42.single_slap_with_plastic_whisk_short_vertflip_short_600ms.mp4	42.single_slap_with_plastic_whisk_short_vertflip_short_600ms.mp4	453.0428123140643	453.65115595740554	0.6083436433411862				
402.40576171875	0.2	824127	304	23	3	0	0	22	213	stimuli\Videos_short_600ms_horvertflip\4.repeated_tap_with_finger_slow_short_horvertflip_short_600ms.mp4	4.repeated_tap_with_finger_slow_short_horvertflip_short_600ms.mp4	453.842898645413	454.4511197123147	0.6082210669017059				
403.2060546875	0.2	825766	305	23	3	0	0	23	171	stimuli\Videos_short_600ms_horflip\83.single_stroke_top_to_bottom_with_cotton_bud_short_horflip_short_600ms.mp4	83.single_stroke_top_to_bottom_with_cotton_bud_short_horflip_short_600ms.mp4	454.64288820588854	455.251120709348	0.608232503459476				
404.005859375	0.2	827404	306	23	3	0	0	24	181	stimuli\Videos_short_600ms_horvertflip\10.single_touch_with_knife_short_horvertflip_short_600ms.mp4	10.single_touch_with_knife_short_horvertflip_short_600ms.mp4	455.4428393512597	456.05110323194185	0.608263880682216				
404.8056640625	0.2	829042	307	23	3	0	0	25	354	stimuli\Videos_short_600ms_vertflip\86.touch_top_to_bottom_with_hair_brush_short_vertflip_short_600ms.mp4	86.touch_top_to_bottom_with_hair_brush_short_vertflip_short_600ms.mp4	456.2428444537241	456.85108516804553	0.6082407143214823				
405.60595703125	0.2	830681	308	23	3	0	1	26	377	stimuli\Targets_short_600ms_horvertflip\hand-stroke_short_vertflip_short_600ms.mp4	hand-stroke_short_vertflip_short_600ms.mp4	457.04283137499374	457.65107619474634	0.6082448197525991				
406.40576171875	0.2	832319	309	23	3	0	0	27	303	stimuli\Videos_short_600ms_vertflip\4.repeated_tap_with_finger_slow_short_vertflip_short_600ms.mp4	4.repeated_tap_with_finger_slow_short_vertflip_short_600ms.mp4	457.8427848663257	458.4510595970753	0.6082747307495993				
407.20556640625	0.2	833957	310	23	3	0	0	28	330	stimuli\Videos_short_600ms_vertflip\64.repeated_touch_with_screwdriver_short_vertflip_short_600ms.mp4	64.repeated_touch_with_screwdriver_short_vertflip_short_600ms.mp4	458.64268850599547	459.2510500372859	0.608361531290484				
408.005859375	0.2	835596	311	23	3	0	0	29	282	stimuli\Videos_short_600ms_vertflip\20.single_touch_with_screwdriver_short_vertflip_short_600ms.mp4	20.single_touch_with_screwdriver_short_vertflip_short_600ms.mp4	459.44279976317534	460.05100411510807	0.6082043519327271				
408.8056640625	0.2	837234	312	23	3	0	0	30	38	stimuli\Videos_short_600ms\44.pushing_top_to_bottom_with_finger_short_short_600ms.mp4	44.pushing_top_to_bottom_with_finger_short_short_600ms.mp4	460.24276439781966	460.85100657836665	0.6082421805469949				
409.60546875	0.2	838872	313	23	3	0	0	31	207	stimuli\Videos_short_600ms_horvertflip\34.repeated_punch_with_hand_short_horvertflip_short_600ms.mp4	34.repeated_punch_with_hand_short_horvertflip_short_600ms.mp4	461.0426354872868	461.65098822122513	0.6083527339383181				
410.40576171875	0.2	840511	314	23	3	0	0	32	277	stimuli\Videos_short_600ms_vertflip\16.repeated_touch_with_plastic_brush_short_vertflip_short_600ms.mp4	16.repeated_touch_with_plastic_brush_short_vertflip_short_600ms.mp4	461.8426461614074	462.4509716235543	0.6083254621469223				
411.20556640625	0.2	842149	315	23	3	0	0	33	266	stimuli\Videos_short_600ms_horvertflip\88.repeated_stroke_with_plastic_brush_short_horvertflip_short_600ms.mp4	88.repeated_stroke_with_plastic_brush_short_horvertflip_short_600ms.mp4	462.6426855735449	463.2509576650889	0.608272091543995				
412.00537109375	0.2	843787	316	23	3	0	0	34	113	stimuli\Videos_short_600ms_horflip\30.finger_pulling_back_another_finger_short_horflip_short_600ms.mp4	30.finger_pulling_back_another_finger_short_horflip_short_600ms.mp4	463.4426848111077	464.0509404809277	0.6082556698199824				
412.8056640625	0.2	845426	317	23	3	0	0	35	284	stimuli\Videos_short_600ms_vertflip\22.single_touch_with_metal_chopstick_short_vertflip_short_600ms.mp4	22.single_touch_with_metal_chopstick_short_vertflip_short_600ms.mp4	464.242669386417	464.85092153729624	0.6082521508792524				
413.60546875	0.2	847064	318	23	3	0	0	36	267	stimuli\Videos_short_600ms_horvertflip\89.single_touch_with_plastic_brush_short_horvertflip_short_600ms.mp4	89.single_touch_with_plastic_brush_short_horvertflip_short_600ms.mp4	465.0428087951234	465.6509049396252	0.6080961445018147				
414.4052734375	0.2	848702	319	23	3	0	0	37	95	stimuli\Videos_short_600ms_horflip\14.repeated_touch_with_pencil_short_horflip_short_600ms.mp4	14.repeated_touch_with_pencil_short_horflip_short_600ms.mp4	465.8426971860497	466.450887755464	0.6081905694143188				
415.20556640625	0.2	850341	320	23	3	0	0	38	337	stimuli\Videos_short_600ms_vertflip\70.(long)stroke_with_finger_all_over_the_hand_short_vertflip_short_600ms.mp4	70.(long)stroke_with_finger_all_over_the_hand_short_vertflip_short_600ms.mp4	466.6426169541983	467.25087438348874	0.608257429290461				
416.00537109375	0.2	851979	321	23	3	0	0	39	131	stimuli\Videos_short_600ms_horflip\47.(long)scratching_with_finger_nails_short_horflip_short_600ms.mp4	47.(long)scratching_with_finger_nails_short_horflip_short_600ms.mp4	467.44318801964846	468.0508522141615	0.6076641945130632				
416.8056640625	0.2	853618	322	23	3	0	0	40	236	stimuli\Videos_short_600ms_horvertflip\60.single_push_with_tip_of_pencil_short_horvertflip_short_600ms.mp4	60.single_push_with_tip_of_pencil_short_horvertflip_short_600ms.mp4	468.2427532545071	468.8508274056285	0.6080741511214001				
417.60546875	0.2	855256	323	23	3	0	0	41	231	stimuli\Videos_short_600ms_horvertflip\56.repeated_touch_with_nail_file_short_horvertflip_short_600ms.mp4	56.repeated_touch_with_nail_file_short_horvertflip_short_600ms.mp4	469.042745160943	469.65082283100537	0.6080776700623574				
418.4052734375	0.2	856894	324	23	3	0	0	42	118	stimuli\Videos_short_600ms_horflip\35.single_punch_with_hand_short_horflip_short_600ms.mp4	35.single_punch_with_hand_short_horflip_short_600ms.mp4	469.84252475794824	470.4508027143936	0.6082779564453631				
419.20556640625	0.2	858533	325	23	3	0	0	43	314	stimuli\Videos_short_600ms_vertflip\5.repeated_tap_with_finger_moving_from_top_to_bottom_short_vertflip_short_600ms.mp4	5.repeated_tap_with_finger_moving_from_top_to_bottom_short_vertflip_short_600ms.mp4	470.64247971550526	471.2507843572523	0.6083046417470541				
420.00537109375	0.2	860171	326	23	3	0	0	44	138	stimuli\Videos_short_600ms_horflip\53.touch_top_to_bottom_with_knife_short_horflip_short_600ms.mp4	53.touch_top_to_bottom_with_knife_short_horflip_short_600ms.mp4	471.4424399514737	472.05076658660096	0.6083266351272414				
420.80517578125	0.2	861809	327	23	3	0	0	45	43	stimuli\Videos_short_600ms\49.repeated_slap_with_hand_short_short_600ms.mp4	49.repeated_slap_with_hand_short_short_600ms.mp4	472.24246910003376	472.85075907952705	0.6082899794932928				
421.60546875	0.2	863448	328	23	3	0	1	46	368	stimuli\Targets_short_600ms_horflip\chopstickwood-tap_short_horflip_short_600ms.mp4	chopstickwood-tap_short_horflip_short_600ms.mp4	473.04238241679104	473.6507386696703	0.6083562528792754				
422.4052734375	0.2	865086	329	23	3	0	0	47	67	stimuli\Videos_short_600ms\70.(long)stroke_with_finger_all_over_the_hand_short_short_600ms.mp4	70.(long)stroke_with_finger_all_over_the_hand_short_short_600ms.mp4	473.8424373709172	474.45072559094	0.6082882200228141				
423.205078125	0.2	866724	330	23	3	0	0	48	204	stimuli\Videos_short_600ms_horvertflip\31.hand_grabbing_wrist_short_horvertflip_short_600ms.mp4	31.hand_grabbing_wrist_short_horvertflip_short_600ms.mp4	474.6424052312575	475.2507007824072	0.6082955511496948				
424.00537109375	0.2	868363	331	23	3	0	0	49	357	stimuli\Videos_short_600ms_vertflip\89.single_touch_with_plastic_brush_short_vertflip_short_600ms.mp4	89.single_touch_with_plastic_brush_short_vertflip_short_600ms.mp4	475.4425191276427	476.0506865306968	0.6081674030540398				
424.80517578125	0.2	870001	332	23	3	0	0	50	6	stimuli\Videos_short_600ms\15.single_stroke_top_to_bottom_with_a_plastic_whisk_short_short_600ms.mp4	15.single_stroke_top_to_bottom_with_a_plastic_whisk_short_short_600ms.mp4	476.2424207145971	476.8506681735553	0.6082474589582034				
425.60498046875	0.2	871639	333	23	3	0	0	51	56	stimuli\Videos_short_600ms\60.single_push_with_tip_of_pencil_short_short_600ms.mp4	60.single_push_with_tip_of_pencil_short_short_600ms.mp4	477.042399425005	477.6506506961491	0.6082512711441268				
426.4052734375	0.2	873278	334	23	3	0	1	52	372	stimuli\Targets_short_600ms_horvertflip\brush-stroke_short_vertflip_short_600ms.mp4	brush-stroke_short_vertflip_short_600ms.mp4	477.84234001355367	478.4506361511935	0.6082961376398544				
427.205078125	0.2	874916	335	23	3	0	0	53	147	stimuli\Videos_short_600ms_horflip\61.single_hit_with_rolling_pin_short_horflip_short_600ms.mp4	61.single_hit_with_rolling_pin_short_horflip_short_600ms.mp4	478.6423926217194	479.25061750080704	0.6082248790876292				
428.0048828125	0.2	876554	336	23	3	0	0	54	132	stimuli\Videos_short_600ms_horflip\48.single_slap_with_hand_short_horflip_short_600ms.mp4	48.single_slap_with_hand_short_horflip_short_600ms.mp4	479.44235461715834	480.0506009031362	0.6082462859778843				
428.80517578125	0.2	878193	337	23	3	0	0	55	214	stimuli\Videos_short_600ms_horvertflip\40.repeated_push_with_finger_short_horvertflip_short_600ms.mp4	40.repeated_push_with_finger_short_horvertflip_short_600ms.mp4	480.24230048411823	480.8505828392397	0.608282355121446				
429.60498046875	0.2	879831	338	23	3	0	0	56	103	stimuli\Videos_short_600ms_horflip\21.repeated_touch_with_metal_chopstick_short_horflip_short_600ms.mp4	21.repeated_touch_with_metal_chopstick_short_horflip_short_600ms.mp4	481.0422586673712	481.6505659483237	0.608307280952431				
430.41357421875	0.2	881487	339	23	3	0	0	57	175	stimuli\Videos_short_600ms_horflip\87.single_stroke_top_to_bottom_with_plastic_brush_short_horflip_short_600ms.mp4	87.single_stroke_top_to_bottom_with_plastic_brush_short_horflip_short_600ms.mp4	481.8505429579102	482.4588833755556	0.6083404176454223				
431.21337890625	0.2	883125	340	23	3	0	0	58	320	stimuli\Videos_short_600ms_vertflip\55.touch_top_to_bottom_with_nail_file_short_vertflip_short_600ms.mp4	55.touch_top_to_bottom_with_nail_file_short_vertflip_short_600ms.mp4	482.6506550948252	483.25886619139465	0.6082110965694483				
432.01318359375	0.2	884763	341	23	3	0	0	59	355	stimuli\Videos_short_600ms_vertflip\87.single_stroke_top_to_bottom_with_plastic_brush_short_vertflip_short_600ms.mp4	87.single_stroke_top_to_bottom_with_plastic_brush_short_vertflip_short_600ms.mp4	483.4506209024498	484.0588481274983	0.6082272250484948				
432.8134765625	0.2	886402	342	23	3	0	0	60	275	stimuli\Videos_short_600ms_vertflip\14.repeated_touch_with_pencil_short_vertflip_short_600ms.mp4	14.repeated_touch_with_pencil_short_vertflip_short_600ms.mp4	484.2505958006718	484.8588297703568	0.6082339696849886				
433.61328125	0.2	888040	343	23	3	0	0	61	75	stimuli\Videos_short_600ms\78.single_stroke_top_to_bottom_with_soft_brush_short_short_600ms.mp4	78.single_stroke_top_to_bottom_with_soft_brush_short_short_600ms.mp4	485.05050149305725	485.65881317268577	0.608311679628514				
434.4130859375	0.2	889678	344	23	3	0	0	62	41	stimuli\Videos_short_600ms\47.(long)scratching_with_finger_nails_short_short_600ms.mp4	47.(long)scratching_with_finger_nails_short_short_600ms.mp4	485.8504766845242	486.45879657501473	0.6083198904905203				
435.21337890625	0.2	891317	345	23	3	0	0	63	209	stimuli\Videos_short_600ms_horvertflip\36.single_slap_with_full_hand_short_horvertflip_short_600ms.mp4	36.single_slap_with_full_hand_short_horvertflip_short_600ms.mp4	486.65050583308425	487.2587814435692	0.6082756104849523				
436.01318359375	0.2	892955	346	23	3	0	0	64	222	stimuli\Videos_short_600ms_horvertflip\48.single_slap_with_hand_short_horvertflip_short_600ms.mp4	48.single_slap_with_hand_short_horvertflip_short_600ms.mp4	487.4504165106357	488.05876249993753	0.6083459893018244				
436.81298828125	0.2	894593	347	23	3	0	1	65	371	stimuli\Targets_short_600ms_horflip\hand-stroke_short_horflip_short_600ms.mp4	hand-stroke_short_horflip_short_600ms.mp4	488.2504104697873	488.8587464887569	0.6083360189695668				
437.61328125	0.2	896232	348	23	3	0	0	66	98	stimuli\Videos_short_600ms_horflip\17.repeated_touch_with_rolling_pin_short_horflip_short_600ms.mp4	17.repeated_touch_with_rolling_pin_short_horflip_short_600ms.mp4	489.05052759186856	489.65872519916456	0.608197607296006				
438.4130859375	0.2	897870	349	23	3	0	0	67	137	stimuli\Videos_short_600ms_horflip\52.touch_top_to_bottom_with_hammer_short_horflip_short_600ms.mp4	52.touch_top_to_bottom_with_hammer_short_horflip_short_600ms.mp4	489.8505470633411	490.45869335275006	0.6081462894089782				
439.212890625	0.2	899508	350	23	3	0	0	68	57	stimuli\Videos_short_600ms\61.single_hit_with_rolling_pin_short_short_600ms.mp4	61.single_hit_with_rolling_pin_short_short_600ms.mp4	490.65049058434056	491.2586920038227	0.6082014194821568				
440.01318359375	0.2	901147	351	23	3	0	0	69	158	stimuli\Videos_short_600ms_horflip\71.single_stroke_with_finger_top_to_bottom_short_horflip_short_600ms.mp4	71.single_stroke_with_finger_top_to_bottom_short_horflip_short_600ms.mp4	491.4504370377908	492.058684789994	0.6082477522031695				
440.81298828125	0.2	902785	352	23	3	0	0	70	40	stimuli\Videos_short_600ms\46.scratching_top_to_bottom_with_finger_nails_short_short_600ms.mp4	46.scratching_top_to_bottom_with_finger_nails_short_short_600ms.mp4	492.2505075339057	492.85866291391176	0.6081553800061101				
441.61279296875	0.2	904423	353	23	3	0	0	71	172	stimuli\Videos_short_600ms_horflip\84.single_touch_with_cotton_bud_short_horflip_short_600ms.mp4	84.single_touch_with_cotton_bud_short_horflip_short_600ms.mp4	493.05036278813895	493.6586504216716	0.6082876335326546				
442.4130859375	0.2	906062	354	23	3	0	0	72	221	stimuli\Videos_short_600ms_horvertflip\47.(long)scratching_with_finger_nails_short_horvertflip_short_600ms.mp4	47.(long)scratching_with_finger_nails_short_horvertflip_short_600ms.mp4	493.8502816765524	494.4586376361867	0.6083559596343093				
443.212890625	0.2	907700	355	23	3	0	0	73	73	stimuli\Videos_short_600ms\76.tickle_with_fingers_from_top_to_bottom_short_short_600ms.mp4	76.tickle_with_fingers_from_top_to_bottom_short_short_600ms.mp4	494.650259507225	495.2586175195747	0.6083580123497541				
444.0126953125	0.2	909338	356	23	3	0	0	74	252	stimuli\Videos_short_600ms_horvertflip\75.(long)stroke_with_fingers_all_over_the_hand_short_horvertflip_short_600ms.mp4	75.(long)stroke_with_fingers_all_over_the_hand_short_horvertflip_short_600ms.mp4	495.4503165140668	496.0585979894531	0.6082814753863204				
444.81298828125	0.2	910977	357	23	3	0	0	75	163	stimuli\Videos_short_600ms_horflip\76.tickle_with_fingers_from_top_to_bottom_short_horflip_short_600ms.mp4	76.tickle_with_fingers_from_top_to_bottom_short_horflip_short_600ms.mp4	496.2503582721647	496.8585761133709	0.6082178412061694				
445.61279296875	0.2	912615	358	23	3	0	0	76	31	stimuli\Videos_short_600ms\38.double_slap_with_pencil_short_short_600ms.mp4	38.double_slap_with_pencil_short_short_600ms.mp4	497.0503317041614	497.6585586359647	0.6082269318033013				
446.41259765625	0.2	914253	359	23	3	0	0	77	296	stimuli\Videos_short_600ms_vertflip\33.scratch_top_to_bottom_with_scissors_short_vertflip_short_600ms.mp4	33.scratch_top_to_bottom_with_scissors_short_vertflip_short_600ms.mp4	497.8502805035721	498.45854262478383	0.6082621212117374				
447.212890625	0.2	915892	360	23	3	0	0	78	87	stimuli\Videos_short_600ms\89.single_touch_with_plastic_brush_short_short_600ms.mp4	89.single_touch_with_plastic_brush_short_short_600ms.mp4	498.6502049636419	499.2585260271128	0.6083210634708394				
448.0126953125	0.2	917530	361	23	3	0	0	79	125	stimuli\Videos_short_600ms_horflip\41.injection_with_blunt_syringe_short_horflip_short_600ms.mp4	41.injection_with_blunt_syringe_short_horflip_short_600ms.mp4	499.4502631434638	500.05851089566727	0.6082477522033969				
448.81298828125	0.2	919169	362	23	3	0	0	80	26	stimuli\Videos_short_600ms\33.scratch_top_to_bottom_with_scissors_short_short_600ms.mp4	33.scratch_top_to_bottom_with_scissors_short_short_600ms.mp4	500.2502661932126	500.8584907790553	0.6082245858426631				
449.61279296875	0.2	920807	363	23	3	0	0	81	250	stimuli\Videos_short_600ms_horvertflip\73.single_stroke_with_flat_hand_short_horvertflip_short_600ms.mp4	73.single_stroke_with_flat_hand_short_horvertflip_short_600ms.mp4	501.0502246697106	501.65847447462943	0.6082498049188416				
450.41259765625	0.2	922445	364	23	3	0	0	82	316	stimuli\Videos_short_600ms_vertflip\51.repeated_touch_with_hammer_short_vertflip_short_600ms.mp4	51.repeated_touch_with_hammer_short_vertflip_short_600ms.mp4	501.85026056290735	502.45845553099775	0.6081949680904017				
451.212890625	0.2	924084	365	23	3	0	0	83	190	stimuli\Videos_short_600ms_horvertflip\19.single_touch_with_rolling_pin_short_horvertflip_short_600ms.mp4	19.single_touch_with_rolling_pin_short_horvertflip_short_600ms.mp4	502.65017886483065	503.25843893332694	0.6082600684962927				
452.0126953125	0.2	925722	366	23	3	0	0	84	297	stimuli\Videos_short_600ms_vertflip\34.repeated_punch_with_hand_short_vertflip_short_600ms.mp4	34.repeated_punch_with_hand_short_vertflip_short_600ms.mp4	503.4502062539202	504.05842262890087	0.6082163749806568				
452.8125	0.2	927360	367	23	3	0	0	85	81	stimuli\Videos_short_600ms\83.single_stroke_top_to_bottom_with_cotton_bud_short_short_600ms.mp4	83.single_stroke_top_to_bottom_with_cotton_bud_short_short_600ms.mp4	504.25007880961266	504.8583811053991	0.6083022957864159				
453.61279296875	0.2	928999	368	23	3	0	0	86	177	stimuli\Videos_short_600ms_horflip\89.single_touch_with_plastic_brush_short_horflip_short_600ms.mp4	89.single_touch_with_plastic_brush_short_horflip_short_600ms.mp4	505.0500806863811	505.65839295249975	0.6083122661186735				
454.41259765625	0.2	930637	369	23	3	0	1	87	373	stimuli\Targets_short_600ms_horvertflip\chopstick-silver-tap_short_vertflip_short_600ms.mp4	chopstick-silver-tap_short_vertflip_short_600ms.mp4	505.8500541183778	506.4583464438317	0.608292325453931				
455.21240234375	0.2	932275	370	23	3	0	0	88	140	stimuli\Videos_short_600ms_horflip\55.touch_top_to_bottom_with_nail_file_short_horflip_short_600ms.mp4	55.touch_top_to_bottom_with_nail_file_short_horflip_short_600ms.mp4	506.65001406110105	507.2583304326509	0.6083163715497903				
456.0126953125	0.2	933914	371	23	3	0	0	89	90	stimuli\Videos_short_600ms_horflip\1.repeated_touch_with_finger_fast_short_horflip_short_600ms.mp4	1.repeated_touch_with_finger_fast_short_horflip_short_600ms.mp4	507.4499939444893	508.058339054056	0.6083451095666987				
456.8125	0.2	935552	372	23	3	0	0	90	32	stimuli\Videos_short_600ms\39.single_stab_with_scissors_short_short_600ms.mp4	39.single_stab_with_scissors_short_short_600ms.mp4	508.2500820353084	508.85832245638494	0.6082404210765162				
457.6123046875	0.2	937190	373	23	3	0	0	91	42	stimuli\Videos_short_600ms\48.single_slap_with_hand_short_short_600ms.mp4	48.single_slap_with_hand_short_short_600ms.mp4	509.0500924161838	509.65830644520406	0.608214029020246				
