onset	duration	onsetsample	eventnumber	subjectnr	sequencenumber	blocksequencenumber	istarget	presentationnumber	stimnumber	stim	stimname	time_stimon	time_stimoff	stimdur	cresp	resp	rt	correct
27.6865234375	0.2	56702	0	40	0	0	0	0	153	stimuli\Videos_short_600ms_horflip\67.single_touch_with_sponge_short_horflip_short_600ms.mp4	67.single_touch_with_sponge_short_horflip_short_600ms.mp4	88.6262225789394	89.23619258867825	0.609970009738845	n/a	n/a	n/a	n/a
28.48681640625	0.2	58341	1	40	0	0	0	1	42	stimuli\Videos_short_600ms\48.single_slap_with_hand_short_short_600ms.mp4	48.single_slap_with_hand_short_short_600ms.mp4	89.42782323252595	90.03618449509054	0.6083612625645856	n/a	n/a	n/a	n/a
29.28662109375	0.2	59979	2	40	0	0	0	2	142	stimuli\Videos_short_600ms_horflip\57.single_touch_with_nail_file_short_horflip_short_600ms.mp4	57.single_touch_with_nail_file_short_horflip_short_600ms.mp4	90.22855969035572	90.83613564031862	0.607575949962893	n/a	n/a	n/a	n/a
30.08642578125	0.2	61617	3	40	0	0	0	3	283	stimuli\Videos_short_600ms_vertflip\21.repeated_touch_with_metal_chopstick_short_vertflip_short_600ms.mp4	21.repeated_touch_with_metal_chopstick_short_vertflip_short_600ms.mp4	91.02796627789098	91.6361275467309	0.6081612688399218	n/a	n/a	n/a	n/a
30.88671875	0.2	63256	4	40	0	0	0	4	162	stimuli\Videos_short_600ms_horflip\75.(long)stroke_with_fingers_all_over_the_hand_short_horflip_short_600ms.mp4	75.(long)stroke_with_fingers_all_over_the_hand_short_horflip_short_600ms.mp4	91.82786405235947	92.43611828015946	0.6082542277999892	n/a	n/a	n/a	n/a
31.6865234375	0.2	64894	5	40	0	0	0	5	296	stimuli\Videos_short_600ms_vertflip\33.scratch_top_to_bottom_with_scissors_short_vertflip_short_600ms.mp4	33.scratch_top_to_bottom_with_scissors_short_vertflip_short_600ms.mp4	92.62781079889852	93.23608144847049	0.6082706495719776	n/a	n/a	n/a	n/a
32.486328125	0.2	66532	6	40	0	0	0	6	104	stimuli\Videos_short_600ms_horflip\22.single_touch_with_metal_chopstick_short_horflip_short_600ms.mp4	22.single_touch_with_metal_chopstick_short_horflip_short_600ms.mp4	93.42778892275214	94.03609329560618	0.608304372854036	n/a	n/a	n/a	n/a
33.28662109375	0.2	68171	7	40	0	0	0	7	85	stimuli\Videos_short_600ms\87.single_stroke_top_to_bottom_with_plastic_brush_short_short_600ms.mp4	87.single_stroke_top_to_bottom_with_plastic_brush_short_short_600ms.mp4	94.22777555073776	94.83608168306728	0.6083061323295169	n/a	n/a	n/a	n/a
34.08642578125	0.2	69809	8	40	0	0	0	8	105	stimuli\Videos_short_600ms_horflip\23.single_push_with_a_spoon_short_horflip_short_600ms.mp4	23.single_push_with_a_spoon_short_horflip_short_600ms.mp4	95.0277964884972	95.63609734240003	0.6083008539028469	n/a	n/a	n/a	n/a
34.88623046875	0.2	71447	9	40	0	0	0	9	294	stimuli\Videos_short_600ms_vertflip\31.hand_grabbing_wrist_short_vertflip_short_600ms.mp4	31.hand_grabbing_wrist_short_vertflip_short_600ms.mp4	95.82774147556074	96.43607106756464	0.6083295920038836	n/a	n/a	n/a	n/a
35.6865234375	0.2	73086	10	40	0	0	0	10	151	stimuli\Videos_short_600ms_horflip\65.stroke_top_to_bottom_with_stanley_knife_short_horflip_short_600ms.mp4	65.stroke_top_to_bottom_with_stanley_knife_short_horflip_short_600ms.mp4	96.627720479152	97.2360585752881	0.6083380961360945	n/a	n/a	n/a	n/a
36.486328125	0.2	74724	11	40	0	0	0	11	34	stimuli\Videos_short_600ms\40.repeated_push_with_finger_short_short_600ms.mp4	40.repeated_push_with_finger_short_short_600ms.mp4	97.42769948274348	98.03604285730626	0.6083433745627644	n/a	n/a	n/a	n/a
37.2861328125	0.2	76362	12	40	0	0	0	12	112	stimuli\Videos_short_600ms_horflip\3.single_push_with_finger_short_horflip_short_600ms.mp4	3.single_push_with_finger_short_horflip_short_600ms.mp4	98.22769930679578	98.83602772581617	0.6083284190203813	n/a	n/a	n/a	n/a
38.08642578125	0.2	78001	13	40	0	0	0	13	274	stimuli\Videos_short_600ms_vertflip\13.single_touch_with_pen_short_vertflip_short_600ms.mp4	13.single_touch_with_pen_short_vertflip_short_600ms.mp4	99.0276466398268	99.63601552678551	0.6083688869587149	n/a	n/a	n/a	n/a
38.88623046875	0.2	79639	14	40	0	0	0	14	356	stimuli\Videos_short_600ms_vertflip\88.repeated_stroke_with_plastic_brush_short_vertflip_short_600ms.mp4	88.repeated_stroke_with_plastic_brush_short_vertflip_short_600ms.mp4	99.82766435188093	100.43599863581994	0.6083342839390298	n/a	n/a	n/a	n/a
39.68603515625	0.2	81277	15	40	0	0	0	15	134	stimuli\Videos_short_600ms_horflip\5.repeated_tap_with_finger_moving_from_top_to_bottom_short_horflip_short_600ms.mp4	5.repeated_tap_with_finger_moving_from_top_to_bottom_short_horflip_short_600ms.mp4	100.62769613973978	101.23594890130994	0.6082527615701565	n/a	n/a	n/a	n/a
40.486328125	0.2	82916	16	40	0	0	0	16	133	stimuli\Videos_short_600ms_horflip\49.repeated_slap_with_hand_short_horflip_short_600ms.mp4	49.repeated_slap_with_hand_short_horflip_short_600ms.mp4	101.427616494145	102.0359710120531	0.6083545179080829	n/a	n/a	n/a	n/a
41.2861328125	0.2	84554	17	40	0	0	0	17	242	stimuli\Videos_short_600ms_horvertflip\66.stroke_top_to_bottom_with_sponge_short_horvertflip_short_600ms.mp4	66.stroke_top_to_bottom_with_sponge_short_horvertflip_short_600ms.mp4	102.22759197878533	102.83595764003871	0.6083656612534014	n/a	n/a	n/a	n/a
42.0859375	0.2	86192	18	40	0	0	0	18	245	stimuli\Videos_short_600ms_horvertflip\69.stroke_with_soft_sock_short_horvertflip_short_600ms.mp4	69.stroke_with_soft_sock_short_horvertflip_short_600ms.mp4	103.02757860677092	103.63594632074592	0.6083677139749852	n/a	n/a	n/a	n/a
42.88623046875	0.2	87831	19	40	0	0	1	19	378	stimuli\Targets_short_600ms_vertflip\brush-stroke_short_horvertflip_short_600ms.mp4	brush-stroke_short_horvertflip_short_600ms.mp4	103.82758282951228	104.4359300162721	0.6083471867598291	n/a	n/a	n/a	n/a
43.68603515625	0.2	89469	20	40	0	0	0	20	109	stimuli\Videos_short_600ms_horflip\27.single_push_with_a_plastic_whisk_short_horflip_short_600ms.mp4	27.single_push_with_a_plastic_whisk_short_horflip_short_600ms.mp4	104.62758441304028	105.2359184037332	0.6083339906929268	n/a	n/a	n/a	n/a
44.48583984375	0.2	91107	21	40	0	0	0	21	6	stimuli\Videos_short_600ms\15.single_stroke_top_to_bottom_with_a_plastic_whisk_short_short_600ms.mp4	15.single_stroke_top_to_bottom_with_a_plastic_whisk_short_short_600ms.mp4	105.42760329807834	106.03588509099563	0.6082817929172961	n/a	n/a	n/a	n/a
45.2861328125	0.2	92746	22	40	0	0	0	22	11	stimuli\Videos_short_600ms\2.single_touch_with_finger_short_short_600ms.mp4	2.single_touch_with_finger_short_short_600ms.mp4	106.22757027858644	106.83584004842078	0.6082697698343509	n/a	n/a	n/a	n/a
46.0859375	0.2	94384	23	40	0	0	0	23	264	stimuli\Videos_short_600ms_horvertflip\86.touch_top_to_bottom_with_hair_brush_short_horvertflip_short_600ms.mp4	86.touch_top_to_bottom_with_hair_brush_short_horvertflip_short_600ms.mp4	107.02754664296458	107.63585160231035	0.6083049593457872	n/a	n/a	n/a	n/a
46.88623046875	0.2	96023	24	40	0	0	0	24	170	stimuli\Videos_short_600ms_horflip\82.repeated_touch_with_cotton_bud_short_horflip_short_600ms.mp4	82.repeated_touch_with_cotton_bud_short_horflip_short_600ms.mp4	107.82755907659202	108.43581242465392	0.6082533480619077	n/a	n/a	n/a	n/a
47.68603515625	0.2	97661	25	40	0	0	0	25	146	stimuli\Videos_short_600ms_horflip\60.single_push_with_tip_of_pencil_short_horflip_short_600ms.mp4	60.single_push_with_tip_of_pencil_short_horflip_short_600ms.mp4	108.62809055551612	109.2358263245112	0.6077357689950986	n/a	n/a	n/a	n/a
48.48583984375	0.2	99299	26	40	0	0	0	26	231	stimuli\Videos_short_600ms_horvertflip\56.repeated_touch_with_nail_file_short_horvertflip_short_600ms.mp4	56.repeated_touch_with_nail_file_short_horvertflip_short_600ms.mp4	109.42756605584508	110.03581705793977	0.6082510020946756	n/a	n/a	n/a	n/a
49.2861328125	0.2	100938	27	40	0	0	1	27	361	stimuli\Targets_short_600ms\chopstick-silver-tap_short_short_600ms.mp4	chopstick-silver-tap_short_short_600ms.mp4	110.22753186336968	110.8358280253376	0.6082961619679281	n/a	n/a	n/a	n/a
50.0859375	0.2	102576	28	40	0	0	0	28	120	stimuli\Videos_short_600ms_horflip\37.single_stab_with_nail_file_short_horflip_short_600ms.mp4	37.single_stab_with_nail_file_short_horflip_short_600ms.mp4	111.02747773017086	111.63581054788006	0.6083328177091971	n/a	n/a	n/a	n/a
50.8857421875	0.2	104214	29	40	0	0	0	29	354	stimuli\Videos_short_600ms_vertflip\86.touch_top_to_bottom_with_hair_brush_short_vertflip_short_600ms.mp4	86.touch_top_to_bottom_with_hair_brush_short_vertflip_short_600ms.mp4	111.82744031199012	112.43579043120916	0.6083501192190397	n/a	n/a	n/a	n/a
51.68603515625	0.2	105853	30	40	0	0	0	30	75	stimuli\Videos_short_600ms\78.single_stroke_top_to_bottom_with_soft_brush_short_short_600ms.mp4	78.single_stroke_top_to_bottom_with_soft_brush_short_short_600ms.mp4	112.6274509861421	113.23577676594893	0.6083257798068189	n/a	n/a	n/a	n/a
52.48583984375	0.2	107491	31	40	0	0	0	31	74	stimuli\Videos_short_600ms\77.tapping_with_all_fingers_short_short_600ms.mp4	77.tapping_with_all_fingers_short_short_600ms.mp4	113.42743556140611	114.03575782226176	0.6083222608556298	n/a	n/a	n/a	n/a
53.28564453125	0.2	109129	32	40	0	0	0	32	159	stimuli\Videos_short_600ms_horflip\72.(short)stroke_with_finger_all_over_the_hand_short_horflip_short_600ms.mp4	72.(short)stroke_with_finger_all_over_the_hand_short_horflip_short_600ms.mp4	114.2274488747712	114.83574357050952	0.6082946957383228	n/a	n/a	n/a	n/a
54.0859375	0.2	110768	33	40	0	0	0	33	347	stimuli\Videos_short_600ms_vertflip\8.single_touch_with_hairbrush_short_vertflip_short_600ms.mp4	8.single_touch_with_hairbrush_short_vertflip_short_600ms.mp4	115.02738682393236	115.63573342420044	0.608346600268078	n/a	n/a	n/a	n/a
54.8857421875	0.2	112406	34	40	0	0	0	34	152	stimuli\Videos_short_600ms_horflip\66.stroke_top_to_bottom_with_sponge_short_horflip_short_600ms.mp4	66.stroke_top_to_bottom_with_sponge_short_horflip_short_600ms.mp4	115.8273866479849	116.43571858595624	0.608331937971343	n/a	n/a	n/a	n/a
55.685546875	0.2	114044	35	40	0	0	0	35	116	stimuli\Videos_short_600ms_horflip\33.scratch_top_to_bottom_with_scissors_short_horflip_short_600ms.mp4	33.scratch_top_to_bottom_with_scissors_short_horflip_short_600ms.mp4	116.627337206721	117.23570492069598	0.6083677139749852	n/a	n/a	n/a	n/a
56.48583984375	0.2	115683	36	40	0	0	0	36	313	stimuli\Videos_short_600ms_vertflip\49.repeated_slap_with_hand_short_vertflip_short_600ms.mp4	49.repeated_slap_with_hand_short_vertflip_short_600ms.mp4	117.42732412795247	118.03568773648452	0.608363608532045	n/a	n/a	n/a	n/a
57.28564453125	0.2	117321	37	40	0	0	0	37	211	stimuli\Videos_short_600ms_horvertflip\38.double_slap_with_pencil_short_horvertflip_short_600ms.mp4	38.double_slap_with_pencil_short_horvertflip_short_600ms.mp4	118.22731104918398	118.8356749509619	0.6083639017779205	n/a	n/a	n/a	n/a
58.08544921875	0.2	118959	38	40	0	0	0	38	5	stimuli\Videos_short_600ms\14.repeated_touch_with_pencil_short_short_600ms.mp4	14.repeated_touch_with_pencil_short_short_600ms.mp4	119.02732084359808	119.63566216543929	0.6083413218411806	n/a	n/a	n/a	n/a
58.8857421875	0.2	120598	39	40	0	0	0	39	164	stimuli\Videos_short_600ms_horflip\77.tapping_with_all_fingers_short_horflip_short_600ms.mp4	77.tapping_with_all_fingers_short_horflip_short_600ms.mp4	119.82736230857267	120.4356452744737	0.6082829659010258	n/a	n/a	n/a	n/a
59.685546875	0.2	122236	40	40	0	0	0	40	206	stimuli\Videos_short_600ms_horvertflip\33.scratch_top_to_bottom_with_scissors_short_horvertflip_short_600ms.mp4	33.scratch_top_to_bottom_with_scissors_short_horvertflip_short_600ms.mp4	120.62731316055464	121.23563835386972	0.6083251933150677	n/a	n/a	n/a	n/a
60.4853515625	0.2	123874	41	40	0	0	1	41	382	stimuli\Targets_short_600ms_vertflip\hand-pinch_short_horvertflip_short_600ms.mp4	hand-pinch_short_horvertflip_short_600ms.mp4	121.427376618974	122.03558128821167	0.6082046692376935	n/a	n/a	n/a	n/a
61.28564453125	0.2	125513	42	40	0	0	0	42	17	stimuli\Videos_short_600ms\25.single_touch_with_stanley_knife_short_short_600ms.mp4	25.single_touch_with_stanley_knife_short_short_600ms.mp4	122.22725855816248	122.83552451579952	0.6082659576370588	n/a	n/a	n/a	n/a
62.08544921875	0.2	127151	43	40	0	0	0	43	185	stimuli\Videos_short_600ms_horvertflip\14.repeated_touch_with_pencil_short_horvertflip_short_600ms.mp4	14.repeated_touch_with_pencil_short_horvertflip_short_600ms.mp4	123.0272727512654	123.63555806313389	0.6082853118684852	n/a	n/a	n/a	n/a
62.88525390625	0.2	128789	44	40	0	0	0	44	93	stimuli\Videos_short_600ms_horflip\12.repeated_touch_with_nail_file_short_horflip_short_600ms.mp4	12.repeated_touch_with_nail_file_short_horflip_short_600ms.mp4	123.82725175485687	124.43558369282825	0.608331937971343	n/a	n/a	n/a	n/a
63.685546875	0.2	130428	45	40	0	0	0	45	291	stimuli\Videos_short_600ms_vertflip\29.single_pinch_with_tweezers_short_vertflip_short_600ms.mp4	29.single_pinch_with_tweezers_short_vertflip_short_600ms.mp4	124.62723750310464	125.23554920710694	0.6083117040022898	n/a	n/a	n/a	n/a
64.4853515625	0.2	132066	46	40	0	0	0	46	39	stimuli\Videos_short_600ms\45.scratching_with_finger_nails_short_short_600ms.mp4	45.scratching_with_finger_nails_short_short_600ms.mp4	125.42722471758202	126.03554287299472	0.6083181554126895	n/a	n/a	n/a	n/a
65.28564453125	0.2	133705	47	40	0	0	0	47	71	stimuli\Videos_short_600ms\74.fingers_walking_from_top_to_bottom_short_short_600ms.mp4	74.fingers_walking_from_top_to_bottom_short_short_600ms.mp4	126.22720841310844	126.8355429902931	0.608334577184678	n/a	n/a	n/a	n/a
66.08544921875	0.2	135343	48	40	0	0	0	48	316	stimuli\Videos_short_600ms_vertflip\51.repeated_touch_with_hammer_short_vertflip_short_600ms.mp4	51.repeated_touch_with_hammer_short_vertflip_short_600ms.mp4	127.02725574300143	127.63552111414674	0.6082653711453077	n/a	n/a	n/a	n/a
66.88525390625	0.2	136981	49	40	0	0	0	49	53	stimuli\Videos_short_600ms\58.single_slap_with_pencil_short_short_600ms.mp4	58.single_slap_with_pencil_short_short_600ms.mp4	127.8271758041608	128.43551917872355	0.6083433745627644	n/a	n/a	n/a	n/a
67.685546875	0.2	138620	50	40	0	0	0	50	115	stimuli\Videos_short_600ms_horflip\32.single_(long)pinch_with_fingers_short_horflip_short_600ms.mp4	32.single_(long)pinch_with_fingers_short_horflip_short_600ms.mp4	128.62720290008497	129.23549349038012	0.6082905902951552	n/a	n/a	n/a	n/a
68.4853515625	0.2	140258	51	40	0	0	0	51	223	stimuli\Videos_short_600ms_horvertflip\49.repeated_slap_with_hand_short_horvertflip_short_600ms.mp4	49.repeated_slap_with_hand_short_horvertflip_short_600ms.mp4	129.42713087888433	130.0354792386279	0.6083483597435588	n/a	n/a	n/a	n/a
69.28515625	0.2	141896	52	40	0	0	0	52	177	stimuli\Videos_short_600ms_horflip\89.single_touch_with_plastic_brush_short_horflip_short_600ms.mp4	89.single_touch_with_plastic_brush_short_horflip_short_600ms.mp4	130.22745180723064	130.83546381389192	0.6080120066612835	n/a	n/a	n/a	n/a
70.08544921875	0.2	143535	53	40	0	0	0	53	262	stimuli\Videos_short_600ms_horvertflip\84.single_touch_with_cotton_bud_short_horvertflip_short_600ms.mp4	84.single_touch_with_cotton_bud_short_horvertflip_short_600ms.mp4	131.0277091012099	131.63545220135302	0.607743100143125	n/a	n/a	n/a	n/a
70.88525390625	0.2	145173	54	40	0	0	0	54	329	stimuli\Videos_short_600ms_vertflip\63.stroke_top_to_bottom_with_screwdriver_short_vertflip_short_600ms.mp4	63.stroke_top_to_bottom_with_screwdriver_short_vertflip_short_600ms.mp4	131.82747110281275	132.43543589687943	0.6079647940666746	n/a	n/a	n/a	n/a
71.68505859375	0.2	146811	55	40	0	0	0	55	90	stimuli\Videos_short_600ms_horflip\1.repeated_touch_with_finger_fast_short_horflip_short_600ms.mp4	1.repeated_touch_with_finger_fast_short_horflip_short_600ms.mp4	132.62708237600737	133.23542692355386	0.6083445475464941	n/a	n/a	n/a	n/a
72.4853515625	0.2	148450	56	40	0	0	0	56	3	stimuli\Videos_short_600ms\12.repeated_touch_with_nail_file_short_short_600ms.mp4	12.repeated_touch_with_nail_file_short_short_600ms.mp4	133.4271050732425	134.03540710012908	0.6083020268865766	n/a	n/a	n/a	n/a
73.28515625	0.2	150088	57	40	0	0	0	57	60	stimuli\Videos_short_600ms\64.repeated_touch_with_screwdriver_short_short_600ms.mp4	64.repeated_touch_with_screwdriver_short_short_600ms.mp4	134.22703979669836	134.83539636732803	0.6083565706296667	n/a	n/a	n/a	n/a
74.0849609375	0.2	151726	58	40	0	0	0	58	119	stimuli\Videos_short_600ms_horflip\36.single_slap_with_full_hand_short_horflip_short_600ms.mp4	36.single_slap_with_full_hand_short_horflip_short_600ms.mp4	135.02704284645597	135.63538592777286	0.6083430813168889	n/a	n/a	n/a	n/a
74.88525390625	0.2	153365	59	40	0	0	0	59	175	stimuli\Videos_short_600ms_horflip\87.single_stroke_top_to_bottom_with_plastic_brush_short_horflip_short_600ms.mp4	87.single_stroke_top_to_bottom_with_plastic_brush_short_horflip_short_600ms.mp4	135.8270042552915	136.43534352441134	0.6083392691198242	n/a	n/a	n/a	n/a
75.68505859375	0.2	155003	60	40	0	0	0	60	228	stimuli\Videos_short_600ms_horvertflip\53.touch_top_to_bottom_with_knife_short_horvertflip_short_600ms.mp4	53.touch_top_to_bottom_with_knife_short_horvertflip_short_600ms.mp4	136.6270407350853	137.23530845219807	0.6082677171127671	n/a	n/a	n/a	n/a
76.48486328125	0.2	156641	61	40	0	0	0	61	225	stimuli\Videos_short_600ms_horvertflip\50.single_(long)hard_push_with_thumb_short_horvertflip_short_600ms.mp4	50.single_(long)hard_push_with_thumb_short_horvertflip_short_600ms.mp4	137.42699012083767	138.03529273421623	0.6083026133785552	n/a	n/a	n/a	n/a
77.28515625	0.2	158280	62	40	0	0	0	62	344	stimuli\Videos_short_600ms_vertflip\77.tapping_with_all_fingers_short_vertflip_short_600ms.mp4	77.tapping_with_all_fingers_short_vertflip_short_600ms.mp4	138.22700255446512	138.83527730948026	0.6082747550151453	n/a	n/a	n/a	n/a
78.0849609375	0.2	159918	63	40	0	0	0	63	20	stimuli\Videos_short_600ms\28.single_injection_with_sharp_needle_short_short_600ms.mp4	28.single_injection_with_sharp_needle_short_short_600ms.mp4	139.02698537025367	139.63529062284556	0.6083052525918902	n/a	n/a	n/a	n/a
78.884765625	0.2	161556	64	40	0	0	0	64	29	stimuli\Videos_short_600ms\36.single_slap_with_full_hand_short_short_600ms.mp4	36.single_slap_with_full_hand_short_short_600ms.mp4	139.82696525358278	140.4352781305688	0.6083128769860195	n/a	n/a	n/a	n/a
79.68505859375	0.2	163195	65	40	0	0	0	65	198	stimuli\Videos_short_600ms_horvertflip\26.single_touch_with_a_blunt_syringe_short_horvertflip_short_600ms.mp4	26.single_touch_with_a_blunt_syringe_short_horvertflip_short_600ms.mp4	140.62696419789745	141.2352685707515	0.608304372854036	n/a	n/a	n/a	n/a
80.48486328125	0.2	164833	66	40	0	0	0	66	130	stimuli\Videos_short_600ms_horflip\46.scratching_top_to_bottom_with_finger_nails_short_horflip_short_600ms.mp4	46.scratching_top_to_bottom_with_finger_nails_short_horflip_short_600ms.mp4	141.42694173525933	142.03528686929758	0.6083451340382453	n/a	n/a	n/a	n/a
81.28466796875	0.2	166471	67	40	0	0	0	67	349	stimuli\Videos_short_600ms_vertflip\81.single_stroke_top_to_bottom_with_cotton_pad_short_vertflip_short_600ms.mp4	81.single_stroke_top_to_bottom_with_cotton_pad_short_vertflip_short_600ms.mp4	142.2269075427837	142.8352520903302	0.6083445475464941	n/a	n/a	n/a	n/a
82.0849609375	0.2	168110	68	40	0	0	0	68	338	stimuli\Videos_short_600ms_vertflip\71.single_stroke_with_finger_top_to_bottom_short_vertflip_short_600ms.mp4	71.single_stroke_with_finger_top_to_bottom_short_vertflip_short_600ms.mp4	143.02691704395193	143.6352437034966	0.608326659544673	n/a	n/a	n/a	n/a
82.884765625	0.2	169748	69	40	0	0	0	69	84	stimuli\Videos_short_600ms\86.touch_top_to_bottom_with_hair_brush_short_short_600ms.mp4	86.touch_top_to_bottom_with_hair_brush_short_short_600ms.mp4	143.82690015298635	144.4352256395473	0.6083254865609433	n/a	n/a	n/a	n/a
83.6845703125	0.2	171386	70	40	0	0	0	70	317	stimuli\Videos_short_600ms_vertflip\52.touch_top_to_bottom_with_hammer_short_vertflip_short_600ms.mp4	52.touch_top_to_bottom_with_hammer_short_vertflip_short_600ms.mp4	144.62706947318657	145.23521168104094	0.608142207854371	n/a	n/a	n/a	n/a
84.48486328125	0.2	173025	71	40	0	0	0	71	2	stimuli\Videos_short_600ms\11.single_touch_with_lighter_short_short_600ms.mp4	11.single_touch_with_lighter_short_short_600ms.mp4	145.4268728224656	146.03519713604285	0.6083243135772136	n/a	n/a	n/a	n/a
85.28466796875	0.2	174663	72	40	0	0	0	72	59	stimuli\Videos_short_600ms\63.stroke_top_to_bottom_with_screwdriver_short_short_600ms.mp4	63.stroke_top_to_bottom_with_screwdriver_short_short_600ms.mp4	146.22685358553258	146.8351811248151	0.6083275392825271	n/a	n/a	n/a	n/a
86.0849609375	0.2	176302	73	40	0	0	0	73	292	stimuli\Videos_short_600ms_vertflip\3.single_push_with_finger_short_vertflip_short_600ms.mp4	3.single_push_with_finger_short_vertflip_short_600ms.mp4	147.02688038821066	147.63516833929248	0.6082879510818202	n/a	n/a	n/a	n/a
86.884765625	0.2	177940	74	40	0	0	0	74	65	stimuli\Videos_short_600ms\69.stroke_with_soft_sock_short_short_600ms.mp4	69.stroke_with_soft_sock_short_short_600ms.mp4	147.82686408373684	148.43515584701595	0.6082917632791123	n/a	n/a	n/a	n/a
87.6845703125	0.2	179578	75	40	0	0	0	75	126	stimuli\Videos_short_600ms_horflip\42.single_slap_with_plastic_whisk_short_horflip_short_600ms.mp4	42.single_slap_with_plastic_whisk_short_horflip_short_600ms.mp4	148.6267894233231	149.23514218175546	0.6083527584323747	n/a	n/a	n/a	n/a
88.48486328125	0.2	181217	76	40	0	0	0	76	239	stimuli\Videos_short_600ms_horvertflip\63.stroke_top_to_bottom_with_screwdriver_short_horvertflip_short_600ms.mp4	63.stroke_top_to_bottom_with_screwdriver_short_horvertflip_short_600ms.mp4	149.4267546443557	150.03512763675735	0.6083729924016552	n/a	n/a	n/a	n/a
89.28466796875	0.2	182855	77	40	0	0	0	77	322	stimuli\Videos_short_600ms_vertflip\57.single_touch_with_nail_file_short_vertflip_short_600ms.mp4	57.single_touch_with_nail_file_short_vertflip_short_600ms.mp4	150.22676561175354	150.835113678251	0.6083480664974559	n/a	n/a	n/a	n/a
90.08447265625	0.2	184493	78	40	0	0	0	78	324	stimuli\Videos_short_600ms_vertflip\59.single_push_with_long_side_pencil_short_vertflip_short_600ms.mp4	59.single_push_with_long_side_pencil_short_vertflip_short_600ms.mp4	151.0267874292506	151.6350973737774	0.608309944526809	n/a	n/a	n/a	n/a
90.884765625	0.2	186132	79	40	0	0	0	79	102	stimuli\Videos_short_600ms_horflip\20.single_touch_with_screwdriver_short_horflip_short_600ms.mp4	20.single_touch_with_screwdriver_short_horflip_short_600ms.mp4	151.82674238667573	152.4350675799908	0.6083251933150677	n/a	n/a	n/a	n/a
91.6845703125	0.2	187770	80	40	0	0	0	80	26	stimuli\Videos_short_600ms\33.scratch_top_to_bottom_with_scissors_short_short_600ms.mp4	33.scratch_top_to_bottom_with_scissors_short_short_600ms.mp4	152.62673165387469	153.23504980928735	0.6083181554126895	n/a	n/a	n/a	n/a
92.484375	0.2	189408	81	40	0	0	0	81	83	stimuli\Videos_short_600ms\85.touch_top_to_bottom_with_fabric_short_short_600ms.mp4	85.touch_top_to_bottom_with_fabric_short_short_600ms.mp4	153.42679599203188	154.03501209786077	0.6082161058288875	n/a	n/a	n/a	n/a
93.28466796875	0.2	191047	82	40	0	0	0	82	117	stimuli\Videos_short_600ms_horflip\34.repeated_punch_with_hand_short_horflip_short_600ms.mp4	34.repeated_punch_with_hand_short_horflip_short_600ms.mp4	154.22672895601204	154.8349981393544	0.6082691833423723	n/a	n/a	n/a	n/a
94.08447265625	0.2	192685	83	40	0	0	0	83	244	stimuli\Videos_short_600ms_horvertflip\68.stroke_top_to_bottom_with_shawl_short_horvertflip_short_600ms.mp4	68.stroke_top_to_bottom_with_shawl_short_horvertflip_short_600ms.mp4	155.02696894848168	155.63500793376852	0.6080389852868393	n/a	n/a	n/a	n/a
94.88427734375	0.2	194323	84	40	0	0	0	84	77	stimuli\Videos_short_600ms\8.single_touch_with_hairbrush_short_short_600ms.mp4	8.single_touch_with_hairbrush_short_short_600ms.mp4	155.82668960240835	156.43499778745945	0.6083081850511007	n/a	n/a	n/a	n/a
95.6845703125	0.2	195962	85	40	0	0	0	85	330	stimuli\Videos_short_600ms_vertflip\64.repeated_touch_with_screwdriver_short_vertflip_short_600ms.mp4	64.repeated_touch_with_screwdriver_short_vertflip_short_600ms.mp4	156.6270292984941	157.2349920398392	0.6079627413450908	n/a	n/a	n/a	n/a
96.484375	0.2	197600	86	40	0	0	0	86	14	stimuli\Videos_short_600ms\22.single_touch_with_metal_chopstick_short_short_600ms.mp4	22.single_touch_with_metal_chopstick_short_short_600ms.mp4	157.42665494073935	158.0349950895968	0.6083401488574509	n/a	n/a	n/a	n/a
97.2841796875	0.2	199238	87	40	0	0	0	87	351	stimuli\Videos_short_600ms_vertflip\83.single_stroke_top_to_bottom_with_cotton_bud_short_vertflip_short_600ms.mp4	83.single_stroke_top_to_bottom_with_cotton_bud_short_vertflip_short_600ms.mp4	158.2266477268895	158.8349705742371	0.6083228473476083	n/a	n/a	n/a	n/a
98.08447265625	0.2	200877	88	40	0	0	0	88	212	stimuli\Videos_short_600ms_horvertflip\39.single_stab_with_scissors_short_horvertflip_short_600ms.mp4	39.single_stab_with_scissors_short_horvertflip_short_600ms.mp4	159.0266953500286	159.63495602923877	0.6082606792101615	n/a	n/a	n/a	n/a
98.88427734375	0.2	202515	89	40	0	0	0	89	155	stimuli\Videos_short_600ms_horflip\69.stroke_with_soft_sock_short_horflip_short_600ms.mp4	69.stroke_with_soft_sock_short_horflip_short_600ms.mp4	159.82662802076288	160.43494676266755	0.6083187419046681	n/a	n/a	n/a	n/a
99.68408203125	0.2	204153	90	40	0	0	0	90	248	stimuli\Videos_short_600ms_horvertflip\71.single_stroke_with_finger_top_to_bottom_short_horvertflip_short_600ms.mp4	71.single_stroke_with_finger_top_to_bottom_short_horvertflip_short_600ms.mp4	160.62660526487866	161.23492928521	0.608324020331338	n/a	n/a	n/a	n/a
100.484375	0.2	205792	91	40	0	0	0	91	221	stimuli\Videos_short_600ms_horvertflip\47.(long)scratching_with_finger_nails_short_horvertflip_short_600ms.mp4	47.(long)scratching_with_finger_nails_short_horvertflip_short_600ms.mp4	161.42659746453705	162.03491825916308	0.6083207946260245	n/a	n/a	n/a	n/a
101.28466796875	0.2	207431	92	40	0	0	0	92	315	stimuli\Videos_short_600ms_vertflip\50.single_(long)hard_push_with_thumb_short_vertflip_short_600ms.mp4	50.single_(long)hard_push_with_thumb_short_vertflip_short_600ms.mp4	162.22667323928545	162.83490371416497	0.6082304748795195	3.0	3.0	3.93806821897374	1.0
137.0166015625	0.2	280610	93	40	1	0	0	0	158	stimuli\Videos_short_600ms_horflip\71.single_stroke_with_finger_top_to_bottom_short_horflip_short_600ms.mp4	71.single_stroke_with_finger_top_to_bottom_short_horflip_short_600ms.mp4	198.75928555907467	199.3675916914044	0.6083061323297443	n/a	n/a	n/a	n/a
137.81640625	0.2	282248	94	40	1	0	1	1	372	stimuli\Targets_short_600ms_horvertflip\brush-stroke_short_vertflip_short_600ms.mp4	brush-stroke_short_vertflip_short_600ms.mp4	199.55960707391296	200.16757890588175	0.6079718319688254	n/a	n/a	n/a	n/a
138.6162109375	0.2	283886	95	40	1	0	0	2	80	stimuli\Videos_short_600ms\82.repeated_touch_with_cotton_bud_short_short_600ms.mp4	82.repeated_touch_with_cotton_bud_short_short_600ms.mp4	200.35920045910552	200.96756758658876	0.6083671274832341	n/a	n/a	n/a	n/a
139.41650390625	0.2	285525	96	40	1	0	1	3	376	stimuli\Targets_short_600ms_horvertflip\hand-pinch_short_vertflip_short_600ms.mp4	hand-pinch_short_vertflip_short_600ms.mp4	201.1591853276159	201.7675501091312	0.6083647815153199	n/a	n/a	n/a	n/a
140.21630859375	0.2	287163	97	40	1	0	0	4	167	stimuli\Videos_short_600ms_horflip\8.single_touch_with_hairbrush_short_horflip_short_600ms.mp4	8.single_touch_with_hairbrush_short_horflip_short_600ms.mp4	201.95922503311476	202.56753820334643	0.6083131702316678	n/a	n/a	n/a	n/a
141.01611328125	0.2	288801	98	40	1	0	0	5	168	stimuli\Videos_short_600ms_horflip\80.stroke_with_sharp_stick_all_over_the_hand_short_horflip_short_600ms.mp4	80.stroke_with_sharp_stick_all_over_the_hand_short_horflip_short_600ms.mp4	202.75918233650737	203.36751984615148	0.6083375096441159	n/a	n/a	n/a	n/a
141.81640625	0.2	290440	99	40	1	0	0	6	281	stimuli\Videos_short_600ms_vertflip\2.single_touch_with_finger_short_vertflip_short_600ms.mp4	2.single_touch_with_finger_short_vertflip_short_600ms.mp4	203.55919213092147	204.1675179107283	0.6083257798068189	n/a	n/a	n/a	n/a
142.6162109375	0.2	292078	100	40	1	0	0	7	18	stimuli\Videos_short_600ms\26.single_touch_with_a_blunt_syringe_short_short_600ms.mp4	26.single_touch_with_a_blunt_syringe_short_short_600ms.mp4	204.35932655485567	204.96747228166123	0.6081457268055601	n/a	n/a	n/a	n/a
143.416015625	0.2	293716	101	40	1	0	0	8	311	stimuli\Videos_short_600ms_vertflip\47.(long)scratching_with_finger_nails_short_vertflip_short_600ms.mp4	47.(long)scratching_with_finger_nails_short_vertflip_short_600ms.mp4	205.1591648004005	205.7674671205332	0.6083023201326796	n/a	n/a	n/a	n/a
144.21630859375	0.2	295355	102	40	1	0	0	9	252	stimuli\Videos_short_600ms_horvertflip\75.(long)stroke_with_fingers_all_over_the_hand_short_horvertflip_short_600ms.mp4	75.(long)stroke_with_fingers_all_over_the_hand_short_horvertflip_short_600ms.mp4	205.95913911205707	206.5674270631389	0.6082879510818202	n/a	n/a	n/a	n/a
145.01611328125	0.2	296993	103	40	1	0	1	10	365	stimuli\Targets_short_600ms\hand-stroke_short_short_600ms.mp4	hand-stroke_short_short_600ms.mp4	206.75908233964492	207.36744008325832	0.6083577436133965	n/a	n/a	n/a	n/a
145.81591796875	0.2	298631	104	40	1	0	0	11	236	stimuli\Videos_short_600ms_horvertflip\60.single_push_with_tip_of_pencil_short_horvertflip_short_600ms.mp4	60.single_push_with_tip_of_pencil_short_horvertflip_short_600ms.mp4	207.55911588697927	208.16742084632503	0.6083049593457872	n/a	n/a	n/a	n/a
146.6162109375	0.2	300270	105	40	1	0	0	12	87	stimuli\Videos_short_600ms\89.single_touch_with_plastic_brush_short_short_600ms.mp4	89.single_touch_with_plastic_brush_short_short_600ms.mp4	208.35910046224353	208.96743093398527	0.6083304717417377	n/a	n/a	n/a	n/a
147.416015625	0.2	301908	106	40	1	0	0	13	265	stimuli\Videos_short_600ms_horvertflip\87.single_stroke_top_to_bottom_with_plastic_brush_short_horvertflip_short_600ms.mp4	87.single_stroke_top_to_bottom_with_plastic_brush_short_horvertflip_short_600ms.mp4	209.1590844510156	209.7674184417087	0.6083339906931542	n/a	n/a	n/a	n/a
148.21630859375	0.2	303547	107	40	1	0	0	14	256	stimuli\Videos_short_600ms_horvertflip\79.long_with_soft_brush_all_over_the_hand_short_horvertflip_short_600ms.mp4	79.long_with_soft_brush_all_over_the_hand_short_horvertflip_short_600ms.mp4	209.95907225198516	210.5673953925784	0.6083231405932565	n/a	n/a	n/a	n/a
149.01611328125	0.2	305185	108	40	1	0	0	15	200	stimuli\Videos_short_600ms_horvertflip\28.single_injection_with_sharp_needle_short_horvertflip_short_600ms.mp4	28.single_injection_with_sharp_needle_short_horvertflip_short_600ms.mp4	210.75907148954548	211.36738524626935	0.6083137567238737	n/a	n/a	n/a	n/a
149.81591796875	0.2	306823	109	40	1	0	1	16	360	stimuli\Targets_short_600ms\brush-stroke_short_short_600ms.mp4	brush-stroke_short_short_600ms.mp4	211.5590214617896	212.1673665958283	0.6083451340387	n/a	n/a	n/a	n/a
150.6162109375	0.2	308462	110	40	1	0	0	17	217	stimuli\Videos_short_600ms_horvertflip\43.touch_top_to_bottom_with_sharp_wooden_stick_short_horvertflip_short_600ms.mp4	43.touch_top_to_bottom_with_sharp_wooden_stick_short_horvertflip_short_600ms.mp4	212.3590283237445	212.96735351705956	0.6083251933150677	n/a	n/a	n/a	n/a
151.416015625	0.2	310100	111	40	1	0	0	18	241	stimuli\Videos_short_600ms_horvertflip\65.stroke_top_to_bottom_with_stanley_knife_short_horvertflip_short_600ms.mp4	65.stroke_top_to_bottom_with_stanley_knife_short_horvertflip_short_600ms.mp4	213.15907946583505	213.7673463032097	0.6082668373746856	n/a	n/a	n/a	n/a
152.2158203125	0.2	311738	112	40	1	0	0	19	257	stimuli\Videos_short_600ms_horvertflip\8.single_touch_with_hairbrush_short_horvertflip_short_600ms.mp4	8.single_touch_with_hairbrush_short_horvertflip_short_600ms.mp4	213.958970495647	214.56732589329297	0.608355397645937	n/a	n/a	n/a	n/a
153.01611328125	0.2	313377	113	40	1	0	0	20	44	stimuli\Videos_short_600ms\5.repeated_tap_with_finger_moving_from_top_to_bottom_short_short_600ms.mp4	5.repeated_tap_with_finger_moving_from_top_to_bottom_short_short_600ms.mp4	214.7589462735332	215.3673122280325	0.608365954499277	n/a	n/a	n/a	n/a
153.81591796875	0.2	315015	114	40	1	0	0	21	169	stimuli\Videos_short_600ms_horflip\81.single_stroke_top_to_bottom_with_cotton_pad_short_horflip_short_600ms.mp4	81.single_stroke_top_to_bottom_with_cotton_pad_short_horflip_short_600ms.mp4	215.5589683842763	216.16729797628025	0.6083295920038836	n/a	n/a	n/a	n/a
154.61572265625	0.2	316653	115	40	1	0	0	22	140	stimuli\Videos_short_600ms_horflip\55.touch_top_to_bottom_with_nail_file_short_horflip_short_600ms.mp4	55.touch_top_to_bottom_with_nail_file_short_horflip_short_600ms.mp4	216.35891894301267	216.96728460426584	0.608365661253174	n/a	n/a	n/a	n/a
155.416015625	0.2	318292	116	40	1	0	0	23	157	stimuli\Videos_short_600ms_horflip\70.(long)stroke_with_finger_all_over_the_hand_short_horflip_short_600ms.mp4	70.(long)stroke_with_finger_all_over_the_hand_short_horflip_short_600ms.mp4	217.15897037834884	217.76726859303835	0.608298214689512	n/a	n/a	n/a	n/a
156.2158203125	0.2	319930	117	40	1	0	0	24	334	stimuli\Videos_short_600ms_vertflip\68.stroke_top_to_bottom_with_shawl_short_vertflip_short_600ms.mp4	68.stroke_top_to_bottom_with_shawl_short_vertflip_short_600ms.mp4	217.9589150721663	218.5672555142696	0.6083404421033265	n/a	n/a	n/a	n/a
157.015625	0.2	321568	118	40	1	0	0	25	178	stimuli\Videos_short_600ms_horflip\9.single_touch_with_hammer_short_horflip_short_600ms.mp4	9.single_touch_with_hammer_short_horflip_short_600ms.mp4	218.75890639208683	219.36721545687575	0.6083090647889549	n/a	n/a	n/a	n/a
157.81591796875	0.2	323207	119	40	1	0	0	26	194	stimuli\Videos_short_600ms_horvertflip\22.single_touch_with_metal_chopstick_short_horvertflip_short_600ms.mp4	22.single_touch_with_metal_chopstick_short_horvertflip_short_600ms.mp4	219.55895694768515	220.16718273062995	0.6082257829448281	n/a	n/a	n/a	n/a
158.61572265625	0.2	324845	120	40	1	0	0	27	222	stimuli\Videos_short_600ms_horvertflip\48.single_slap_with_hand_short_horvertflip_short_600ms.mp4	48.single_slap_with_hand_short_horvertflip_short_600ms.mp4	220.3588884454357	220.9671951642572	0.6083067188214955	n/a	n/a	n/a	n/a
159.41552734375	0.2	326483	121	40	1	0	0	28	68	stimuli\Videos_short_600ms\71.single_stroke_with_finger_top_to_bottom_short_short_600ms.mp4	71.single_stroke_with_finger_top_to_bottom_short_short_600ms.mp4	221.1588956006367	221.7671542271255	0.608258626488805	n/a	n/a	n/a	n/a
160.2158203125	0.2	328122	122	40	1	0	0	29	176	stimuli\Videos_short_600ms_horflip\88.repeated_stroke_with_plastic_brush_short_horflip_short_600ms.mp4	88.repeated_stroke_with_plastic_brush_short_horflip_short_600ms.mp4	221.95886052842343	222.56716724724447	0.6083067188210407	n/a	n/a	n/a	n/a
161.015625	0.2	329760	123	40	1	0	0	30	348	stimuli\Videos_short_600ms_vertflip\80.stroke_with_sharp_stick_all_over_the_hand_short_vertflip_short_600ms.mp4	80.stroke_with_sharp_stick_all_over_the_hand_short_vertflip_short_600ms.mp4	222.7588462766712	223.36715182250873	0.6083055458375384	n/a	n/a	n/a	n/a
161.8154296875	0.2	331398	124	40	1	0	0	31	325	stimuli\Videos_short_600ms_vertflip\6.single_touch_with_flat_hand_short_vertflip_short_600ms.mp4	6.single_touch_with_flat_hand_short_vertflip_short_600ms.mp4	223.55880856524436	224.16715927095535	0.6083507057110182	n/a	n/a	n/a	n/a
162.61572265625	0.2	333037	125	40	1	0	0	32	0	stimuli\Videos_short_600ms\1.repeated_touch_with_finger_fast_short_short_600ms.mp4	1.repeated_touch_with_finger_fast_short_short_600ms.mp4	224.35886909120427	224.96715088412157	0.6082817929172961	n/a	n/a	n/a	n/a
163.41552734375	0.2	334675	126	40	1	0	0	33	78	stimuli\Videos_short_600ms\80.stroke_with_sharp_stick_all_over_the_hand_short_short_600ms.mp4	80.stroke_with_sharp_stick_all_over_the_hand_short_short_600ms.mp4	225.1587935510529	225.76712988771305	0.6083363366601588	n/a	n/a	n/a	n/a
164.21533203125	0.2	336313	127	40	1	0	0	34	216	stimuli\Videos_short_600ms_horvertflip\42.single_slap_with_plastic_whisk_short_horvertflip_short_600ms.mp4	42.single_slap_with_plastic_whisk_short_horvertflip_short_600ms.mp4	225.9587895629079	226.5671138764851	0.6083243135772136	n/a	n/a	n/a	n/a
165.015625	0.2	337952	128	40	1	0	0	35	260	stimuli\Videos_short_600ms_horvertflip\82.repeated_touch_with_cotton_bud_short_horvertflip_short_600ms.mp4	82.repeated_touch_with_cotton_bud_short_horvertflip_short_600ms.mp4	226.75883835903096	227.36710050447073	0.6082621454397668	n/a	n/a	n/a	n/a
165.8154296875	0.2	339590	129	40	1	0	0	36	148	stimuli\Videos_short_600ms_horflip\62.touch_top_to_bottom_with_scissors_short_horflip_short_600ms.mp4	62.touch_top_to_bottom_with_scissors_short_horflip_short_600ms.mp4	227.5587390659589	228.16708478648889	0.6083457205299965	n/a	n/a	n/a	n/a
166.615234375	0.2	341228	130	40	1	0	0	37	179	stimuli\Videos_short_600ms_horflip\90.repeated_touch_with_sponge_short_horflip_short_600ms.mp4	90.repeated_touch_with_sponge_short_horflip_short_600ms.mp4	228.3587459279138	228.96707200096623	0.6083260730524671	n/a	n/a	n/a	n/a
167.41552734375	0.2	342867	131	40	1	0	0	38	309	stimuli\Videos_short_600ms_vertflip\45.scratching_with_finger_nails_short_vertflip_short_600ms.mp4	45.scratching_with_finger_nails_short_vertflip_short_600ms.mp4	229.15870381779817	229.76706097491933	0.6083571571211905	n/a	n/a	n/a	n/a
168.21533203125	0.2	344505	132	40	1	0	0	39	336	stimuli\Videos_short_600ms_vertflip\7.repeated_touch_with_hairbrush_short_vertflip_short_600ms.mp4	7.repeated_touch_with_hairbrush_short_vertflip_short_600ms.mp4	229.9586980701779	230.56704467044577	0.6083466002678506	n/a	n/a	n/a	n/a
169.015625	0.2	346144	133	40	1	0	0	40	165	stimuli\Videos_short_600ms_horflip\78.single_stroke_top_to_bottom_with_soft_brush_short_horflip_short_600ms.mp4	78.single_stroke_top_to_bottom_with_soft_brush_short_horflip_short_600ms.mp4	230.75866358445637	231.36702924571	0.6083656612536288	n/a	n/a	n/a	n/a
169.8154296875	0.2	347782	134	40	1	0	1	41	377	stimuli\Targets_short_600ms_horvertflip\hand-stroke_short_vertflip_short_600ms.mp4	hand-stroke_short_vertflip_short_600ms.mp4	231.55867220588652	232.1670141142199	0.6083419083333865	n/a	n/a	n/a	n/a
170.615234375	0.2	349420	135	40	1	0	0	42	218	stimuli\Videos_short_600ms_horvertflip\44.pushing_top_to_bottom_with_finger_short_horvertflip_short_600ms.mp4	44.pushing_top_to_bottom_with_finger_short_horvertflip_short_600ms.mp4	232.35867056370944	232.96700044895945	0.6083298852499865	n/a	n/a	n/a	n/a
171.41552734375	0.2	351059	136	40	1	0	0	43	279	stimuli\Videos_short_600ms_vertflip\18.single_stroke_from_top_to_bottom_with_rolling_pin_short_vertflip_short_600ms.mp4	18.single_stroke_from_top_to_bottom_with_rolling_pin_short_vertflip_short_600ms.mp4	233.1586651093353	233.7669879566829	0.6083228473476083	n/a	n/a	n/a	n/a
172.21533203125	0.2	352697	137	40	1	0	0	44	340	stimuli\Videos_short_600ms_vertflip\73.single_stroke_with_flat_hand_short_vertflip_short_600ms.mp4	73.single_stroke_with_flat_hand_short_vertflip_short_600ms.mp4	233.9586602414529	234.56697634414377	0.6083161026908783	n/a	n/a	n/a	n/a
173.01513671875	0.2	354335	138	40	1	0	0	45	128	stimuli\Videos_short_600ms_horflip\44.pushing_top_to_bottom_with_finger_short_horflip_short_600ms.mp4	44.pushing_top_to_bottom_with_finger_short_horflip_short_600ms.mp4	234.75863983153613	235.36695740045707	0.6083175689209384	n/a	n/a	n/a	n/a
173.8154296875	0.2	355974	139	40	1	0	0	46	1	stimuli\Videos_short_600ms\10.single_touch_with_knife_short_short_600ms.mp4	10.single_touch_with_knife_short_short_600ms.mp4	235.55873701323753	236.16692232824337	0.6081853150058123	n/a	n/a	n/a	n/a
174.615234375	0.2	357612	140	40	1	0	0	47	303	stimuli\Videos_short_600ms_vertflip\4.repeated_tap_with_finger_slow_short_vertflip_short_600ms.mp4	4.repeated_tap_with_finger_slow_short_vertflip_short_600ms.mp4	236.35860487662103	236.9669066102615	0.6083017336404737	n/a	n/a	n/a	n/a
175.4150390625	0.2	359250	141	40	1	0	0	48	22	stimuli\Videos_short_600ms\3.single_push_with_finger_short_short_600ms.mp4	3.single_push_with_finger_short_short_600ms.mp4	237.15863431851267	237.76689323824712	0.6082589197344532	n/a	n/a	n/a	n/a
176.21533203125	0.2	360889	142	40	1	0	0	49	214	stimuli\Videos_short_600ms_horvertflip\40.repeated_push_with_finger_short_horvertflip_short_600ms.mp4	40.repeated_push_with_finger_short_horvertflip_short_600ms.mp4	237.95855613914728	238.5668854379055	0.6083292987582354	n/a	n/a	n/a	n/a
177.01513671875	0.2	362527	143	40	1	0	0	50	193	stimuli\Videos_short_600ms_horvertflip\21.repeated_touch_with_metal_chopstick_short_horvertflip_short_600ms.mp4	21.repeated_touch_with_metal_chopstick_short_horvertflip_short_600ms.mp4	238.75856886602105	239.3668890741551	0.608320208134046	n/a	n/a	n/a	n/a
177.81494140625	0.2	364165	144	40	1	0	0	51	144	stimuli\Videos_short_600ms_horflip\59.single_push_with_long_side_pencil_short_horflip_short_600ms.mp4	59.single_push_with_long_side_pencil_short_horflip_short_600ms.mp4	239.55857132928668	240.16688186030524	0.6083105310185601	n/a	n/a	n/a	n/a
178.615234375	0.2	365804	145	40	1	0	0	52	36	stimuli\Videos_short_600ms\42.single_slap_with_plastic_whisk_short_short_600ms.mp4	42.single_slap_with_plastic_whisk_short_short_600ms.mp4	240.3585344975977	240.96686027740452	0.6083257798068189	n/a	n/a	n/a	n/a
179.4150390625	0.2	367442	146	40	1	0	0	53	154	stimuli\Videos_short_600ms_horflip\68.stroke_top_to_bottom_with_shawl_short_horflip_short_600ms.mp4	68.stroke_top_to_bottom_with_shawl_short_horflip_short_600ms.mp4	241.15849766590873	241.7668513040794	0.6083536381706836	n/a	n/a	n/a	n/a
180.21484375	0.2	369080	147	40	1	0	0	54	37	stimuli\Videos_short_600ms\43.touch_top_to_bottom_with_sharp_wooden_stick_short_short_600ms.mp4	43.touch_top_to_bottom_with_sharp_wooden_stick_short_short_600ms.mp4	241.9585144982252	242.5668326536379	0.6083181554126895	n/a	n/a	n/a	n/a
181.01513671875	0.2	370719	148	40	1	0	1	55	371	stimuli\Targets_short_600ms_horflip\hand-stroke_short_horflip_short_600ms.mp4	hand-stroke_short_horflip_short_600ms.mp4	242.7584949680463	243.36681722890216	0.6083222608558572	n/a	n/a	n/a	n/a
181.81494140625	0.2	372357	149	40	1	0	0	56	61	stimuli\Videos_short_600ms\65.stroke_top_to_bottom_with_stanley_knife_short_short_600ms.mp4	65.stroke_top_to_bottom_with_stanley_knife_short_short_600ms.mp4	243.55845784311168	244.16680356364168	0.6083457205299965	n/a	n/a	n/a	n/a
182.61474609375	0.2	373995	150	40	1	0	0	57	30	stimuli\Videos_short_600ms\37.single_stab_with_nail_file_short_short_600ms.mp4	37.single_stab_with_nail_file_short_short_600ms.mp4	244.3584817133301	244.9667887253977	0.6083070120675984	n/a	n/a	n/a	n/a
183.4150390625	0.2	375634	151	40	1	0	0	58	97	stimuli\Videos_short_600ms_horflip\16.repeated_touch_with_plastic_brush_short_horflip_short_600ms.mp4	16.repeated_touch_with_plastic_brush_short_horflip_short_600ms.mp4	245.15843109908292	245.76677447364543	0.6083433745625371	n/a	n/a	n/a	n/a
184.21484375	0.2	377272	152	40	1	0	0	59	21	stimuli\Videos_short_600ms\29.single_pinch_with_tweezers_short_short_600ms.mp4	29.single_pinch_with_tweezers_short_short_600ms.mp4	245.9584429462184	246.56676080838497	0.6083178621665866	n/a	n/a	n/a	n/a
185.0146484375	0.2	378910	153	40	1	0	0	60	138	stimuli\Videos_short_600ms_horflip\53.touch_top_to_bottom_with_knife_short_horflip_short_600ms.mp4	53.touch_top_to_bottom_with_knife_short_horflip_short_600ms.mp4	246.7583902792494	247.36674714312497	0.6083568638755423	n/a	n/a	n/a	n/a
185.81494140625	0.2	380549	154	40	1	0	0	61	300	stimuli\Videos_short_600ms_vertflip\37.single_stab_with_nail_file_short_vertflip_short_600ms.mp4	37.single_stab_with_nail_file_short_vertflip_short_600ms.mp4	247.5584027128766	248.16673171838875	0.6083290055121324	n/a	n/a	n/a	n/a
186.61474609375	0.2	382187	155	40	1	0	0	62	327	stimuli\Videos_short_600ms_vertflip\61.single_hit_with_rolling_pin_short_vertflip_short_600ms.mp4	61.single_hit_with_rolling_pin_short_vertflip_short_600ms.mp4	248.3583787840089	248.96672010585007	0.6083413218411806	n/a	n/a	n/a	n/a
187.4150390625	0.2	383826	156	40	1	0	0	63	328	stimuli\Videos_short_600ms_vertflip\62.touch_top_to_bottom_with_scissors_short_vertflip_short_600ms.mp4	62.touch_top_to_bottom_with_scissors_short_vertflip_short_600ms.mp4	249.15836306602705	249.76667887547228	0.6083158094452301	n/a	n/a	n/a	n/a
188.21484375	0.2	385464	157	40	1	0	0	64	94	stimuli\Videos_short_600ms_horflip\13.single_touch_with_pen_short_horflip_short_600ms.mp4	13.single_touch_with_pen_short_horflip_short_600ms.mp4	249.95837667263825	250.56668896313204	0.6083122904938136	n/a	n/a	n/a	n/a
189.0146484375	0.2	387102	158	40	1	0	0	65	129	stimuli\Videos_short_600ms_horflip\45.scratching_with_finger_nails_short_horflip_short_600ms.mp4	45.scratching_with_finger_nails_short_horflip_short_600ms.mp4	250.7583533302618	251.36663131098203	0.6082779807202314	n/a	n/a	n/a	n/a
189.81494140625	0.2	388741	159	40	1	0	0	66	43	stimuli\Videos_short_600ms\49.repeated_slap_with_hand_short_short_600ms.mp4	49.repeated_slap_with_hand_short_short_600ms.mp4	251.55831708506503	252.16664902303637	0.608331937971343	n/a	n/a	n/a	n/a
190.61474609375	0.2	390379	160	40	1	0	0	67	295	stimuli\Videos_short_600ms_vertflip\32.single_(long)pinch_with_fingers_short_vertflip_short_600ms.mp4	32.single_(long)pinch_with_fingers_short_vertflip_short_600ms.mp4	252.35832277403597	252.96662450767644	0.6083017336404737	n/a	n/a	n/a	n/a
191.41455078125	0.2	392017	161	40	1	0	0	68	79	stimuli\Videos_short_600ms\81.single_stroke_top_to_bottom_with_cotton_pad_short_short_600ms.mp4	81.single_stroke_top_to_bottom_with_cotton_pad_short_short_600ms.mp4	253.15830764254588	253.766620812778	0.6083131702321225	n/a	n/a	n/a	n/a
192.21484375	0.2	393656	162	40	1	0	0	69	174	stimuli\Videos_short_600ms_horflip\86.touch_top_to_bottom_with_hair_brush_short_horflip_short_600ms.mp4	86.touch_top_to_bottom_with_hair_brush_short_horflip_short_600ms.mp4	253.9582731568248	254.56660186909085	0.6083287122660295	n/a	n/a	n/a	n/a
193.0146484375	0.2	395294	163	40	1	0	0	70	16	stimuli\Videos_short_600ms\24.single_stroke_top_to_bottom_with_a_spoon_short_short_600ms.mp4	24.single_stroke_top_to_bottom_with_a_spoon_short_short_600ms.mp4	254.7582808985171	255.36661283648849	0.608331937971343	n/a	n/a	n/a	n/a
193.814453125	0.2	396932	164	40	1	0	0	71	101	stimuli\Videos_short_600ms_horflip\2.single_touch_with_finger_short_horflip_short_600ms.mp4	2.single_touch_with_finger_short_horflip_short_600ms.mp4	255.55826518053527	256.1665991712284	0.6083339906931542	n/a	n/a	n/a	n/a
194.61474609375	0.2	398571	165	40	1	0	0	72	163	stimuli\Videos_short_600ms_horflip\76.tickle_with_fingers_from_top_to_bottom_short_horflip_short_600ms.mp4	76.tickle_with_fingers_from_top_to_bottom_short_horflip_short_600ms.mp4	256.3582515152748	256.9665761220981	0.6083246068233166	n/a	n/a	n/a	n/a
195.41455078125	0.2	400209	166	40	1	0	0	73	92	stimuli\Videos_short_600ms_horflip\11.single_touch_with_lighter_short_horflip_short_600ms.mp4	11.single_touch_with_lighter_short_horflip_short_600ms.mp4	257.1584208354752	257.766560990608	0.6081401551327872	n/a	n/a	n/a	n/a
196.21435546875	0.2	401847	167	40	1	0	0	74	141	stimuli\Videos_short_600ms_horflip\56.repeated_touch_with_nail_file_short_horflip_short_600ms.mp4	56.repeated_touch_with_nail_file_short_horflip_short_600ms.mp4	257.958284593416	258.566549671315	0.6082650778989773	n/a	n/a	n/a	n/a
197.0146484375	0.2	403486	168	40	1	0	0	75	310	stimuli\Videos_short_600ms_vertflip\46.scratching_top_to_bottom_with_finger_nails_short_vertflip_short_600ms.mp4	46.scratching_top_to_bottom_with_finger_nails_short_vertflip_short_600ms.mp4	258.75818999227886	259.36653424657925	0.6083442543003912	n/a	n/a	n/a	n/a
197.814453125	0.2	405124	169	40	1	0	1	76	380	stimuli\Targets_short_600ms_vertflip\chopstickwood-tap_short_horvertflip_short_600ms.mp4	chopstickwood-tap_short_horvertflip_short_600ms.mp4	259.558174274297	260.16651940833526	0.6083451340382453	n/a	n/a	n/a	n/a
198.6142578125	0.2	406762	170	40	1	0	0	77	31	stimuli\Videos_short_600ms\38.double_slap_with_pencil_short_short_600ms.mp4	38.double_slap_with_pencil_short_short_600ms.mp4	260.35816178202003	260.9665104350097	0.6083486529896618	n/a	n/a	n/a	n/a
199.41455078125	0.2	408401	171	40	1	0	0	78	259	stimuli\Videos_short_600ms_horvertflip\81.single_stroke_top_to_bottom_with_cotton_pad_short_horvertflip_short_600ms.mp4	81.single_stroke_top_to_bottom_with_cotton_pad_short_horvertflip_short_600ms.mp4	261.1581334544635	261.7664920778143	0.6083586233507958	n/a	n/a	n/a	n/a
200.21435546875	0.2	410039	172	40	1	0	0	79	82	stimuli\Videos_short_600ms\84.single_touch_with_cotton_bud_short_short_600ms.mp4	84.single_touch_with_cotton_bud_short_short_600ms.mp4	261.95811245805453	262.566478999046	0.6083665409914829	n/a	n/a	n/a	n/a
201.01416015625	0.2	411677	173	40	1	0	0	80	285	stimuli\Videos_short_600ms_vertflip\23.single_push_with_a_spoon_short_vertflip_short_600ms.mp4	23.single_push_with_a_spoon_short_vertflip_short_600ms.mp4	262.75810964289394	263.3664679729991	0.6083583301051476	n/a	n/a	n/a	n/a
201.814453125	0.2	413316	174	40	1	0	0	81	190	stimuli\Videos_short_600ms_horvertflip\19.single_touch_with_rolling_pin_short_horvertflip_short_600ms.mp4	19.single_touch_with_rolling_pin_short_horvertflip_short_600ms.mp4	263.55812061029155	264.1664481495741	0.6083275392825271	n/a	n/a	n/a	n/a
202.6142578125	0.2	414954	175	40	1	0	0	82	171	stimuli\Videos_short_600ms_horflip\83.single_stroke_top_to_bottom_with_cotton_bud_short_horflip_short_600ms.mp4	83.single_stroke_top_to_bottom_with_cotton_bud_short_horflip_short_600ms.mp4	264.3581133964417	264.9664435749378	0.6083301784960895	n/a	n/a	n/a	n/a
203.4140625	0.2	416592	176	40	1	0	0	83	139	stimuli\Videos_short_600ms_horflip\54.repeated_touch_with_knife_short_horflip_short_600ms.mp4	54.repeated_touch_with_knife_short_horflip_short_600ms.mp4	265.15809621223025	265.7664228717749	0.608326659544673	n/a	n/a	n/a	n/a
204.21435546875	0.2	418231	177	40	1	0	0	84	197	stimuli\Videos_short_600ms_horvertflip\25.single_touch_with_stanley_knife_short_horvertflip_short_600ms.mp4	25.single_touch_with_stanley_knife_short_horvertflip_short_600ms.mp4	265.9582221320329	266.56638604008594	0.6081639080530294	n/a	n/a	n/a	n/a
205.01416015625	0.2	419869	178	40	1	0	0	85	35	stimuli\Videos_short_600ms\41.injection_with_blunt_syringe_short_short_600ms.mp4	41.injection_with_blunt_syringe_short_short_600ms.mp4	266.7580680019719	267.3663471556756	0.6082791537037338	n/a	n/a	n/a	n/a
205.81396484375	0.2	421507	179	40	1	0	0	86	38	stimuli\Videos_short_600ms\44.pushing_top_to_bottom_with_finger_short_short_600ms.mp4	44.pushing_top_to_bottom_with_finger_short_short_600ms.mp4	267.55846458776796	268.16638070300996	0.6079161152420056	n/a	n/a	n/a	n/a
206.6142578125	0.2	423146	180	40	1	0	0	87	280	stimuli\Videos_short_600ms_vertflip\19.single_touch_with_rolling_pin_short_vertflip_short_600ms.mp4	19.single_touch_with_rolling_pin_short_vertflip_short_600ms.mp4	268.35803832548345	268.96634475105884	0.6083064255753925	n/a	n/a	n/a	n/a
207.4140625	0.2	424784	181	40	1	0	0	88	282	stimuli\Videos_short_600ms_vertflip\20.single_touch_with_screwdriver_short_vertflip_short_600ms.mp4	20.single_touch_with_screwdriver_short_vertflip_short_600ms.mp4	269.15802876566613	269.766329033077	0.6083002674108684	n/a	n/a	n/a	n/a
208.21435546875	0.2	426423	182	40	1	0	1	89	379	stimuli\Targets_short_600ms_vertflip\chopstick-silver-tap_short_horvertflip_short_600ms.mp4	chopstick-silver-tap_short_horvertflip_short_600ms.mp4	269.95801070171683	270.56631771378443	0.6083070120675984	n/a	n/a	n/a	n/a
209.01416015625	0.2	428061	183	40	1	0	0	90	298	stimuli\Videos_short_600ms_vertflip\35.single_punch_with_hand_short_vertflip_short_600ms.mp4	35.single_punch_with_hand_short_vertflip_short_600ms.mp4	270.7579750430118	271.36633190688735	0.6083568638755423	n/a	n/a	n/a	n/a
209.81396484375	0.2	429699	184	40	1	0	0	91	331	stimuli\Videos_short_600ms_vertflip\65.stroke_top_to_bottom_with_stanley_knife_short_vertflip_short_600ms.mp4	65.stroke_top_to_bottom_with_stanley_knife_short_vertflip_short_600ms.mp4	271.5579827847041	272.1663112037245	0.6083284190203813	n/a	n/a	n/a	n/a
210.6142578125	0.2	431338	185	40	1	0	0	92	353	stimuli\Videos_short_600ms_vertflip\85.touch_top_to_bottom_with_fabric_short_vertflip_short_600ms.mp4	85.touch_top_to_bottom_with_fabric_short_vertflip_short_600ms.mp4	272.3580491755829	272.96627261256026	0.6082234369773687	n/a	n/a	n/a	n/a
211.4140625	0.2	432976	186	40	1	0	0	93	234	stimuli\Videos_short_600ms_horvertflip\59.single_push_with_long_side_pencil_short_horvertflip_short_600ms.mp4	59.single_push_with_long_side_pencil_short_horvertflip_short_600ms.mp4	273.1583929771118	273.76628357995787	0.6078906028460551	n/a	n/a	n/a	n/a
212.2138671875	0.2	434614	187	40	1	0	0	94	24	stimuli\Videos_short_600ms\31.hand_grabbing_wrist_short_short_600ms.mp4	31.hand_grabbing_wrist_short_short_600ms.mp4	273.95794442813667	274.5662699146974	0.608325486560716	n/a	n/a	n/a	n/a
213.01416015625	0.2	436253	188	40	1	0	0	95	58	stimuli\Videos_short_600ms\62.touch_top_to_bottom_with_scissors_short_short_600ms.mp4	62.touch_top_to_bottom_with_scissors_short_short_600ms.mp4	274.7579251912034	275.3662550764534	0.6083298852499865	n/a	n/a	n/a	n/a
213.81396484375	0.2	437891	189	40	1	0	0	96	99	stimuli\Videos_short_600ms_horflip\18.single_stroke_from_top_to_bottom_with_rolling_pin_short_horflip_short_600ms.mp4	18.single_stroke_from_top_to_bottom_with_rolling_pin_short_horflip_short_600ms.mp4	275.55792120305887	276.16618979990926	0.6082685968503938	n/a	n/a	n/a	n/a
214.61376953125	0.2	439529	190	40	1	0	0	97	247	stimuli\Videos_short_600ms_horvertflip\70.(long)stroke_with_finger_all_over_the_hand_short_horvertflip_short_600ms.mp4	70.(long)stroke_with_finger_all_over_the_hand_short_horvertflip_short_600ms.mp4	276.3588998820269	276.9662262797033	0.6073263976763883	8.0	8.0	1.901792817644946	1.0
245.6796875	0.2	503152	191	40	2	0	0	0	161	stimuli\Videos_short_600ms_horflip\74.fingers_walking_from_top_to_bottom_short_horflip_short_600ms.mp4	74.fingers_walking_from_top_to_bottom_short_horflip_short_600ms.mp4	307.4240198328089	308.0323030919558	0.6082832591469014	n/a	n/a	n/a	n/a
246.4794921875	0.2	504790	192	40	2	0	0	1	160	stimuli\Videos_short_600ms_horflip\73.single_stroke_with_flat_hand_short_horflip_short_600ms.mp4	73.single_stroke_with_flat_hand_short_horflip_short_600ms.mp4	308.22394869134587	308.8322961713516	0.6083474800057047	n/a	n/a	n/a	n/a
247.279296875	0.2	506428	193	40	2	0	0	2	51	stimuli\Videos_short_600ms\56.repeated_touch_with_nail_file_short_short_600ms.mp4	56.repeated_touch_with_nail_file_short_short_600ms.mp4	309.0239845846477	309.63226931002464	0.6082847253769614	n/a	n/a	n/a	n/a
248.07958984375	0.2	508067	194	40	2	0	0	3	319	stimuli\Videos_short_600ms_vertflip\54.repeated_touch_with_knife_short_vertflip_short_600ms.mp4	54.repeated_touch_with_knife_short_vertflip_short_600ms.mp4	309.82396915991194	310.4322579907316	0.6082888308196743	n/a	n/a	n/a	n/a
248.87939453125	0.2	509705	195	40	2	0	0	4	250	stimuli\Videos_short_600ms_horvertflip\73.single_stroke_with_flat_hand_short_horvertflip_short_600ms.mp4	73.single_stroke_with_flat_hand_short_horvertflip_short_600ms.mp4	310.62395285543835	311.232258694522	0.6083058390836413	n/a	n/a	n/a	n/a
249.6796875	0.2	511344	196	40	2	0	0	5	69	stimuli\Videos_short_600ms\72.(short)stroke_with_finger_all_over_the_hand_short_short_600ms.mp4	72.(short)stroke_with_finger_all_over_the_hand_short_short_600ms.mp4	311.4239629430981	312.0322614510337	0.6082985079356149	n/a	n/a	n/a	n/a
250.4794921875	0.2	512982	197	40	2	0	0	6	227	stimuli\Videos_short_600ms_horvertflip\52.touch_top_to_bottom_with_hammer_short_horvertflip_short_600ms.mp4	52.touch_top_to_bottom_with_hammer_short_horvertflip_short_600ms.mp4	312.2244387052956	312.8322287247879	0.6077900194923131	n/a	n/a	n/a	n/a
251.279296875	0.2	514620	198	40	2	0	0	7	207	stimuli\Videos_short_600ms_horvertflip\34.repeated_punch_with_hand_short_horvertflip_short_600ms.mp4	34.repeated_punch_with_hand_short_horvertflip_short_600ms.mp4	313.02402651881584	313.6322402786773	0.6082137598614281	n/a	n/a	n/a	n/a
252.07958984375	0.2	516259	199	40	2	0	0	8	186	stimuli\Videos_short_600ms_horvertflip\15.single_stroke_top_to_bottom_with_a_plastic_whisk_short_horvertflip_short_600ms.mp4	15.single_stroke_top_to_bottom_with_a_plastic_whisk_short_horvertflip_short_600ms.mp4	313.8239017133478	314.4322257336794	0.6083240203315654	n/a	n/a	n/a	n/a
252.87939453125	0.2	517897	200	40	2	0	0	9	27	stimuli\Videos_short_600ms\34.repeated_punch_with_hand_short_short_600ms.mp4	34.repeated_punch_with_hand_short_short_600ms.mp4	314.623861655954	315.2322103089432	0.608348652989207	n/a	n/a	n/a	n/a
253.67919921875	0.2	519535	201	40	2	0	1	10	363	stimuli\Targets_short_600ms\finger-tap_short_short_600ms.mp4	finger-tap_short_short_600ms.mp4	315.424586383946	316.03220778702826	0.6076214030822484	n/a	n/a	n/a	n/a
254.4794921875	0.2	521174	202	40	2	0	0	11	189	stimuli\Videos_short_600ms_horvertflip\18.single_stroke_from_top_to_bottom_with_rolling_pin_short_horvertflip_short_600ms.mp4	18.single_stroke_from_top_to_bottom_with_rolling_pin_short_horvertflip_short_600ms.mp4	316.22407801280133	316.83215365382966	0.6080756410283357	n/a	n/a	n/a	n/a
255.279296875	0.2	522812	203	40	2	0	0	12	66	stimuli\Videos_short_600ms\7.repeated_touch_with_hairbrush_short_short_600ms.mp4	7.repeated_touch_with_hairbrush_short_short_600ms.mp4	317.02384558607673	317.63216667394863	0.6083210878719001	n/a	n/a	n/a	n/a
256.0791015625	0.2	524450	204	40	2	0	1	13	373	stimuli\Targets_short_600ms_horvertflip\chopstick-silver-tap_short_vertflip_short_600ms.mp4	chopstick-silver-tap_short_vertflip_short_600ms.mp4	317.82379907727227	318.4321093150447	0.6083102377724572	n/a	n/a	n/a	n/a
256.87939453125	0.2	526089	205	40	2	0	0	14	314	stimuli\Videos_short_600ms_vertflip\5.repeated_tap_with_finger_moving_from_top_to_bottom_short_vertflip_short_600ms.mp4	5.repeated_tap_with_finger_moving_from_top_to_bottom_short_vertflip_short_600ms.mp4	318.623771336207	319.2321405164121	0.6083691802050453	n/a	n/a	n/a	n/a
257.67919921875	0.2	527727	206	40	2	0	0	15	123	stimuli\Videos_short_600ms_horflip\4.repeated_tap_with_finger_slow_short_horflip_short_600ms.mp4	4.repeated_tap_with_finger_slow_short_horflip_short_600ms.mp4	319.4237462343558	320.0322054410608	0.6084592067049925	n/a	n/a	n/a	n/a
258.47900390625	0.2	529365	207	40	2	0	0	16	240	stimuli\Videos_short_600ms_horvertflip\64.repeated_touch_with_screwdriver_short_horvertflip_short_600ms.mp4	64.repeated_touch_with_screwdriver_short_horvertflip_short_600ms.mp4	320.2237918047731	320.8321958812435	0.6084040764703786	n/a	n/a	n/a	n/a
259.279296875	0.2	531004	208	40	2	0	0	17	333	stimuli\Videos_short_600ms_vertflip\67.single_touch_with_sponge_short_vertflip_short_600ms.mp4	67.single_touch_with_sponge_short_vertflip_short_600ms.mp4	321.0237540933467	321.63209776115536	0.60834366780864	n/a	n/a	n/a	n/a
260.0791015625	0.2	532642	209	40	2	0	0	18	187	stimuli\Videos_short_600ms_horvertflip\16.repeated_touch_with_plastic_brush_short_horvertflip_short_600ms.mp4	16.repeated_touch_with_plastic_brush_short_horvertflip_short_600ms.mp4	321.8237676999579	322.43204157523496	0.6082738752770638	n/a	n/a	n/a	n/a
260.87890625	0.2	534280	210	40	2	0	0	19	312	stimuli\Videos_short_600ms_vertflip\48.single_slap_with_hand_short_vertflip_short_600ms.mp4	48.single_slap_with_hand_short_vertflip_short_600ms.mp4	322.62393614042	323.23204667771415	0.6081105372941238	n/a	n/a	n/a	n/a
261.67919921875	0.2	535919	211	40	2	0	0	20	201	stimuli\Videos_short_600ms_horvertflip\29.single_pinch_with_tweezers_short_horvertflip_short_600ms.mp4	29.single_pinch_with_tweezers_short_horvertflip_short_600ms.mp4	323.42372893284573	324.0320042743524	0.6082753415066691	n/a	n/a	n/a	n/a
262.47900390625	0.2	537557	212	40	2	0	0	21	220	stimuli\Videos_short_600ms_horvertflip\46.scratching_top_to_bottom_with_finger_nails_short_horvertflip_short_600ms.mp4	46.scratching_top_to_bottom_with_finger_nails_short_horvertflip_short_600ms.mp4	324.22378242090326	324.83199002260017	0.608207601696904	n/a	n/a	n/a	n/a
263.27880859375	0.2	539195	213	40	2	0	0	22	305	stimuli\Videos_short_600ms_vertflip\41.injection_with_blunt_syringe_short_vertflip_short_600ms.mp4	41.injection_with_blunt_syringe_short_vertflip_short_600ms.mp4	325.0237664096758	325.63199219262015	0.6082257829443733	n/a	n/a	n/a	n/a
264.0791015625	0.2	540834	214	40	2	0	0	23	287	stimuli\Videos_short_600ms_vertflip\25.single_touch_with_stanley_knife_short_vertflip_short_600ms.mp4	25.single_touch_with_stanley_knife_short_vertflip_short_600ms.mp4	325.82372869824894	326.4319926031644	0.608263904915475	n/a	n/a	n/a	n/a
264.87890625	0.2	542472	215	40	2	0	0	24	45	stimuli\Videos_short_600ms\50.single_(long)hard_push_with_thumb_short_short_600ms.mp4	50.single_(long)hard_push_with_thumb_short_short_600ms.mp4	326.62367309882075	327.2319818703636	0.6083087715428519	n/a	n/a	n/a	n/a
265.6787109375	0.2	544110	216	40	2	0	0	25	224	stimuli\Videos_short_600ms_horvertflip\5.repeated_tap_with_finger_moving_from_top_to_bottom_short_horvertflip_short_600ms.mp4	5.repeated_tap_with_finger_moving_from_top_to_bottom_short_horvertflip_short_600ms.mp4	327.42365327539574	328.0319969432044	0.60834366780864	n/a	n/a	n/a	n/a
266.47900390625	0.2	545749	217	40	2	0	0	26	204	stimuli\Videos_short_600ms_horvertflip\31.hand_grabbing_wrist_short_horvertflip_short_600ms.mp4	31.hand_grabbing_wrist_short_horvertflip_short_600ms.mp4	328.22366746849866	328.83196538994207	0.608297921443409	n/a	n/a	n/a	n/a
267.27880859375	0.2	547387	218	40	2	0	0	27	278	stimuli\Videos_short_600ms_vertflip\17.repeated_touch_with_rolling_pin_short_vertflip_short_600ms.mp4	17.repeated_touch_with_rolling_pin_short_vertflip_short_600ms.mp4	329.02362594487477	329.6319523111738	0.6083263662990248	n/a	n/a	n/a	n/a
268.07861328125	0.2	549025	219	40	2	0	0	28	297	stimuli\Videos_short_600ms_vertflip\34.repeated_punch_with_hand_short_vertflip_short_600ms.mp4	34.repeated_punch_with_hand_short_vertflip_short_600ms.mp4	329.8237266455276	330.4319128402717	0.6081861947441212	n/a	n/a	n/a	n/a
268.87890625	0.2	550664	220	40	2	0	0	29	251	stimuli\Videos_short_600ms_horvertflip\74.fingers_walking_from_top_to_bottom_short_horvertflip_short_600ms.mp4	74.fingers_walking_from_top_to_bottom_short_horvertflip_short_600ms.mp4	330.62363673632535	331.23192175494796	0.6082850186226096	n/a	n/a	n/a	n/a
269.6787109375	0.2	552302	221	40	2	0	0	30	196	stimuli\Videos_short_600ms_horvertflip\24.single_stroke_top_to_bottom_with_a_spoon_short_horvertflip_short_600ms.mp4	24.single_stroke_top_to_bottom_with_a_spoon_short_horvertflip_short_600ms.mp4	331.4241391839023	332.0319107289006	0.6077715449982861	n/a	n/a	n/a	n/a
270.47900390625	0.2	553941	222	40	2	0	0	31	41	stimuli\Videos_short_600ms\47.(long)scratching_with_finger_nails_short_short_600ms.mp4	47.(long)scratching_with_finger_nails_short_short_600ms.mp4	332.22357275006334	332.83189354468914	0.6083207946257971	n/a	n/a	n/a	n/a
271.27880859375	0.2	555579	223	40	2	0	0	32	304	stimuli\Videos_short_600ms_vertflip\40.repeated_push_with_finger_short_vertflip_short_600ms.mp4	40.repeated_push_with_finger_short_vertflip_short_600ms.mp4	333.0235898756255	333.6319115499896	0.608321674364106	n/a	n/a	n/a	n/a
272.07861328125	0.2	557217	224	40	2	0	0	33	199	stimuli\Videos_short_600ms_horvertflip\27.single_push_with_a_plastic_whisk_short_horvertflip_short_600ms.mp4	27.single_push_with_a_plastic_whisk_short_horvertflip_short_600ms.mp4	333.8234993799315	334.4318409950183	0.6083416150868288	n/a	n/a	n/a	n/a
272.87890625	0.2	558856	225	40	2	0	0	34	335	stimuli\Videos_short_600ms_vertflip\69.stroke_with_soft_sock_short_vertflip_short_600ms.mp4	69.stroke_with_soft_sock_short_vertflip_short_600ms.mp4	334.62347339834196	335.2318504961868	0.6083770978448229	n/a	n/a	n/a	n/a
273.6787109375	0.2	560494	226	40	2	0	0	35	350	stimuli\Videos_short_600ms_vertflip\82.repeated_touch_with_cotton_bud_short_vertflip_short_600ms.mp4	82.repeated_touch_with_cotton_bud_short_vertflip_short_600ms.mp4	335.4234925766259	336.03183947013986	0.6083468935139535	n/a	n/a	n/a	n/a
274.478515625	0.2	562132	227	40	2	0	0	36	114	stimuli\Videos_short_600ms_horflip\31.hand_grabbing_wrist_short_horflip_short_600ms.mp4	31.hand_grabbing_wrist_short_horflip_short_600ms.mp4	336.22347656539796	336.8318234589119	0.6083468935139535	n/a	n/a	n/a	n/a
275.27880859375	0.2	563771	228	40	2	0	0	37	205	stimuli\Videos_short_600ms_horvertflip\32.single_(long)pinch_with_fingers_short_horvertflip_short_600ms.mp4	32.single_(long)pinch_with_fingers_short_horvertflip_short_600ms.mp4	337.0237623042326	337.6318103801432	0.608048075910574	n/a	n/a	n/a	n/a
276.07861328125	0.2	565409	229	40	2	0	0	38	246	stimuli\Videos_short_600ms_horvertflip\7.repeated_touch_with_hairbrush_short_horvertflip_short_600ms.mp4	7.repeated_touch_with_hairbrush_short_horvertflip_short_600ms.mp4	337.8235237193435	338.4317738417003	0.6082501223568215	n/a	n/a	n/a	n/a
276.87841796875	0.2	567047	230	40	2	0	0	39	172	stimuli\Videos_short_600ms_horflip\84.single_touch_with_cotton_bud_short_horflip_short_600ms.mp4	84.single_touch_with_cotton_bud_short_horflip_short_600ms.mp4	338.6234346898791	339.231731438339	0.6082967484599067	n/a	n/a	n/a	n/a
277.6787109375	0.2	568686	231	40	2	0	0	40	131	stimuli\Videos_short_600ms_horflip\47.(long)scratching_with_finger_nails_short_horflip_short_600ms.mp4	47.(long)scratching_with_finger_nails_short_horflip_short_600ms.mp4	339.4234482964903	340.0317758357728	0.6083275392825271	n/a	n/a	n/a	n/a
278.478515625	0.2	570324	232	40	2	0	0	41	235	stimuli\Videos_short_600ms_horvertflip\6.single_touch_with_flat_hand_short_horvertflip_short_600ms.mp4	6.single_touch_with_flat_hand_short_horvertflip_short_600ms.mp4	340.22345897064224	340.8317727273661	0.6083137567238737	n/a	n/a	n/a	n/a
279.2783203125	0.2	571962	233	40	2	0	0	42	8	stimuli\Videos_short_600ms\17.repeated_touch_with_rolling_pin_short_short_600ms.mp4	17.repeated_touch_with_rolling_pin_short_short_600ms.mp4	341.0234626068918	341.6318089139136	0.6083463070217476	n/a	n/a	n/a	n/a
280.07861328125	0.2	573601	234	40	2	0	0	43	277	stimuli\Videos_short_600ms_vertflip\16.repeated_touch_with_plastic_brush_short_vertflip_short_600ms.mp4	16.repeated_touch_with_plastic_brush_short_vertflip_short_600ms.mp4	341.8233938113963	342.4317066883823	0.6083128769860195	n/a	n/a	n/a	n/a
280.87841796875	0.2	575239	235	40	2	0	0	44	100	stimuli\Videos_short_600ms_horflip\19.single_touch_with_rolling_pin_short_horflip_short_600ms.mp4	19.single_touch_with_rolling_pin_short_horflip_short_600ms.mp4	342.6233839583333	343.2317123773537	0.6083284190203813	n/a	n/a	n/a	n/a
281.67822265625	0.2	576877	236	40	2	0	0	45	48	stimuli\Videos_short_600ms\53.touch_top_to_bottom_with_knife_short_short_600ms.mp4	53.touch_top_to_bottom_with_knife_short_short_600ms.mp4	343.423343900939	344.03169636612574	0.6083524651867265	n/a	n/a	n/a	n/a
282.478515625	0.2	578516	237	40	2	0	1	46	367	stimuli\Targets_short_600ms_horflip\chopstick-silver-tap_short_horflip_short_600ms.mp4	chopstick-silver-tap_short_horflip_short_600ms.mp4	344.2233463642051	344.8316803548978	0.6083339906926994	n/a	n/a	n/a	n/a
283.2783203125	0.2	580154	238	40	2	0	0	47	233	stimuli\Videos_short_600ms_horvertflip\58.single_slap_with_pencil_short_horvertflip_short_600ms.mp4	58.single_slap_with_pencil_short_horvertflip_short_600ms.mp4	345.02333885710914	345.63166493016206	0.6083260730529219	n/a	n/a	n/a	n/a
284.078125	0.2	581792	239	40	2	0	0	48	124	stimuli\Videos_short_600ms_horflip\40.repeated_push_with_finger_short_horflip_short_600ms.mp4	40.repeated_push_with_finger_short_horflip_short_600ms.mp4	345.8233313500132	346.4316283917192	0.6082970417060096	n/a	n/a	n/a	n/a
284.87841796875	0.2	583431	240	40	2	0	0	49	261	stimuli\Videos_short_600ms_horvertflip\83.single_stroke_top_to_bottom_with_cotton_bud_short_horvertflip_short_600ms.mp4	83.single_stroke_top_to_bottom_with_cotton_bud_short_horvertflip_short_600ms.mp4	346.62326783294475	347.23163173472267	0.6083639017779205	n/a	n/a	n/a	n/a
285.67822265625	0.2	585069	241	40	2	0	0	50	28	stimuli\Videos_short_600ms\35.single_punch_with_hand_short_short_600ms.mp4	35.single_punch_with_hand_short_short_600ms.mp4	347.42328759772045	348.03162188165925	0.6083342839388024	n/a	n/a	n/a	n/a
286.47802734375	0.2	586707	242	40	2	0	0	51	73	stimuli\Videos_short_600ms\76.tickle_with_fingers_from_top_to_bottom_short_short_600ms.mp4	76.tickle_with_fingers_from_top_to_bottom_short_short_600ms.mp4	348.22325809717995	348.8316108556123	0.6083527584323747	n/a	n/a	n/a	n/a
287.2783203125	0.2	588346	243	40	2	0	0	52	55	stimuli\Videos_short_600ms\6.single_touch_with_flat_hand_short_short_600ms.mp4	6.single_touch_with_flat_hand_short_short_600ms.mp4	349.02322507768804	349.63156551979137	0.6083404421033265	n/a	n/a	n/a	n/a
288.078125	0.2	589984	244	40	2	0	0	53	181	stimuli\Videos_short_600ms_horvertflip\10.single_touch_with_knife_short_horvertflip_short_600ms.mp4	10.single_touch_with_knife_short_horvertflip_short_600ms.mp4	349.82323457885605	350.4316512649016	0.6084166860455298	n/a	n/a	n/a	n/a
288.87841796875	0.2	591623	245	40	2	0	0	54	127	stimuli\Videos_short_600ms_horflip\43.touch_top_to_bottom_with_sharp_wooden_stick_short_horflip_short_600ms.mp4	43.touch_top_to_bottom_with_sharp_wooden_stick_short_horflip_short_600ms.mp4	350.62319686742967	351.23156722061776	0.6083703531880928	n/a	n/a	n/a	n/a
289.67822265625	0.2	593261	246	40	2	0	0	55	269	stimuli\Videos_short_600ms_horvertflip\90.repeated_touch_with_sponge_short_horvertflip_short_600ms.mp4	90.repeated_touch_with_sponge_short_horvertflip_short_600ms.mp4	351.42322161738593	352.03161748297043	0.6083958655844981	n/a	n/a	n/a	n/a
290.47802734375	0.2	594899	247	40	2	0	0	56	308	stimuli\Videos_short_600ms_vertflip\44.pushing_top_to_bottom_with_finger_short_vertflip_short_600ms.mp4	44.pushing_top_to_bottom_with_finger_short_vertflip_short_600ms.mp4	352.2231915303537	352.8315900351513	0.6083985047976057	n/a	n/a	n/a	n/a
291.2783203125	0.2	596538	248	40	2	0	0	57	180	stimuli\Videos_short_600ms_horvertflip\1.repeated_touch_with_finger_fast_short_horvertflip_short_600ms.mp4	1.repeated_touch_with_finger_fast_short_horvertflip_short_600ms.mp4	353.0231796245689	353.6315007124408	0.6083210878719001	n/a	n/a	n/a	n/a
292.078125	0.2	598176	249	40	2	0	0	58	209	stimuli\Videos_short_600ms_horvertflip\36.single_slap_with_full_hand_short_horvertflip_short_600ms.mp4	36.single_slap_with_full_hand_short_horvertflip_short_600ms.mp4	353.82316038763565	354.4315043486904	0.608343961054743	n/a	n/a	n/a	n/a
292.8779296875	0.2	599814	250	40	2	0	0	59	208	stimuli\Videos_short_600ms_horvertflip\35.single_punch_with_hand_short_horvertflip_short_600ms.mp4	35.single_punch_with_hand_short_horvertflip_short_600ms.mp4	354.6231678360823	355.23144581680253	0.6082779807202314	n/a	n/a	n/a	n/a
293.67822265625	0.2	601453	251	40	2	0	0	60	202	stimuli\Videos_short_600ms_horvertflip\3.single_push_with_finger_short_horvertflip_short_600ms.mp4	3.single_push_with_finger_short_horvertflip_short_600ms.mp4	355.42315358433007	356.03145150577393	0.6082979214438637	n/a	n/a	n/a	n/a
294.47802734375	0.2	603091	252	40	2	0	0	61	215	stimuli\Videos_short_600ms_horvertflip\41.injection_with_blunt_syringe_short_horvertflip_short_600ms.mp4	41.injection_with_blunt_syringe_short_horvertflip_short_600ms.mp4	356.2231416785453	356.831464819139	0.6083231405937113	n/a	n/a	n/a	n/a
295.27783203125	0.2	604729	253	40	2	0	1	62	366	stimuli\Targets_short_600ms_horflip\brush-stroke_short_horflip_short_600ms.mp4	brush-stroke_short_horflip_short_600ms.mp4	357.023123614596	357.6314059940055	0.608282379409502	n/a	n/a	n/a	n/a
296.078125	0.2	606368	254	40	2	0	0	63	23	stimuli\Videos_short_600ms\30.finger_pulling_back_another_finger_short_short_600ms.mp4	30.finger_pulling_back_another_finger_short_short_600ms.mp4	357.8231269575999	358.4314421805534	0.608315222953479	n/a	n/a	n/a	n/a
296.8779296875	0.2	608006	255	40	2	0	0	64	81	stimuli\Videos_short_600ms\83.single_stroke_top_to_bottom_with_cotton_bud_short_short_600ms.mp4	83.single_stroke_top_to_bottom_with_cotton_bud_short_short_600ms.mp4	358.62309012591095	359.2314203044066	0.6083301784956348	n/a	n/a	n/a	n/a
297.677734375	0.2	609644	256	40	2	0	0	65	156	stimuli\Videos_short_600ms_horflip\7.repeated_touch_with_hairbrush_short_horflip_short_600ms.mp4	7.repeated_touch_with_hairbrush_short_horflip_short_600ms.mp4	359.4230908297013	360.0314072256383	0.6083163959369813	n/a	n/a	n/a	n/a
298.47802734375	0.2	611283	257	40	2	0	0	66	98	stimuli\Videos_short_600ms_horflip\17.repeated_touch_with_rolling_pin_short_horflip_short_600ms.mp4	17.repeated_touch_with_rolling_pin_short_horflip_short_600ms.mp4	360.22306250214433	360.8313912144104	0.6083287122660295	n/a	n/a	n/a	n/a
299.27783203125	0.2	612921	258	40	2	0	0	67	47	stimuli\Videos_short_600ms\52.touch_top_to_bottom_with_hammer_short_short_600ms.mp4	52.touch_top_to_bottom_with_hammer_short_short_600ms.mp4	361.0230453179329	361.6313784288878	0.6083331109548453	n/a	n/a	n/a	n/a
300.07763671875	0.2	614559	259	40	2	0	0	68	268	stimuli\Videos_short_600ms_horvertflip\9.single_touch_with_hammer_short_horvertflip_short_600ms.mp4	9.single_touch_with_hammer_short_horvertflip_short_600ms.mp4	361.82304279601794	362.4313627109059	0.608319914887943	n/a	n/a	n/a	n/a
300.8779296875	0.2	616198	260	40	2	0	0	69	110	stimuli\Videos_short_600ms_horflip\28.single_injection_with_sharp_needle_short_horflip_short_600ms.mp4	28.single_injection_with_sharp_needle_short_horflip_short_600ms.mp4	362.6230012723941	363.2313510983672	0.6083498259731641	n/a	n/a	n/a	n/a
301.677734375	0.2	617836	261	40	2	0	0	70	40	stimuli\Videos_short_600ms\46.scratching_top_to_bottom_with_finger_nails_short_short_600ms.mp4	46.scratching_top_to_bottom_with_finger_nails_short_short_600ms.mp4	363.42297998273943	364.0313365533689	0.6083565706294394	n/a	n/a	n/a	n/a
302.4775390625	0.2	619474	262	40	2	0	0	71	132	stimuli\Videos_short_600ms_horflip\48.single_slap_with_hand_short_horflip_short_600ms.mp4	48.single_slap_with_hand_short_horflip_short_600ms.mp4	364.2229528281664	364.8313184894196	0.608365661253174	n/a	n/a	n/a	n/a
303.27783203125	0.2	621113	263	40	2	0	0	72	230	stimuli\Videos_short_600ms_horvertflip\55.touch_top_to_bottom_with_nail_file_short_horvertflip_short_600ms.mp4	55.touch_top_to_bottom_with_nail_file_short_horvertflip_short_600ms.mp4	365.0229667280232	365.6313054106513	0.608338682628073	n/a	n/a	n/a	n/a
304.07763671875	0.2	622751	264	40	2	0	0	73	72	stimuli\Videos_short_600ms\75.(long)stroke_with_fingers_all_over_the_hand_short_short_600ms.mp4	75.(long)stroke_with_fingers_all_over_the_hand_short_short_600ms.mp4	365.8229381072206	366.4312905724073	0.6083524651867265	n/a	n/a	n/a	n/a
304.87744140625	0.2	624389	265	40	2	0	0	74	337	stimuli\Videos_short_600ms_vertflip\70.(long)stroke_with_finger_all_over_the_hand_short_vertflip_short_600ms.mp4	70.(long)stroke_with_finger_all_over_the_hand_short_vertflip_short_600ms.mp4	366.6229267879275	367.2312772003929	0.60835041246537	n/a	n/a	n/a	n/a
305.677734375	0.2	626028	266	40	2	0	0	75	345	stimuli\Videos_short_600ms_vertflip\78.single_stroke_top_to_bottom_with_soft_brush_short_vertflip_short_600ms.mp4	78.single_stroke_top_to_bottom_with_soft_brush_short_vertflip_short_600ms.mp4	367.4229301309315	368.0312377294904	0.6083075985588948	n/a	n/a	n/a	n/a
306.4775390625	0.2	627666	267	40	2	0	0	76	9	stimuli\Videos_short_600ms\18.single_stroke_from_top_to_bottom_with_rolling_pin_short_short_600ms.mp4	18.single_stroke_from_top_to_bottom_with_rolling_pin_short_short_600ms.mp4	368.2229059088172	368.8312202520328	0.6083143432156248	n/a	n/a	n/a	n/a
307.27734375	0.2	629304	268	40	2	0	0	77	355	stimuli\Videos_short_600ms_vertflip\87.single_stroke_top_to_bottom_with_plastic_brush_short_vertflip_short_600ms.mp4	87.single_stroke_top_to_bottom_with_plastic_brush_short_vertflip_short_600ms.mp4	369.0229291925443	369.6311851798196	0.6082559872752427	n/a	n/a	n/a	n/a
308.07763671875	0.2	630943	269	40	2	0	0	78	70	stimuli\Videos_short_600ms\73.single_stroke_with_flat_hand_short_short_600ms.mp4	73.single_stroke_with_flat_hand_short_short_600ms.mp4	369.8229123015785	370.4311917485288	0.6082794469502915	n/a	n/a	n/a	n/a
308.87744140625	0.2	632581	270	40	2	0	0	79	343	stimuli\Videos_short_600ms_vertflip\76.tickle_with_fingers_from_top_to_bottom_short_vertflip_short_600ms.mp4	76.tickle_with_fingers_from_top_to_bottom_short_vertflip_short_600ms.mp4	370.62287722936526	371.2311818954654	0.608304666100139	n/a	n/a	n/a	n/a
309.677734375	0.2	634220	271	40	2	0	0	80	106	stimuli\Videos_short_600ms_horflip\24.single_stroke_top_to_bottom_with_a_spoon_short_horflip_short_600ms.mp4	24.single_stroke_top_to_bottom_with_a_spoon_short_horflip_short_600ms.mp4	371.42295974877015	372.03114975571134	0.6081900069411859	n/a	n/a	n/a	n/a
310.4775390625	0.2	635858	272	40	2	0	0	81	54	stimuli\Videos_short_600ms\59.single_push_with_long_side_pencil_short_short_600ms.mp4	59.single_push_with_long_side_pencil_short_short_600ms.mp4	372.2228384622535	372.8311557379284	0.6083172756748354	n/a	n/a	n/a	n/a
311.27734375	0.2	637496	273	40	2	0	0	82	57	stimuli\Videos_short_600ms\61.single_hit_with_rolling_pin_short_short_600ms.mp4	61.single_hit_with_rolling_pin_short_short_600ms.mp4	373.02283330112505	373.63116905129345	0.6083357501684077	n/a	n/a	n/a	n/a
312.07763671875	0.2	639135	274	40	2	0	0	83	13	stimuli\Videos_short_600ms\21.repeated_touch_with_metal_chopstick_short_short_600ms.mp4	21.repeated_touch_with_metal_chopstick_short_short_600ms.mp4	373.8228193426189	374.4311474683932	0.6083281257742783	n/a	n/a	n/a	n/a
312.87744140625	0.2	640773	275	40	2	0	0	84	272	stimuli\Videos_short_600ms_vertflip\11.single_touch_with_lighter_short_vertflip_short_600ms.mp4	11.single_touch_with_lighter_short_vertflip_short_600ms.mp4	374.6228059706046	375.23113175041135	0.6083257798068189	n/a	n/a	n/a	n/a
313.67724609375	0.2	642411	276	40	2	0	0	85	273	stimuli\Videos_short_600ms_vertflip\12.repeated_touch_with_nail_file_short_vertflip_short_600ms.mp4	12.repeated_touch_with_nail_file_short_vertflip_short_600ms.mp4	375.42285330049754	376.03111837839697	0.6082650778994321	n/a	n/a	n/a	n/a
314.4775390625	0.2	644050	277	40	2	0	0	86	358	stimuli\Videos_short_600ms_vertflip\9.single_touch_with_hammer_short_vertflip_short_600ms.mp4	9.single_touch_with_hammer_short_vertflip_short_600ms.mp4	376.2227630980492	376.831103540153	0.6083404421037812	n/a	n/a	n/a	n/a
315.27734375	0.2	645688	278	40	2	0	0	87	243	stimuli\Videos_short_600ms_horvertflip\67.single_touch_with_sponge_short_horvertflip_short_600ms.mp4	67.single_touch_with_sponge_short_horvertflip_short_600ms.mp4	377.02276204236387	377.6310878221707	0.6083257798068189	n/a	n/a	n/a	n/a
316.0771484375	0.2	647326	279	40	2	0	0	88	346	stimuli\Videos_short_600ms_vertflip\79.long_with_soft_brush_all_over_the_hand_short_vertflip_short_600ms.mp4	79.long_with_soft_brush_all_over_the_hand_short_vertflip_short_600ms.mp4	377.8229046771844	378.4310747434024	0.6081700662180083	n/a	n/a	n/a	n/a
316.87744140625	0.2	648965	280	40	2	0	0	89	49	stimuli\Videos_short_600ms\54.repeated_touch_with_knife_short_short_600ms.mp4	54.repeated_touch_with_knife_short_short_600ms.mp4	378.6227006953154	379.2310607848963	0.6083600895808559	n/a	n/a	n/a	n/a
317.67724609375	0.2	650603	281	40	2	0	0	90	271	stimuli\Videos_short_600ms_vertflip\10.single_touch_with_knife_short_vertflip_short_600ms.mp4	10.single_touch_with_knife_short_vertflip_short_600ms.mp4	379.42267852592295	380.0310456534062	0.6083671274832341	n/a	n/a	n/a	n/a
318.47705078125	0.2	652241	282	40	2	0	0	91	137	stimuli\Videos_short_600ms_horflip\52.touch_top_to_bottom_with_hammer_short_horflip_short_600ms.mp4	52.touch_top_to_bottom_with_hammer_short_horflip_short_600ms.mp4	380.22267659049976	380.83103257463745	0.6083559841376882	n/a	n/a	n/a	n/a
319.27734375	0.2	653880	283	40	2	0	0	92	88	stimuli\Videos_short_600ms\9.single_touch_with_hammer_short_short_600ms.mp4	9.single_touch_with_hammer_short_short_600ms.mp4	381.0226503156646	381.6310194958692	0.6083691802045905	n/a	n/a	n/a	n/a
320.0771484375	0.2	655518	284	40	2	0	0	93	341	stimuli\Videos_short_600ms_vertflip\74.fingers_walking_from_top_to_bottom_short_vertflip_short_600ms.mp4	74.fingers_walking_from_top_to_bottom_short_vertflip_short_600ms.mp4	381.8226694939485	382.43100113867376	0.60833164472524	4.0	4.0	1.8040073229376503	1.0
354.54248046875	0.2	726103	285	40	3	0	0	0	182	stimuli\Videos_short_600ms_horvertflip\11.single_touch_with_lighter_short_horvertflip_short_600ms.mp4	11.single_touch_with_lighter_short_horvertflip_short_600ms.mp4	416.2887264241267	416.8970445795394	0.6083181554126895	n/a	n/a	n/a	n/a
355.3427734375	0.2	727742	286	40	3	0	0	1	125	stimuli\Videos_short_600ms_horflip\41.injection_with_blunt_syringe_short_horflip_short_600ms.mp4	41.injection_with_blunt_syringe_short_horflip_short_600ms.mp4	417.08869428437265	417.6970268088362	0.6083325244635489	n/a	n/a	n/a	n/a
356.142578125	0.2	729380	287	40	3	0	0	2	191	stimuli\Videos_short_600ms_horvertflip\2.single_touch_with_finger_short_horvertflip_short_600ms.mp4	2.single_touch_with_finger_short_horvertflip_short_600ms.mp4	417.8886688892753	418.4970154895432	0.6083466002678506	n/a	n/a	n/a	n/a
356.9423828125	0.2	731018	288	40	3	0	0	3	229	stimuli\Videos_short_600ms_horvertflip\54.repeated_touch_with_knife_short_horvertflip_short_600ms.mp4	54.repeated_touch_with_knife_short_horvertflip_short_600ms.mp4	418.6887490627128	419.2969988918235	0.6082498291107186	n/a	n/a	n/a	n/a
357.74267578125	0.2	732657	289	40	3	0	0	4	118	stimuli\Videos_short_600ms_horflip\35.single_punch_with_hand_short_horflip_short_600ms.mp4	35.single_punch_with_hand_short_horflip_short_600ms.mp4	419.4887101783024	420.09698962525226	0.6082794469498367	n/a	n/a	n/a	n/a
358.54248046875	0.2	734295	290	40	3	0	1	5	362	stimuli\Targets_short_600ms\chopstickwood-tap_short_short_600ms.mp4	chopstickwood-tap_short_short_600ms.mp4	420.28860619329544	420.8969709748107	0.6083647815153199	n/a	n/a	n/a	n/a
359.3427734375	0.2	735934	291	40	3	0	0	6	359	stimuli\Videos_short_600ms_vertflip\90.repeated_touch_with_sponge_short_vertflip_short_600ms.mp4	90.repeated_touch_with_sponge_short_vertflip_short_600ms.mp4	421.0885901820675	421.6969578960425	0.6083677139749852	n/a	n/a	n/a	n/a
360.142578125	0.2	737572	292	40	3	0	0	7	321	stimuli\Videos_short_600ms_vertflip\56.repeated_touch_with_nail_file_short_vertflip_short_600ms.mp4	56.repeated_touch_with_nail_file_short_vertflip_short_600ms.mp4	421.8886471890765	422.4969392456014	0.6082920565249879	n/a	n/a	n/a	n/a
360.9423828125	0.2	739210	293	40	3	0	0	8	258	stimuli\Videos_short_600ms_horvertflip\80.stroke_with_sharp_stick_all_over_the_hand_short_horvertflip_short_600ms.mp4	80.stroke_with_sharp_stick_all_over_the_hand_short_horvertflip_short_600ms.mp4	422.6885657840062	423.29692558034094	0.6083597963347529	n/a	n/a	n/a	n/a
361.74267578125	0.2	740849	294	40	3	0	0	9	91	stimuli\Videos_short_600ms_horflip\10.single_touch_with_knife_short_horflip_short_600ms.mp4	10.single_touch_with_knife_short_horflip_short_600ms.mp4	423.48860402327546	424.09691484753967	0.6083108242642083	n/a	n/a	n/a	n/a
362.54248046875	0.2	742487	295	40	3	0	0	10	195	stimuli\Videos_short_600ms_horvertflip\23.single_push_with_a_spoon_short_horvertflip_short_600ms.mp4	23.single_push_with_a_spoon_short_horvertflip_short_600ms.mp4	424.2885736429971	424.8968979565743	0.6083243135772136	n/a	n/a	n/a	n/a
363.34228515625	0.2	744125	296	40	3	0	0	11	232	stimuli\Videos_short_600ms_horvertflip\57.single_touch_with_nail_file_short_horvertflip_short_600ms.mp4	57.single_touch_with_nail_file_short_horvertflip_short_600ms.mp4	425.0885684818686	425.696859072164	0.6082905902953826	n/a	n/a	n/a	n/a
364.142578125	0.2	745764	297	40	3	0	0	12	266	stimuli\Videos_short_600ms_horvertflip\88.repeated_stroke_with_plastic_brush_short_horvertflip_short_600ms.mp4	88.repeated_stroke_with_plastic_brush_short_horvertflip_short_600ms.mp4	425.8885457259844	426.49685948270826	0.6083137567238737	n/a	n/a	n/a	n/a
364.9423828125	0.2	747402	298	40	3	0	0	13	203	stimuli\Videos_short_600ms_horvertflip\30.finger_pulling_back_another_finger_short_horvertflip_short_600ms.mp4	30.finger_pulling_back_another_finger_short_horvertflip_short_600ms.mp4	426.68854144459374	427.29681033469024	0.6082688900964968	n/a	n/a	n/a	n/a
365.7421875	0.2	749040	299	40	3	0	0	14	89	stimuli\Videos_short_600ms\90.repeated_touch_with_sponge_short_short_600ms.mp4	90.repeated_touch_with_sponge_short_short_600ms.mp4	427.4885145832668	428.09684505500854	0.6083304717417377	n/a	n/a	n/a	n/a
366.54248046875	0.2	750679	300	40	3	0	0	15	293	stimuli\Videos_short_600ms_vertflip\30.finger_pulling_back_another_finger_short_vertflip_short_600ms.mp4	30.finger_pulling_back_another_finger_short_vertflip_short_600ms.mp4	428.2885015044981	428.8968132085006	0.6083117040025172	n/a	n/a	n/a	n/a
367.34228515625	0.2	752317	301	40	3	0	0	16	113	stimuli\Videos_short_600ms_horflip\30.finger_pulling_back_another_finger_short_horflip_short_600ms.mp4	30.finger_pulling_back_another_finger_short_horflip_short_600ms.mp4	429.0885473681614	429.6968186042254	0.6082712360639562	n/a	n/a	n/a	n/a
368.14208984375	0.2	753955	302	40	3	0	1	17	364	stimuli\Targets_short_600ms\hand-pinch_short_short_600ms.mp4	hand-pinch_short_short_600ms.mp4	429.8889319308746	430.496806405195	0.607874474320397	n/a	n/a	n/a	n/a
368.9423828125	0.2	755594	303	40	3	0	0	18	62	stimuli\Videos_short_600ms\66.stroke_top_to_bottom_with_sponge_short_short_600ms.mp4	66.stroke_top_to_bottom_with_sponge_short_short_600ms.mp4	430.68887398547895	431.2967836493108	0.6079096638318333	n/a	n/a	n/a	n/a
369.7421875	0.2	757232	304	40	3	0	1	19	369	stimuli\Targets_short_600ms_horflip\finger-tap_short_horflip_short_600ms.mp4	finger-tap_short_horflip_short_600ms.mp4	431.4884260229955	432.096766758345	0.6083407353494295	n/a	n/a	n/a	n/a
370.5419921875	0.2	758870	305	40	3	0	0	20	67	stimuli\Videos_short_600ms\70.(long)stroke_with_finger_all_over_the_hand_short_short_600ms.mp4	70.(long)stroke_with_finger_all_over_the_hand_short_short_600ms.mp4	432.2885806808995	432.8967527998389	0.6081721189393647	n/a	n/a	n/a	n/a
371.34228515625	0.2	760509	306	40	3	0	1	21	374	stimuli\Targets_short_600ms_horvertflip\chopstickwood-tap_short_vertflip_short_600ms.mp4	chopstickwood-tap_short_vertflip_short_600ms.mp4	433.0884171669686	433.696740600808	0.6083234338393595	n/a	n/a	n/a	n/a
372.14208984375	0.2	762147	307	40	3	0	0	22	210	stimuli\Videos_short_600ms_horvertflip\37.single_stab_with_nail_file_short_horvertflip_short_600ms.mp4	37.single_stab_with_nail_file_short_horvertflip_short_600ms.mp4	433.888400862495	434.4967231233504	0.6083222608554024	n/a	n/a	n/a	n/a
372.94189453125	0.2	763785	308	40	3	0	0	23	318	stimuli\Videos_short_600ms_vertflip\53.touch_top_to_bottom_with_knife_short_vertflip_short_600ms.mp4	53.touch_top_to_bottom_with_knife_short_vertflip_short_600ms.mp4	434.6884235597299	435.2967082851064	0.6082847253765067	n/a	n/a	n/a	n/a
373.7421875	0.2	765424	309	40	3	0	0	24	166	stimuli\Videos_short_600ms_horflip\79.long_with_soft_brush_all_over_the_hand_short_horflip_short_600ms.mp4	79.long_with_soft_brush_all_over_the_hand_short_horflip_short_600ms.mp4	435.4883304248224	436.09669667256776	0.60836624774538	n/a	n/a	n/a	n/a
374.5419921875	0.2	767062	310	40	3	0	0	25	326	stimuli\Videos_short_600ms_vertflip\60.single_push_with_tip_of_pencil_short_vertflip_short_600ms.mp4	60.single_push_with_tip_of_pencil_short_vertflip_short_600ms.mp4	436.28836397215673	436.8966791951102	0.608315222953479	n/a	n/a	n/a	n/a
375.341796875	0.2	768700	311	40	3	0	0	26	357	stimuli\Videos_short_600ms_vertflip\89.single_touch_with_plastic_brush_short_vertflip_short_600ms.mp4	89.single_touch_with_plastic_brush_short_vertflip_short_600ms.mp4	437.08836848814417	437.6966646501118	0.6082961619677008	n/a	n/a	n/a	n/a
376.14208984375	0.2	770339	312	40	3	0	0	27	301	stimuli\Videos_short_600ms_vertflip\38.double_slap_with_pencil_short_vertflip_short_600ms.mp4	38.double_slap_with_pencil_short_vertflip_short_600ms.mp4	437.8883545296381	438.49665069160574	0.6082961619677008	n/a	n/a	n/a	n/a
376.94189453125	0.2	771977	313	40	3	0	0	28	339	stimuli\Videos_short_600ms_vertflip\72.(short)stroke_with_finger_all_over_the_hand_short_vertflip_short_600ms.mp4	72.(short)stroke_with_finger_all_over_the_hand_short_vertflip_short_600ms.mp4	438.6882789894862	439.2966349736239	0.6083559841376882	n/a	n/a	n/a	n/a
377.7421875	0.2	773616	314	40	3	0	0	29	306	stimuli\Videos_short_600ms_vertflip\42.single_slap_with_plastic_whisk_short_vertflip_short_600ms.mp4	42.single_slap_with_plastic_whisk_short_vertflip_short_600ms.mp4	439.4883046191803	440.09659784868927	0.6082932295089449	n/a	n/a	n/a	n/a
378.5419921875	0.2	775254	315	40	3	0	0	30	96	stimuli\Videos_short_600ms_horflip\15.single_stroke_top_to_bottom_with_a_plastic_whisk_short_horflip_short_600ms.mp4	15.single_stroke_top_to_bottom_with_a_plastic_whisk_short_horflip_short_600ms.mp4	440.2883375800229	440.89658770237975	0.6082501223568215	n/a	n/a	n/a	n/a
379.341796875	0.2	776892	316	40	3	0	0	31	289	stimuli\Videos_short_600ms_vertflip\27.single_push_with_a_plastic_whisk_short_vertflip_short_600ms.mp4	27.single_push_with_a_plastic_whisk_short_vertflip_short_600ms.mp4	441.0882681980361	441.6965561491179	0.6082879510818202	n/a	n/a	n/a	n/a
380.14208984375	0.2	778531	317	40	3	0	0	32	192	stimuli\Videos_short_600ms_horvertflip\20.single_touch_with_screwdriver_short_horvertflip_short_600ms.mp4	20.single_touch_with_screwdriver_short_horvertflip_short_600ms.mp4	441.8882630369076	442.4965325134958	0.6082694765882479	n/a	n/a	n/a	n/a
380.94189453125	0.2	780169	318	40	3	0	1	33	368	stimuli\Targets_short_600ms_horflip\chopstickwood-tap_short_horflip_short_600ms.mp4	chopstickwood-tap_short_horflip_short_600ms.mp4	442.6882394012855	443.29654670659875	0.6083073053132466	n/a	n/a	n/a	n/a
381.74169921875	0.2	781807	319	40	3	0	0	34	149	stimuli\Videos_short_600ms_horflip\63.stroke_top_to_bottom_with_screwdriver_short_horflip_short_600ms.mp4	63.stroke_top_to_bottom_with_screwdriver_short_horflip_short_600ms.mp4	443.4882313076978	444.09653010887905	0.6082988011812631	n/a	n/a	n/a	n/a
382.5419921875	0.2	783446	320	40	3	0	0	35	299	stimuli\Videos_short_600ms_vertflip\36.single_slap_with_full_hand_short_vertflip_short_600ms.mp4	36.single_slap_with_full_hand_short_vertflip_short_600ms.mp4	444.2882094315514	444.8965507533926	0.6083413218411806	n/a	n/a	n/a	n/a
383.341796875	0.2	785084	321	40	3	0	0	36	33	stimuli\Videos_short_600ms\4.repeated_tap_with_finger_slow_short_short_600ms.mp4	4.repeated_tap_with_finger_slow_short_short_600ms.mp4	445.08819605953704	445.69653034347584	0.6083342839388024	n/a	n/a	n/a	n/a
384.1416015625	0.2	786722	322	40	3	0	0	37	150	stimuli\Videos_short_600ms_horflip\64.repeated_touch_with_screwdriver_short_horflip_short_600ms.mp4	64.repeated_touch_with_screwdriver_short_horflip_short_600ms.mp4	445.8881800483091	446.4965058281164	0.6083257798072736	n/a	n/a	n/a	n/a
384.94189453125	0.2	788361	323	40	3	0	0	38	307	stimuli\Videos_short_600ms_vertflip\43.touch_top_to_bottom_with_sharp_wooden_stick_short_vertflip_short_600ms.mp4	43.touch_top_to_bottom_with_sharp_wooden_stick_short_vertflip_short_600ms.mp4	446.6881666762947	447.2964901101341	0.6083234338393595	n/a	n/a	n/a	n/a
385.74169921875	0.2	789999	324	40	3	0	0	39	323	stimuli\Videos_short_600ms_vertflip\58.single_slap_with_pencil_short_vertflip_short_600ms.mp4	58.single_slap_with_pencil_short_vertflip_short_600ms.mp4	447.48813512303286	448.09647761785754	0.6083424948246829	n/a	n/a	n/a	n/a
386.54150390625	0.2	791637	325	40	3	0	0	40	184	stimuli\Videos_short_600ms_horvertflip\13.single_touch_with_pen_short_horvertflip_short_600ms.mp4	13.single_touch_with_pen_short_horvertflip_short_600ms.mp4	448.2885293628615	448.8964613133839	0.6079319505224703	n/a	n/a	n/a	n/a
387.341796875	0.2	793276	326	40	3	0	0	41	145	stimuli\Videos_short_600ms_horflip\6.single_touch_with_flat_hand_short_horflip_short_600ms.mp4	6.single_touch_with_flat_hand_short_horflip_short_600ms.mp4	449.0881377035971	449.69644647514	0.6083087715428519	n/a	n/a	n/a	n/a
388.1416015625	0.2	794914	327	40	3	0	0	42	103	stimuli\Videos_short_600ms_horflip\21.repeated_touch_with_metal_chopstick_short_horflip_short_600ms.mp4	21.repeated_touch_with_metal_chopstick_short_horflip_short_600ms.mp4	449.8881228653526	450.4964313436499	0.6083084782972037	n/a	n/a	n/a	n/a
388.94140625	0.2	796552	328	40	3	0	0	43	76	stimuli\Videos_short_600ms\79.long_with_soft_brush_all_over_the_hand_short_short_600ms.mp4	79.long_with_soft_brush_all_over_the_hand_short_short_600ms.mp4	450.6880672659245	451.2964194378651	0.6083521719406235	n/a	n/a	n/a	n/a
389.74169921875	0.2	798191	329	40	3	0	0	44	254	stimuli\Videos_short_600ms_horvertflip\77.tapping_with_all_fingers_short_horvertflip_short_600ms.mp4	77.tapping_with_all_fingers_short_horvertflip_short_600ms.mp4	451.4880380586296	452.09640371988326	0.6083656612536288	n/a	n/a	n/a	n/a
390.54150390625	0.2	799829	330	40	3	0	0	45	249	stimuli\Videos_short_600ms_horvertflip\72.(short)stroke_with_finger_all_over_the_hand_short_horvertflip_short_600ms.mp4	72.(short)stroke_with_finger_all_over_the_hand_short_horvertflip_short_600ms.mp4	452.28803495022294	452.89638741540966	0.6083524651867265	n/a	n/a	n/a	n/a
391.34130859375	0.2	801467	331	40	3	0	0	46	238	stimuli\Videos_short_600ms_horvertflip\62.touch_top_to_bottom_with_scissors_short_horvertflip_short_600ms.mp4	62.touch_top_to_bottom_with_scissors_short_horvertflip_short_600ms.mp4	453.08822538413006	453.6963763893623	0.6081510052322301	n/a	n/a	n/a	n/a
392.1416015625	0.2	803106	332	40	3	0	0	47	290	stimuli\Videos_short_600ms_vertflip\28.single_injection_with_sharp_needle_short_vertflip_short_600ms.mp4	28.single_injection_with_sharp_needle_short_vertflip_short_600ms.mp4	453.8880565917725	454.49637386744735	0.6083172756748354	n/a	n/a	n/a	n/a
392.94140625	0.2	804744	333	40	3	0	0	48	111	stimuli\Videos_short_600ms_horflip\29.single_pinch_with_tweezers_short_horflip_short_600ms.mp4	29.single_pinch_with_tweezers_short_horflip_short_600ms.mp4	454.6891786680007	455.2963270653968	0.6071483973960312	n/a	n/a	n/a	n/a
393.75	0.2	806400	334	40	3	0	0	49	286	stimuli\Videos_short_600ms_vertflip\24.single_stroke_top_to_bottom_with_a_spoon_short_vertflip_short_600ms.mp4	24.single_stroke_top_to_bottom_with_a_spoon_short_vertflip_short_600ms.mp4	455.4963430766247	456.1046635780049	0.6083205013801489	n/a	n/a	n/a	n/a
394.5498046875	0.2	808038	335	40	3	0	0	50	332	stimuli\Videos_short_600ms_vertflip\66.stroke_top_to_bottom_with_sponge_short_vertflip_short_600ms.mp4	66.stroke_top_to_bottom_with_sponge_short_vertflip_short_600ms.mp4	456.29632677215113	456.90464932625264	0.6083225541015054	n/a	n/a	n/a	n/a
395.349609375	0.2	809676	336	40	3	0	0	51	276	stimuli\Videos_short_600ms_vertflip\15.single_stroke_top_to_bottom_with_a_plastic_whisk_short_vertflip_short_600ms.mp4	15.single_stroke_top_to_bottom_with_a_plastic_whisk_short_vertflip_short_600ms.mp4	457.09631457312025	457.70463595423826	0.608321381118003	n/a	n/a	n/a	n/a
396.14990234375	0.2	811315	337	40	3	0	0	52	143	stimuli\Videos_short_600ms_horflip\58.single_slap_with_pencil_short_horflip_short_600ms.mp4	58.single_slap_with_pencil_short_horflip_short_600ms.mp4	457.8964316955448	458.5046202362564	0.6081885407115806	n/a	n/a	n/a	n/a
396.94970703125	0.2	812953	338	40	3	0	0	53	19	stimuli\Videos_short_600ms\27.single_push_with_a_plastic_whisk_short_short_600ms.mp4	27.single_push_with_a_plastic_whisk_short_short_600ms.mp4	458.6962913480425	459.3046048115207	0.6083134634782255	n/a	n/a	n/a	n/a
397.74951171875	0.2	814591	339	40	3	0	0	54	108	stimuli\Videos_short_600ms_horflip\26.single_touch_with_a_blunt_syringe_short_horflip_short_600ms.mp4	26.single_touch_with_a_blunt_syringe_short_horflip_short_600ms.mp4	459.4962539298617	460.1045876273088	0.6083336974470512	n/a	n/a	n/a	n/a
398.5498046875	0.2	816230	340	40	3	0	1	55	381	stimuli\Targets_short_600ms_vertflip\finger-tap_short_horvertflip_short_600ms.mp4	finger-tap_short_horvertflip_short_600ms.mp4	460.296260498571	460.9045364265694	0.6082759279984202	n/a	n/a	n/a	n/a
399.349609375	0.2	817868	341	40	3	0	0	56	288	stimuli\Videos_short_600ms_vertflip\26.single_touch_with_a_blunt_syringe_short_vertflip_short_600ms.mp4	26.single_touch_with_a_blunt_syringe_short_vertflip_short_600ms.mp4	461.0962450738348	461.70451777612834	0.6082727022935615	n/a	n/a	n/a	n/a
400.1494140625	0.2	819506	342	40	3	0	0	57	86	stimuli\Videos_short_600ms\88.repeated_stroke_with_plastic_brush_short_short_600ms.mp4	88.repeated_stroke_with_plastic_brush_short_short_600ms.mp4	461.8962284761151	462.5045237583454	0.6082952822303014	n/a	n/a	n/a	n/a
400.94970703125	0.2	821145	343	40	3	0	0	58	12	stimuli\Videos_short_600ms\20.single_touch_with_screwdriver_short_short_600ms.mp4	20.single_touch_with_screwdriver_short_short_600ms.mp4	462.69621158514974	463.3045136120363	0.6083020268865766	n/a	n/a	n/a	n/a
401.74951171875	0.2	822783	344	40	3	0	1	59	370	stimuli\Targets_short_600ms_horflip\hand-pinch_short_horflip_short_600ms.mp4	hand-pinch_short_horflip_short_600ms.mp4	463.49623398913855	464.1044976008084	0.6082636116698268	n/a	n/a	n/a	n/a
402.54931640625	0.2	824421	345	40	3	0	0	60	46	stimuli\Videos_short_600ms\51.repeated_touch_with_hammer_short_short_600ms.mp4	51.repeated_touch_with_hammer_short_short_600ms.mp4	464.2962039021063	464.90448628151535	0.6082823794090473	n/a	n/a	n/a	n/a
403.349609375	0.2	826060	346	40	3	0	0	61	183	stimuli\Videos_short_600ms_horvertflip\12.repeated_touch_with_nail_file_short_horvertflip_short_600ms.mp4	12.repeated_touch_with_nail_file_short_horvertflip_short_600ms.mp4	465.0962298250465	465.7044966624212	0.6082668373746856	n/a	n/a	n/a	n/a
404.1494140625	0.2	827698	347	40	3	0	0	62	275	stimuli\Videos_short_600ms_vertflip\14.repeated_touch_with_pencil_short_vertflip_short_600ms.mp4	14.repeated_touch_with_pencil_short_vertflip_short_600ms.mp4	465.8961492997141	466.5044753727666	0.6083260730524671	n/a	n/a	n/a	n/a
404.94921875	0.2	829336	348	40	3	0	0	63	226	stimuli\Videos_short_600ms_horvertflip\51.repeated_touch_with_hammer_short_horvertflip_short_600ms.mp4	51.repeated_touch_with_hammer_short_horvertflip_short_600ms.mp4	466.6961356344536	467.3044622939983	0.608326659544673	n/a	n/a	n/a	n/a
405.74951171875	0.2	830975	349	40	3	0	0	64	320	stimuli\Videos_short_600ms_vertflip\55.touch_top_to_bottom_with_nail_file_short_vertflip_short_600ms.mp4	55.touch_top_to_bottom_with_nail_file_short_vertflip_short_600ms.mp4	467.49612020971745	468.10445009496743	0.6083298852499865	n/a	n/a	n/a	n/a
406.54931640625	0.2	832613	350	40	3	0	0	65	135	stimuli\Videos_short_600ms_horflip\50.single_(long)hard_push_with_thumb_short_horflip_short_600ms.mp4	50.single_(long)hard_push_with_thumb_short_horflip_short_600ms.mp4	468.2961062512113	468.90443203101813	0.6083257798068189	n/a	n/a	n/a	n/a
407.34912109375	0.2	834251	351	40	3	0	0	66	213	stimuli\Videos_short_600ms_horvertflip\4.repeated_tap_with_finger_slow_short_horvertflip_short_600ms.mp4	4.repeated_tap_with_finger_slow_short_horvertflip_short_600ms.mp4	469.09609903736145	469.70441455356104	0.6083155161995819	n/a	n/a	n/a	n/a
408.1494140625	0.2	835890	352	40	3	0	0	67	255	stimuli\Videos_short_600ms_horvertflip\78.single_stroke_top_to_bottom_with_soft_brush_short_horvertflip_short_600ms.mp4	78.single_stroke_top_to_bottom_with_soft_brush_short_horvertflip_short_600ms.mp4	469.89607100305057	470.5044003018088	0.6083292987582354	n/a	n/a	n/a	n/a
408.94921875	0.2	837528	353	40	3	0	0	68	25	stimuli\Videos_short_600ms\32.single_(long)pinch_with_fingers_short_short_600ms.mp4	32.single_(long)pinch_with_fingers_short_short_600ms.mp4	470.6960769852676	471.3043848770726	0.6083078918049978	n/a	n/a	n/a	n/a
409.7490234375	0.2	839166	354	40	3	0	0	69	188	stimuli\Videos_short_600ms_horvertflip\17.repeated_touch_with_rolling_pin_short_horvertflip_short_600ms.mp4	17.repeated_touch_with_rolling_pin_short_horvertflip_short_600ms.mp4	471.4960363413816	472.1043750240096	0.608338682628073	n/a	n/a	n/a	n/a
410.54931640625	0.2	840805	355	40	3	0	0	70	263	stimuli\Videos_short_600ms_horvertflip\85.touch_top_to_bottom_with_fabric_short_horvertflip_short_600ms.mp4	85.touch_top_to_bottom_with_fabric_short_horvertflip_short_600ms.mp4	472.2960015624144	472.90435959927345	0.6083580368590447	n/a	n/a	n/a	n/a
411.34912109375	0.2	842443	356	40	3	0	0	71	63	stimuli\Videos_short_600ms\67.single_touch_with_sponge_short_short_600ms.mp4	67.single_touch_with_sponge_short_short_600ms.mp4	473.09597792679233	473.7043438812916	0.608365954499277	n/a	n/a	n/a	n/a
412.14892578125	0.2	844081	357	40	3	0	0	72	342	stimuli\Videos_short_600ms_vertflip\75.(long)stroke_with_fingers_all_over_the_hand_short_vertflip_short_600ms.mp4	75.(long)stroke_with_fingers_all_over_the_hand_short_vertflip_short_600ms.mp4	473.89598713471423	474.5043302160311	0.6083430813168889	n/a	n/a	n/a	n/a
