onset	duration	onsetsample	eventnumber	subjectnr	sequencenumber	blocksequencenumber	istarget	presentationnumber	stimnumber	stim	stimname	time_stimon	time_stimoff	stimdur	cresp	resp	rt	correct
41.45263671875	0.2	84895	0	69	0	0	0	0	89	stimuli\Videos_short_600ms\90.repeated_touch_with_sponge_short_short_600ms.mp4	90.repeated_touch_with_sponge_short_short_600ms.mp4	55.490350209933695	56.09861307177516	0.6082628618414674	n/a	n/a	n/a	n/a
42.25244140625	0.2	86533	1	69	0	0	0	1	10	stimuli\Videos_short_600ms\19.single_touch_with_rolling_pin_short_short_600ms.mp4	19.single_touch_with_rolling_pin_short_short_600ms.mp4	56.2902763710199	56.89859289656761	0.608316525547707	n/a	n/a	n/a	n/a
43.052734375	0.2	88172	2	69	0	0	0	2	340	stimuli\Videos_short_600ms_vertflip\73.single_stroke_with_flat_hand_short_vertflip_short_600ms.mp4	73.single_stroke_with_flat_hand_short_vertflip_short_600ms.mp4	57.090218367297894	57.69857858624573	0.608360218947837	n/a	n/a	n/a	n/a
43.8525390625	0.2	89810	3	69	0	0	0	3	87	stimuli\Videos_short_600ms\89.single_touch_with_plastic_brush_short_short_600ms.mp4	89.single_touch_with_plastic_brush_short_short_600ms.mp4	57.890193500181795	58.4985560650839	0.6083625649021087	n/a	n/a	n/a	n/a
44.65234375	0.2	91448	4	69	0	0	0	4	177	stimuli\Videos_short_600ms_horflip\89.single_touch_with_plastic_brush_short_horflip_short_600ms.mp4	89.single_touch_with_plastic_brush_short_horflip_short_600ms.mp4	58.69021349944251	59.2985367696092	0.608323270166693	n/a	n/a	n/a	n/a
45.45263671875	0.2	93087	5	69	0	0	0	5	4	stimuli\Videos_short_600ms\13.single_touch_with_pen_short_short_600ms.mp4	13.single_touch_with_pen_short_short_600ms.mp4	59.49016106736235	60.09851659440165	0.6083555270392935	n/a	n/a	n/a	n/a
46.25244140625	0.2	94725	6	69	0	0	0	6	304	stimuli\Videos_short_600ms_vertflip\40.repeated_push_with_finger_short_vertflip_short_600ms.mp4	40.repeated_push_with_finger_short_vertflip_short_600ms.mp4	60.29017109631741	60.89849817865979	0.6083270823423845	n/a	n/a	n/a	n/a
47.05224609375	0.2	96363	7	69	0	0	0	7	348	stimuli\Videos_short_600ms_vertflip\80.stroke_with_sharp_stick_all_over_the_hand_short_vertflip_short_600ms.mp4	80.stroke_with_sharp_stick_all_over_the_hand_short_vertflip_short_600ms.mp4	61.09015150759842	61.69844134791492	0.6082898403165018	n/a	n/a	n/a	n/a
47.8525390625	0.2	98002	8	69	0	0	1	8	379	stimuli\Targets_short_600ms_vertflip\chopstick-silver-tap_short_horvertflip_short_600ms.mp4	chopstick-silver-tap_short_horvertflip_short_600ms.mp4	61.890120482351904	62.49841794702024	0.6082974646683397	n/a	n/a	n/a	n/a
48.65234375	0.2	99640	9	69	0	0	0	9	36	stimuli\Videos_short_600ms\42.single_slap_with_plastic_whisk_short_short_600ms.mp4	42.single_slap_with_plastic_whisk_short_short_600ms.mp4	62.6901316842841	63.29841771242491	0.6082860281408102	n/a	n/a	n/a	n/a
49.4521484375	0.2	101278	10	69	0	0	0	10	24	stimuli\Videos_short_600ms\31.hand_grabbing_wrist_short_short_600ms.mp4	31.hand_grabbing_wrist_short_short_600ms.mp4	63.49010652392326	64.09837847633798	0.6082719524147251	n/a	n/a	n/a	n/a
50.25244140625	0.2	102917	11	69	0	0	0	11	274	stimuli\Videos_short_600ms_vertflip\13.single_touch_with_pen_short_vertflip_short_600ms.mp4	13.single_touch_with_pen_short_vertflip_short_600ms.mp4	64.29008693520427	64.89841020537096	0.608323270166693	n/a	n/a	n/a	n/a
51.05224609375	0.2	104555	12	69	0	0	0	12	270	stimuli\Videos_short_600ms_vertflip\1.repeated_touch_with_finger_fast_short_vertflip_short_600ms.mp4	1.repeated_touch_with_finger_fast_short_vertflip_short_600ms.mp4	65.09006617350815	65.69837038279547	0.6083042092873256	n/a	n/a	n/a	n/a
51.85205078125	0.2	106193	13	69	0	0	0	13	297	stimuli\Videos_short_600ms_vertflip\34.repeated_punch_with_hand_short_vertflip_short_600ms.mp4	34.repeated_punch_with_hand_short_vertflip_short_600ms.mp4	65.89005039696485	66.49835577922931	0.6083053822644615	n/a	n/a	n/a	n/a
52.65234375	0.2	107832	14	69	0	0	0	14	95	stimuli\Videos_short_600ms_horflip\14.repeated_touch_with_pencil_short_horflip_short_600ms.mp4	14.repeated_touch_with_pencil_short_horflip_short_600ms.mp4	66.69002787580303	67.29835818383253	0.6083303080295082	n/a	n/a	n/a	n/a
53.4521484375	0.2	109470	15	69	0	0	0	15	276	stimuli\Videos_short_600ms_vertflip\15.single_stroke_top_to_bottom_with_a_plastic_whisk_short_vertflip_short_600ms.mp4	15.single_stroke_top_to_bottom_with_a_plastic_whisk_short_vertflip_short_600ms.mp4	67.49000975330546	68.09833097076171	0.6083212174562505	n/a	n/a	n/a	n/a
54.251953125	0.2	111108	16	69	0	0	0	16	324	stimuli\Videos_short_600ms_vertflip\59.single_push_with_long_side_pencil_short_vertflip_short_600ms.mp4	59.single_push_with_long_side_pencil_short_vertflip_short_600ms.mp4	68.28999251054074	68.8983219388374	0.6083294282966563	n/a	n/a	n/a	n/a
55.05224609375	0.2	112747	17	69	0	0	0	17	73	stimuli\Videos_short_600ms\76.tickle_with_fingers_from_top_to_bottom_short_short_600ms.mp4	76.tickle_with_fingers_from_top_to_bottom_short_short_600ms.mp4	69.08997556102031	69.69829208656802	0.608316525547707	n/a	n/a	n/a	n/a
55.85205078125	0.2	114385	18	69	0	0	0	18	305	stimuli\Videos_short_600ms_vertflip\41.injection_with_blunt_syringe_short_vertflip_short_600ms.mp4	41.injection_with_blunt_syringe_short_vertflip_short_600ms.mp4	69.88995333310277	70.49827249784903	0.6083191647462627	n/a	n/a	n/a	n/a
56.65185546875	0.2	116023	19	69	0	0	0	19	116	stimuli\Videos_short_600ms_horflip\33.scratch_top_to_bottom_with_scissors_short_horflip_short_600ms.mp4	33.scratch_top_to_bottom_with_scissors_short_horflip_short_600ms.mp4	70.68993462411663	71.29825496184003	0.6083203377233986	n/a	n/a	n/a	n/a
57.4521484375	0.2	117662	20	69	0	0	0	20	301	stimuli\Videos_short_600ms_vertflip\38.double_slap_with_pencil_short_vertflip_short_600ms.mp4	38.double_slap_with_pencil_short_vertflip_short_600ms.mp4	71.48995696933207	72.09823537312104	0.6082784037889724	n/a	n/a	n/a	n/a
58.251953125	0.2	119300	21	69	0	0	0	21	143	stimuli\Videos_short_600ms_horflip\58.single_slap_with_pencil_short_horflip_short_600ms.mp4	58.single_slap_with_pencil_short_horflip_short_600ms.mp4	72.28987403984502	72.89821607764634	0.6083420378013216	n/a	n/a	n/a	n/a
59.0517578125	0.2	120938	22	69	0	0	0	22	226	stimuli\Videos_short_600ms_horvertflip\51.repeated_touch_with_hammer_short_horvertflip_short_600ms.mp4	51.repeated_touch_with_hammer_short_horvertflip_short_600ms.mp4	73.08985914303457	73.69819619568307	0.6083370526484941	n/a	n/a	n/a	n/a
59.85205078125	0.2	122577	23	69	0	0	0	23	233	stimuli\Videos_short_600ms_horvertflip\58.single_slap_with_pencil_short_horvertflip_short_600ms.mp4	58.single_slap_with_pencil_short_horvertflip_short_600ms.mp4	73.88984776515599	74.49817690020836	0.6083291350523723	n/a	n/a	n/a	n/a
60.65185546875	0.2	124215	24	69	0	0	0	24	190	stimuli\Videos_short_600ms_horvertflip\19.single_touch_with_rolling_pin_short_horvertflip_short_600ms.mp4	19.single_touch_with_rolling_pin_short_horvertflip_short_600ms.mp4	74.68981761964233	75.29815995068793	0.6083423310456055	n/a	n/a	n/a	n/a
61.45166015625	0.2	125853	25	69	0	0	0	25	27	stimuli\Videos_short_600ms\34.repeated_punch_with_hand_short_short_600ms.mp4	34.repeated_punch_with_hand_short_short_600ms.mp4	75.48980800122945	76.09814182819082	0.6083338269613705	n/a	n/a	n/a	n/a
62.251953125	0.2	127492	26	69	0	0	0	26	112	stimuli\Videos_short_600ms_horflip\3.single_push_with_finger_short_horflip_short_600ms.mp4	3.single_push_with_finger_short_horflip_short_600ms.mp4	76.28978899899903	76.89811696107427	0.6083279620752364	n/a	n/a	n/a	n/a
63.0517578125	0.2	129130	27	69	0	0	0	27	0	stimuli\Videos_short_600ms\1.repeated_touch_with_finger_fast_short_short_600ms.mp4	1.repeated_touch_with_finger_fast_short_short_600ms.mp4	77.08978993738083	77.69809795884385	0.6083080214630172	n/a	n/a	n/a	n/a
63.85205078125	0.2	130769	28	69	0	0	0	28	349	stimuli\Videos_short_600ms_vertflip\81.single_stroke_top_to_bottom_with_cotton_pad_short_vertflip_short_600ms.mp4	81.single_stroke_top_to_bottom_with_cotton_pad_short_vertflip_short_600ms.mp4	77.8899157978326	78.49803760916757	0.6081218113349678	n/a	n/a	n/a	n/a
64.65185546875	0.2	132407	29	69	0	0	0	29	113	stimuli\Videos_short_600ms_horflip\30.finger_pulling_back_another_finger_short_horflip_short_600ms.mp4	30.finger_pulling_back_another_finger_short_horflip_short_600ms.mp4	78.68974753425528	79.29801948667	0.6082719524147251	n/a	n/a	n/a	n/a
65.45166015625	0.2	134045	30	69	0	0	0	30	18	stimuli\Videos_short_600ms\26.single_touch_with_a_blunt_syringe_short_short_600ms.mp4	26.single_touch_with_a_blunt_syringe_short_short_600ms.mp4	79.4897305847353	80.09802365073892	0.6082930660036254	n/a	n/a	n/a	n/a
66.251953125	0.2	135684	31	69	0	0	0	31	167	stimuli\Videos_short_600ms_horflip\8.single_touch_with_hairbrush_short_horflip_short_600ms.mp4	8.single_touch_with_hairbrush_short_horflip_short_600ms.mp4	80.2897083568173	80.89800875392893	0.6083003971116341	n/a	n/a	n/a	n/a
67.0517578125	0.2	137322	32	69	0	0	0	32	257	stimuli\Videos_short_600ms_horvertflip\8.single_touch_with_hairbrush_short_horvertflip_short_600ms.mp4	8.single_touch_with_hairbrush_short_horvertflip_short_600ms.mp4	81.08968876809831	81.69799063143137	0.6083018633330539	n/a	n/a	n/a	n/a
67.8515625	0.2	138960	33	69	0	0	0	33	336	stimuli\Videos_short_600ms_vertflip\7.repeated_touch_with_hairbrush_short_vertflip_short_600ms.mp4	7.repeated_touch_with_hairbrush_short_vertflip_short_600ms.mp4	81.88967005911218	82.49800066038642	0.6083306012742469	n/a	n/a	n/a	n/a
68.65185546875	0.2	140599	34	69	0	0	0	34	182	stimuli\Videos_short_600ms_horvertflip\11.single_touch_with_lighter_short_horvertflip_short_600ms.mp4	11.single_touch_with_lighter_short_horvertflip_short_600ms.mp4	82.68965193661461	83.2979716878499	0.6083197512352854	n/a	n/a	n/a	n/a
69.45166015625	0.2	142237	35	69	0	0	0	35	132	stimuli\Videos_short_600ms_horflip\48.single_slap_with_hand_short_horflip_short_600ms.mp4	48.single_slap_with_hand_short_horflip_short_600ms.mp4	83.48963293438419	84.09795620455088	0.608323270166693	n/a	n/a	n/a	n/a
70.25146484375	0.2	143875	36	69	0	0	0	36	125	stimuli\Videos_short_600ms_horflip\41.injection_with_blunt_syringe_short_horflip_short_600ms.mp4	41.injection_with_blunt_syringe_short_horflip_short_600ms.mp4	84.28962419570416	84.89793163067907	0.608307434974904	n/a	n/a	n/a	n/a
71.0517578125	0.2	145514	37	69	0	0	1	37	374	stimuli\Targets_short_600ms_horvertflip\chopstickwood-tap_short_vertflip_short_600ms.mp4	chopstickwood-tap_short_vertflip_short_600ms.mp4	85.08960636645088	85.69791262844865	0.6083062619977682	n/a	n/a	n/a	n/a
71.8515625	0.2	147152	38	69	0	0	0	38	70	stimuli\Videos_short_600ms\73.single_stroke_with_flat_hand_short_short_600ms.mp4	73.single_stroke_with_flat_hand_short_short_600ms.mp4	85.88957592769293	86.49789362621823	0.6083176985252976	n/a	n/a	n/a	n/a
72.6513671875	0.2	148790	39	69	0	0	0	39	94	stimuli\Videos_short_600ms_horflip\13.single_touch_with_pen_short_horflip_short_600ms.mp4	13.single_touch_with_pen_short_horflip_short_600ms.mp4	86.6895572187068	87.29787462398781	0.6083174052810136	n/a	n/a	n/a	n/a
73.45166015625	0.2	150429	40	69	0	0	0	40	21	stimuli\Videos_short_600ms\29.single_pinch_with_tweezers_short_short_600ms.mp4	29.single_pinch_with_tweezers_short_short_600ms.mp4	87.48951886235318	88.09785796771166	0.6083391053584819	n/a	n/a	n/a	n/a
74.25146484375	0.2	152067	41	69	0	0	0	41	196	stimuli\Videos_short_600ms_horvertflip\24.single_stroke_top_to_bottom_with_a_spoon_short_horvertflip_short_600ms.mp4	24.single_stroke_top_to_bottom_with_a_spoon_short_horvertflip_short_600ms.mp4	88.28947962626626	88.89784013845838	0.608360512192121	n/a	n/a	n/a	n/a
75.05126953125	0.2	153705	42	69	0	0	0	42	176	stimuli\Videos_short_600ms_horflip\88.repeated_stroke_with_plastic_brush_short_horflip_short_600ms.mp4	88.repeated_stroke_with_plastic_brush_short_horflip_short_600ms.mp4	89.08946531594438	89.69782377542651	0.6083584594821332	n/a	n/a	n/a	n/a
75.8515625	0.2	155344	43	69	0	0	0	43	156	stimuli\Videos_short_600ms_horflip\7.repeated_touch_with_hairbrush_short_horflip_short_600ms.mp4	7.repeated_touch_with_hairbrush_short_horflip_short_600ms.mp4	89.8897850108765	90.49777750147678	0.6079924906002816	n/a	n/a	n/a	n/a
76.6513671875	0.2	156982	44	69	0	0	0	44	130	stimuli\Videos_short_600ms_horflip\46.scratching_top_to_bottom_with_finger_nails_short_horflip_short_600ms.mp4	46.scratching_top_to_bottom_with_finger_nails_short_horflip_short_600ms.mp4	90.68946719270798	91.29776377764348	0.6082965849354878	n/a	n/a	n/a	n/a
77.451171875	0.2	158620	45	69	0	0	0	45	51	stimuli\Videos_short_600ms\56.repeated_touch_with_nail_file_short_short_600ms.mp4	56.repeated_touch_with_nail_file_short_short_600ms.mp4	91.4894291295982	92.09773920377164	0.6083100741734597	n/a	n/a	n/a	n/a
78.25146484375	0.2	160259	46	69	0	0	0	46	300	stimuli\Videos_short_600ms_vertflip\37.single_stab_with_nail_file_short_vertflip_short_600ms.mp4	37.single_stab_with_nail_file_short_vertflip_short_600ms.mp4	92.28942948149142	92.89774424757344	0.6083147660820032	n/a	n/a	n/a	n/a
79.05126953125	0.2	161897	47	69	0	0	1	47	361	stimuli\Targets_short_600ms\chopstick-silver-tap_short_short_600ms.mp4	chopstick-silver-tap_short_short_600ms.mp4	93.08941722388	93.69768331140858	0.608266087528591	n/a	n/a	n/a	n/a
79.85107421875	0.2	163535	48	69	0	0	0	48	123	stimuli\Videos_short_600ms_horflip\4.repeated_tap_with_finger_slow_short_horflip_short_600ms.mp4	4.repeated_tap_with_finger_slow_short_horflip_short_600ms.mp4	93.88939059729772	94.49766225646816	0.6082716591704411	n/a	n/a	n/a	n/a
80.6513671875	0.2	165174	49	69	0	0	0	49	284	stimuli\Videos_short_600ms_vertflip\22.single_touch_with_metal_chopstick_short_vertflip_short_600ms.mp4	22.single_touch_with_metal_chopstick_short_vertflip_short_600ms.mp4	94.6893698356016	95.29766436782712	0.6082945322255	n/a	n/a	n/a	n/a
81.451171875	0.2	166812	50	69	0	0	0	50	88	stimuli\Videos_short_600ms\9.single_touch_with_hammer_short_short_600ms.mp4	9.single_touch_with_hammer_short_short_600ms.mp4	95.48935376581404	96.0976573886128	0.6083036227987577	n/a	n/a	n/a	n/a
82.2509765625	0.2	168450	51	69	0	0	0	51	179	stimuli\Videos_short_600ms_horflip\90.repeated_touch_with_sponge_short_horflip_short_600ms.mp4	90.repeated_touch_with_sponge_short_horflip_short_600ms.mp4	96.28933447033933	96.8976377998938	0.6083033295544737	n/a	n/a	n/a	n/a
83.05126953125	0.2	170089	52	69	0	0	0	52	328	stimuli\Videos_short_600ms_vertflip\62.touch_top_to_bottom_with_scissors_short_vertflip_short_600ms.mp4	62.touch_top_to_bottom_with_scissors_short_vertflip_short_600ms.mp4	97.08931429513176	97.69763727205418	0.608322976922409	n/a	n/a	n/a	n/a
83.85107421875	0.2	171727	53	69	0	0	0	53	345	stimuli\Videos_short_600ms_vertflip\78.single_stroke_top_to_bottom_with_soft_brush_short_vertflip_short_600ms.mp4	78.single_stroke_top_to_bottom_with_soft_brush_short_vertflip_short_600ms.mp4	97.88924778732508	98.49763029283986	0.6083825055147827	n/a	n/a	n/a	n/a
84.6513671875	0.2	173366	54	69	0	0	0	54	185	stimuli\Videos_short_600ms_horvertflip\14.repeated_touch_with_pencil_short_horvertflip_short_600ms.mp4	14.repeated_touch_with_pencil_short_horvertflip_short_600ms.mp4	98.68927658391522	99.29759516217293	0.6083185782576948	n/a	n/a	n/a	n/a
85.451171875	0.2	175004	55	69	0	0	0	55	152	stimuli\Videos_short_600ms_horflip\66.stroke_top_to_bottom_with_sponge_short_horflip_short_600ms.mp4	66.stroke_top_to_bottom_with_sponge_short_horflip_short_600ms.mp4	99.48925582221908	100.0975790923858	0.608323270166693	n/a	n/a	n/a	n/a
86.2509765625	0.2	176642	56	69	0	0	0	56	255	stimuli\Videos_short_600ms_horvertflip\78.single_stroke_top_to_bottom_with_soft_brush_short_horvertflip_short_600ms.mp4	78.single_stroke_top_to_bottom_with_soft_brush_short_horvertflip_short_600ms.mp4	100.2892400456758	100.89755950366634	0.6083194579905467	n/a	n/a	n/a	n/a
87.05126953125	0.2	178281	57	69	0	0	0	57	83	stimuli\Videos_short_600ms\85.touch_top_to_bottom_with_fabric_short_short_600ms.mp4	85.touch_top_to_bottom_with_fabric_short_short_600ms.mp4	101.0892189907354	101.69753786223735	0.6083188715019787	n/a	n/a	n/a	n/a
87.85107421875	0.2	179919	58	69	0	0	0	58	78	stimuli\Videos_short_600ms\80.stroke_with_sharp_stick_all_over_the_hand_short_short_600ms.mp4	80.stroke_with_sharp_stick_all_over_the_hand_short_short_600ms.mp4	101.88918473980176	102.4975226721831	0.608337932381346	n/a	n/a	n/a	n/a
88.65087890625	0.2	181557	59	69	0	0	0	59	189	stimuli\Videos_short_600ms_horvertflip\18.single_stroke_from_top_to_bottom_with_rolling_pin_short_horvertflip_short_600ms.mp4	18.single_stroke_from_top_to_bottom_with_rolling_pin_short_horvertflip_short_600ms.mp4	102.6891836254731	103.2975033767084	0.6083197512352854	n/a	n/a	n/a	n/a
89.451171875	0.2	183196	60	69	0	0	0	60	68	stimuli\Videos_short_600ms\71.single_stroke_with_finger_top_to_bottom_short_short_600ms.mp4	71.single_stroke_with_finger_top_to_bottom_short_short_600ms.mp4	103.48922092614794	104.0974829082561	0.6082619821081607	n/a	n/a	n/a	n/a
90.2509765625	0.2	184834	61	69	0	0	0	61	247	stimuli\Videos_short_600ms_horvertflip\70.(long)stroke_with_finger_all_over_the_hand_short_horvertflip_short_600ms.mp4	70.(long)stroke_with_finger_all_over_the_hand_short_horvertflip_short_600ms.mp4	104.28910192761214	104.89746742495754	0.6083654973454031	n/a	n/a	n/a	n/a
91.05078125	0.2	186472	62	69	0	0	0	62	294	stimuli\Videos_short_600ms_vertflip\31.hand_grabbing_wrist_short_vertflip_short_600ms.mp4	31.hand_grabbing_wrist_short_vertflip_short_600ms.mp4	105.08908204564888	105.69744812948284	0.6083660838339711	n/a	n/a	n/a	n/a
91.85107421875	0.2	188111	63	69	0	0	0	63	20	stimuli\Videos_short_600ms\28.single_injection_with_sharp_needle_short_short_600ms.mp4	28.single_injection_with_sharp_needle_short_short_600ms.mp4	105.8890862097178	106.49742238263345	0.6083361729156422	n/a	n/a	n/a	n/a
92.65087890625	0.2	189749	64	69	0	0	0	64	34	stimuli\Videos_short_600ms\40.repeated_push_with_finger_short_short_600ms.mp4	40.repeated_push_with_finger_short_short_600ms.mp4	106.68907277912922	107.29738549250078	0.6083127133715607	n/a	n/a	n/a	n/a
93.45068359375	0.2	191387	65	69	0	0	1	65	368	stimuli\Targets_short_600ms_horflip\chopstickwood-tap_short_horflip_short_600ms.mp4	chopstickwood-tap_short_horflip_short_600ms.mp4	107.48905788231878	108.09735915916326	0.608301276844486	n/a	n/a	n/a	n/a
94.2509765625	0.2	193026	66	69	0	0	0	66	231	stimuli\Videos_short_600ms_horvertflip\56.repeated_touch_with_nail_file_short_horvertflip_short_600ms.mp4	56.repeated_touch_with_nail_file_short_horvertflip_short_600ms.mp4	108.28906263287628	108.89733223933672	0.6082696064604534	n/a	n/a	n/a	n/a
95.05078125	0.2	194664	67	69	0	0	0	67	311	stimuli\Videos_short_600ms_vertflip\47.(long)scratching_with_finger_nails_short_vertflip_short_600ms.mp4	47.(long)scratching_with_finger_nails_short_vertflip_short_600ms.mp4	109.08901782514796	109.6973076654649	0.6082898403169565	n/a	n/a	n/a	n/a
95.8505859375	0.2	196302	68	69	0	0	0	68	239	stimuli\Videos_short_600ms_horvertflip\63.stroke_top_to_bottom_with_screwdriver_short_horvertflip_short_600ms.mp4	63.stroke_top_to_bottom_with_screwdriver_short_horvertflip_short_600ms.mp4	109.8890216959726	110.4972901294559	0.6082684334833175	n/a	n/a	n/a	n/a
96.65087890625	0.2	197941	69	69	0	0	0	69	40	stimuli\Videos_short_600ms\46.scratching_top_to_bottom_with_finger_nails_short_short_600ms.mp4	46.scratching_top_to_bottom_with_finger_nails_short_short_600ms.mp4	110.68899682885647	111.29730279760952	0.6083059687530294	n/a	n/a	n/a	n/a
97.45068359375	0.2	199579	70	69	0	0	0	70	121	stimuli\Videos_short_600ms_horflip\38.double_slap_with_pencil_short_horflip_short_600ms.mp4	38.double_slap_with_pencil_short_horflip_short_600ms.mp4	111.48897841311464	112.09728232915768	0.6083039160430417	n/a	n/a	n/a	n/a
98.25048828125	0.2	201217	71	69	0	0	0	71	285	stimuli\Videos_short_600ms_vertflip\23.single_push_with_a_spoon_short_vertflip_short_600ms.mp4	23.single_push_with_a_spoon_short_vertflip_short_600ms.mp4	112.28896205008276	112.89726508639296	0.6083030363101898	n/a	n/a	n/a	n/a
99.05078125	0.2	202856	72	69	0	0	0	72	8	stimuli\Videos_short_600ms\17.repeated_touch_with_rolling_pin_short_short_600ms.mp4	17.repeated_touch_with_rolling_pin_short_short_600ms.mp4	113.08893982216524	113.69726954370616	0.6083297215409402	n/a	n/a	n/a	n/a
99.8505859375	0.2	204494	73	69	0	0	0	73	354	stimuli\Videos_short_600ms_vertflip\86.touch_top_to_bottom_with_hair_brush_short_vertflip_short_600ms.mp4	86.touch_top_to_bottom_with_hair_brush_short_vertflip_short_600ms.mp4	113.88892140642338	114.49724379685676	0.6083223904333863	n/a	n/a	n/a	n/a
100.650390625	0.2	206132	74	69	0	0	0	74	110	stimuli\Videos_short_600ms_horflip\28.single_injection_with_sharp_needle_short_horflip_short_600ms.mp4	28.single_injection_with_sharp_needle_short_horflip_short_600ms.mp4	114.68890416365866	115.29722479462636	0.6083206309676825	n/a	n/a	n/a	n/a
101.45068359375	0.2	207771	75	69	0	0	0	75	309	stimuli\Videos_short_600ms_vertflip\45.scratching_with_finger_nails_short_vertflip_short_600ms.mp4	45.scratching_with_finger_nails_short_vertflip_short_600ms.mp4	115.4888860411611	116.09720549915164	0.6083194579905467	n/a	n/a	n/a	n/a
102.25048828125	0.2	209409	76	69	0	0	0	76	296	stimuli\Videos_short_600ms_vertflip\33.scratch_top_to_bottom_with_scissors_short_vertflip_short_600ms.mp4	33.scratch_top_to_bottom_with_scissors_short_vertflip_short_600ms.mp4	116.28886527946496	116.8971829779898	0.6083176985248429	n/a	n/a	n/a	n/a
103.05078125	0.2	211048	77	69	0	0	0	77	220	stimuli\Videos_short_600ms_horvertflip\46.scratching_top_to_bottom_with_finger_nails_short_horvertflip_short_600ms.mp4	46.scratching_top_to_bottom_with_finger_nails_short_horvertflip_short_600ms.mp4	117.08884481101312	117.69716778793509	0.6083229769219543	n/a	n/a	n/a	n/a
103.8505859375	0.2	212686	78	69	0	0	0	78	223	stimuli\Videos_short_600ms_horvertflip\49.repeated_slap_with_hand_short_horvertflip_short_600ms.mp4	49.repeated_slap_with_hand_short_horvertflip_short_600ms.mp4	117.88883841828738	118.49714673299468	0.6083083147073012	n/a	n/a	n/a	n/a
104.650390625	0.2	214324	79	69	0	0	0	79	149	stimuli\Videos_short_600ms_horflip\63.stroke_top_to_bottom_with_screwdriver_short_horflip_short_600ms.mp4	63.stroke_top_to_bottom_with_screwdriver_short_horflip_short_600ms.mp4	118.6887921443372	119.29712949022996	0.6083373458927781	n/a	n/a	n/a	n/a
105.45068359375	0.2	215963	80	69	0	0	0	80	29	stimuli\Videos_short_600ms\36.single_slap_with_full_hand_short_short_600ms.mp4	36.single_slap_with_full_hand_short_short_600ms.mp4	119.48874645687602	120.0971093150224	0.6083628581463927	n/a	n/a	n/a	n/a
106.25048828125	0.2	217601	81	69	0	0	0	81	246	stimuli\Videos_short_600ms_horvertflip\7.repeated_touch_with_hairbrush_short_horvertflip_short_600ms.mp4	7.repeated_touch_with_hairbrush_short_horvertflip_short_600ms.mp4	120.28874856823496	120.8970900195477	0.6083414513127536	n/a	n/a	n/a	n/a
107.05029296875	0.2	219239	82	69	0	0	0	82	335	stimuli\Videos_short_600ms_vertflip\69.stroke_with_soft_sock_short_vertflip_short_600ms.mp4	69.stroke_with_soft_sock_short_vertflip_short_600ms.mp4	121.08871109161372	121.69707043082872	0.6083593392149851	n/a	n/a	n/a	n/a
107.8505859375	0.2	220878	83	69	0	0	0	83	159	stimuli\Videos_short_600ms_horflip\72.(short)stroke_with_finger_all_over_the_hand_short_horflip_short_600ms.mp4	72.(short)stroke_with_finger_all_over_the_hand_short_horflip_short_600ms.mp4	121.8887281584316	122.49705700024016	0.6083288418085431	n/a	n/a	n/a	n/a
108.650390625	0.2	222516	84	69	0	0	0	84	320	stimuli\Videos_short_600ms_vertflip\55.touch_top_to_bottom_with_nail_file_short_vertflip_short_600ms.mp4	55.touch_top_to_bottom_with_nail_file_short_vertflip_short_600ms.mp4	122.6887798280768	123.29703037365788	0.608250545581086	n/a	n/a	n/a	n/a
109.4501953125	0.2	224154	85	69	0	0	0	85	258	stimuli\Videos_short_600ms_horvertflip\80.stroke_with_sharp_stick_all_over_the_hand_short_horvertflip_short_600ms.mp4	80.stroke_with_sharp_stick_all_over_the_hand_short_horvertflip_short_600ms.mp4	123.48870774862873	124.097016063336	0.6083083147073012	n/a	n/a	n/a	n/a
110.25048828125	0.2	225793	86	69	0	0	0	86	290	stimuli\Videos_short_600ms_vertflip\28.single_injection_with_sharp_needle_short_vertflip_short_600ms.mp4	28.single_injection_with_sharp_needle_short_vertflip_short_600ms.mp4	124.28868786666544	124.89697536102769	0.6082874943622301	n/a	n/a	n/a	n/a
111.05029296875	0.2	227431	87	69	0	0	0	87	137	stimuli\Videos_short_600ms_horflip\52.touch_top_to_bottom_with_hammer_short_horflip_short_600ms.mp4	52.touch_top_to_bottom_with_hammer_short_horflip_short_600ms.mp4	125.08867209012216	125.69693553845218	0.6082634483300353	n/a	n/a	n/a	n/a
111.85009765625	0.2	229069	88	69	0	0	1	88	373	stimuli\Targets_short_600ms_horvertflip\chopstick-silver-tap_short_vertflip_short_600ms.mp4	chopstick-silver-tap_short_vertflip_short_600ms.mp4	125.88864194460848	126.49693383763542	0.6082918930269443	n/a	n/a	n/a	n/a
112.650390625	0.2	230708	89	69	0	0	0	89	3	stimuli\Videos_short_600ms\12.repeated_touch_with_nail_file_short_short_600ms.mp4	12.repeated_touch_with_nail_file_short_short_600ms.mp4	126.68862382211093	127.29692568544397	0.6083018633330539	n/a	n/a	n/a	n/a
113.4501953125	0.2	232346	90	69	0	0	0	90	119	stimuli\Videos_short_600ms_horflip\36.single_slap_with_full_hand_short_horflip_short_600ms.mp4	36.single_slap_with_full_hand_short_horflip_short_600ms.mp4	127.48860540636906	128.0969110818778	0.6083056755087455	n/a	n/a	n/a	n/a
114.25	0.2	233984	91	69	0	0	0	91	127	stimuli\Videos_short_600ms_horflip\43.touch_top_to_bottom_with_sharp_wooden_stick_short_horflip_short_600ms.mp4	43.touch_top_to_bottom_with_sharp_wooden_stick_short_horflip_short_600ms.mp4	128.28858728387195	128.8969184716343	0.6083311877623601	n/a	n/a	n/a	n/a
115.05029296875	0.2	235623	92	69	0	0	0	92	310	stimuli\Videos_short_600ms_vertflip\46.scratching_top_to_bottom_with_finger_nails_short_vertflip_short_600ms.mp4	46.scratching_top_to_bottom_with_finger_nails_short_vertflip_short_600ms.mp4	129.08853426530277	129.6968892058535	0.6083549405507256	n/a	n/a	n/a	n/a
115.85009765625	0.2	237261	93	69	0	0	0	93	71	stimuli\Videos_short_600ms\74.fingers_walking_from_top_to_bottom_short_short_600ms.mp4	74.fingers_walking_from_top_to_bottom_short_short_600ms.mp4	129.88855367807537	130.49683882648333	0.6082851484079583	n/a	n/a	n/a	n/a
116.64990234375	0.2	238899	94	69	0	0	0	94	139	stimuli\Videos_short_600ms_horflip\54.repeated_touch_with_knife_short_horflip_short_600ms.mp4	54.repeated_touch_with_knife_short_horflip_short_600ms.mp4	130.68853115691354	131.29685002841552	0.6083188715019787	5.0	5.0	2.330660509318477	1.0
151.99072265625	0.2	311277	95	69	1	0	0	0	117	stimuli\Videos_short_600ms_horflip\34.repeated_punch_with_hand_short_horflip_short_600ms.mp4	34.repeated_punch_with_hand_short_horflip_short_600ms.mp4	166.0293795595826	166.63765151199686	0.6082719524142703	n/a	n/a	n/a	n/a
152.79052734375	0.2	312915	96	69	1	0	0	1	67	stimuli\Videos_short_600ms\70.(long)stroke_with_finger_all_over_the_hand_short_short_600ms.mp4	70.(long)stroke_with_finger_all_over_the_hand_short_short_600ms.mp4	166.82936231681788	167.43765391660008	0.6082915997822056	n/a	n/a	n/a	n/a
153.59033203125	0.2	314553	97	69	1	0	1	2	378	stimuli\Targets_short_600ms_vertflip\brush-stroke_short_horvertflip_short_600ms.mp4	brush-stroke_short_horvertflip_short_600ms.mp4	167.62934331458746	168.23764693738622	0.6083036227987577	n/a	n/a	n/a	n/a
154.390625	0.2	316192	98	69	1	0	0	3	316	stimuli\Videos_short_600ms_vertflip\51.repeated_touch_with_hammer_short_vertflip_short_600ms.mp4	51.repeated_touch_with_hammer_short_vertflip_short_600ms.mp4	168.42932167315803	169.03762089729253	0.6082992241344982	n/a	n/a	n/a	n/a
155.1904296875	0.2	317830	99	69	1	0	0	4	200	stimuli\Videos_short_600ms_horvertflip\28.single_injection_with_sharp_needle_short_horvertflip_short_600ms.mp4	28.single_injection_with_sharp_needle_short_horvertflip_short_600ms.mp4	169.22930208443904	169.83762887353714	0.6083267890981006	n/a	n/a	n/a	n/a
155.99072265625	0.2	319469	100	69	1	0	0	5	181	stimuli\Videos_short_600ms_horvertflip\10.single_touch_with_knife_short_horvertflip_short_600ms.mp4	10.single_touch_with_knife_short_horvertflip_short_600ms.mp4	170.02928484167478	170.6376066456196	0.6083218039448184	n/a	n/a	n/a	n/a
156.79052734375	0.2	321107	101	69	1	0	0	6	45	stimuli\Videos_short_600ms\50.single_(long)hard_push_with_thumb_short_short_600ms.mp4	50.single_(long)hard_push_with_thumb_short_short_600ms.mp4	170.82926759891006	171.43758471094634	0.6083171120362749	n/a	n/a	n/a	n/a
157.59033203125	0.2	322745	102	69	1	0	0	7	133	stimuli\Videos_short_600ms_horflip\49.repeated_slap_with_hand_short_horflip_short_600ms.mp4	49.repeated_slap_with_hand_short_horflip_short_600ms.mp4	171.6292477169468	172.23756336276165	0.6083156458148551	n/a	n/a	n/a	n/a
158.390625	0.2	324384	103	69	1	0	0	8	235	stimuli\Videos_short_600ms_horvertflip\6.single_touch_with_flat_hand_short_horvertflip_short_600ms.mp4	6.single_touch_with_flat_hand_short_horvertflip_short_600ms.mp4	172.42923223364778	173.03754729297407	0.6083150593262872	n/a	n/a	n/a	n/a
159.1904296875	0.2	326022	104	69	1	0	0	9	205	stimuli\Videos_short_600ms_horvertflip\32.single_(long)pinch_with_fingers_short_horvertflip_short_600ms.mp4	32.single_(long)pinch_with_fingers_short_horvertflip_short_600ms.mp4	173.22920678004266	173.83752858398793	0.6083218039452731	n/a	n/a	n/a	n/a
159.990234375	0.2	327660	105	69	1	0	0	10	101	stimuli\Videos_short_600ms_horflip\2.single_touch_with_finger_short_horflip_short_600ms.mp4	2.single_touch_with_finger_short_horflip_short_600ms.mp4	174.02917428857472	174.6375098750018	0.6083355864270743	n/a	n/a	n/a	n/a
160.79052734375	0.2	329299	106	69	1	0	1	11	364	stimuli\Targets_short_600ms\hand-pinch_short_short_600ms.mp4	hand-pinch_short_short_600ms.mp4	174.82914942145862	175.43749175250423	0.6083423310456055	n/a	n/a	n/a	n/a
161.59033203125	0.2	330937	107	69	1	0	0	12	155	stimuli\Videos_short_600ms_horflip\69.stroke_with_soft_sock_short_horflip_short_600ms.mp4	69.stroke_with_soft_sock_short_horflip_short_600ms.mp4	175.6291122380817	176.23747216378524	0.608359925703553	n/a	n/a	n/a	n/a
162.39013671875	0.2	332575	108	69	1	0	0	13	222	stimuli\Videos_short_600ms_horvertflip\48.single_slap_with_hand_short_horvertflip_short_600ms.mp4	48.single_slap_with_hand_short_horvertflip_short_600ms.mp4	176.42909206287413	177.0374534547991	0.6083613919249728	n/a	n/a	n/a	n/a
163.1904296875	0.2	334214	109	69	1	0	0	14	6	stimuli\Videos_short_600ms\15.single_stroke_top_to_bottom_with_a_plastic_whisk_short_short_600ms.mp4	15.single_stroke_top_to_bottom_with_a_plastic_whisk_short_short_600ms.mp4	177.2290715944223	177.83743503905723	0.6083634446349606	n/a	n/a	n/a	n/a
163.990234375	0.2	335852	110	69	1	0	0	15	356	stimuli\Videos_short_600ms_vertflip\88.repeated_stroke_with_plastic_brush_short_vertflip_short_600ms.mp4	88.repeated_stroke_with_plastic_brush_short_vertflip_short_600ms.mp4	178.02907370578123	178.63741955575824	0.6083458499770131	n/a	n/a	n/a	n/a
164.7900390625	0.2	337490	111	69	1	0	0	16	209	stimuli\Videos_short_600ms_horvertflip\36.single_slap_with_full_hand_short_horvertflip_short_600ms.mp4	36.single_slap_with_full_hand_short_horvertflip_short_600ms.mp4	178.82907317794115	179.43737386829707	0.608300690355918	n/a	n/a	n/a	n/a
165.59033203125	0.2	339129	112	69	1	0	0	17	138	stimuli\Videos_short_600ms_horflip\53.touch_top_to_bottom_with_knife_short_horflip_short_600ms.mp4	53.touch_top_to_bottom_with_knife_short_horflip_short_600ms.mp4	179.62906092032972	180.23737656614455	0.6083156458148551	n/a	n/a	n/a	n/a
166.39013671875	0.2	340767	113	69	1	0	0	18	207	stimuli\Videos_short_600ms_horvertflip\34.repeated_punch_with_hand_short_horvertflip_short_600ms.mp4	34.repeated_punch_with_hand_short_horvertflip_short_600ms.mp4	180.42904895596257	181.03734700711948	0.6082980511569076	n/a	n/a	n/a	n/a
167.18994140625	0.2	342405	114	69	1	0	0	19	14	stimuli\Videos_short_600ms\22.single_touch_with_metal_chopstick_short_short_600ms.mp4	22.single_touch_with_metal_chopstick_short_short_600ms.mp4	181.2290325929307	181.83731862107152	0.6082860281408102	n/a	n/a	n/a	n/a
167.990234375	0.2	344044	115	69	1	0	0	20	31	stimuli\Videos_short_600ms\38.double_slap_with_pencil_short_short_600ms.mp4	38.double_slap_with_pencil_short_short_600ms.mp4	182.02901300421172	182.63730049857395	0.6082874943622301	n/a	n/a	n/a	n/a
168.7900390625	0.2	345682	116	69	1	0	0	21	195	stimuli\Videos_short_600ms_horvertflip\23.single_push_with_a_spoon_short_horvertflip_short_600ms.mp4	23.single_push_with_a_spoon_short_horvertflip_short_600ms.mp4	182.82898637762943	183.43728530851968	0.6082989308902143	n/a	n/a	n/a	n/a
169.58984375	0.2	347320	117	69	1	0	0	22	230	stimuli\Videos_short_600ms_horvertflip\55.touch_top_to_bottom_with_nail_file_short_horvertflip_short_600ms.mp4	55.touch_top_to_bottom_with_nail_file_short_horvertflip_short_600ms.mp4	183.62896708215476	184.2372671860221	0.6083001038673501	n/a	n/a	n/a	n/a
170.39013671875	0.2	348959	118	69	1	0	0	23	42	stimuli\Videos_short_600ms\48.single_slap_with_hand_short_short_600ms.mp4	48.single_slap_with_hand_short_short_600ms.mp4	184.42894983939004	185.0372563946321	0.6083065552420521	n/a	n/a	n/a	n/a
171.18994140625	0.2	350597	119	69	1	0	0	24	344	stimuli\Videos_short_600ms_vertflip\77.tapping_with_all_fingers_short_vertflip_short_600ms.mp4	77.tapping_with_all_fingers_short_vertflip_short_600ms.mp4	185.2289323033815	185.8372127598805	0.6082804564989601	n/a	n/a	n/a	n/a
171.98974609375	0.2	352235	120	69	1	0	0	25	9	stimuli\Videos_short_600ms\18.single_stroke_from_top_to_bottom_with_rolling_pin_short_short_600ms.mp4	18.single_stroke_from_top_to_bottom_with_rolling_pin_short_short_600ms.mp4	186.02889189431744	186.63723275914165	0.6083408648241857	n/a	n/a	n/a	n/a
172.7900390625	0.2	353874	121	69	1	0	0	26	79	stimuli\Videos_short_600ms\81.single_stroke_top_to_bottom_with_cotton_pad_short_short_600ms.mp4	81.single_stroke_top_to_bottom_with_cotton_pad_short_short_600ms.mp4	186.82889459216497	187.43721287717835	0.6083182850134108	n/a	n/a	n/a	n/a
173.58984375	0.2	355512	122	69	1	0	0	27	57	stimuli\Videos_short_600ms\61.single_hit_with_rolling_pin_short_short_600ms.mp4	61.single_hit_with_rolling_pin_short_short_600ms.mp4	187.62887500344596	188.2371927019708	0.6083176985248429	n/a	n/a	n/a	n/a
174.39013671875	0.2	357151	123	69	1	0	0	28	249	stimuli\Videos_short_600ms_horvertflip\72.(short)stroke_with_finger_all_over_the_hand_short_horvertflip_short_600ms.mp4	72.(short)stroke_with_finger_all_over_the_hand_short_horvertflip_short_600ms.mp4	188.42885629445985	189.03717457947323	0.6083182850134108	n/a	n/a	n/a	n/a
175.18994140625	0.2	358789	124	69	1	0	0	29	302	stimuli\Videos_short_600ms_vertflip\39.single_stab_with_scissors_short_vertflip_short_600ms.mp4	39.single_stab_with_scissors_short_vertflip_short_600ms.mp4	189.2288364124961	189.83715704346423	0.6083206309681373	n/a	n/a	n/a	n/a
175.98974609375	0.2	360427	125	69	1	0	0	30	329	stimuli\Videos_short_600ms_vertflip\63.stroke_top_to_bottom_with_screwdriver_short_vertflip_short_600ms.mp4	63.stroke_top_to_bottom_with_screwdriver_short_vertflip_short_600ms.mp4	190.0288291400379	190.63713686825668	0.6083077282187332	n/a	n/a	n/a	n/a
176.7900390625	0.2	362066	126	69	1	0	0	31	323	stimuli\Videos_short_600ms_vertflip\58.single_slap_with_pencil_short_vertflip_short_600ms.mp4	58.single_slap_with_pencil_short_vertflip_short_600ms.mp4	190.82877084307165	191.43712343766765	0.6083525945959991	n/a	n/a	n/a	n/a
177.58984375	0.2	363704	127	69	1	0	0	32	350	stimuli\Videos_short_600ms_vertflip\82.repeated_touch_with_cotton_bud_short_vertflip_short_600ms.mp4	82.repeated_touch_with_cotton_bud_short_vertflip_short_600ms.mp4	191.6287456827108	192.23710091650585	0.6083552337950096	n/a	n/a	n/a	n/a
178.3896484375	0.2	365342	128	69	1	0	0	33	58	stimuli\Videos_short_600ms\62.touch_top_to_bottom_with_scissors_short_short_600ms.mp4	62.touch_top_to_bottom_with_scissors_short_short_600ms.mp4	192.42872022910615	193.03708132778684	0.6083610986806889	n/a	n/a	n/a	n/a
179.18994140625	0.2	366981	129	69	1	0	0	34	62	stimuli\Videos_short_600ms\66.stroke_top_to_bottom_with_sponge_short_short_600ms.mp4	66.stroke_top_to_bottom_with_sponge_short_short_600ms.mp4	193.22870386607428	193.83706760395353	0.6083637378792446	n/a	n/a	n/a	n/a
179.98974609375	0.2	368619	130	69	1	0	0	35	76	stimuli\Videos_short_600ms\79.long_with_soft_brush_all_over_the_hand_short_short_600ms.mp4	79.long_with_soft_brush_all_over_the_hand_short_short_600ms.mp4	194.0287165342279	194.6370450827917	0.6083285485638044	n/a	n/a	n/a	n/a
180.78955078125	0.2	370257	131	69	1	0	0	36	243	stimuli\Videos_short_600ms_horvertflip\67.single_touch_with_sponge_short_horvertflip_short_600ms.mp4	67.single_touch_with_sponge_short_horvertflip_short_600ms.mp4	194.82869020088992	195.43702314811844	0.6083329472285186	n/a	n/a	n/a	n/a
181.58984375	0.2	371896	132	69	1	0	0	37	2	stimuli\Videos_short_600ms\11.single_touch_with_lighter_short_short_600ms.mp4	11.single_touch_with_lighter_short_short_600ms.mp4	195.62868498114176	196.23701059726272	0.6083256161209647	n/a	n/a	n/a	n/a
182.3896484375	0.2	373534	133	69	1	0	0	38	180	stimuli\Videos_short_600ms_horvertflip\1.repeated_touch_with_finger_fast_short_horvertflip_short_600ms.mp4	1.repeated_touch_with_finger_fast_short_horvertflip_short_600ms.mp4	196.4286876789893	197.0369511273193	0.6082634483300353	n/a	n/a	n/a	n/a
183.189453125	0.2	375172	134	69	1	0	0	39	115	stimuli\Videos_short_600ms_horflip\32.single_(long)pinch_with_fingers_short_horflip_short_600ms.mp4	32.single_(long)pinch_with_fingers_short_horflip_short_600ms.mp4	197.22865987942987	197.83692626020272	0.608266380772875	n/a	n/a	n/a	n/a
183.98974609375	0.2	376811	135	69	1	0	0	40	131	stimuli\Videos_short_600ms_horflip\47.(long)scratching_with_finger_nails_short_horflip_short_600ms.mp4	47.(long)scratching_with_finger_nails_short_horflip_short_600ms.mp4	198.0286353055576	198.63692074720984	0.6082854416522423	n/a	n/a	n/a	n/a
184.78955078125	0.2	378449	136	69	1	0	0	41	288	stimuli\Videos_short_600ms_vertflip\26.single_touch_with_a_blunt_syringe_short_vertflip_short_600ms.mp4	26.single_touch_with_a_blunt_syringe_short_vertflip_short_600ms.mp4	198.82861659657144	199.43691406124023	0.6082974646687944	n/a	n/a	n/a	n/a
185.58935546875	0.2	380087	137	69	1	0	0	42	74	stimuli\Videos_short_600ms\77.tapping_with_all_fingers_short_short_600ms.mp4	77.tapping_with_all_fingers_short_short_600ms.mp4	199.62859700785248	200.23690532256023	0.6083083147077559	n/a	n/a	n/a	n/a
186.3896484375	0.2	381726	138	69	1	0	0	43	105	stimuli\Videos_short_600ms_horflip\23.single_push_with_a_spoon_short_horflip_short_600ms.mp4	23.single_push_with_a_spoon_short_horflip_short_600ms.mp4	200.4285800583325	201.03690743391917	0.6083273755866685	n/a	n/a	n/a	n/a
187.189453125	0.2	383364	139	69	1	0	0	44	169	stimuli\Videos_short_600ms_horflip\81.single_stroke_top_to_bottom_with_cotton_pad_short_horflip_short_600ms.mp4	81.single_stroke_top_to_bottom_with_cotton_pad_short_horflip_short_600ms.mp4	201.22856046961303	201.83687846138264	0.6083179917695816	n/a	n/a	n/a	n/a
187.9892578125	0.2	385002	140	69	1	0	0	45	108	stimuli\Videos_short_600ms_horflip\26.single_touch_with_a_blunt_syringe_short_horflip_short_600ms.mp4	26.single_touch_with_a_blunt_syringe_short_horflip_short_600ms.mp4	202.0285526106663	202.63686942945833	0.608316818791991	n/a	n/a	n/a	n/a
188.78955078125	0.2	386641	141	69	1	0	0	46	107	stimuli\Videos_short_600ms_horflip\25.single_touch_with_stanley_knife_short_horflip_short_600ms.mp4	25.single_touch_with_stanley_knife_short_horflip_short_600ms.mp4	202.82852334488553	203.4368425096318	0.6083191647462627	n/a	n/a	n/a	n/a
189.58935546875	0.2	388279	142	69	1	0	0	47	261	stimuli\Videos_short_600ms_horvertflip\83.single_stroke_top_to_bottom_with_cotton_bud_short_horvertflip_short_600ms.mp4	83.single_stroke_top_to_bottom_with_cotton_bud_short_horvertflip_short_600ms.mp4	203.62848821421855	204.2368208682028	0.6083326539842346	n/a	n/a	n/a	n/a
190.38916015625	0.2	389917	143	69	1	0	0	48	308	stimuli\Videos_short_600ms_vertflip\44.pushing_top_to_bottom_with_finger_short_vertflip_short_600ms.mp4	44.pushing_top_to_bottom_with_finger_short_vertflip_short_600ms.mp4	204.42849384450892	205.03680274570524	0.6083089011963239	n/a	n/a	n/a	n/a
191.189453125	0.2	391556	144	69	1	0	1	49	381	stimuli\Targets_short_600ms_vertflip\finger-tap_short_horvertflip_short_600ms.mp4	finger-tap_short_horvertflip_short_600ms.mp4	205.2284455178492	205.83678345023057	0.608337932381346	n/a	n/a	n/a	n/a
191.9892578125	0.2	393194	145	69	1	0	0	50	319	stimuli\Videos_short_600ms_vertflip\54.repeated_touch_with_knife_short_vertflip_short_600ms.mp4	54.repeated_touch_with_knife_short_vertflip_short_600ms.mp4	206.02844880218527	206.6367659142215	0.6083171120362749	n/a	n/a	n/a	n/a
192.78955078125	0.2	394833	146	69	1	0	0	51	168	stimuli\Videos_short_600ms_horflip\80.stroke_with_sharp_stick_all_over_the_hand_short_horflip_short_600ms.mp4	80.stroke_with_sharp_stick_all_over_the_hand_short_horflip_short_600ms.mp4	206.828386399799	207.4367724242447	0.6083860244457355	n/a	n/a	n/a	n/a
193.58935546875	0.2	396471	147	69	1	0	0	52	213	stimuli\Videos_short_600ms_horvertflip\4.repeated_tap_with_finger_slow_short_horvertflip_short_600ms.mp4	4.repeated_tap_with_finger_slow_short_horvertflip_short_600ms.mp4	207.62837824760751	208.2367466773958	0.6083684297882428	n/a	n/a	n/a	n/a
194.38916015625	0.2	398109	148	69	1	0	0	53	242	stimuli\Videos_short_600ms_horvertflip\66.stroke_top_to_bottom_with_sponge_short_horvertflip_short_600ms.mp4	66.stroke_top_to_bottom_with_sponge_short_horvertflip_short_600ms.mp4	208.4283495683153	209.03671829134785	0.6083687230325268	n/a	n/a	n/a	n/a
195.189453125	0.2	399748	149	69	1	0	0	54	80	stimuli\Videos_short_600ms\82.repeated_touch_with_cotton_bud_short_short_600ms.mp4	82.repeated_touch_with_cotton_bud_short_short_600ms.mp4	209.22835871753705	209.83669137152128	0.6083326539842346	n/a	n/a	n/a	n/a
195.9892578125	0.2	401386	150	69	1	0	0	55	212	stimuli\Videos_short_600ms_horvertflip\39.single_stab_with_scissors_short_horvertflip_short_600ms.mp4	39.single_stab_with_scissors_short_horvertflip_short_600ms.mp4	210.02833560988665	210.6366682638709	0.6083326539842346	n/a	n/a	n/a	n/a
196.7890625	0.2	403024	151	69	1	0	0	56	224	stimuli\Videos_short_600ms_horvertflip\5.repeated_tap_with_finger_moving_from_top_to_bottom_short_horvertflip_short_600ms.mp4	5.repeated_tap_with_finger_moving_from_top_to_bottom_short_horvertflip_short_600ms.mp4	210.82834622533028	211.4366779995812	0.608331774250928	n/a	n/a	n/a	n/a
197.58935546875	0.2	404663	152	69	1	0	0	57	154	stimuli\Videos_short_600ms_horflip\68.stroke_top_to_bottom_with_shawl_short_horflip_short_600ms.mp4	68.stroke_top_to_bottom_with_shawl_short_horflip_short_600ms.mp4	211.62832927580985	212.2366446283804	0.6083153525705711	n/a	n/a	n/a	n/a
198.38916015625	0.2	406301	153	69	1	0	0	58	295	stimuli\Videos_short_600ms_vertflip\32.single_(long)pinch_with_fingers_short_vertflip_short_600ms.mp4	32.single_(long)pinch_with_fingers_short_vertflip_short_600ms.mp4	212.42829971678475	213.0365845719484	0.6082848551636744	n/a	n/a	n/a	n/a
199.18896484375	0.2	407939	154	69	1	0	0	59	315	stimuli\Videos_short_600ms_vertflip\50.single_(long)hard_push_with_thumb_short_vertflip_short_600ms.mp4	50.single_(long)hard_push_with_thumb_short_vertflip_short_600ms.mp4	213.2282815942872	213.8365819913988	0.6083003971116341	n/a	n/a	n/a	n/a
199.9892578125	0.2	409578	155	69	1	0	0	60	61	stimuli\Videos_short_600ms\65.stroke_top_to_bottom_with_stanley_knife_short_short_600ms.mp4	65.stroke_top_to_bottom_with_stanley_knife_short_short_600ms.mp4	214.02827109614145	214.63657618516163	0.6083050890201775	n/a	n/a	n/a	n/a
200.7890625	0.2	411216	156	69	1	0	0	61	145	stimuli\Videos_short_600ms_horflip\6.single_touch_with_flat_hand_short_horflip_short_600ms.mp4	6.single_touch_with_flat_hand_short_horflip_short_600ms.mp4	214.82823127356596	215.43655278426695	0.6083215107009892	n/a	n/a	n/a	n/a
201.5888671875	0.2	412854	157	69	1	0	0	62	240	stimuli\Videos_short_600ms_horvertflip\64.repeated_touch_with_screwdriver_short_horvertflip_short_600ms.mp4	64.repeated_touch_with_screwdriver_short_horvertflip_short_600ms.mp4	215.6282251740845	216.23654727127405	0.6083220971895571	n/a	n/a	n/a	n/a
202.38916015625	0.2	414493	158	69	1	0	0	63	96	stimuli\Videos_short_600ms_horflip\15.single_stroke_top_to_bottom_with_a_plastic_whisk_short_horflip_short_600ms.mp4	15.single_stroke_top_to_bottom_with_a_plastic_whisk_short_horflip_short_600ms.mp4	216.42820910429737	217.0365391190826	0.6083300147852242	n/a	n/a	n/a	n/a
203.18896484375	0.2	416131	159	69	1	0	0	64	278	stimuli\Videos_short_600ms_vertflip\17.repeated_touch_with_rolling_pin_short_vertflip_short_600ms.mp4	17.repeated_touch_with_rolling_pin_short_vertflip_short_600ms.mp4	217.22819039531123	217.8365130789889	0.6083226836776703	n/a	n/a	n/a	n/a
203.98876953125	0.2	417769	160	69	1	0	0	65	198	stimuli\Videos_short_600ms_horvertflip\26.single_touch_with_a_blunt_syringe_short_horvertflip_short_600ms.mp4	26.single_touch_with_a_blunt_syringe_short_horvertflip_short_600ms.mp4	218.02817080659224	218.6364955429799	0.608324736387658	n/a	n/a	n/a	n/a
204.7890625	0.2	419408	161	69	1	0	0	66	192	stimuli\Videos_short_600ms_horvertflip\20.single_touch_with_screwdriver_short_horvertflip_short_600ms.mp4	20.single_touch_with_screwdriver_short_horvertflip_short_600ms.mp4	218.8281520976061	219.43647742048233	0.608325322876226	n/a	n/a	n/a	n/a
205.5888671875	0.2	421046	162	69	1	0	0	67	191	stimuli\Videos_short_600ms_horvertflip\2.single_touch_with_finger_short_horvertflip_short_600ms.mp4	2.single_touch_with_finger_short_horvertflip_short_600ms.mp4	219.6281292831995	220.2364569520305	0.6083276688309525	n/a	n/a	n/a	n/a
206.388671875	0.2	422684	163	69	1	0	0	68	100	stimuli\Videos_short_600ms_horflip\19.single_touch_with_rolling_pin_short_horflip_short_600ms.mp4	19.single_touch_with_rolling_pin_short_horflip_short_600ms.mp4	220.42811145394623	221.03643882953293	0.6083273755866685	n/a	n/a	n/a	n/a
207.18896484375	0.2	424323	164	69	1	0	0	69	129	stimuli\Videos_short_600ms_horflip\45.scratching_with_finger_nails_short_horflip_short_600ms.mp4	45.scratching_with_finger_nails_short_horflip_short_600ms.mp4	221.22808541385305	221.83641132321827	0.6083259093652487	n/a	n/a	n/a	n/a
207.98876953125	0.2	425961	165	69	1	0	0	70	197	stimuli\Videos_short_600ms_horvertflip\25.single_touch_with_stanley_knife_short_horvertflip_short_600ms.mp4	25.single_touch_with_stanley_knife_short_horvertflip_short_600ms.mp4	222.0280523358961	222.63638264392603	0.6083303080299629	n/a	n/a	n/a	n/a
208.78857421875	0.2	427599	166	69	1	0	0	71	256	stimuli\Videos_short_600ms_horvertflip\79.long_with_soft_brush_all_over_the_hand_short_horvertflip_short_600ms.mp4	79.long_with_soft_brush_all_over_the_hand_short_horvertflip_short_600ms.mp4	222.82803509313135	223.43635601734377	0.6083209242124212	n/a	n/a	n/a	n/a
209.5888671875	0.2	429238	167	69	1	0	0	72	293	stimuli\Videos_short_600ms_vertflip\30.finger_pulling_back_another_finger_short_vertflip_short_600ms.mp4	30.finger_pulling_back_another_finger_short_vertflip_short_600ms.mp4	223.6280187300999	224.2363261650744	0.6083074349744493	n/a	n/a	n/a	n/a
210.388671875	0.2	430876	168	69	1	0	0	73	92	stimuli\Videos_short_600ms_horflip\11.single_touch_with_lighter_short_horflip_short_600ms.mp4	11.single_touch_with_lighter_short_horflip_short_600ms.mp4	224.42800588599948	225.03630100471355	0.6082951187140679	n/a	n/a	n/a	n/a
211.1884765625	0.2	432514	169	69	1	0	1	74	362	stimuli\Targets_short_600ms\chopstickwood-tap_short_short_600ms.mp4	chopstickwood-tap_short_short_600ms.mp4	225.22798981621236	225.8362717389327	0.60828192272038	n/a	n/a	n/a	n/a
211.98876953125	0.2	434153	170	69	1	0	0	75	236	stimuli\Videos_short_600ms_horvertflip\60.single_push_with_tip_of_pencil_short_horvertflip_short_600ms.mp4	60.single_push_with_tip_of_pencil_short_horvertflip_short_600ms.mp4	226.02797198695907	226.63625273670232	0.6082807497432441	n/a	n/a	n/a	n/a
212.78857421875	0.2	435791	171	69	1	0	0	76	306	stimuli\Videos_short_600ms_vertflip\42.single_slap_with_plastic_whisk_short_vertflip_short_600ms.mp4	42.single_slap_with_plastic_whisk_short_vertflip_short_600ms.mp4	226.82797321858516	227.43621848576868	0.6082452671835199	n/a	n/a	n/a	n/a
213.5888671875	0.2	437430	172	69	1	0	0	77	237	stimuli\Videos_short_600ms_horvertflip\61.single_hit_with_rolling_pin_short_horvertflip_short_600ms.mp4	61.single_hit_with_rolling_pin_short_horvertflip_short_600ms.mp4	227.6279568555533	228.2361804226589	0.6082235671055969	n/a	n/a	n/a	n/a
214.388671875	0.2	439068	173	69	1	0	0	78	194	stimuli\Videos_short_600ms_horvertflip\22.single_touch_with_metal_chopstick_short_horvertflip_short_600ms.mp4	22.single_touch_with_metal_chopstick_short_horvertflip_short_600ms.mp4	228.42793697359	229.03615966096277	0.608222687372745	n/a	n/a	n/a	n/a
215.1884765625	0.2	440706	174	69	1	0	0	79	327	stimuli\Videos_short_600ms_vertflip\61.single_hit_with_rolling_pin_short_vertflip_short_600ms.mp4	61.single_hit_with_rolling_pin_short_vertflip_short_600ms.mp4	229.22791064025205	229.8361432979309	0.6082326576788546	n/a	n/a	n/a	n/a
215.98876953125	0.2	442345	175	69	1	0	0	80	221	stimuli\Videos_short_600ms_horvertflip\47.(long)scratching_with_finger_nails_short_horvertflip_short_600ms.mp4	47.(long)scratching_with_finger_nails_short_horvertflip_short_600ms.mp4	230.0278901718002	230.63616388368064	0.6082737118804289	n/a	n/a	n/a	n/a
216.78857421875	0.2	443983	176	69	1	0	0	81	353	stimuli\Videos_short_600ms_vertflip\85.touch_top_to_bottom_with_fabric_short_vertflip_short_600ms.mp4	85.touch_top_to_bottom_with_fabric_short_vertflip_short_600ms.mp4	230.82787204930264	231.4361536787792	0.6082816294765507	n/a	n/a	n/a	n/a
217.58837890625	0.2	445621	177	69	1	0	0	82	63	stimuli\Videos_short_600ms\67.single_touch_with_sponge_short_short_600ms.mp4	67.single_touch_with_sponge_short_short_600ms.mp4	231.6278533403165	232.2361238265098	0.6082704861933053	n/a	n/a	n/a	n/a
218.388671875	0.2	447260	178	69	1	0	0	83	53	stimuli\Videos_short_600ms\58.single_slap_with_pencil_short_short_600ms.mp4	58.single_slap_with_pencil_short_short_600ms.mp4	232.42783492457465	233.0361027715694	0.6082678469947496	n/a	n/a	n/a	n/a
219.1884765625	0.2	448898	179	69	1	0	0	84	32	stimuli\Videos_short_600ms\39.single_stab_with_scissors_short_short_600ms.mp4	39.single_stab_with_scissors_short_short_600ms.mp4	233.2278194412761	233.8360834760947	0.6082640348186032	n/a	n/a	n/a	n/a
219.98828125	0.2	450536	180	69	1	0	0	85	65	stimuli\Videos_short_600ms\69.stroke_with_soft_sock_short_short_600ms.mp4	69.stroke_with_soft_sock_short_short_600ms.mp4	234.0277989728238	234.63606447386428	0.6082655010404778	n/a	n/a	n/a	n/a
220.78857421875	0.2	452175	181	69	1	0	0	86	147	stimuli\Videos_short_600ms_horflip\61.single_hit_with_rolling_pin_short_horflip_short_600ms.mp4	61.single_hit_with_rolling_pin_short_horflip_short_600ms.mp4	234.8277796773491	235.436046644611	0.6082669672618977	n/a	n/a	n/a	n/a
221.58837890625	0.2	453813	182	69	1	0	0	87	46	stimuli\Videos_short_600ms\51.repeated_touch_with_hammer_short_short_600ms.mp4	51.repeated_touch_with_hammer_short_short_600ms.mp4	235.6277562764544	236.23602764238055	0.6082713659261572	n/a	n/a	n/a	n/a
222.38818359375	0.2	455451	183	69	1	0	0	88	25	stimuli\Videos_short_600ms\32.single_(long)pinch_with_fingers_short_short_600ms.mp4	32.single_(long)pinch_with_fingers_short_short_600ms.mp4	236.42773874044545	237.036009519883	0.6082707794375892	n/a	n/a	n/a	n/a
223.1884765625	0.2	457090	184	69	1	0	0	89	158	stimuli\Videos_short_600ms_horflip\71.single_stroke_with_finger_top_to_bottom_short_horflip_short_600ms.mp4	71.single_stroke_with_finger_top_to_bottom_short_horflip_short_600ms.mp4	237.22772061794785	237.835991983874	0.6082713659261572	n/a	n/a	n/a	n/a
223.98828125	0.2	458728	185	69	1	0	0	90	217	stimuli\Videos_short_600ms_horvertflip\43.touch_top_to_bottom_with_sharp_wooden_stick_short_horvertflip_short_600ms.mp4	43.touch_top_to_bottom_with_sharp_wooden_stick_short_horvertflip_short_600ms.mp4	238.02770718735928	238.63597386137644	0.608266674017159	n/a	n/a	n/a	n/a
224.7880859375	0.2	460366	186	69	1	0	0	91	334	stimuli\Videos_short_600ms_vertflip\68.stroke_top_to_bottom_with_shawl_short_vertflip_short_600ms.mp4	68.stroke_top_to_bottom_with_shawl_short_vertflip_short_600ms.mp4	238.82767469589135	239.4359572051003	0.6082825092089479	n/a	n/a	n/a	n/a
225.58837890625	0.2	462005	187	69	1	0	0	92	359	stimuli\Videos_short_600ms_vertflip\90.repeated_touch_with_sponge_short_vertflip_short_600ms.mp4	90.repeated_touch_with_sponge_short_vertflip_short_600ms.mp4	239.62768707080025	240.23593644340417	0.6082493726039502	n/a	n/a	n/a	n/a
226.38818359375	0.2	463643	188	69	1	0	0	93	26	stimuli\Videos_short_600ms\33.scratch_top_to_bottom_with_scissors_short_short_600ms.mp4	33.scratch_top_to_bottom_with_scissors_short_short_600ms.mp4	240.4276390373848	241.0359200803723	0.608281042987528	4.0	4.0	2.005864885930805	1.0
268.34521484375	0.2	549571	189	69	2	0	0	0	153	stimuli\Videos_short_600ms_horflip\67.single_touch_with_sponge_short_horflip_short_600ms.mp4	67.single_touch_with_sponge_short_horflip_short_600ms.mp4	282.38500688830845	282.9933187219476	0.6083118336391635	n/a	n/a	n/a	n/a
269.14501953125	0.2	551209	190	69	2	0	0	1	11	stimuli\Videos_short_600ms\2.single_touch_with_finger_short_short_600ms.mp4	2.single_touch_with_finger_short_short_600ms.mp4	283.18498554012376	283.7933132089547	0.6083276688309525	n/a	n/a	n/a	n/a
269.9453125	0.2	552848	191	69	2	0	0	2	90	stimuli\Videos_short_600ms_horflip\1.repeated_touch_with_finger_fast_short_horflip_short_600ms.mp4	1.repeated_touch_with_finger_fast_short_horflip_short_600ms.mp4	283.98496800411476	284.59328452966247	0.608316525547707	n/a	n/a	n/a	n/a
270.7451171875	0.2	554486	192	69	2	0	0	3	163	stimuli\Videos_short_600ms_horflip\76.tickle_with_fingers_from_top_to_bottom_short_horflip_short_600ms.mp4	76.tickle_with_fingers_from_top_to_bottom_short_horflip_short_600ms.mp4	284.78494665593007	285.39326670040964	0.6083200444795693	n/a	n/a	n/a	n/a
271.544921875	0.2	556124	193	69	2	0	0	4	150	stimuli\Videos_short_600ms_horflip\64.repeated_touch_with_screwdriver_short_horflip_short_600ms.mp4	64.repeated_touch_with_screwdriver_short_horflip_short_600ms.mp4	285.5849308793868	286.1932471116902	0.608316232303423	n/a	n/a	n/a	n/a
272.34521484375	0.2	557763	194	69	2	0	0	5	103	stimuli\Videos_short_600ms_horflip\21.repeated_touch_with_metal_chopstick_short_horflip_short_600ms.mp4	21.repeated_touch_with_metal_chopstick_short_horflip_short_600ms.mp4	286.38491187715636	286.9932322148802	0.6083203377238533	n/a	n/a	n/a	n/a
273.14501953125	0.2	559401	195	69	2	0	0	6	202	stimuli\Videos_short_600ms_horvertflip\3.single_push_with_finger_short_horvertflip_short_600ms.mp4	3.single_push_with_finger_short_horvertflip_short_600ms.mp4	287.184869122138	287.79321057345123	0.6083414513132084	n/a	n/a	n/a	n/a
273.94482421875	0.2	561039	196	69	2	0	0	7	15	stimuli\Videos_short_600ms\23.single_push_with_a_spoon_short_short_600ms.mp4	23.single_push_with_a_spoon_short_short_600ms.mp4	287.98486155643513	288.5931903982437	0.6083288418085431	n/a	n/a	n/a	n/a
274.7451171875	0.2	562678	197	69	2	0	0	8	173	stimuli\Videos_short_600ms_horflip\85.touch_top_to_bottom_with_fabric_short_horflip_short_600ms.mp4	85.touch_top_to_bottom_with_fabric_short_horflip_short_600ms.mp4	288.7848085378664	289.3931725689904	0.6083640311239833	n/a	n/a	n/a	n/a
275.544921875	0.2	564316	198	69	2	0	0	9	104	stimuli\Videos_short_600ms_horflip\22.single_touch_with_metal_chopstick_short_horflip_short_600ms.mp4	22.single_touch_with_metal_chopstick_short_horflip_short_600ms.mp4	289.5848012654078	290.1931553262257	0.6083540608178737	n/a	n/a	n/a	n/a
276.3447265625	0.2	565954	199	69	2	0	0	10	245	stimuli\Videos_short_600ms_horvertflip\69.stroke_with_soft_sock_short_horvertflip_short_600ms.mp4	69.stroke_with_soft_sock_short_horvertflip_short_600ms.mp4	290.384774638826	290.99313661723954	0.6083619784135408	n/a	n/a	n/a	n/a
277.14501953125	0.2	567593	200	69	2	0	0	11	266	stimuli\Videos_short_600ms_horvertflip\88.repeated_stroke_with_plastic_brush_short_horvertflip_short_600ms.mp4	88.repeated_stroke_with_plastic_brush_short_horvertflip_short_600ms.mp4	291.18477000556595	291.79311262985584	0.6083426242898895	n/a	n/a	n/a	n/a
277.94482421875	0.2	569231	201	69	2	0	0	12	322	stimuli\Videos_short_600ms_vertflip\57.single_touch_with_nail_file_short_vertflip_short_600ms.mp4	57.single_touch_with_nail_file_short_vertflip_short_600ms.mp4	291.9847639060845	292.59309597358015	0.6083320674956667	n/a	n/a	n/a	n/a
278.74462890625	0.2	570869	202	69	2	0	0	13	81	stimuli\Videos_short_600ms\83.single_stroke_top_to_bottom_with_cotton_bud_short_short_600ms.mp4	83.single_stroke_top_to_bottom_with_cotton_bud_short_short_600ms.mp4	292.7847493025188	293.3930711064636	0.6083218039448184	n/a	n/a	n/a	n/a
279.544921875	0.2	572508	203	69	2	0	0	14	259	stimuli\Videos_short_600ms_horvertflip\81.single_stroke_top_to_bottom_with_cotton_pad_short_horvertflip_short_600ms.mp4	81.single_stroke_top_to_bottom_with_cotton_pad_short_horvertflip_short_600ms.mp4	293.5847534665877	294.1930436001485	0.6082901335607858	n/a	n/a	n/a	n/a
280.3447265625	0.2	574146	204	69	2	0	0	15	238	stimuli\Videos_short_600ms_horvertflip\62.touch_top_to_bottom_with_scissors_short_horvertflip_short_600ms.mp4	62.touch_top_to_bottom_with_scissors_short_horvertflip_short_600ms.mp4	294.3847221480969	294.99302753036136	0.6083053822644615	n/a	n/a	n/a	n/a
281.14501953125	0.2	575785	205	69	2	0	0	16	215	stimuli\Videos_short_600ms_horvertflip\41.injection_with_blunt_syringe_short_horvertflip_short_600ms.mp4	41.injection_with_blunt_syringe_short_horvertflip_short_600ms.mp4	295.1847046120879	295.7930044227105	0.6082998106226114	n/a	n/a	n/a	n/a
281.94482421875	0.2	577423	206	69	2	0	0	17	146	stimuli\Videos_short_600ms_horflip\60.single_push_with_tip_of_pencil_short_horflip_short_600ms.mp4	60.single_push_with_tip_of_pencil_short_horflip_short_600ms.mp4	295.9846850233689	296.59298395425867	0.6082989308897595	n/a	n/a	n/a	n/a
282.74462890625	0.2	579061	207	69	2	0	0	18	299	stimuli\Videos_short_600ms_vertflip\36.single_slap_with_full_hand_short_vertflip_short_600ms.mp4	36.single_slap_with_full_hand_short_vertflip_short_600ms.mp4	296.7846657278942	297.3929740426015	0.6083083147073012	n/a	n/a	n/a	n/a
283.544921875	0.2	580700	208	69	2	0	0	19	253	stimuli\Videos_short_600ms_horvertflip\76.tickle_with_fingers_from_top_to_bottom_short_horvertflip_short_600ms.mp4	76.tickle_with_fingers_from_top_to_bottom_short_horvertflip_short_600ms.mp4	297.5846502445952	298.19296442418863	0.6083141795934353	n/a	n/a	n/a	n/a
284.3447265625	0.2	582338	209	69	2	0	0	20	214	stimuli\Videos_short_600ms_horvertflip\40.repeated_push_with_finger_short_horvertflip_short_600ms.mp4	40.repeated_push_with_finger_short_horvertflip_short_600ms.mp4	298.38463153560906	298.99296184363857	0.6083303080295082	n/a	n/a	n/a	n/a
285.14453125	0.2	583976	210	69	2	0	0	21	48	stimuli\Videos_short_600ms\53.touch_top_to_bottom_with_knife_short_short_600ms.mp4	53.touch_top_to_bottom_with_knife_short_short_600ms.mp4	299.1846096009358	299.79293081839205	0.6083212174562505	n/a	n/a	n/a	n/a
285.94482421875	0.2	585615	211	69	2	0	0	22	267	stimuli\Videos_short_600ms_horvertflip\89.single_touch_with_plastic_brush_short_horvertflip_short_600ms.mp4	89.single_touch_with_plastic_brush_short_horvertflip_short_600ms.mp4	299.9846020352329	300.5929106431845	0.6083086079515851	n/a	n/a	n/a	n/a
286.74462890625	0.2	587253	212	69	2	0	0	23	5	stimuli\Videos_short_600ms\14.repeated_touch_with_pencil_short_short_600ms.mp4	14.repeated_touch_with_pencil_short_short_600ms.mp4	300.78457394242923	301.39289193419836	0.6083179917691268	n/a	n/a	n/a	n/a
287.54443359375	0.2	588891	213	69	2	0	0	24	280	stimuli\Videos_short_600ms_vertflip\19.single_touch_with_rolling_pin_short_vertflip_short_600ms.mp4	19.single_touch_with_rolling_pin_short_vertflip_short_600ms.mp4	301.5845326536323	302.1928735184565	0.6083408648241857	n/a	n/a	n/a	n/a
288.3447265625	0.2	590530	214	69	2	0	0	25	228	stimuli\Videos_short_600ms_horvertflip\53.touch_top_to_bottom_with_knife_short_horvertflip_short_600ms.mp4	53.touch_top_to_bottom_with_knife_short_horvertflip_short_600ms.mp4	302.38453153930413	302.9928524635161	0.6083209242119665	n/a	n/a	n/a	n/a
289.14453125	0.2	592168	215	69	2	0	1	26	366	stimuli\Targets_short_600ms_horflip\brush-stroke_short_horflip_short_600ms.mp4	brush-stroke_short_horflip_short_600ms.mp4	303.1845002208129	303.79283404777425	0.6083338269613705	n/a	n/a	n/a	n/a
289.9443359375	0.2	593806	216	69	2	0	0	27	265	stimuli\Videos_short_600ms_horvertflip\87.single_stroke_top_to_bottom_with_plastic_brush_short_horvertflip_short_600ms.mp4	87.single_stroke_top_to_bottom_with_plastic_brush_short_horvertflip_short_600ms.mp4	303.98450614434796	304.5928206171857	0.6083144728377192	n/a	n/a	n/a	n/a
290.74462890625	0.2	595445	217	69	2	0	0	28	13	stimuli\Videos_short_600ms\21.repeated_touch_with_metal_chopstick_short_short_600ms.mp4	21.repeated_touch_with_metal_chopstick_short_short_600ms.mp4	304.7844537122678	305.3927983892677	0.6083446769998773	n/a	n/a	n/a	n/a
291.54443359375	0.2	597083	218	69	2	0	0	29	128	stimuli\Videos_short_600ms_horflip\44.pushing_top_to_bottom_with_finger_short_horflip_short_600ms.mp4	44.pushing_top_to_bottom_with_finger_short_horflip_short_600ms.mp4	305.5844182883566	306.19277762757156	0.6083593392149851	n/a	n/a	n/a	n/a
292.34423828125	0.2	598721	219	69	2	0	0	30	91	stimuli\Videos_short_600ms_horflip\10.single_touch_with_knife_short_horflip_short_600ms.mp4	10.single_touch_with_knife_short_horflip_short_600ms.mp4	306.3844183470055	306.9927577456083	0.6083393986027659	n/a	n/a	n/a	n/a
293.14453125	0.2	600360	220	69	2	0	0	31	41	stimuli\Videos_short_600ms\47.(long)scratching_with_finger_nails_short_short_600ms.mp4	47.(long)scratching_with_finger_nails_short_short_600ms.mp4	307.1844093150812	307.7927422623093	0.6083329472280639	n/a	n/a	n/a	n/a
293.9443359375	0.2	601998	221	69	2	0	0	32	170	stimuli\Videos_short_600ms_horflip\82.repeated_touch_with_cotton_bud_short_horflip_short_600ms.mp4	82.repeated_touch_with_cotton_bud_short_horflip_short_600ms.mp4	307.9843853276975	308.5927267790107	0.6083414513132084	n/a	n/a	n/a	n/a
294.744140625	0.2	603636	222	69	2	0	0	33	183	stimuli\Videos_short_600ms_horvertflip\12.repeated_touch_with_nail_file_short_horvertflip_short_600ms.mp4	12.repeated_touch_with_nail_file_short_horvertflip_short_600ms.mp4	308.7843982890954	309.39267434693056	0.6082760578351554	n/a	n/a	n/a	n/a
295.54443359375	0.2	605275	223	69	2	0	0	34	82	stimuli\Videos_short_600ms\84.single_touch_with_cotton_bud_short_short_600ms.mp4	84.single_touch_with_cotton_bud_short_short_600ms.mp4	309.58437048953647	310.1926491865697	0.6082786970332563	n/a	n/a	n/a	n/a
296.34423828125	0.2	606913	224	69	2	0	0	35	151	stimuli\Videos_short_600ms_horflip\65.stroke_top_to_bottom_with_stanley_knife_short_horflip_short_600ms.mp4	65.stroke_top_to_bottom_with_stanley_knife_short_horflip_short_600ms.mp4	310.3843473818856	310.9926422073554	0.608294825469784	n/a	n/a	n/a	n/a
297.14404296875	0.2	608551	225	69	2	0	0	36	135	stimuli\Videos_short_600ms_horflip\50.single_(long)hard_push_with_thumb_short_horflip_short_600ms.mp4	50.single_(long)hard_push_with_thumb_short_horflip_short_600ms.mp4	311.18432779316663	311.7926044374899	0.6082766443232686	n/a	n/a	n/a	n/a
297.9443359375	0.2	610190	226	69	2	0	0	37	281	stimuli\Videos_short_600ms_vertflip\2.single_touch_with_finger_short_vertflip_short_600ms.mp4	2.single_touch_with_finger_short_vertflip_short_600ms.mp4	311.98431025715763	312.5926173988878	0.6083071417301653	n/a	n/a	n/a	n/a
298.744140625	0.2	611828	227	69	2	0	0	38	97	stimuli\Videos_short_600ms_horflip\16.repeated_touch_with_plastic_brush_short_horflip_short_600ms.mp4	16.repeated_touch_with_plastic_brush_short_horflip_short_600ms.mp4	312.7842909616829	313.3926107129182	0.6083197512352854	n/a	n/a	n/a	n/a
299.54443359375	0.2	613467	228	69	2	0	0	39	84	stimuli\Videos_short_600ms\86.touch_top_to_bottom_with_hair_brush_short_short_600ms.mp4	86.touch_top_to_bottom_with_hair_brush_short_short_600ms.mp4	313.58427283918536	314.1926019742382	0.608329135052827	n/a	n/a	n/a	n/a
300.34423828125	0.2	615105	229	69	2	0	0	40	357	stimuli\Videos_short_600ms_vertflip\89.single_touch_with_plastic_brush_short_vertflip_short_600ms.mp4	89.single_touch_with_plastic_brush_short_vertflip_short_600ms.mp4	314.3842550099321	314.99257329494594	0.6083182850138655	n/a	n/a	n/a	n/a
301.14404296875	0.2	616743	230	69	2	0	0	41	99	stimuli\Videos_short_600ms_horflip\18.single_stroke_from_top_to_bottom_with_rolling_pin_short_horflip_short_600ms.mp4	18.single_stroke_from_top_to_bottom_with_rolling_pin_short_horflip_short_600ms.mp4	315.1842360077021	315.7925548792041	0.6083188715019787	n/a	n/a	n/a	n/a
301.9443359375	0.2	618382	231	69	2	0	0	42	111	stimuli\Videos_short_600ms_horflip\29.single_pinch_with_tweezers_short_horflip_short_600ms.mp4	29.single_pinch_with_tweezers_short_horflip_short_600ms.mp4	315.9842161257384	316.5925367567065	0.6083206309681373	n/a	n/a	n/a	n/a
302.744140625	0.2	620020	232	69	2	0	0	43	248	stimuli\Videos_short_600ms_horvertflip\71.single_stroke_with_finger_top_to_bottom_short_horvertflip_short_600ms.mp4	71.single_stroke_with_finger_top_to_bottom_short_horvertflip_short_600ms.mp4	316.7841991762184	317.3925157017661	0.608316525547707	n/a	n/a	n/a	n/a
303.5439453125	0.2	621658	233	69	2	0	0	44	7	stimuli\Videos_short_600ms\16.repeated_touch_with_plastic_brush_short_short_600ms.mp4	16.repeated_touch_with_plastic_brush_short_short_600ms.mp4	317.5841795874994	318.1924987522457	0.6083191647462627	n/a	n/a	n/a	n/a
304.34423828125	0.2	623297	234	69	2	0	0	45	28	stimuli\Videos_short_600ms\35.single_punch_with_hand_short_short_600ms.mp4	35.single_punch_with_hand_short_short_600ms.mp4	318.38415501362715	318.99248620138997	0.6083311877628148	n/a	n/a	n/a	n/a
305.14404296875	0.2	624935	235	69	2	0	0	46	175	stimuli\Videos_short_600ms_horflip\87.single_stroke_top_to_bottom_with_plastic_brush_short_horflip_short_600ms.mp4	87.single_stroke_top_to_bottom_with_plastic_brush_short_horflip_short_600ms.mp4	319.1841084464327	319.79246074778484	0.6083523013521699	n/a	n/a	n/a	n/a
305.94384765625	0.2	626573	236	69	2	0	0	47	317	stimuli\Videos_short_600ms_vertflip\52.touch_top_to_bottom_with_hammer_short_vertflip_short_600ms.mp4	52.touch_top_to_bottom_with_hammer_short_vertflip_short_600ms.mp4	319.9841020537074	320.5924408658216	0.6083388121141979	n/a	n/a	n/a	n/a
306.744140625	0.2	628212	237	69	2	0	0	48	318	stimuli\Videos_short_600ms_vertflip\53.touch_top_to_bottom_with_knife_short_vertflip_short_600ms.mp4	53.touch_top_to_bottom_with_knife_short_vertflip_short_600ms.mp4	320.7841044583106	321.3924245027897	0.6083200444791146	n/a	n/a	n/a	n/a
307.5439453125	0.2	629850	238	69	2	0	0	49	341	stimuli\Videos_short_600ms_vertflip\74.fingers_walking_from_top_to_bottom_short_vertflip_short_600ms.mp4	74.fingers_walking_from_top_to_bottom_short_vertflip_short_600ms.mp4	321.58404176268004	322.19240432758215	0.6083625649021087	n/a	n/a	n/a	n/a
308.34375	0.2	631488	239	69	2	0	0	50	187	stimuli\Videos_short_600ms_horvertflip\16.repeated_touch_with_plastic_brush_short_horvertflip_short_600ms.mp4	16.repeated_touch_with_plastic_brush_short_horvertflip_short_600ms.mp4	322.38405003216894	322.992387671306	0.6083376391370621	n/a	n/a	n/a	n/a
309.14404296875	0.2	633127	240	69	2	0	0	51	232	stimuli\Videos_short_600ms_horvertflip\57.single_touch_with_nail_file_short_horvertflip_short_600ms.mp4	57.single_touch_with_nail_file_short_horvertflip_short_600ms.mp4	323.1840374813132	323.7923651501442	0.6083276688309525	n/a	n/a	n/a	n/a
309.94384765625	0.2	634765	241	69	2	0	0	52	161	stimuli\Videos_short_600ms_horflip\74.fingers_walking_from_top_to_bottom_short_horflip_short_600ms.mp4	74.fingers_walking_from_top_to_bottom_short_horflip_short_600ms.mp4	323.9840187723271	324.59232415459155	0.6083053822644615	n/a	n/a	n/a	n/a
310.74365234375	0.2	636403	242	69	2	0	0	53	120	stimuli\Videos_short_600ms_horflip\37.single_stab_with_nail_file_short_horflip_short_600ms.mp4	37.single_stab_with_nail_file_short_horflip_short_600ms.mp4	324.7840214701746	325.39230515236113	0.6082836821865385	n/a	n/a	n/a	n/a
311.5439453125	0.2	638042	243	69	2	0	0	54	307	stimuli\Videos_short_600ms_vertflip\43.touch_top_to_bottom_with_sharp_wooden_stick_short_vertflip_short_600ms.mp4	43.touch_top_to_bottom_with_sharp_wooden_stick_short_vertflip_short_600ms.mp4	325.58399249763806	326.1922659162742	0.6082734186361449	n/a	n/a	n/a	n/a
312.34375	0.2	639680	244	69	2	0	0	55	141	stimuli\Videos_short_600ms_horflip\56.repeated_touch_with_nail_file_short_horflip_short_600ms.mp4	56.repeated_touch_with_nail_file_short_horflip_short_600ms.mp4	326.38397144269766	326.9922727195417	0.6083012768440312	n/a	n/a	n/a	n/a
313.1435546875	0.2	641318	245	69	2	0	0	56	188	stimuli\Videos_short_600ms_horvertflip\17.repeated_touch_with_rolling_pin_short_horvertflip_short_600ms.mp4	17.repeated_touch_with_rolling_pin_short_horvertflip_short_600ms.mp4	327.1839509742458	327.7922616349074	0.6083106606615729	n/a	n/a	n/a	n/a
313.94384765625	0.2	642957	246	69	2	0	0	57	292	stimuli\Videos_short_600ms_vertflip\3.single_push_with_finger_short_vertflip_short_600ms.mp4	3.single_push_with_finger_short_vertflip_short_600ms.mp4	327.98393666392394	328.5922355948137	0.6082989308897595	n/a	n/a	n/a	n/a
314.74365234375	0.2	644595	247	69	2	0	0	58	218	stimuli\Videos_short_600ms_horvertflip\44.pushing_top_to_bottom_with_finger_short_horvertflip_short_600ms.mp4	44.pushing_top_to_bottom_with_finger_short_horvertflip_short_600ms.mp4	328.7839164887164	329.3922453305245	0.6083288418080883	n/a	n/a	n/a	n/a
315.54345703125	0.2	646233	248	69	2	0	0	59	86	stimuli\Videos_short_600ms\88.repeated_stroke_with_plastic_brush_short_short_600ms.mp4	88.repeated_stroke_with_plastic_brush_short_short_600ms.mp4	329.583888689157	330.1922201701641	0.6083314810070988	n/a	n/a	n/a	n/a
316.34375	0.2	647872	249	69	2	0	0	60	273	stimuli\Videos_short_600ms_vertflip\12.repeated_touch_with_nail_file_short_vertflip_short_600ms.mp4	12.repeated_touch_with_nail_file_short_vertflip_short_600ms.mp4	330.3838790707441	330.99220527335365	0.6083262026095326	n/a	n/a	n/a	n/a
317.1435546875	0.2	649510	250	69	2	0	0	61	118	stimuli\Videos_short_600ms_horflip\35.single_punch_with_hand_short_horflip_short_600ms.mp4	35.single_punch_with_hand_short_horflip_short_600ms.mp4	331.1838577225594	331.79217718054997	0.6083194579905467	n/a	n/a	n/a	n/a
317.943359375	0.2	651148	251	69	2	0	0	62	122	stimuli\Videos_short_600ms_horflip\39.single_stab_with_scissors_short_horflip_short_600ms.mp4	39.single_stab_with_scissors_short_horflip_short_600ms.mp4	331.98381965944964	332.5921605242738	0.6083408648241857	n/a	n/a	n/a	n/a
318.74365234375	0.2	652787	252	69	2	0	0	63	262	stimuli\Videos_short_600ms_horvertflip\84.single_touch_with_cotton_bud_short_horvertflip_short_600ms.mp4	84.single_touch_with_cotton_bud_short_horvertflip_short_600ms.mp4	332.78382235729714	333.3921412287991	0.6083188715019787	n/a	n/a	n/a	n/a
319.54345703125	0.2	654425	253	69	2	0	0	64	37	stimuli\Videos_short_600ms\43.touch_top_to_bottom_with_sharp_wooden_stick_short_short_600ms.mp4	43.touch_top_to_bottom_with_sharp_wooden_stick_short_short_600ms.mp4	333.5837986631582	334.19212398603486	0.6083253228766807	n/a	n/a	n/a	n/a
320.34375	0.2	656064	254	69	2	0	0	65	72	stimuli\Videos_short_600ms\75.(long)stroke_with_fingers_all_over_the_hand_short_short_600ms.mp4	75.(long)stroke_with_fingers_all_over_the_hand_short_short_600ms.mp4	334.3837784879506	334.99210175811686	0.6083232701662382	n/a	n/a	n/a	n/a
321.1435546875	0.2	657702	255	69	2	0	0	66	254	stimuli\Videos_short_600ms_horvertflip\77.tapping_with_all_fingers_short_horvertflip_short_600ms.mp4	77.tapping_with_all_fingers_short_horvertflip_short_600ms.mp4	335.1837876371724	335.79208539508545	0.6082977579130784	n/a	n/a	n/a	n/a
321.943359375	0.2	659340	256	69	2	0	0	67	124	stimuli\Videos_short_600ms_horflip\40.repeated_push_with_finger_short_horflip_short_600ms.mp4	40.repeated_push_with_finger_short_horflip_short_600ms.mp4	335.9837120387929	336.5920702050307	0.6083581662378492	n/a	n/a	n/a	n/a
322.74365234375	0.2	660979	257	69	2	0	0	68	59	stimuli\Videos_short_600ms\63.stroke_top_to_bottom_with_screwdriver_short_short_600ms.mp4	63.stroke_top_to_bottom_with_screwdriver_short_short_600ms.mp4	336.78370857850996	337.3920476838689	0.6083391053589366	n/a	n/a	n/a	n/a
323.54345703125	0.2	662617	258	69	2	0	0	69	229	stimuli\Videos_short_600ms_horvertflip\54.repeated_touch_with_knife_short_horvertflip_short_600ms.mp4	54.repeated_touch_with_knife_short_horvertflip_short_600ms.mp4	337.5836951479214	338.1920275086609	0.6083323607394959	n/a	n/a	n/a	n/a
324.34326171875	0.2	664255	259	69	2	0	0	70	252	stimuli\Videos_short_600ms_horvertflip\75.(long)stroke_with_fingers_all_over_the_hand_short_horvertflip_short_600ms.mp4	75.(long)stroke_with_fingers_all_over_the_hand_short_horvertflip_short_600ms.mp4	338.3836776119124	338.9920102658966	0.6083326539842346	n/a	n/a	n/a	n/a
325.1435546875	0.2	665894	260	69	2	0	1	71	369	stimuli\Targets_short_600ms_horflip\finger-tap_short_horflip_short_600ms.mp4	finger-tap_short_horflip_short_600ms.mp4	339.1836650610567	339.79198950420005	0.6083244431433741	n/a	n/a	n/a	n/a
325.943359375	0.2	667532	261	69	2	0	0	72	157	stimuli\Videos_short_600ms_horflip\70.(long)stroke_with_finger_all_over_the_hand_short_horflip_short_600ms.mp4	70.(long)stroke_with_finger_all_over_the_hand_short_horflip_short_600ms.mp4	339.9836554426438	340.59195232082357	0.6082968781797717	n/a	n/a	n/a	n/a
326.7431640625	0.2	669170	262	69	2	0	0	73	330	stimuli\Videos_short_600ms_vertflip\64.repeated_touch_with_screwdriver_short_vertflip_short_600ms.mp4	64.repeated_touch_with_screwdriver_short_vertflip_short_600ms.mp4	340.78363438770293	341.3919327321046	0.6082983444016463	n/a	n/a	n/a	n/a
327.54345703125	0.2	670809	263	69	2	0	0	74	56	stimuli\Videos_short_600ms\60.single_push_with_tip_of_pencil_short_short_600ms.mp4	60.single_push_with_tip_of_pencil_short_short_600ms.mp4	341.58362652875576	342.1919102109423	0.6082836821865385	n/a	n/a	n/a	n/a
328.34326171875	0.2	672447	264	69	2	0	0	75	272	stimuli\Videos_short_600ms_vertflip\11.single_touch_with_lighter_short_vertflip_short_600ms.mp4	11.single_touch_with_lighter_short_vertflip_short_600ms.mp4	342.3835960899978	342.99189795333086	0.6083018633330539	n/a	n/a	n/a	n/a
329.14306640625	0.2	674085	265	69	2	0	1	76	377	stimuli\Targets_short_600ms_horvertflip\hand-stroke_short_vertflip_short_600ms.mp4	hand-stroke_short_vertflip_short_600ms.mp4	343.18358588509636	343.79183848338744	0.6082525982910738	n/a	n/a	n/a	n/a
329.943359375	0.2	675724	266	69	2	0	0	77	60	stimuli\Videos_short_600ms\64.repeated_touch_with_screwdriver_short_short_600ms.mp4	64.repeated_touch_with_screwdriver_short_short_600ms.mp4	343.98355837878125	344.591872851619	0.6083144728377192	n/a	n/a	n/a	n/a
330.7431640625	0.2	677362	267	69	2	0	0	78	250	stimuli\Videos_short_600ms_horvertflip\73.single_stroke_with_flat_hand_short_horvertflip_short_600ms.mp4	73.single_stroke_with_flat_hand_short_horvertflip_short_600ms.mp4	344.7835379103294	345.3918664588932	0.6083285485638044	n/a	n/a	n/a	n/a
331.54296875	0.2	679000	268	69	2	0	0	79	333	stimuli\Videos_short_600ms_vertflip\67.single_touch_with_sponge_short_vertflip_short_600ms.mp4	67.single_touch_with_sponge_short_vertflip_short_600ms.mp4	345.58352125405327	346.19182634307344	0.6083050890201775	n/a	n/a	n/a	n/a
332.34326171875	0.2	680639	269	69	2	0	0	80	160	stimuli\Videos_short_600ms_horflip\73.single_stroke_with_flat_hand_short_horflip_short_600ms.mp4	73.single_stroke_with_flat_hand_short_horflip_short_600ms.mp4	346.38350195857856	346.9918211233253	0.6083191647467174	n/a	n/a	n/a	n/a
333.14306640625	0.2	682277	270	69	2	0	0	81	286	stimuli\Videos_short_600ms_vertflip\24.single_stroke_top_to_bottom_with_a_spoon_short_vertflip_short_600ms.mp4	24.single_stroke_top_to_bottom_with_a_spoon_short_vertflip_short_600ms.mp4	347.18348530230287	347.79178364670406	0.6082983444011916	n/a	n/a	n/a	n/a
333.94287109375	0.2	683915	271	69	2	0	0	82	225	stimuli\Videos_short_600ms_horvertflip\50.single_(long)hard_push_with_thumb_short_horvertflip_short_600ms.mp4	50.single_(long)hard_push_with_thumb_short_horvertflip_short_600ms.mp4	347.9834695257596	348.5917640579851	0.6082945322255	n/a	n/a	n/a	n/a
334.7431640625	0.2	685554	272	69	2	0	0	83	201	stimuli\Videos_short_600ms_horvertflip\29.single_pinch_with_tweezers_short_horvertflip_short_600ms.mp4	29.single_pinch_with_tweezers_short_horvertflip_short_600ms.mp4	348.78342002612226	349.39174505575465	0.6083250296323968	n/a	n/a	n/a	n/a
335.54296875	0.2	687192	273	69	2	0	0	84	269	stimuli\Videos_short_600ms_horvertflip\90.repeated_touch_with_sponge_short_horvertflip_short_600ms.mp4	90.repeated_touch_with_sponge_short_horvertflip_short_600ms.mp4	349.58342477667975	350.1917248805471	0.6083001038673501	n/a	n/a	n/a	n/a
336.3427734375	0.2	688830	274	69	2	0	0	85	287	stimuli\Videos_short_600ms_vertflip\25.single_touch_with_stanley_knife_short_vertflip_short_600ms.mp4	25.single_touch_with_stanley_knife_short_vertflip_short_600ms.mp4	350.3833635472706	350.9917058783167	0.6083423310460603	n/a	n/a	n/a	n/a
337.14306640625	0.2	690469	275	69	2	0	0	86	326	stimuli\Videos_short_600ms_vertflip\60.single_push_with_tip_of_pencil_short_vertflip_short_600ms.mp4	60.single_push_with_tip_of_pencil_short_vertflip_short_600ms.mp4	351.1833674180957	351.7917188397146	0.6083514216188632	n/a	n/a	n/a	n/a
337.94287109375	0.2	692107	276	69	2	0	0	87	172	stimuli\Videos_short_600ms_horflip\84.single_touch_with_cotton_bud_short_horflip_short_600ms.mp4	84.single_touch_with_cotton_bud_short_horflip_short_600ms.mp4	351.98334958884243	352.5916875212238	0.608337932381346	n/a	n/a	n/a	n/a
338.7431640625	0.2	693746	277	69	2	0	0	88	352	stimuli\Videos_short_600ms_vertflip\84.single_touch_with_cotton_bud_short_vertflip_short_600ms.mp4	84.single_touch_with_cotton_bud_short_vertflip_short_600ms.mp4	352.7833156311526	353.3916699852148	0.6083543540621577	n/a	n/a	n/a	n/a
339.54296875	0.2	695384	278	69	2	0	0	89	162	stimuli\Videos_short_600ms_horflip\75.(long)stroke_with_fingers_all_over_the_hand_short_horflip_short_600ms.mp4	75.(long)stroke_with_fingers_all_over_the_hand_short_horflip_short_600ms.mp4	353.5832722896457	354.1916571411148	0.6083848514690544	n/a	n/a	n/a	n/a
340.3427734375	0.2	697022	279	69	2	0	0	90	184	stimuli\Videos_short_600ms_horvertflip\13.single_touch_with_pen_short_horvertflip_short_600ms.mp4	13.single_touch_with_pen_short_horvertflip_short_600ms.mp4	354.38329492810544	354.9916346199525	0.6083396918470498	n/a	n/a	n/a	n/a
341.14306640625	0.2	698661	280	69	2	0	0	91	35	stimuli\Videos_short_600ms\41.injection_with_blunt_syringe_short_short_600ms.mp4	41.injection_with_blunt_syringe_short_short_600ms.mp4	355.1833046638162	355.79161620421064	0.6083115403944248	n/a	n/a	n/a	n/a
341.94287109375	0.2	700299	281	69	2	0	0	92	66	stimuli\Videos_short_600ms\7.repeated_touch_with_hairbrush_short_short_600ms.mp4	7.repeated_touch_with_hairbrush_short_short_600ms.mp4	355.9832756912797	356.5915696370166	0.6082939457369321	3.0	3.0	1.8645601364873985	1.0
376.66650390625	0.2	771413	282	69	3	0	0	0	17	stimuli\Videos_short_600ms\25.single_touch_with_stanley_knife_short_short_600ms.mp4	25.single_touch_with_stanley_knife_short_short_600ms.mp4	390.70745743705675	391.3157848126434	0.6083273755866685	n/a	n/a	n/a	n/a
377.466796875	0.2	773052	283	69	3	0	0	1	85	stimuli\Videos_short_600ms\87.single_stroke_top_to_bottom_with_plastic_brush_short_short_600ms.mp4	87.single_stroke_top_to_bottom_with_plastic_brush_short_short_600ms.mp4	391.5074492848653	392.115754960374	0.6083056755087455	n/a	n/a	n/a	n/a
378.27490234375	0.2	774707	284	69	3	0	0	2	114	stimuli\Videos_short_600ms_horflip\31.hand_grabbing_wrist_short_horflip_short_600ms.mp4	31.hand_grabbing_wrist_short_horflip_short_600ms.mp4	392.3157159002335	392.92404620826346	0.6083303080299629	n/a	n/a	n/a	n/a
379.07470703125	0.2	776345	285	69	3	0	1	3	375	stimuli\Targets_short_600ms_horvertflip\finger-tap_short_vertflip_short_600ms.mp4	finger-tap_short_vertflip_short_600ms.mp4	393.1157335535404	393.7240266195445	0.6082930660040802	n/a	n/a	n/a	n/a
379.875	0.2	777984	286	69	3	0	0	4	337	stimuli\Videos_short_600ms_vertflip\70.(long)stroke_with_finger_all_over_the_hand_short_vertflip_short_600ms.mp4	70.(long)stroke_with_finger_all_over_the_hand_short_vertflip_short_600ms.mp4	393.9157133783328	394.52401348219973	0.6083001038668954	n/a	n/a	n/a	n/a
380.6748046875	0.2	779622	287	69	3	0	0	5	140	stimuli\Videos_short_600ms_horflip\55.touch_top_to_bottom_with_nail_file_short_horflip_short_600ms.mp4	55.touch_top_to_bottom_with_nail_file_short_horflip_short_600ms.mp4	394.71569378961385	395.3239947732136	0.6083009835997473	n/a	n/a	n/a	n/a
381.47509765625	0.2	781261	288	69	3	0	0	6	77	stimuli\Videos_short_600ms\8.single_touch_with_hairbrush_short_short_600ms.mp4	8.single_touch_with_hairbrush_short_short_600ms.mp4	395.5156756671163	396.1240065616344	0.6083308945180761	n/a	n/a	n/a	n/a
382.27490234375	0.2	782899	289	69	3	0	0	7	263	stimuli\Videos_short_600ms_horvertflip\85.touch_top_to_bottom_with_fabric_short_horvertflip_short_600ms.mp4	85.touch_top_to_bottom_with_fabric_short_horvertflip_short_600ms.mp4	396.3156563716416	396.923974656655	0.6083182850134108	n/a	n/a	n/a	n/a
383.07470703125	0.2	784537	290	69	3	0	0	8	358	stimuli\Videos_short_600ms_vertflip\9.single_touch_with_hammer_short_vertflip_short_600ms.mp4	9.single_touch_with_hammer_short_vertflip_short_600ms.mp4	397.11563766265544	397.7239574138903	0.6083197512348306	n/a	n/a	n/a	n/a
383.875	0.2	786176	291	69	3	0	0	9	260	stimuli\Videos_short_600ms_horvertflip\82.repeated_touch_with_cotton_bud_short_horvertflip_short_600ms.mp4	82.repeated_touch_with_cotton_bud_short_horvertflip_short_600ms.mp4	397.91561602122647	398.523935479217	0.6083194579905467	n/a	n/a	n/a	n/a
384.6748046875	0.2	787814	292	69	3	0	0	10	69	stimuli\Videos_short_600ms\72.(short)stroke_with_finger_all_over_the_hand_short_short_600ms.mp4	72.(short)stroke_with_finger_all_over_the_hand_short_short_600ms.mp4	398.7156014176603	399.3239170634752	0.6083156458148551	n/a	n/a	n/a	n/a
385.474609375	0.2	789452	293	69	3	0	0	11	355	stimuli\Videos_short_600ms_vertflip\87.single_stroke_top_to_bottom_with_plastic_brush_short_vertflip_short_600ms.mp4	87.single_stroke_top_to_bottom_with_plastic_brush_short_vertflip_short_600ms.mp4	399.5155841748956	400.1239007004433	0.608316525547707	n/a	n/a	n/a	n/a
386.27490234375	0.2	791091	294	69	3	0	0	12	199	stimuli\Videos_short_600ms_horvertflip\27.single_push_with_a_plastic_whisk_short_horvertflip_short_600ms.mp4	27.single_push_with_a_plastic_whisk_short_horvertflip_short_600ms.mp4	400.31555842804664	400.92388257794573	0.6083241498990901	n/a	n/a	n/a	n/a
387.07470703125	0.2	792729	295	69	3	0	0	13	342	stimuli\Videos_short_600ms_vertflip\75.(long)stroke_with_fingers_all_over_the_hand_short_vertflip_short_600ms.mp4	75.(long)stroke_with_fingers_all_over_the_hand_short_vertflip_short_600ms.mp4	401.1155455839462	401.7238418756374	0.6082962916912038	n/a	n/a	n/a	n/a
387.87451171875	0.2	794367	296	69	3	0	0	14	38	stimuli\Videos_short_600ms\44.pushing_top_to_bottom_with_finger_short_short_600ms.mp4	44.pushing_top_to_bottom_with_finger_short_short_600ms.mp4	401.9155186641197	402.523843693752	0.6083250296323968	n/a	n/a	n/a	n/a
388.6748046875	0.2	796006	297	69	3	0	0	15	282	stimuli\Videos_short_600ms_vertflip\20.single_touch_with_screwdriver_short_vertflip_short_600ms.mp4	20.single_touch_with_screwdriver_short_vertflip_short_600ms.mp4	402.7155102186839	403.32382615774304	0.608315939059139	n/a	n/a	n/a	n/a
389.474609375	0.2	797644	298	69	3	0	0	16	339	stimuli\Videos_short_600ms_vertflip\72.(short)stroke_with_finger_all_over_the_hand_short_vertflip_short_600ms.mp4	72.(short)stroke_with_finger_all_over_the_hand_short_vertflip_short_600ms.mp4	403.51544752305335	404.12380510280263	0.6083575797492813	n/a	n/a	n/a	n/a
390.2744140625	0.2	799282	299	69	3	0	0	17	227	stimuli\Videos_short_600ms_horvertflip\52.touch_top_to_bottom_with_hammer_short_horvertflip_short_600ms.mp4	52.touch_top_to_bottom_with_hammer_short_horvertflip_short_600ms.mp4	404.3154525668556	404.9237861005722	0.6083335337166318	n/a	n/a	n/a	n/a
391.07470703125	0.2	800921	300	69	3	0	0	18	126	stimuli\Videos_short_600ms_horflip\42.single_slap_with_plastic_whisk_short_horflip_short_600ms.mp4	42.single_slap_with_plastic_whisk_short_horflip_short_600ms.mp4	405.115429752449	405.7237330820035	0.6083033295544737	n/a	n/a	n/a	n/a
391.87451171875	0.2	802559	301	69	3	0	0	19	298	stimuli\Videos_short_600ms_vertflip\35.single_punch_with_hand_short_vertflip_short_600ms.mp4	35.single_punch_with_hand_short_vertflip_short_600ms.mp4	405.9154479922445	406.5237407650043	0.6082927727597962	n/a	n/a	n/a	n/a
392.67431640625	0.2	804197	302	69	3	0	0	20	289	stimuli\Videos_short_600ms_vertflip\27.single_push_with_a_plastic_whisk_short_vertflip_short_600ms.mp4	27.single_push_with_a_plastic_whisk_short_vertflip_short_600ms.mp4	406.71541520753226	407.323682468038	0.6082672605057269	n/a	n/a	n/a	n/a
393.474609375	0.2	805836	303	69	3	0	0	21	343	stimuli\Videos_short_600ms_vertflip\76.tickle_with_fingers_from_top_to_bottom_short_vertflip_short_600ms.mp4	76.tickle_with_fingers_from_top_to_bottom_short_vertflip_short_600ms.mp4	407.51539268637	408.1236889780612	0.6082962916912038	n/a	n/a	n/a	n/a
394.2744140625	0.2	807474	304	69	3	0	0	22	16	stimuli\Videos_short_600ms\24.single_stroke_top_to_bottom_with_a_spoon_short_short_600ms.mp4	24.single_stroke_top_to_bottom_with_a_spoon_short_short_600ms.mp4	408.31537397738384	408.923666163655	0.6082921862712283	n/a	n/a	n/a	n/a
395.07421875	0.2	809112	305	69	3	0	0	23	303	stimuli\Videos_short_600ms_vertflip\4.repeated_tap_with_finger_slow_short_vertflip_short_600ms.mp4	4.repeated_tap_with_finger_slow_short_vertflip_short_600ms.mp4	409.11535233595487	409.72365947768503	0.6083071417301653	n/a	n/a	n/a	n/a
395.87451171875	0.2	810751	306	69	3	0	0	24	30	stimuli\Videos_short_600ms\37.single_stab_with_nail_file_short_short_600ms.mp4	37.single_stab_with_nail_file_short_short_600ms.mp4	409.9153084079594	410.5236354903018	0.6083270823423845	n/a	n/a	n/a	n/a
396.67431640625	0.2	812389	307	69	3	0	0	25	216	stimuli\Videos_short_600ms_horvertflip\42.single_slap_with_plastic_whisk_short_horvertflip_short_600ms.mp4	42.single_slap_with_plastic_whisk_short_horvertflip_short_600ms.mp4	410.71531609095973	411.3236396543707	0.6083235634109769	n/a	n/a	n/a	n/a
397.47412109375	0.2	814027	308	69	3	0	0	26	193	stimuli\Videos_short_600ms_horvertflip\21.repeated_touch_with_metal_chopstick_short_horvertflip_short_600ms.mp4	21.repeated_touch_with_metal_chopstick_short_horvertflip_short_600ms.mp4	411.51529972792787	412.1236227048503	0.608322976922409	n/a	n/a	n/a	n/a
398.2744140625	0.2	815666	309	69	3	0	0	27	144	stimuli\Videos_short_600ms_horflip\59.single_push_with_long_side_pencil_short_horflip_short_600ms.mp4	59.single_push_with_long_side_pencil_short_horflip_short_600ms.mp4	412.3152780864989	412.92359578502374	0.6083176985248429	n/a	n/a	n/a	n/a
399.07421875	0.2	817304	310	69	3	0	0	28	174	stimuli\Videos_short_600ms_horflip\86.touch_top_to_bottom_with_hair_brush_short_horflip_short_600ms.mp4	86.touch_top_to_bottom_with_hair_brush_short_horflip_short_600ms.mp4	413.1157734347648	413.72358059496946	0.6078071602046293	n/a	n/a	n/a	n/a
399.87451171875	0.2	818943	311	69	3	0	0	29	325	stimuli\Videos_short_600ms_vertflip\6.single_touch_with_flat_hand_short_vertflip_short_600ms.mp4	6.single_touch_with_flat_hand_short_vertflip_short_600ms.mp4	413.9152409617709	414.52355866029575	0.6083176985248429	n/a	n/a	n/a	n/a
400.67431640625	0.2	820581	312	69	3	0	0	30	264	stimuli\Videos_short_600ms_horvertflip\86.touch_top_to_bottom_with_hair_brush_short_horvertflip_short_600ms.mp4	86.touch_top_to_bottom_with_hair_brush_short_horvertflip_short_600ms.mp4	414.71521726763194	415.3235384850882	0.6083212174562505	n/a	n/a	n/a	n/a
401.47412109375	0.2	822219	313	69	3	0	0	31	43	stimuli\Videos_short_600ms\49.repeated_slap_with_hand_short_short_600ms.mp4	49.repeated_slap_with_hand_short_short_600ms.mp4	415.5152041302872	416.1235188963692	0.6083147660820032	n/a	n/a	n/a	n/a
402.2744140625	0.2	823858	314	69	3	0	0	32	313	stimuli\Videos_short_600ms_vertflip\49.repeated_slap_with_hand_short_vertflip_short_600ms.mp4	49.repeated_slap_with_hand_short_vertflip_short_600ms.mp4	416.31517838343825	416.92350048062735	0.6083220971891024	n/a	n/a	n/a	n/a
403.07421875	0.2	825496	315	69	3	0	0	33	210	stimuli\Videos_short_600ms_horvertflip\37.single_stab_with_nail_file_short_horvertflip_short_600ms.mp4	37.single_stab_with_nail_file_short_horvertflip_short_600ms.mp4	417.1151816677743	417.7234820648855	0.6083003971111793	n/a	n/a	n/a	n/a
403.8740234375	0.2	827134	316	69	3	0	0	34	203	stimuli\Videos_short_600ms_horvertflip\30.finger_pulling_back_another_finger_short_horvertflip_short_600ms.mp4	30.finger_pulling_back_another_finger_short_horvertflip_short_600ms.mp4	417.91512278431946	418.5234636491437	0.6083408648241857	n/a	n/a	n/a	n/a
404.67431640625	0.2	828773	317	69	3	0	0	35	338	stimuli\Videos_short_600ms_vertflip\71.single_stroke_with_finger_top_to_bottom_short_vertflip_short_600ms.mp4	71.single_stroke_with_finger_top_to_bottom_short_vertflip_short_600ms.mp4	418.7151014361348	419.3234464063794	0.608344970244616	n/a	n/a	n/a	n/a
405.47412109375	0.2	830411	318	69	3	0	0	36	23	stimuli\Videos_short_600ms\30.finger_pulling_back_another_finger_short_short_600ms.mp4	30.finger_pulling_back_another_finger_short_short_600ms.mp4	419.5150874190572	420.1234309230804	0.6083435040231961	n/a	n/a	n/a	n/a
406.27392578125	0.2	832049	319	69	3	0	0	37	351	stimuli\Videos_short_600ms_vertflip\83.single_stroke_top_to_bottom_with_cotton_bud_short_vertflip_short_600ms.mp4	83.single_stroke_top_to_bottom_with_cotton_bud_short_vertflip_short_600ms.mp4	420.31507516144575	420.92340693569713	0.6083317742513827	n/a	n/a	n/a	n/a
407.07421875	0.2	833688	320	69	3	0	0	38	219	stimuli\Videos_short_600ms_horvertflip\45.scratching_with_finger_nails_short_horvertflip_short_600ms.mp4	45.scratching_with_finger_nails_short_horvertflip_short_600ms.mp4	421.1150629038343	421.7233896929324	0.6083267890981006	n/a	n/a	n/a	n/a
407.8740234375	0.2	835326	321	69	3	0	0	39	102	stimuli\Videos_short_600ms_horflip\20.single_touch_with_screwdriver_short_horflip_short_600ms.mp4	20.single_touch_with_screwdriver_short_horflip_short_600ms.mp4	421.91505797733	422.523368637992	0.6083106606620277	n/a	n/a	n/a	n/a
408.673828125	0.2	836964	322	69	3	0	0	40	251	stimuli\Videos_short_600ms_horvertflip\74.fingers_walking_from_top_to_bottom_short_horvertflip_short_600ms.mp4	74.fingers_walking_from_top_to_bottom_short_horvertflip_short_600ms.mp4	422.7150313507477	423.3233244167518	0.6082930660040802	n/a	n/a	n/a	n/a
409.47412109375	0.2	838603	323	69	3	0	0	41	204	stimuli\Videos_short_600ms_horvertflip\31.hand_grabbing_wrist_short_horvertflip_short_600ms.mp4	31.hand_grabbing_wrist_short_horvertflip_short_600ms.mp4	423.5150211458463	424.1232851806649	0.6082640348186032	n/a	n/a	n/a	n/a
410.27392578125	0.2	840241	324	69	3	0	0	42	291	stimuli\Videos_short_600ms_vertflip\29.single_pinch_with_tweezers_short_vertflip_short_600ms.mp4	29.single_pinch_with_tweezers_short_vertflip_short_600ms.mp4	424.3149473069325	424.9232902244671	0.6083429175346282	n/a	n/a	n/a	n/a
411.07373046875	0.2	841879	325	69	3	0	0	43	148	stimuli\Videos_short_600ms_horflip\62.touch_top_to_bottom_with_scissors_short_horflip_short_600ms.mp4	62.touch_top_to_bottom_with_scissors_short_horflip_short_600ms.mp4	425.1149725845907	425.7232982007117	0.6083256161209647	n/a	n/a	n/a	n/a
411.8740234375	0.2	843518	326	69	3	0	0	44	64	stimuli\Videos_short_600ms\68.stroke_top_to_bottom_with_shawl_short_short_600ms.mp4	68.stroke_top_to_bottom_with_shawl_short_short_600ms.mp4	425.9149547553375	426.5232671754652	0.6083124201277315	n/a	n/a	n/a	n/a
412.673828125	0.2	845156	327	69	3	0	0	45	136	stimuli\Videos_short_600ms_horflip\51.repeated_touch_with_hammer_short_horflip_short_600ms.mp4	51.repeated_touch_with_hammer_short_horflip_short_600ms.mp4	426.7149342868856	427.32326078273945	0.6083264958538166	n/a	n/a	n/a	n/a
413.4736328125	0.2	846794	328	69	3	0	0	46	166	stimuli\Videos_short_600ms_horflip\79.long_with_soft_brush_all_over_the_hand_short_horflip_short_600ms.mp4	79.long_with_soft_brush_all_over_the_hand_short_horflip_short_600ms.mp4	427.5149164576323	428.1232353291348	0.6083188715024335	n/a	n/a	n/a	n/a
414.27392578125	0.2	848433	329	69	3	0	0	47	164	stimuli\Videos_short_600ms_horflip\77.tapping_with_all_fingers_short_horflip_short_600ms.mp4	77.tapping_with_all_fingers_short_horflip_short_600ms.mp4	428.31489540269195	428.9232160336601	0.6083206309681373	n/a	n/a	n/a	n/a
415.07373046875	0.2	850071	330	69	3	0	0	48	186	stimuli\Videos_short_600ms_horvertflip\15.single_stroke_top_to_bottom_with_a_plastic_whisk_short_horvertflip_short_600ms.mp4	15.single_stroke_top_to_bottom_with_a_plastic_whisk_short_horvertflip_short_600ms.mp4	429.11487786668295	429.72319439223065	0.608316525547707	n/a	n/a	n/a	n/a
415.87353515625	0.2	851709	331	69	3	0	0	49	244	stimuli\Videos_short_600ms_horvertflip\68.stroke_top_to_bottom_with_shawl_short_horvertflip_short_600ms.mp4	68.stroke_top_to_bottom_with_shawl_short_horvertflip_short_600ms.mp4	429.91486062391823	430.5231821346192	0.6083215107009892	n/a	n/a	n/a	n/a
416.673828125	0.2	853348	332	69	3	0	0	50	142	stimuli\Videos_short_600ms_horflip\57.single_touch_with_nail_file_short_horflip_short_600ms.mp4	57.single_touch_with_nail_file_short_horflip_short_600ms.mp4	430.71485745688005	431.32315844048026	0.608300983600202	n/a	n/a	n/a	n/a
417.4736328125	0.2	854986	333	69	3	0	0	51	331	stimuli\Videos_short_600ms_vertflip\65.stroke_top_to_bottom_with_stanley_knife_short_vertflip_short_600ms.mp4	65.stroke_top_to_bottom_with_stanley_knife_short_vertflip_short_600ms.mp4	431.5148038518227	432.12313943824984	0.6083355864270743	n/a	n/a	n/a	n/a
418.2734375	0.2	856624	334	69	3	0	0	52	283	stimuli\Videos_short_600ms_vertflip\21.repeated_touch_with_metal_chopstick_short_vertflip_short_600ms.mp4	21.repeated_touch_with_metal_chopstick_short_vertflip_short_600ms.mp4	432.3148279565039	432.9231198495304	0.6082918930264896	n/a	n/a	n/a	n/a
419.07373046875	0.2	858263	335	69	3	0	0	53	271	stimuli\Videos_short_600ms_vertflip\10.single_touch_with_knife_short_vertflip_short_600ms.mp4	10.single_touch_with_knife_short_vertflip_short_600ms.mp4	433.11476086220864	433.7231002608114	0.6083393986027659	n/a	n/a	n/a	n/a
419.87353515625	0.2	859901	336	69	3	0	0	54	93	stimuli\Videos_short_600ms_horflip\12.repeated_touch_with_nail_file_short_horflip_short_600ms.mp4	12.repeated_touch_with_nail_file_short_horflip_short_600ms.mp4	433.91474098024537	434.52308331129143	0.6083423310460603	n/a	n/a	n/a	n/a
420.673828125	0.2	861540	337	69	3	0	0	55	52	stimuli\Videos_short_600ms\57.single_touch_with_nail_file_short_short_600ms.mp4	57.single_touch_with_nail_file_short_short_600ms.mp4	434.7147234442364	435.32306284283914	0.6083393986027659	n/a	n/a	n/a	n/a
421.4736328125	0.2	863178	338	69	3	0	0	56	19	stimuli\Videos_short_600ms\27.single_push_with_a_plastic_whisk_short_short_600ms.mp4	27.single_push_with_a_plastic_whisk_short_short_600ms.mp4	435.5147123596021	436.1230491190063	0.6083367594042102	n/a	n/a	n/a	n/a
422.2734375	0.2	864816	339	69	3	0	0	57	49	stimuli\Videos_short_600ms\54.repeated_touch_with_knife_short_short_600ms.mp4	54.repeated_touch_with_knife_short_short_600ms.mp4	436.3146924776388	436.9230233721569	0.6083308945180761	n/a	n/a	n/a	n/a
423.07373046875	0.2	866455	340	69	3	0	0	58	47	stimuli\Videos_short_600ms\52.touch_top_to_bottom_with_hammer_short_short_600ms.mp4	52.touch_top_to_bottom_with_hammer_short_short_600ms.mp4	437.1146954687306	437.7229612630149	0.608265794284307	n/a	n/a	n/a	n/a
423.87353515625	0.2	868093	341	69	3	0	0	59	44	stimuli\Videos_short_600ms\5.repeated_tap_with_finger_moving_from_top_to_bottom_short_short_600ms.mp4	5.repeated_tap_with_finger_moving_from_top_to_bottom_short_short_600ms.mp4	437.9146380514971	438.5229619081524	0.6083238566552609	n/a	n/a	n/a	n/a
424.67333984375	0.2	869731	342	69	3	0	0	60	332	stimuli\Videos_short_600ms_vertflip\66.stroke_top_to_bottom_with_sponge_short_vertflip_short_600ms.mp4	66.stroke_top_to_bottom_with_sponge_short_vertflip_short_600ms.mp4	438.7146565845369	439.3229431991663	0.6082866146293782	n/a	n/a	n/a	n/a
425.4736328125	0.2	871370	343	69	3	0	0	61	314	stimuli\Videos_short_600ms_vertflip\5.repeated_tap_with_finger_moving_from_top_to_bottom_short_vertflip_short_600ms.mp4	5.repeated_tap_with_finger_moving_from_top_to_bottom_short_vertflip_short_600ms.mp4	439.51463171742034	440.1229283023563	0.6082965849359425	n/a	n/a	n/a	n/a
426.2734375	0.2	873008	344	69	3	0	0	62	33	stimuli\Videos_short_600ms\4.repeated_tap_with_finger_slow_short_short_600ms.mp4	4.repeated_tap_with_finger_slow_short_short_600ms.mp4	440.3146097827471	440.9229131123016	0.6083033295544737	n/a	n/a	n/a	n/a
427.0732421875	0.2	874646	345	69	3	0	0	63	347	stimuli\Videos_short_600ms_vertflip\8.single_touch_with_hairbrush_short_vertflip_short_600ms.mp4	8.single_touch_with_hairbrush_short_vertflip_short_600ms.mp4	441.1145901940281	441.72289938846825	0.6083091944401531	n/a	n/a	n/a	n/a
427.87353515625	0.2	876285	346	69	3	0	0	64	1	stimuli\Videos_short_600ms\10.single_touch_with_knife_short_short_600ms.mp4	10.single_touch_with_knife_short_short_600ms.mp4	441.91457324450766	442.5229017930714	0.6083285485638044	n/a	n/a	n/a	n/a
428.67333984375	0.2	877923	347	69	3	0	0	65	208	stimuli\Videos_short_600ms_horvertflip\35.single_punch_with_hand_short_horvertflip_short_600ms.mp4	35.single_punch_with_hand_short_horvertflip_short_600ms.mp4	442.7145395800626	443.322873407024	0.6083338269613705	n/a	n/a	n/a	n/a
429.47314453125	0.2	879561	348	69	3	0	0	66	178	stimuli\Videos_short_600ms_horflip\9.single_touch_with_hammer_short_horflip_short_600ms.mp4	9.single_touch_with_hammer_short_horflip_short_600ms.mp4	443.5145381724901	444.1228535250607	0.6083153525705711	n/a	n/a	n/a	n/a
430.2734375	0.2	881200	349	69	3	0	0	67	171	stimuli\Videos_short_600ms_horflip\83.single_stroke_top_to_bottom_with_cotton_bud_short_horflip_short_600ms.mp4	83.single_stroke_top_to_bottom_with_cotton_bud_short_horflip_short_600ms.mp4	444.314516824305	444.922836282296	0.6083194579910014	n/a	n/a	n/a	n/a
431.0732421875	0.2	882838	350	69	3	0	0	68	12	stimuli\Videos_short_600ms\20.single_touch_with_screwdriver_short_short_600ms.mp4	20.single_touch_with_screwdriver_short_short_600ms.mp4	445.1145016342507	445.7228169868213	0.6083153525705711	n/a	n/a	n/a	n/a
431.873046875	0.2	884476	351	69	3	0	0	69	55	stimuli\Videos_short_600ms\6.single_touch_with_flat_hand_short_short_600ms.mp4	6.single_touch_with_flat_hand_short_short_600ms.mp4	445.91447471442416	446.522797104858	0.6083223904338411	n/a	n/a	n/a	n/a
432.67333984375	0.2	886115	352	69	3	0	0	70	50	stimuli\Videos_short_600ms\55.touch_top_to_bottom_with_nail_file_short_short_600ms.mp4	55.touch_top_to_bottom_with_nail_file_short_short_600ms.mp4	446.714458058148	447.3227789823604	0.6083209242124212	n/a	n/a	n/a	n/a
433.47314453125	0.2	887753	353	69	3	0	0	71	134	stimuli\Videos_short_600ms_horflip\5.repeated_tap_with_finger_moving_from_top_to_bottom_short_horflip_short_600ms.mp4	5.repeated_tap_with_finger_moving_from_top_to_bottom_short_horflip_short_600ms.mp4	447.5143962422503	448.12272889623455	0.6083326539842346	n/a	n/a	n/a	n/a
434.27294921875	0.2	889391	354	69	3	0	0	72	279	stimuli\Videos_short_600ms_vertflip\18.single_stroke_from_top_to_bottom_with_rolling_pin_short_vertflip_short_600ms.mp4	18.single_stroke_from_top_to_bottom_with_rolling_pin_short_vertflip_short_600ms.mp4	448.3144127225801	448.922742444121	0.6083297215409402	n/a	n/a	n/a	n/a
435.0732421875	0.2	891030	355	69	3	0	0	73	277	stimuli\Videos_short_600ms_vertflip\16.repeated_touch_with_plastic_brush_short_vertflip_short_600ms.mp4	16.repeated_touch_with_plastic_brush_short_vertflip_short_600ms.mp4	449.114378471646	449.7227202162034	0.6083417445574923	n/a	n/a	n/a	n/a
435.873046875	0.2	892668	356	69	3	0	0	74	54	stimuli\Videos_short_600ms\59.single_push_with_long_side_pencil_short_short_600ms.mp4	59.single_push_with_long_side_pencil_short_short_600ms.mp4	449.9143876208682	450.52270268019447	0.6083150593262872	n/a	n/a	n/a	n/a
436.6728515625	0.2	894306	357	69	3	0	0	75	106	stimuli\Videos_short_600ms_horflip\24.single_stroke_top_to_bottom_with_a_spoon_short_horflip_short_600ms.mp4	24.single_stroke_top_to_bottom_with_a_spoon_short_horflip_short_600ms.mp4	450.7143516104684	451.3226866104069	0.6083349999385064	n/a	n/a	n/a	n/a
