onset	duration	onsetsample	eventnumber	subjectnr	sequencenumber	blocksequencenumber	istarget	presentationnumber	stimnumber	stim	stimname	time_stimon	time_stimoff	stimdur	cresp	resp	rt	correct
43.12939453125	0.2	88329	0	4	0	0	0	0	355	stimuli\Videos_short_600ms_vertflip\87.single_stroke_top_to_bottom_with_plastic_brush_short_vertflip_short_600ms.mp4	87.single_stroke_top_to_bottom_with_plastic_brush_short_vertflip_short_600ms.mp4	221.81692142753673	222.425209508388	0.6082880808512527	n/a	n/a	n/a	n/a
43.92919921875	0.2	89967	1	4	0	0	0	1	312	stimuli\Videos_short_600ms_vertflip\48.single_slap_with_hand_short_vertflip_short_600ms.mp4	48.single_slap_with_hand_short_vertflip_short_600ms.mp4	222.61696312687585	223.22521044676932	0.6082473198935077	n/a	n/a	n/a	n/a
44.72900390625	0.2	91605	2	4	0	0	0	2	287	stimuli\Videos_short_600ms_vertflip\25.single_touch_with_stanley_knife_short_vertflip_short_600ms.mp4	25.single_touch_with_stanley_knife_short_vertflip_short_600ms.mp4	223.41690101773384	224.025158894422	0.6082578766881852	n/a	n/a	n/a	n/a
45.529296875	0.2	93244	3	4	0	0	0	3	259	stimuli\Videos_short_600ms_horvertflip\81.single_stroke_top_to_bottom_with_cotton_pad_short_horvertflip_short_600ms.mp4	81.single_stroke_top_to_bottom_with_cotton_pad_short_horvertflip_short_600ms.mp4	224.2168925722981	224.8251677503999	0.6082751781018487	n/a	n/a	n/a	n/a
46.3291015625	0.2	94882	4	4	0	0	0	4	92	stimuli\Videos_short_600ms_horflip\11.single_touch_with_lighter_short_horflip_short_600ms.mp4	11.single_touch_with_lighter_short_horflip_short_600ms.mp4	225.0168548024326	225.6253120852425	0.6084572828099226	n/a	n/a	n/a	n/a
47.12890625	0.2	96520	5	4	0	0	0	5	111	stimuli\Videos_short_600ms_horflip\29.single_pinch_with_tweezers_short_horflip_short_600ms.mp4	29.single_pinch_with_tweezers_short_horflip_short_600ms.mp4	225.81683404073647	226.42513062567195	0.6082965849354878	n/a	n/a	n/a	n/a
47.92919921875	0.2	98159	6	4	0	0	0	6	237	stimuli\Videos_short_600ms_horvertflip\61.single_hit_with_rolling_pin_short_horvertflip_short_600ms.mp4	61.single_hit_with_rolling_pin_short_horvertflip_short_600ms.mp4	226.6168141587732	227.22512012752625	0.6083059687530294	n/a	n/a	n/a	n/a
48.72900390625	0.2	99797	7	4	0	0	0	7	257	stimuli\Videos_short_600ms_horvertflip\8.single_touch_with_hairbrush_short_horvertflip_short_600ms.mp4	8.single_touch_with_hairbrush_short_horvertflip_short_600ms.mp4	227.4167945700542	228.02509555365395	0.6083009835997473	n/a	n/a	n/a	n/a
49.52880859375	0.2	101435	8	4	0	0	0	8	17	stimuli\Videos_short_600ms\25.single_touch_with_stanley_knife_short_short_600ms.mp4	25.single_touch_with_stanley_knife_short_short_600ms.mp4	228.21678143270947	228.82509971772333	0.6083182850138655	n/a	n/a	n/a	n/a
50.3291015625	0.2	103074	9	4	0	0	0	9	106	stimuli\Videos_short_600ms_horflip\24.single_stroke_top_to_bottom_with_a_spoon_short_horflip_short_600ms.mp4	24.single_stroke_top_to_bottom_with_a_spoon_short_horflip_short_600ms.mp4	229.0167310533393	229.62507397087393	0.6083429175346282	n/a	n/a	n/a	n/a
51.12890625	0.2	104712	10	4	0	0	0	10	277	stimuli\Videos_short_600ms_vertflip\16.repeated_touch_with_plastic_brush_short_vertflip_short_600ms.mp4	16.repeated_touch_with_plastic_brush_short_vertflip_short_600ms.mp4	229.81673785660723	230.4250620065068	0.6083241498995449	n/a	n/a	n/a	n/a
51.9287109375	0.2	106350	11	4	0	0	0	11	145	stimuli\Videos_short_600ms_horflip\6.single_touch_with_flat_hand_short_horflip_short_600ms.mp4	6.single_touch_with_flat_hand_short_horflip_short_600ms.mp4	230.6167173881554	231.22503156774883	0.6083141795934353	n/a	n/a	n/a	n/a
52.72900390625	0.2	107989	12	4	0	0	0	12	322	stimuli\Videos_short_600ms_vertflip\57.single_touch_with_nail_file_short_vertflip_short_600ms.mp4	57.single_touch_with_nail_file_short_vertflip_short_600ms.mp4	231.4166995589021	232.02501315200695	0.6083135931048673	n/a	n/a	n/a	n/a
53.52880859375	0.2	109627	13	4	0	0	0	13	215	stimuli\Videos_short_600ms_horvertflip\41.injection_with_blunt_syringe_short_horvertflip_short_600ms.mp4	41.injection_with_blunt_syringe_short_horvertflip_short_600ms.mp4	232.2166837823588	232.82499473626513	0.6083109539063116	n/a	n/a	n/a	n/a
54.32861328125	0.2	111265	14	4	0	0	0	14	346	stimuli\Videos_short_600ms_vertflip\79.long_with_soft_brush_all_over_the_hand_short_vertflip_short_600ms.mp4	79.long_with_soft_brush_all_over_the_hand_short_vertflip_short_600ms.mp4	233.01666419363983	233.62497632052327	0.6083121268834475	n/a	n/a	n/a	n/a
55.12890625	0.2	112904	15	4	0	0	0	15	274	stimuli\Videos_short_600ms_vertflip\13.single_touch_with_pen_short_vertflip_short_600ms.mp4	13.single_touch_with_pen_short_vertflip_short_600ms.mp4	233.8166621995788	234.42495966424713	0.6082974646683397	n/a	n/a	n/a	n/a
55.9287109375	0.2	114542	16	4	0	0	0	16	110	stimuli\Videos_short_600ms_horflip\28.single_injection_with_sharp_needle_short_horflip_short_600ms.mp4	28.single_injection_with_sharp_needle_short_horflip_short_600ms.mp4	234.6165939323064	235.2249371430853	0.6083432107789122	n/a	n/a	n/a	n/a
56.728515625	0.2	116180	17	4	0	0	0	17	298	stimuli\Videos_short_600ms_vertflip\35.single_punch_with_hand_short_vertflip_short_600ms.mp4	35.single_punch_with_hand_short_vertflip_short_600ms.mp4	235.41657991522925	236.02491902058773	0.6083391053584819	n/a	n/a	n/a	n/a
57.52880859375	0.2	117819	18	4	0	0	0	18	335	stimuli\Videos_short_600ms_vertflip\69.stroke_with_soft_sock_short_vertflip_short_600ms.mp4	69.stroke_with_soft_sock_short_vertflip_short_600ms.mp4	236.21658231983247	236.82489796564732	0.6083156458148551	n/a	n/a	n/a	n/a
58.32861328125	0.2	119457	19	4	0	0	0	19	169	stimuli\Videos_short_600ms_horflip\81.single_stroke_top_to_bottom_with_cotton_pad_short_horflip_short_600ms.mp4	81.single_stroke_top_to_bottom_with_cotton_pad_short_horflip_short_600ms.mp4	237.0165407377908	237.6248789634169	0.6083382256260847	n/a	n/a	n/a	n/a
59.12890625	0.2	121096	20	4	0	0	0	20	66	stimuli\Videos_short_600ms\7.repeated_touch_with_hairbrush_short_short_600ms.mp4	7.repeated_touch_with_hairbrush_short_short_600ms.mp4	237.8165311193779	238.42487081122545	0.6083396918475046	n/a	n/a	n/a	n/a
59.9287109375	0.2	122734	21	4	0	0	0	21	332	stimuli\Videos_short_600ms_vertflip\66.stroke_top_to_bottom_with_sponge_short_vertflip_short_600ms.mp4	66.stroke_top_to_bottom_with_sponge_short_vertflip_short_600ms.mp4	238.6165182752779	239.22482219132095	0.6083039160430417	n/a	n/a	n/a	n/a
60.728515625	0.2	124372	22	4	0	0	0	22	224	stimuli\Videos_short_600ms_horvertflip\5.repeated_tap_with_finger_moving_from_top_to_bottom_short_horvertflip_short_600ms.mp4	5.repeated_tap_with_finger_moving_from_top_to_bottom_short_horvertflip_short_600ms.mp4	239.41651012308648	240.02477474439365	0.6082646213071712	n/a	n/a	n/a	n/a
61.52880859375	0.2	126011	23	4	0	0	0	23	263	stimuli\Videos_short_600ms_horvertflip\85.touch_top_to_bottom_with_fabric_short_horvertflip_short_600ms.mp4	85.touch_top_to_bottom_with_fabric_short_horvertflip_short_600ms.mp4	240.21648261677137	240.82475574216323	0.608273125391861	n/a	n/a	n/a	n/a
62.32861328125	0.2	127649	24	4	0	0	0	24	228	stimuli\Videos_short_600ms_horvertflip\53.touch_top_to_bottom_with_knife_short_horvertflip_short_600ms.mp4	53.touch_top_to_bottom_with_knife_short_horvertflip_short_600ms.mp4	241.01644631312777	241.6247739819587	0.6083276688309525	n/a	n/a	n/a	n/a
63.12841796875	0.2	129287	25	4	0	0	0	25	252	stimuli\Videos_short_600ms_horvertflip\75.(long)stroke_with_fingers_all_over_the_hand_short_horvertflip_short_600ms.mp4	75.(long)stroke_with_fingers_all_over_the_hand_short_horvertflip_short_600ms.mp4	241.81644578528767	242.42474207697887	0.6082962916912038	n/a	n/a	n/a	n/a
63.9287109375	0.2	130926	26	4	0	0	0	26	107	stimuli\Videos_short_600ms_horflip\25.single_touch_with_stanley_knife_short_horflip_short_600ms.mp4	25.single_touch_with_stanley_knife_short_horflip_short_600ms.mp4	242.61642502359155	243.22472981936744	0.6083047957758936	n/a	n/a	n/a	n/a
64.728515625	0.2	132564	27	4	0	0	0	27	315	stimuli\Videos_short_600ms_vertflip\50.single_(long)hard_push_with_thumb_short_vertflip_short_600ms.mp4	50.single_(long)hard_push_with_thumb_short_vertflip_short_600ms.mp4	243.4163942915893	244.0247333969478	0.6083391053584819	n/a	n/a	n/a	n/a
65.5283203125	0.2	134202	28	4	0	0	0	28	73	stimuli\Videos_short_600ms\76.tickle_with_fingers_from_top_to_bottom_short_short_600ms.mp4	76.tickle_with_fingers_from_top_to_bottom_short_short_600ms.mp4	244.21638467317644	244.8247055973884	0.6083209242119665	n/a	n/a	n/a	n/a
66.32861328125	0.2	135841	29	4	0	0	0	29	302	stimuli\Videos_short_600ms_vertflip\39.single_stab_with_scissors_short_vertflip_short_600ms.mp4	39.single_stab_with_scissors_short_vertflip_short_600ms.mp4	245.01636655067887	245.62469539248696	0.6083288418080883	n/a	n/a	n/a	n/a
67.12841796875	0.2	137479	30	4	0	0	0	30	271	stimuli\Videos_short_600ms_vertflip\10.single_touch_with_knife_short_vertflip_short_600ms.mp4	10.single_touch_with_knife_short_vertflip_short_600ms.mp4	245.8163487214256	246.42466407399615	0.6083153525705711	n/a	n/a	n/a	n/a
67.92822265625	0.2	139117	31	4	0	0	0	31	264	stimuli\Videos_short_600ms_horvertflip\86.touch_top_to_bottom_with_hair_brush_short_horvertflip_short_600ms.mp4	86.touch_top_to_bottom_with_hair_brush_short_horvertflip_short_600ms.mp4	246.6163276664852	247.22464477852145	0.6083171120362749	n/a	n/a	n/a	n/a
68.728515625	0.2	140756	32	4	0	0	0	32	122	stimuli\Videos_short_600ms_horflip\39.single_stab_with_scissors_short_horflip_short_600ms.mp4	39.single_stab_with_scissors_short_horflip_short_600ms.mp4	247.4163104237205	248.0246251898025	0.6083147660820032	n/a	n/a	n/a	n/a
69.5283203125	0.2	142394	33	4	0	0	0	33	234	stimuli\Videos_short_600ms_horvertflip\59.single_push_with_long_side_pencil_short_horvertflip_short_600ms.mp4	59.single_push_with_long_side_pencil_short_horvertflip_short_600ms.mp4	248.21630168504043	248.82454343329255	0.6082417482521123	n/a	n/a	n/a	n/a
70.328125	0.2	144032	34	4	0	0	0	34	351	stimuli\Videos_short_600ms_vertflip\83.single_stroke_top_to_bottom_with_cotton_bud_short_vertflip_short_600ms.mp4	83.single_stroke_top_to_bottom_with_cotton_bud_short_vertflip_short_600ms.mp4	249.01628444227572	249.6245871853416	0.6083027430659058	n/a	n/a	n/a	n/a
71.12841796875	0.2	145671	35	4	0	0	0	35	8	stimuli\Videos_short_600ms\17.repeated_touch_with_rolling_pin_short_short_600ms.mp4	17.repeated_touch_with_rolling_pin_short_short_600ms.mp4	249.81622878450844	250.42456876959977	0.6083399850913338	n/a	n/a	n/a	n/a
71.92822265625	0.2	147309	36	4	0	0	0	36	325	stimuli\Videos_short_600ms_vertflip\6.single_touch_with_flat_hand_short_vertflip_short_600ms.mp4	6.single_touch_with_flat_hand_short_vertflip_short_600ms.mp4	250.6161880822001	251.2245468349265	0.6083587527264172	n/a	n/a	n/a	n/a
72.72802734375	0.2	148947	37	4	0	0	0	37	165	stimuli\Videos_short_600ms_horflip\78.single_stroke_top_to_bottom_with_soft_brush_short_horflip_short_600ms.mp4	78.single_stroke_top_to_bottom_with_soft_brush_short_horflip_short_600ms.mp4	251.41720452558047	252.02452841918463	0.6073238936041889	n/a	n/a	n/a	n/a
73.5283203125	0.2	150586	38	4	0	0	0	38	331	stimuli\Videos_short_600ms_vertflip\65.stroke_top_to_bottom_with_stanley_knife_short_vertflip_short_600ms.mp4	65.stroke_top_to_bottom_with_stanley_knife_short_vertflip_short_600ms.mp4	252.21656032651023	252.82451352237425	0.6079531958639564	n/a	n/a	n/a	n/a
74.328125	0.2	152224	39	4	0	0	0	39	55	stimuli\Videos_short_600ms\6.single_touch_with_flat_hand_short_short_600ms.mp4	6.single_touch_with_flat_hand_short_short_600ms.mp4	253.01616069318288	253.6244927606781	0.608332067495212	n/a	n/a	n/a	n/a
75.1279296875	0.2	153862	40	4	0	0	0	40	61	stimuli\Videos_short_600ms\65.stroke_top_to_bottom_with_stanley_knife_short_short_600ms.mp4	65.stroke_top_to_bottom_with_stanley_knife_short_short_600ms.mp4	253.8161581126328	254.42442625287185	0.6082681402390335	n/a	n/a	n/a	n/a
75.92822265625	0.2	155501	41	4	0	0	0	41	358	stimuli\Videos_short_600ms_vertflip\9.single_touch_with_hammer_short_vertflip_short_600ms.mp4	9.single_touch_with_hammer_short_vertflip_short_600ms.mp4	254.61614321582283	255.22442865747507	0.6082854416522423	n/a	n/a	n/a	n/a
76.72802734375	0.2	157139	42	4	0	0	0	42	211	stimuli\Videos_short_600ms_horvertflip\38.double_slap_with_pencil_short_horvertflip_short_600ms.mp4	38.double_slap_with_pencil_short_horvertflip_short_600ms.mp4	255.4161177622177	256.0243861957006	0.6082684334828627	n/a	n/a	n/a	n/a
77.52783203125	0.2	158777	43	4	0	0	0	43	15	stimuli\Videos_short_600ms\23.single_push_with_a_spoon_short_short_600ms.mp4	23.single_push_with_a_spoon_short_short_600ms.mp4	256.216096414033	256.82437804350957	0.6082816294765507	n/a	n/a	n/a	n/a
78.328125	0.2	160416	44	4	0	0	1	44	361	stimuli\Targets_short_600ms\chopstick-silver-tap_short_short_600ms.mp4	chopstick-silver-tap_short_short_600ms.mp4	257.0160756523369	257.6243751697152	0.6082995173783274	n/a	n/a	n/a	n/a
79.1279296875	0.2	162054	45	4	0	0	0	45	326	stimuli\Videos_short_600ms_vertflip\60.single_push_with_tip_of_pencil_short_vertflip_short_600ms.mp4	60.single_push_with_tip_of_pencil_short_vertflip_short_600ms.mp4	257.8160560636179	258.4243547012634	0.6082986376454755	n/a	n/a	n/a	n/a
79.92822265625	0.2	163693	46	4	0	0	0	46	260	stimuli\Videos_short_600ms_horvertflip\82.repeated_touch_with_cotton_bud_short_horvertflip_short_600ms.mp4	82.repeated_touch_with_cotton_bud_short_horvertflip_short_600ms.mp4	258.6160355951656	259.22436209101943	0.6083264958538166	n/a	n/a	n/a	n/a
80.72802734375	0.2	165331	47	4	0	0	0	47	254	stimuli\Videos_short_600ms_horvertflip\77.tapping_with_all_fingers_short_horvertflip_short_600ms.mp4	77.tapping_with_all_fingers_short_horvertflip_short_600ms.mp4	259.4160165929352	260.0243342914605	0.6083176985252976	n/a	n/a	n/a	n/a
81.52783203125	0.2	166969	48	4	0	0	0	48	206	stimuli\Videos_short_600ms_horvertflip\33.scratch_top_to_bottom_with_scissors_short_horvertflip_short_600ms.mp4	33.scratch_top_to_bottom_with_scissors_short_horvertflip_short_600ms.mp4	260.2160002299038	260.82432555278046	0.6083253228766807	n/a	n/a	n/a	n/a
82.328125	0.2	168608	49	4	0	0	0	49	88	stimuli\Videos_short_600ms\9.single_touch_with_hammer_short_short_600ms.mp4	9.single_touch_with_hammer_short_short_600ms.mp4	261.01597946820766	261.62429804646536	0.6083185782576948	n/a	n/a	n/a	n/a
83.1279296875	0.2	170246	50	4	0	0	0	50	86	stimuli\Videos_short_600ms\88.repeated_stroke_with_plastic_brush_short_short_600ms.mp4	88.repeated_stroke_with_plastic_brush_short_short_600ms.mp4	261.8159710227719	262.4242819766778	0.6083109539058569	n/a	n/a	n/a	n/a
83.927734375	0.2	171884	51	4	0	0	0	51	16	stimuli\Videos_short_600ms\24.single_stroke_top_to_bottom_with_a_spoon_short_short_600ms.mp4	24.single_stroke_top_to_bottom_with_a_spoon_short_short_600ms.mp4	262.61592093664603	263.2242571095617	0.6083361729156422	n/a	n/a	n/a	n/a
84.72802734375	0.2	173523	52	4	0	0	0	52	354	stimuli\Videos_short_600ms_vertflip\86.touch_top_to_bottom_with_hair_brush_short_vertflip_short_600ms.mp4	86.touch_top_to_bottom_with_hair_brush_short_vertflip_short_600ms.mp4	263.41593096560064	264.02423752084223	0.6083065552415974	n/a	n/a	n/a	n/a
85.52783203125	0.2	175161	53	4	0	0	0	53	131	stimuli\Videos_short_600ms_horflip\47.(long)scratching_with_finger_nails_short_horflip_short_600ms.mp4	47.(long)scratching_with_finger_nails_short_horflip_short_600ms.mp4	264.2158647510387	264.82421910510084	0.6083543540621577	n/a	n/a	n/a	n/a
86.32763671875	0.2	176799	54	4	0	0	0	54	53	stimuli\Videos_short_600ms\58.single_slap_with_pencil_short_short_600ms.mp4	58.single_slap_with_pencil_short_short_600ms.mp4	265.01586158400005	265.6242018623361	0.6083402783360725	n/a	n/a	n/a	n/a
87.1279296875	0.2	178438	55	4	0	0	0	55	340	stimuli\Videos_short_600ms_vertflip\73.single_stroke_with_flat_hand_short_vertflip_short_600ms.mp4	73.single_stroke_with_flat_hand_short_vertflip_short_600ms.mp4	265.8158493263886	266.42414121941556	0.6082918930269443	n/a	n/a	n/a	n/a
87.927734375	0.2	180076	56	4	0	0	0	56	241	stimuli\Videos_short_600ms_horvertflip\65.stroke_top_to_bottom_with_stanley_knife_short_horvertflip_short_600ms.mp4	65.stroke_top_to_bottom_with_stanley_knife_short_horvertflip_short_600ms.mp4	266.61579924026273	267.224160925432	0.6083616851692568	n/a	n/a	n/a	n/a
88.7275390625	0.2	181714	57	4	0	0	0	57	144	stimuli\Videos_short_600ms_horflip\59.single_push_with_long_side_pencil_short_horflip_short_600ms.mp4	59.single_push_with_long_side_pencil_short_horflip_short_600ms.mp4	267.41580369757594	268.0241416299573	0.608337932381346	n/a	n/a	n/a	n/a
89.52783203125	0.2	183353	58	4	0	0	0	58	19	stimuli\Videos_short_600ms\27.single_push_with_a_plastic_whisk_short_short_600ms.mp4	27.single_push_with_a_plastic_whisk_short_short_600ms.mp4	268.2157882142774	268.8241064992908	0.6083182850134108	n/a	n/a	n/a	n/a
90.32763671875	0.2	184991	59	4	0	0	0	59	43	stimuli\Videos_short_600ms\49.repeated_slap_with_hand_short_short_600ms.mp4	49.repeated_slap_with_hand_short_short_600ms.mp4	269.01640555217045	269.62410391874073	0.6076983665702755	n/a	n/a	n/a	n/a
91.12744140625	0.2	186629	60	4	0	0	0	60	194	stimuli\Videos_short_600ms_horvertflip\22.single_touch_with_metal_chopstick_short_horvertflip_short_600ms.mp4	22.single_touch_with_metal_chopstick_short_horvertflip_short_600ms.mp4	269.81577073691733	270.4240711340285	0.6083003971111793	n/a	n/a	n/a	n/a
91.927734375	0.2	188268	61	4	0	0	0	61	91	stimuli\Videos_short_600ms_horflip\10.single_touch_with_knife_short_horflip_short_600ms.mp4	10.single_touch_with_knife_short_horflip_short_600ms.mp4	270.6157558401069	271.2240433344691	0.6082874943622301	n/a	n/a	n/a	n/a
92.7275390625	0.2	189906	62	4	0	0	1	62	370	stimuli\Targets_short_600ms_horflip\hand-pinch_short_horflip_short_600ms.mp4	hand-pinch_short_horflip_short_600ms.mp4	271.4157347851665	272.0240269714377	0.6082921862712283	n/a	n/a	n/a	n/a
93.52734375	0.2	191544	63	4	0	0	0	63	329	stimuli\Videos_short_600ms_vertflip\63.stroke_top_to_bottom_with_screwdriver_short_vertflip_short_600ms.mp4	63.stroke_top_to_bottom_with_screwdriver_short_vertflip_short_600ms.mp4	272.21570933156136	272.82400826245157	0.6082989308902143	n/a	n/a	n/a	n/a
94.32763671875	0.2	193183	64	4	0	0	0	64	311	stimuli\Videos_short_600ms_vertflip\47.(long)scratching_with_finger_nails_short_vertflip_short_600ms.mp4	47.(long)scratching_with_finger_nails_short_vertflip_short_600ms.mp4	273.01568798337667	273.62399101968685	0.6083030363101898	n/a	n/a	n/a	n/a
95.12744140625	0.2	194821	65	4	0	0	1	65	382	stimuli\Targets_short_600ms_vertflip\hand-pinch_short_horvertflip_short_600ms.mp4	hand-pinch_short_horvertflip_short_600ms.mp4	273.81567074061195	274.4239943040229	0.6083235634109769	n/a	n/a	n/a	n/a
95.92724609375	0.2	196459	66	4	0	0	0	66	166	stimuli\Videos_short_600ms_horflip\79.long_with_soft_brush_all_over_the_hand_short_horflip_short_600ms.mp4	79.long_with_soft_brush_all_over_the_hand_short_horflip_short_600ms.mp4	274.61564968567154	275.22396973015066	0.6083200444791146	n/a	n/a	n/a	n/a
96.7275390625	0.2	198098	67	4	0	0	0	67	347	stimuli\Videos_short_600ms_vertflip\8.single_touch_with_hairbrush_short_vertflip_short_600ms.mp4	8.single_touch_with_hairbrush_short_vertflip_short_600ms.mp4	275.4156377213044	276.0239521941421	0.6083144728377192	n/a	n/a	n/a	n/a
97.52734375	0.2	199736	68	4	0	0	0	68	344	stimuli\Videos_short_600ms_vertflip\77.tapping_with_all_fingers_short_vertflip_short_600ms.mp4	77.tapping_with_all_fingers_short_vertflip_short_600ms.mp4	276.21561461365354	276.82392967297983	0.6083150593262872	n/a	n/a	n/a	n/a
98.32763671875	0.2	201375	69	4	0	0	0	69	294	stimuli\Videos_short_600ms_vertflip\31.hand_grabbing_wrist_short_vertflip_short_600ms.mp4	31.hand_grabbing_wrist_short_vertflip_short_600ms.mp4	277.01559473169027	277.623913896437	0.6083191647467174	n/a	n/a	n/a	n/a
99.12744140625	0.2	203013	70	4	0	0	0	70	190	stimuli\Videos_short_600ms_horvertflip\19.single_touch_with_rolling_pin_short_horvertflip_short_600ms.mp4	19.single_touch_with_rolling_pin_short_horvertflip_short_600ms.mp4	277.8155766091927	278.42389489420657	0.6083182850138655	n/a	n/a	n/a	n/a
99.92724609375	0.2	204651	71	4	0	0	0	71	69	stimuli\Videos_short_600ms\72.(short)stroke_with_finger_all_over_the_hand_short_short_600ms.mp4	72.(short)stroke_with_finger_all_over_the_hand_short_short_600ms.mp4	278.6155558474966	279.22387266628857	0.608316818791991	n/a	n/a	n/a	n/a
100.7275390625	0.2	206290	72	4	0	0	0	72	142	stimuli\Videos_short_600ms_horflip\57.single_touch_with_nail_file_short_horflip_short_600ms.mp4	57.single_touch_with_nail_file_short_horflip_short_600ms.mp4	279.4155526804584	280.023854543791	0.6083018633325992	n/a	n/a	n/a	n/a
101.52734375	0.2	207928	73	4	0	0	0	73	220	stimuli\Videos_short_600ms_horvertflip\46.scratching_top_to_bottom_with_finger_nails_short_horvertflip_short_600ms.mp4	46.scratching_top_to_bottom_with_finger_nails_short_horvertflip_short_600ms.mp4	280.21550787272963	280.823832902362	0.6083250296323968	n/a	n/a	n/a	n/a
102.33544921875	0.2	209583	74	4	0	0	0	74	279	stimuli\Videos_short_600ms_vertflip\18.single_stroke_from_top_to_bottom_with_rolling_pin_short_vertflip_short_600ms.mp4	18.single_stroke_from_top_to_bottom_with_rolling_pin_short_vertflip_short_600ms.mp4	281.0238510248596	281.6321493692608	0.6082983444011916	n/a	n/a	n/a	n/a
103.1357421875	0.2	211222	75	4	0	0	0	75	303	stimuli\Videos_short_600ms_vertflip\4.repeated_tap_with_finger_slow_short_vertflip_short_600ms.mp4	4.repeated_tap_with_finger_slow_short_vertflip_short_600ms.mp4	281.82380885632983	282.43213036703037	0.6083215107005344	n/a	n/a	n/a	n/a
103.935546875	0.2	212860	76	4	0	0	0	76	272	stimuli\Videos_short_600ms_vertflip\11.single_touch_with_lighter_short_vertflip_short_600ms.mp4	11.single_touch_with_lighter_short_vertflip_short_600ms.mp4	282.62379132032083	283.23211107155566	0.6083197512348306	n/a	n/a	n/a	n/a
104.7353515625	0.2	214498	77	4	0	0	0	77	51	stimuli\Videos_short_600ms\56.repeated_touch_with_nail_file_short_short_600ms.mp4	56.repeated_touch_with_nail_file_short_short_600ms.mp4	283.4237690924033	284.0320958815014	0.6083267890981006	n/a	n/a	n/a	n/a
105.53564453125	0.2	216137	78	4	0	0	0	78	177	stimuli\Videos_short_600ms_horflip\89.single_touch_with_plastic_brush_short_horflip_short_600ms.mp4	89.single_touch_with_plastic_brush_short_horflip_short_600ms.mp4	284.22376768483036	284.8320718941177	0.6083042092873256	n/a	n/a	n/a	n/a
106.33544921875	0.2	217775	79	4	0	0	0	79	35	stimuli\Videos_short_600ms\41.injection_with_blunt_syringe_short_short_600ms.mp4	41.injection_with_blunt_syringe_short_short_600ms.mp4	285.0237099743531	285.63205289188727	0.6083429175341735	n/a	n/a	n/a	n/a
107.13525390625	0.2	219413	80	4	0	0	0	80	67	stimuli\Videos_short_600ms\70.(long)stroke_with_finger_all_over_the_hand_short_short_600ms.mp4	70.(long)stroke_with_finger_all_over_the_hand_short_short_600ms.mp4	285.82369947620737	286.43203418290113	0.6083347066937677	n/a	n/a	n/a	n/a
107.935546875	0.2	221052	81	4	0	0	0	81	168	stimuli\Videos_short_600ms_horflip\80.stroke_with_sharp_stick_all_over_the_hand_short_horflip_short_600ms.mp4	80.stroke_with_sharp_stick_all_over_the_hand_short_horflip_short_600ms.mp4	286.6236728496251	287.23201606040357	0.6083432107784574	n/a	n/a	n/a	n/a
108.7353515625	0.2	222690	82	4	0	0	0	82	262	stimuli\Videos_short_600ms_horvertflip\84.single_touch_with_cotton_bud_short_horvertflip_short_600ms.mp4	84.single_touch_with_cotton_bud_short_horvertflip_short_600ms.mp4	287.42364827575284	288.03199999061644	0.608351714863602	n/a	n/a	n/a	n/a
109.53515625	0.2	224328	83	4	0	0	0	83	3	stimuli\Videos_short_600ms\12.repeated_touch_with_nail_file_short_short_600ms.mp4	12.repeated_touch_with_nail_file_short_short_600ms.mp4	288.22365742497504	288.8319595815524	0.6083021565773379	n/a	n/a	n/a	n/a
110.33544921875	0.2	225967	84	4	0	0	0	84	269	stimuli\Videos_short_600ms_horvertflip\90.repeated_touch_with_sponge_short_horvertflip_short_600ms.mp4	90.repeated_touch_with_sponge_short_horvertflip_short_600ms.mp4	289.0236319713699	289.6319115481365	0.608279576766563	n/a	n/a	n/a	n/a
111.13525390625	0.2	227605	85	4	0	0	0	85	306	stimuli\Videos_short_600ms_vertflip\42.single_slap_with_plastic_whisk_short_vertflip_short_600ms.mp4	42.single_slap_with_plastic_whisk_short_vertflip_short_600ms.mp4	289.82359977314627	290.43189283915035	0.6082930660040802	n/a	n/a	n/a	n/a
111.93505859375	0.2	229243	86	4	0	0	0	86	64	stimuli\Videos_short_600ms\68.stroke_top_to_bottom_with_shawl_short_short_600ms.mp4	68.stroke_top_to_bottom_with_shawl_short_short_600ms.mp4	290.6235998317952	291.2318747166528	0.6082748848575648	n/a	n/a	n/a	n/a
112.7353515625	0.2	230882	87	4	0	0	0	87	84	stimuli\Videos_short_600ms\86.touch_top_to_bottom_with_hair_brush_short_short_600ms.mp4	86.touch_top_to_bottom_with_hair_brush_short_short_600ms.mp4	291.4235896268938	292.03187418881316	0.6082845619193904	n/a	n/a	n/a	n/a
113.53515625	0.2	232520	88	4	0	0	0	88	281	stimuli\Videos_short_600ms_vertflip\2.single_touch_with_finger_short_vertflip_short_600ms.mp4	2.single_touch_with_finger_short_vertflip_short_600ms.mp4	292.2235612408458	292.83186867582026	0.6083074349744493	n/a	n/a	n/a	n/a
114.33544921875	0.2	234159	89	4	0	0	0	89	109	stimuli\Videos_short_600ms_horflip\27.single_push_with_a_plastic_whisk_short_horflip_short_600ms.mp4	27.single_push_with_a_plastic_whisk_short_horflip_short_600ms.mp4	293.02354106563826	293.6318464479027	0.6083053822644615	n/a	n/a	n/a	n/a
115.13525390625	0.2	235797	90	4	0	0	0	90	21	stimuli\Videos_short_600ms\29.single_pinch_with_tweezers_short_short_600ms.mp4	29.single_pinch_with_tweezers_short_short_600ms.mp4	293.82350182955133	294.4318494389945	0.6083476094431717	n/a	n/a	n/a	n/a
115.93505859375	0.2	237435	91	4	0	0	0	91	127	stimuli\Videos_short_600ms_horflip\43.touch_top_to_bottom_with_sharp_wooden_stick_short_horflip_short_600ms.mp4	43.touch_top_to_bottom_with_sharp_wooden_stick_short_horflip_short_600ms.mp4	294.62347051106053	295.23183952733734	0.6083690162768107	n/a	n/a	n/a	n/a
116.7353515625	0.2	239074	92	4	0	0	0	92	7	stimuli\Videos_short_600ms\16.repeated_touch_with_plastic_brush_short_short_600ms.mp4	16.repeated_touch_with_plastic_brush_short_short_600ms.mp4	295.4234843521913	296.0318046899147	0.6083203377233986	3.0	3.0	2.586775972500618	1.0
151.333984375	0.2	309932	93	4	1	0	0	0	159	stimuli\Videos_short_600ms_horflip\72.(short)stroke_with_finger_all_over_the_hand_short_horflip_short_600ms.mp4	72.(short)stroke_with_finger_all_over_the_hand_short_horflip_short_600ms.mp4	330.02267482198613	330.63097756505204	0.6083027430659058	n/a	n/a	n/a	n/a
152.1337890625	0.2	311570	94	4	1	0	0	1	199	stimuli\Videos_short_600ms_horvertflip\27.single_push_with_a_plastic_whisk_short_horvertflip_short_600ms.mp4	27.single_push_with_a_plastic_whisk_short_horvertflip_short_600ms.mp4	330.82262502910453	331.43095621686734	0.6083311877628148	n/a	n/a	n/a	n/a
152.93408203125	0.2	313209	95	4	1	0	1	2	374	stimuli\Targets_short_600ms_horvertflip\chopstickwood-tap_short_vertflip_short_600ms.mp4	chopstickwood-tap_short_vertflip_short_600ms.mp4	331.62259517683515	332.2309380943698	0.6083429175346282	n/a	n/a	n/a	n/a
153.73388671875	0.2	314847	96	4	1	0	0	3	11	stimuli\Videos_short_600ms\2.single_touch_with_finger_short_short_600ms.mp4	2.single_touch_with_finger_short_short_600ms.mp4	332.42258790437654	333.03091733267365	0.608329428297111	n/a	n/a	n/a	n/a
154.53369140625	0.2	316485	97	4	1	0	0	4	147	stimuli\Videos_short_600ms_horflip\61.single_hit_with_rolling_pin_short_horflip_short_600ms.mp4	61.single_hit_with_rolling_pin_short_horflip_short_600ms.mp4	333.2225794589408	333.8309006763975	0.6083212174567052	n/a	n/a	n/a	n/a
155.333984375	0.2	318124	98	4	1	0	0	5	130	stimuli\Videos_short_600ms_horflip\46.scratching_top_to_bottom_with_finger_nails_short_horflip_short_600ms.mp4	46.scratching_top_to_bottom_with_finger_nails_short_horflip_short_600ms.mp4	334.0225449147629	334.6308781552352	0.6083332404723478	n/a	n/a	n/a	n/a
156.1337890625	0.2	319762	99	4	1	0	0	6	94	stimuli\Videos_short_600ms_horflip\13.single_touch_with_pen_short_horflip_short_600ms.mp4	13.single_touch_with_pen_short_horflip_short_600ms.mp4	334.8225273787539	335.4308591530048	0.608331774250928	n/a	n/a	n/a	n/a
156.93408203125	0.2	321401	100	4	1	0	0	7	181	stimuli\Videos_short_600ms_horvertflip\10.single_touch_with_knife_short_horvertflip_short_600ms.mp4	10.single_touch_with_knife_short_horvertflip_short_600ms.mp4	335.62252890362424	336.2308219696283	0.6082930660040802	n/a	n/a	n/a	n/a
157.73388671875	0.2	323039	101	4	1	0	0	8	240	stimuli\Videos_short_600ms_horvertflip\64.repeated_touch_with_screwdriver_short_horvertflip_short_600ms.mp4	64.repeated_touch_with_screwdriver_short_horvertflip_short_600ms.mp4	336.42250315677484	337.03079915522176	0.6082959984469198	n/a	n/a	n/a	n/a
158.53369140625	0.2	324677	102	4	1	0	0	9	261	stimuli\Videos_short_600ms_horvertflip\83.single_stroke_top_to_bottom_with_cotton_bud_short_horvertflip_short_600ms.mp4	83.single_stroke_top_to_bottom_with_cotton_bud_short_horvertflip_short_600ms.mp4	337.22306184580884	337.8307816192132	0.6077197734043693	n/a	n/a	n/a	n/a
159.333984375	0.2	326316	103	4	1	0	0	10	218	stimuli\Videos_short_600ms_horvertflip\44.pushing_top_to_bottom_with_finger_short_horvertflip_short_600ms.mp4	44.pushing_top_to_bottom_with_finger_short_horvertflip_short_600ms.mp4	338.02246896449014	338.630771121067	0.6083021565768831	n/a	n/a	n/a	n/a
160.1337890625	0.2	327954	104	4	1	0	0	11	26	stimuli\Videos_short_600ms\33.scratch_top_to_bottom_with_scissors_short_short_600ms.mp4	33.scratch_top_to_bottom_with_scissors_short_short_600ms.mp4	338.8224499622597	339.4307483066609	0.6082983444011916	n/a	n/a	n/a	n/a
160.93359375	0.2	329592	105	4	1	0	0	12	155	stimuli\Videos_short_600ms_horflip\69.stroke_with_soft_sock_short_horflip_short_600ms.mp4	69.stroke_with_soft_sock_short_horflip_short_600ms.mp4	339.6230098242704	340.23073223687334	0.607722412602925	n/a	n/a	n/a	n/a
161.7421875	0.2	331248	106	4	1	0	0	13	18	stimuli\Videos_short_600ms\26.single_touch_with_a_blunt_syringe_short_short_600ms.mp4	26.single_touch_with_a_blunt_syringe_short_short_600ms.mp4	340.4307524120809	341.0390146874338	0.6082622753528995	n/a	n/a	n/a	n/a
162.55029296875	0.2	332903	107	4	1	0	0	14	105	stimuli\Videos_short_600ms_horflip\23.single_push_with_a_spoon_short_horflip_short_600ms.mp4	23.single_push_with_a_spoon_short_horflip_short_600ms.mp4	341.23904747214647	341.84734229761625	0.608294825469784	n/a	n/a	n/a	n/a
163.35009765625	0.2	334541	108	4	1	0	0	15	176	stimuli\Videos_short_600ms_horflip\88.repeated_stroke_with_plastic_brush_short_horflip_short_600ms.mp4	88.repeated_stroke_with_plastic_brush_short_horflip_short_600ms.mp4	342.038996799532	342.6473361981348	0.6083393986027659	n/a	n/a	n/a	n/a
164.150390625	0.2	336180	109	4	1	0	0	16	90	stimuli\Videos_short_600ms_horflip\1.repeated_touch_with_finger_fast_short_horflip_short_600ms.mp4	1.repeated_touch_with_finger_fast_short_horflip_short_600ms.mp4	342.83898043650015	343.44732306079004	0.6083426242898895	n/a	n/a	n/a	n/a
164.9501953125	0.2	337818	110	4	1	0	0	17	229	stimuli\Videos_short_600ms_horvertflip\54.repeated_touch_with_knife_short_horvertflip_short_600ms.mp4	54.repeated_touch_with_knife_short_horvertflip_short_600ms.mp4	343.63897668297295	344.24729467474253	0.6083179917695816	n/a	n/a	n/a	n/a
165.75	0.2	339456	111	4	1	0	0	18	299	stimuli\Videos_short_600ms_vertflip\36.single_slap_with_full_hand_short_vertflip_short_600ms.mp4	36.single_slap_with_full_hand_short_vertflip_short_600ms.mp4	344.4389682375372	345.04728857526106	0.6083203377238533	n/a	n/a	n/a	n/a
166.55029296875	0.2	341095	112	4	1	0	0	19	60	stimuli\Videos_short_600ms\64.repeated_touch_with_screwdriver_short_short_600ms.mp4	64.repeated_touch_with_screwdriver_short_short_600ms.mp4	345.2390234261138	345.847281889291	0.6082584631772079	n/a	n/a	n/a	n/a
167.35009765625	0.2	342733	113	4	1	0	0	20	185	stimuli\Videos_short_600ms_horvertflip\14.repeated_touch_with_pencil_short_horvertflip_short_600ms.mp4	14.repeated_touch_with_pencil_short_horvertflip_short_600ms.mp4	346.0390850660651	346.6472883993142	0.6082033332490937	n/a	n/a	n/a	n/a
168.14990234375	0.2	344371	114	4	1	0	0	21	309	stimuli\Videos_short_600ms_vertflip\45.scratching_with_finger_nails_short_vertflip_short_600ms.mp4	45.scratching_with_finger_nails_short_vertflip_short_600ms.mp4	346.83892413359536	347.4472506294492	0.6083264958538166	n/a	n/a	n/a	n/a
168.9501953125	0.2	346010	115	4	1	0	0	22	217	stimuli\Videos_short_600ms_horvertflip\43.touch_top_to_bottom_with_sharp_wooden_stick_short_horvertflip_short_600ms.mp4	43.touch_top_to_bottom_with_sharp_wooden_stick_short_horvertflip_short_600ms.mp4	347.6389209665567	348.24725127458623	0.6083303080295082	n/a	n/a	n/a	n/a
169.75	0.2	347648	116	4	1	0	0	23	141	stimuli\Videos_short_600ms_horflip\56.repeated_touch_with_nail_file_short_horflip_short_600ms.mp4	56.repeated_touch_with_nail_file_short_horflip_short_600ms.mp4	348.43888583589023	349.0471648261678	0.6082789902775403	n/a	n/a	n/a	n/a
170.55029296875	0.2	349287	117	4	1	0	0	24	173	stimuli\Videos_short_600ms_horflip\85.touch_top_to_bottom_with_fabric_short_horflip_short_600ms.mp4	85.touch_top_to_bottom_with_fabric_short_horflip_short_600ms.mp4	349.2388448403376	349.84722030798866	0.608375467651058	n/a	n/a	n/a	n/a
171.35009765625	0.2	350925	118	4	1	0	0	25	193	stimuli\Videos_short_600ms_horvertflip\21.repeated_touch_with_metal_chopstick_short_horvertflip_short_600ms.mp4	21.repeated_touch_with_metal_chopstick_short_horvertflip_short_600ms.mp4	350.0388258381072	350.6471746205275	0.6083487824203075	n/a	n/a	n/a	n/a
172.14990234375	0.2	352563	119	4	1	0	0	26	179	stimuli\Videos_short_600ms_horflip\90.repeated_touch_with_sponge_short_horflip_short_600ms.mp4	90.repeated_touch_with_sponge_short_horflip_short_600ms.mp4	350.8388253102671	351.44714975341094	0.6083244431438288	n/a	n/a	n/a	n/a
172.9501953125	0.2	354202	120	4	1	0	0	27	225	stimuli\Videos_short_600ms_horvertflip\50.single_(long)hard_push_with_thumb_short_horvertflip_short_600ms.mp4	50.single_(long)hard_push_with_thumb_short_horvertflip_short_600ms.mp4	351.6387904728449	352.2471310444248	0.6083405715799017	n/a	n/a	n/a	n/a
173.75	0.2	355840	121	4	1	0	0	28	223	stimuli\Videos_short_600ms_horvertflip\49.repeated_slap_with_hand_short_horvertflip_short_600ms.mp4	49.repeated_slap_with_hand_short_horvertflip_short_600ms.mp4	352.43879258420384	353.04711292192724	0.6083203377233986	n/a	n/a	n/a	n/a
174.5498046875	0.2	357478	122	4	1	0	1	29	376	stimuli\Targets_short_600ms_horvertflip\hand-pinch_short_vertflip_short_600ms.mp4	hand-pinch_short_vertflip_short_600ms.mp4	353.2387735819734	353.8470921602311	0.6083185782576948	n/a	n/a	n/a	n/a
175.35009765625	0.2	359117	123	4	1	0	0	30	214	stimuli\Videos_short_600ms_horvertflip\40.repeated_push_with_finger_short_horvertflip_short_600ms.mp4	40.repeated_push_with_finger_short_horvertflip_short_600ms.mp4	354.03875545947585	354.6470749174664	0.6083194579905467	n/a	n/a	n/a	n/a
176.14990234375	0.2	360755	124	4	1	0	0	31	352	stimuli\Videos_short_600ms_vertflip\84.single_touch_with_cotton_bud_short_vertflip_short_600ms.mp4	84.single_touch_with_cotton_bud_short_vertflip_short_600ms.mp4	354.8387308856036	355.44705268954885	0.6083218039452731	n/a	n/a	n/a	n/a
176.94970703125	0.2	362393	125	4	1	0	0	32	197	stimuli\Videos_short_600ms_horvertflip\25.single_touch_with_stanley_knife_short_horvertflip_short_600ms.mp4	25.single_touch_with_stanley_knife_short_horvertflip_short_600ms.mp4	355.63871246986173	356.24708148613854	0.6083690162768107	n/a	n/a	n/a	n/a
177.75	0.2	364032	126	4	1	0	0	33	297	stimuli\Videos_short_600ms_vertflip\34.repeated_punch_with_hand_short_vertflip_short_600ms.mp4	34.repeated_punch_with_hand_short_vertflip_short_600ms.mp4	356.4386697148434	357.04701439184373	0.608344677000332	n/a	n/a	n/a	n/a
178.5498046875	0.2	365670	127	4	1	0	0	34	101	stimuli\Videos_short_600ms_horflip\2.single_touch_with_finger_short_horflip_short_600ms.mp4	2.single_touch_with_finger_short_horflip_short_600ms.mp4	357.23886507419365	357.84699626934616	0.6081311951525095	n/a	n/a	n/a	n/a
179.349609375	0.2	367308	128	4	1	0	0	35	70	stimuli\Videos_short_600ms\73.single_stroke_with_flat_hand_short_short_600ms.mp4	73.single_stroke_with_flat_hand_short_short_600ms.mp4	358.03866074156804	358.64695674001496	0.6082959984469198	n/a	n/a	n/a	n/a
180.14990234375	0.2	368947	129	4	1	0	0	36	285	stimuli\Videos_short_600ms_vertflip\23.single_push_with_a_spoon_short_vertflip_short_600ms.mp4	23.single_push_with_a_spoon_short_vertflip_short_600ms.mp4	358.8385910080742	359.44695943786246	0.6083684297882428	n/a	n/a	n/a	n/a
180.94970703125	0.2	370585	130	4	1	0	0	37	40	stimuli\Videos_short_600ms\46.scratching_top_to_bottom_with_finger_nails_short_short_600ms.mp4	46.scratching_top_to_bottom_with_finger_nails_short_short_600ms.mp4	359.63859986405214	360.2469395558992	0.6083396918470498	n/a	n/a	n/a	n/a
181.74951171875	0.2	372223	131	4	1	0	0	38	57	stimuli\Videos_short_600ms\61.single_hit_with_rolling_pin_short_short_600ms.mp4	61.single_hit_with_rolling_pin_short_short_600ms.mp4	360.43857880911173	361.0469264185549	0.6083476094431717	n/a	n/a	n/a	n/a
182.5498046875	0.2	373862	132	4	1	0	0	39	49	stimuli\Videos_short_600ms\54.repeated_touch_with_knife_short_short_600ms.mp4	54.repeated_touch_with_knife_short_short_600ms.mp4	361.2385859056235	361.84687310674144	0.6082872011179461	n/a	n/a	n/a	n/a
183.349609375	0.2	375500	133	4	1	0	0	40	207	stimuli\Videos_short_600ms_horvertflip\34.repeated_punch_with_hand_short_horvertflip_short_600ms.mp4	34.repeated_punch_with_hand_short_horvertflip_short_600ms.mp4	362.0385443235823	362.6468678869933	0.6083235634109769	n/a	n/a	n/a	n/a
184.1494140625	0.2	377138	134	4	1	0	0	41	248	stimuli\Videos_short_600ms_horvertflip\71.single_stroke_with_finger_top_to_bottom_short_horvertflip_short_600ms.mp4	71.single_stroke_with_finger_top_to_bottom_short_horvertflip_short_600ms.mp4	362.83852414837474	363.4468160414017	0.6082918930269443	n/a	n/a	n/a	n/a
184.94970703125	0.2	378777	135	4	1	0	0	42	310	stimuli\Videos_short_600ms_vertflip\46.scratching_top_to_bottom_with_finger_nails_short_vertflip_short_600ms.mp4	46.scratching_top_to_bottom_with_finger_nails_short_vertflip_short_600ms.mp4	363.63848813797495	364.2468190324935	0.6083308945185308	n/a	n/a	n/a	n/a
185.74951171875	0.2	380415	136	4	1	0	0	43	150	stimuli\Videos_short_600ms_horflip\64.repeated_touch_with_screwdriver_short_horflip_short_600ms.mp4	64.repeated_touch_with_screwdriver_short_horflip_short_600ms.mp4	364.4384656168131	365.04680208297304	0.6083364661599262	n/a	n/a	n/a	n/a
186.54931640625	0.2	382053	137	4	1	0	0	44	41	stimuli\Videos_short_600ms\47.(long)scratching_with_finger_nails_short_short_600ms.mp4	47.(long)scratching_with_finger_nails_short_short_600ms.mp4	365.2384618632859	365.8468323457846	0.6083704824986853	n/a	n/a	n/a	n/a
187.349609375	0.2	383692	138	4	1	0	0	45	266	stimuli\Videos_short_600ms_horvertflip\88.repeated_stroke_with_plastic_brush_short_horvertflip_short_600ms.mp4	88.repeated_stroke_with_plastic_brush_short_horvertflip_short_600ms.mp4	366.0384633881563	366.6467857785902	0.6083223904338411	n/a	n/a	n/a	n/a
188.1494140625	0.2	385330	139	4	1	0	0	46	230	stimuli\Videos_short_600ms_horvertflip\55.touch_top_to_bottom_with_nail_file_short_horvertflip_short_600ms.mp4	55.touch_top_to_bottom_with_nail_file_short_horvertflip_short_600ms.mp4	366.83845289001056	367.4467664831154	0.6083135931048673	n/a	n/a	n/a	n/a
188.94970703125	0.2	386969	140	4	1	0	0	47	227	stimuli\Videos_short_600ms_horvertflip\52.touch_top_to_bottom_with_hammer_short_horvertflip_short_600ms.mp4	52.touch_top_to_bottom_with_hammer_short_horvertflip_short_600ms.mp4	367.638425970184	368.2467468943965	0.6083209242124212	n/a	n/a	n/a	n/a
189.74951171875	0.2	388607	141	4	1	0	0	48	243	stimuli\Videos_short_600ms_horvertflip\67.single_touch_with_sponge_short_horvertflip_short_600ms.mp4	67.single_touch_with_sponge_short_horvertflip_short_600ms.mp4	368.4384066747093	369.04672935838744	0.608322683678125	n/a	n/a	n/a	n/a
190.54931640625	0.2	390245	142	4	1	0	0	49	336	stimuli\Videos_short_600ms_vertflip\7.repeated_touch_with_hairbrush_short_vertflip_short_600ms.mp4	7.repeated_touch_with_hairbrush_short_vertflip_short_600ms.mp4	369.2383879657232	369.84670801020275	0.6083200444795693	n/a	n/a	n/a	n/a
191.349609375	0.2	391884	143	4	1	0	0	50	115	stimuli\Videos_short_600ms_horflip\32.single_(long)pinch_with_fingers_short_horflip_short_600ms.mp4	32.single_(long)pinch_with_fingers_short_horflip_short_600ms.mp4	370.03836749727134	370.6466893012166	0.6083218039452731	n/a	n/a	n/a	n/a
192.1494140625	0.2	393522	144	4	1	0	1	51	364	stimuli\Targets_short_600ms\hand-pinch_short_short_600ms.mp4	hand-pinch_short_short_600ms.mp4	370.83832914091727	371.4466702989862	0.6083411580689244	n/a	n/a	n/a	n/a
192.94921875	0.2	395160	145	4	1	0	0	52	108	stimuli\Videos_short_600ms_horflip\26.single_touch_with_a_blunt_syringe_short_horflip_short_600ms.mp4	26.single_touch_with_a_blunt_syringe_short_horflip_short_600ms.mp4	371.6382957697165	372.2466524697329	0.6083567000164294	n/a	n/a	n/a	n/a
193.74951171875	0.2	396799	146	4	1	0	0	53	170	stimuli\Videos_short_600ms_horflip\82.repeated_touch_with_cotton_bud_short_horflip_short_600ms.mp4	82.repeated_touch_with_cotton_bud_short_horflip_short_600ms.mp4	372.4382899634793	373.0466346404796	0.608344677000332	n/a	n/a	n/a	n/a
194.54931640625	0.2	398437	147	4	1	0	0	54	161	stimuli\Videos_short_600ms_horflip\74.fingers_walking_from_top_to_bottom_short_horflip_short_600ms.mp4	74.fingers_walking_from_top_to_bottom_short_horflip_short_600ms.mp4	373.2382460354838	373.84661329229493	0.6083672568111069	n/a	n/a	n/a	n/a
195.34912109375	0.2	400075	148	4	1	0	0	55	102	stimuli\Videos_short_600ms_horflip\20.single_touch_with_screwdriver_short_horflip_short_600ms.mp4	20.single_touch_with_screwdriver_short_horflip_short_600ms.mp4	374.03827864424966	374.64659370357595	0.6083150593262872	n/a	n/a	n/a	n/a
196.1494140625	0.2	401714	149	4	1	0	0	56	293	stimuli\Videos_short_600ms_vertflip\30.finger_pulling_back_another_finger_short_vertflip_short_600ms.mp4	30.finger_pulling_back_another_finger_short_vertflip_short_600ms.mp4	374.83823882167417	375.44657616756695	0.6083373458927781	n/a	n/a	n/a	n/a
196.94921875	0.2	403352	150	4	1	0	0	57	339	stimuli\Videos_short_600ms_vertflip\72.(short)stroke_with_finger_all_over_the_hand_short_vertflip_short_600ms.mp4	72.(short)stroke_with_finger_all_over_the_hand_short_vertflip_short_600ms.mp4	375.638220112688	376.2465554058708	0.6083352931827903	n/a	n/a	n/a	n/a
197.7490234375	0.2	404990	151	4	1	0	0	58	186	stimuli\Videos_short_600ms_horvertflip\15.single_stroke_top_to_bottom_with_a_plastic_whisk_short_horvertflip_short_600ms.mp4	15.single_stroke_top_to_bottom_with_a_plastic_whisk_short_horvertflip_short_600ms.mp4	376.4382219308027	377.0465038535235	0.6082819227208347	n/a	n/a	n/a	n/a
198.54931640625	0.2	406629	152	4	1	0	0	59	301	stimuli\Videos_short_600ms_vertflip\38.double_slap_with_pencil_short_vertflip_short_600ms.mp4	38.double_slap_with_pencil_short_vertflip_short_600ms.mp4	377.2381964771976	377.84649423511064	0.6082977579130784	n/a	n/a	n/a	n/a
199.34912109375	0.2	408267	153	4	1	0	0	60	275	stimuli\Videos_short_600ms_vertflip\14.repeated_touch_with_pencil_short_vertflip_short_600ms.mp4	14.repeated_touch_with_pencil_short_vertflip_short_600ms.mp4	378.0381765952343	378.64653652093784	0.608359925703553	n/a	n/a	n/a	n/a
200.14892578125	0.2	409905	154	4	1	0	0	61	140	stimuli\Videos_short_600ms_horflip\55.touch_top_to_bottom_with_nail_file_short_horflip_short_600ms.mp4	55.touch_top_to_bottom_with_nail_file_short_horflip_short_600ms.mp4	378.838158765981	379.4465222106164	0.6083634446354154	n/a	n/a	n/a	n/a
200.94921875	0.2	411544	155	4	1	0	0	62	247	stimuli\Videos_short_600ms_horvertflip\70.(long)stroke_with_finger_all_over_the_hand_short_horvertflip_short_600ms.mp4	70.(long)stroke_with_finger_all_over_the_hand_short_horvertflip_short_600ms.mp4	379.63811131905413	380.2464425068165	0.6083311877623601	n/a	n/a	n/a	n/a
201.7490234375	0.2	413182	156	4	1	0	0	63	337	stimuli\Videos_short_600ms_vertflip\70.(long)stroke_with_finger_all_over_the_hand_short_vertflip_short_600ms.mp4	70.(long)stroke_with_finger_all_over_the_hand_short_vertflip_short_600ms.mp4	380.4381228142306	381.0464205721432	0.6082977579126236	n/a	n/a	n/a	n/a
202.548828125	0.2	414820	157	4	1	0	0	64	208	stimuli\Videos_short_600ms_horvertflip\35.single_punch_with_hand_short_horvertflip_short_600ms.mp4	35.single_punch_with_hand_short_horvertflip_short_600ms.mp4	381.238079179479	381.846425615945	0.6083464364660358	n/a	n/a	n/a	n/a
203.34912109375	0.2	416459	158	4	1	0	0	65	324	stimuli\Videos_short_600ms_vertflip\59.single_push_with_long_side_pencil_short_vertflip_short_600ms.mp4	59.single_push_with_long_side_pencil_short_vertflip_short_600ms.mp4	382.03808686247976	382.6464025082946	0.6083156458148551	n/a	n/a	n/a	n/a
204.14892578125	0.2	418097	159	4	1	0	0	66	195	stimuli\Videos_short_600ms_horvertflip\23.single_push_with_a_spoon_short_horvertflip_short_600ms.mp4	23.single_push_with_a_spoon_short_horvertflip_short_600ms.mp4	382.8380663940279	383.4463832128199	0.608316818791991	n/a	n/a	n/a	n/a
204.94873046875	0.2	419735	160	4	1	0	0	67	4	stimuli\Videos_short_600ms\13.single_touch_with_pen_short_short_600ms.mp4	13.single_touch_with_pen_short_short_600ms.mp4	383.638043286377	384.2463152387918	0.6082719524147251	n/a	n/a	n/a	n/a
205.7490234375	0.2	421374	161	4	1	0	0	68	98	stimuli\Videos_short_600ms_horflip\17.repeated_touch_with_rolling_pin_short_horflip_short_600ms.mp4	17.repeated_touch_with_rolling_pin_short_horflip_short_600ms.mp4	384.4380339612085	385.04634726106906	0.6083132998605834	n/a	n/a	n/a	n/a
206.548828125	0.2	423012	162	4	1	0	0	69	318	stimuli\Videos_short_600ms_vertflip\53.touch_top_to_bottom_with_knife_short_vertflip_short_600ms.mp4	53.touch_top_to_bottom_with_knife_short_vertflip_short_600ms.mp4	385.2380067481377	385.8463303115486	0.6083235634109769	n/a	n/a	n/a	n/a
207.34912109375	0.2	424651	163	4	1	0	0	70	268	stimuli\Videos_short_600ms_horvertflip\9.single_touch_with_hammer_short_horvertflip_short_600ms.mp4	9.single_touch_with_hammer_short_horvertflip_short_600ms.mp4	386.0379859864415	386.6463080836311	0.6083220971895571	n/a	n/a	n/a	n/a
208.14892578125	0.2	426289	164	4	1	0	0	71	154	stimuli\Videos_short_600ms_horflip\68.stroke_top_to_bottom_with_shawl_short_horflip_short_600ms.mp4	68.stroke_top_to_bottom_with_shawl_short_horflip_short_600ms.mp4	386.8379265164981	387.4462870286907	0.6083605121925757	n/a	n/a	n/a	n/a
208.94873046875	0.2	427927	165	4	1	0	0	72	146	stimuli\Videos_short_600ms_horflip\60.single_push_with_tip_of_pencil_short_horflip_short_600ms.mp4	60.single_push_with_tip_of_pencil_short_horflip_short_600ms.mp4	387.638425970184	388.2462674399717	0.6078414697876724	n/a	n/a	n/a	n/a
209.7490234375	0.2	429566	166	4	1	0	0	73	114	stimuli\Videos_short_600ms_horflip\31.hand_grabbing_wrist_short_horflip_short_600ms.mp4	31.hand_grabbing_wrist_short_horflip_short_600ms.mp4	388.4378629997837	389.04625049045126	0.6083874906676101	n/a	n/a	n/a	n/a
210.548828125	0.2	431204	167	4	1	0	0	74	200	stimuli\Videos_short_600ms_horvertflip\28.single_injection_with_sharp_needle_short_horvertflip_short_600ms.mp4	28.single_injection_with_sharp_needle_short_horvertflip_short_600ms.mp4	389.237864524654	389.84623119497655	0.608366670322539	n/a	n/a	n/a	n/a
211.3486328125	0.2	432842	168	4	1	0	0	75	201	stimuli\Videos_short_600ms_horvertflip\29.single_pinch_with_tweezers_short_horvertflip_short_600ms.mp4	29.single_pinch_with_tweezers_short_horvertflip_short_600ms.mp4	390.0379179537649	390.6461893196911	0.6082713659261572	n/a	n/a	n/a	n/a
212.14892578125	0.2	434481	169	4	1	0	0	76	23	stimuli\Videos_short_600ms\30.finger_pulling_back_another_finger_short_short_600ms.mp4	30.finger_pulling_back_another_finger_short_short_600ms.mp4	390.83785555137865	391.4461527228027	0.6082971714240557	n/a	n/a	n/a	n/a
212.94873046875	0.2	436119	170	4	1	0	0	77	22	stimuli\Videos_short_600ms\3.single_push_with_finger_short_short_600ms.mp4	3.single_push_with_finger_short_short_600ms.mp4	391.63786352762327	392.2461252164876	0.6082616888643315	n/a	n/a	n/a	n/a
213.74853515625	0.2	437757	171	4	1	0	0	78	24	stimuli\Videos_short_600ms\31.hand_grabbing_wrist_short_short_600ms.mp4	31.hand_grabbing_wrist_short_short_600ms.mp4	392.43784716459186	393.04610650750146	0.608259342909605	n/a	n/a	n/a	n/a
214.548828125	0.2	439396	172	4	1	0	0	79	33	stimuli\Videos_short_600ms\4.repeated_tap_with_finger_slow_short_short_600ms.mp4	4.repeated_tap_with_finger_slow_short_short_600ms.mp4	393.2378176055667	393.8460872120267	0.6082696064599986	n/a	n/a	n/a	n/a
215.3486328125	0.2	441034	173	4	1	0	0	80	100	stimuli\Videos_short_600ms_horflip\19.single_touch_with_rolling_pin_short_horflip_short_600ms.mp4	19.single_touch_with_rolling_pin_short_horflip_short_600ms.mp4	394.0377959641374	394.6460987072032	0.6083027430659058	n/a	n/a	n/a	n/a
216.15673828125	0.2	442689	174	4	1	0	0	81	58	stimuli\Videos_short_600ms\62.touch_top_to_bottom_with_scissors_short_short_600ms.mp4	62.touch_top_to_bottom_with_scissors_short_short_600ms.mp4	394.8460907309586	395.4544277836071	0.6083370526484941	n/a	n/a	n/a	n/a
216.95703125	0.2	444328	175	4	1	0	0	82	52	stimuli\Videos_short_600ms\57.single_touch_with_nail_file_short_short_600ms.mp4	57.single_touch_with_nail_file_short_short_600ms.mp4	395.646049735406	396.2544081948882	0.6083584594821332	n/a	n/a	n/a	n/a
217.7568359375	0.2	445966	176	4	1	0	0	83	38	stimuli\Videos_short_600ms\44.pushing_top_to_bottom_with_finger_short_short_600ms.mp4	44.pushing_top_to_bottom_with_finger_short_short_600ms.mp4	396.4460797049728	397.0543930048334	0.6083132998605834	n/a	n/a	n/a	n/a
218.556640625	0.2	447604	177	4	1	0	0	84	267	stimuli\Videos_short_600ms_horvertflip\89.single_touch_with_plastic_brush_short_horvertflip_short_600ms.mp4	89.single_touch_with_plastic_brush_short_horvertflip_short_600ms.mp4	397.2460636351853	397.8543446781732	0.6082810429879828	n/a	n/a	n/a	n/a
219.35693359375	0.2	449243	178	4	1	0	0	85	323	stimuli\Videos_short_600ms_vertflip\58.single_slap_with_pencil_short_vertflip_short_600ms.mp4	58.single_slap_with_pencil_short_vertflip_short_600ms.mp4	398.0460393545577	398.6543309543404	0.6082915997826603	n/a	n/a	n/a	n/a
220.15673828125	0.2	450881	179	4	1	0	0	86	14	stimuli\Videos_short_600ms\22.single_touch_with_metal_chopstick_short_short_600ms.mp4	22.single_touch_with_metal_chopstick_short_short_600ms.mp4	398.84601917935015	399.4542952371849	0.6082760578347006	n/a	n/a	n/a	n/a
220.95654296875	0.2	452519	180	4	1	0	0	87	62	stimuli\Videos_short_600ms\66.stroke_top_to_bottom_with_sponge_short_short_600ms.mp4	66.stroke_top_to_bottom_with_sponge_short_short_600ms.mp4	399.645998417654	400.2542917769024	0.6082933592483641	n/a	n/a	n/a	n/a
221.7568359375	0.2	454158	181	4	1	0	0	88	27	stimuli\Videos_short_600ms\34.repeated_punch_with_hand_short_short_600ms.mp4	34.repeated_punch_with_hand_short_short_600ms.mp4	400.44597882893504	401.0542739476491	0.6082951187140679	n/a	n/a	n/a	n/a
222.556640625	0.2	455796	182	4	1	0	0	89	113	stimuli\Videos_short_600ms_horflip\30.finger_pulling_back_another_finger_short_horflip_short_600ms.mp4	30.finger_pulling_back_another_finger_short_horflip_short_600ms.mp4	401.2459583604832	401.85422708721035	0.6082687267271467	n/a	n/a	n/a	n/a
223.35693359375	0.2	457435	183	4	1	0	0	90	196	stimuli\Videos_short_600ms_horvertflip\24.single_stroke_top_to_bottom_with_a_spoon_short_horvertflip_short_600ms.mp4	24.single_stroke_top_to_bottom_with_a_spoon_short_horvertflip_short_600ms.mp4	402.04593877176376	402.6542552973119	0.6083165255481617	n/a	n/a	n/a	n/a
224.15673828125	0.2	459073	184	4	1	0	0	91	256	stimuli\Videos_short_600ms_horvertflip\79.long_with_soft_brush_all_over_the_hand_short_horvertflip_short_600ms.mp4	79.long_with_soft_brush_all_over_the_hand_short_horvertflip_short_600ms.mp4	402.84590217487585	403.4542401072572	0.608337932381346	n/a	n/a	n/a	n/a
224.95654296875	0.2	460711	185	4	1	0	0	92	1	stimuli\Videos_short_600ms\10.single_touch_with_knife_short_short_600ms.mp4	10.single_touch_with_knife_short_short_600ms.mp4	403.6459031132577	404.25421817258393	0.6083150593262872	3.0	3.0	1.9226837952614917	1.0
257.72216796875	0.2	527815	186	4	2	0	0	0	239	stimuli\Videos_short_600ms_horvertflip\63.stroke_top_to_bottom_with_screwdriver_short_horvertflip_short_600ms.mp4	63.stroke_top_to_bottom_with_screwdriver_short_horvertflip_short_600ms.mp4	436.4118375684652	437.0200977911081	0.6082602226429117	n/a	n/a	n/a	n/a
258.5224609375	0.2	529454	187	4	2	0	0	1	42	stimuli\Videos_short_600ms\48.single_slap_with_hand_short_short_600ms.mp4	48.single_slap_with_hand_short_short_600ms.mp4	437.21176343630714	437.82008172132055	0.6083182850134108	n/a	n/a	n/a	n/a
259.322265625	0.2	531092	188	4	2	0	0	2	236	stimuli\Videos_short_600ms_horvertflip\60.single_push_with_tip_of_pencil_short_horvertflip_short_600ms.mp4	60.single_push_with_tip_of_pencil_short_horvertflip_short_600ms.mp4	438.0117280123959	438.6200377933251	0.6083097809291758	n/a	n/a	n/a	n/a
260.1220703125	0.2	532730	189	4	2	0	0	3	321	stimuli\Videos_short_600ms_vertflip\56.repeated_touch_with_nail_file_short_vertflip_short_600ms.mp4	56.repeated_touch_with_nail_file_short_vertflip_short_600ms.mp4	438.81172073993775	439.4200164451404	0.6082957052026359	n/a	n/a	n/a	n/a
260.92236328125	0.2	534369	190	4	2	0	0	4	153	stimuli\Videos_short_600ms_horflip\67.single_touch_with_sponge_short_horflip_short_600ms.mp4	67.single_touch_with_sponge_short_horflip_short_600ms.mp4	439.61170027148546	440.2199965631771	0.6082962916916586	n/a	n/a	n/a	n/a
261.72216796875	0.2	536007	191	4	2	0	0	5	221	stimuli\Videos_short_600ms_horvertflip\47.(long)scratching_with_finger_nails_short_horvertflip_short_600ms.mp4	47.(long)scratching_with_finger_nails_short_horvertflip_short_600ms.mp4	440.41168214898835	441.0199831325881	0.6083009835997473	n/a	n/a	n/a	n/a
262.52197265625	0.2	537645	192	4	2	0	1	6	375	stimuli\Targets_short_600ms_horvertflip\finger-tap_short_vertflip_short_600ms.mp4	finger-tap_short_vertflip_short_600ms.mp4	441.21167810221687	441.8199632506248	0.6082851484079583	n/a	n/a	n/a	n/a
263.322265625	0.2	539284	193	4	2	0	0	7	222	stimuli\Videos_short_600ms_horvertflip\48.single_slap_with_hand_short_horvertflip_short_600ms.mp4	48.single_slap_with_hand_short_horvertflip_short_600ms.mp4	442.0116444377718	442.6199712268699	0.6083267890981006	n/a	n/a	n/a	n/a
264.1220703125	0.2	540922	194	4	2	0	0	8	78	stimuli\Videos_short_600ms\80.stroke_with_sharp_stick_all_over_the_hand_short_short_600ms.mp4	80.stroke_with_sharp_stick_all_over_the_hand_short_short_600ms.mp4	442.8116251422971	443.4199419610891	0.608316818791991	n/a	n/a	n/a	n/a
264.921875	0.2	542560	195	4	2	0	0	9	350	stimuli\Videos_short_600ms_vertflip\82.repeated_touch_with_cotton_bud_short_vertflip_short_600ms.mp4	82.repeated_touch_with_cotton_bud_short_vertflip_short_600ms.mp4	443.6116046738448	444.21992647779007	0.6083218039452731	n/a	n/a	n/a	n/a
265.72216796875	0.2	544199	196	4	2	0	0	10	68	stimuli\Videos_short_600ms\71.single_stroke_with_finger_top_to_bottom_short_short_600ms.mp4	71.single_stroke_with_finger_top_to_bottom_short_short_600ms.mp4	444.4115847918815	445.0199051296054	0.6083203377238533	n/a	n/a	n/a	n/a
266.52197265625	0.2	545837	197	4	2	0	0	11	307	stimuli\Videos_short_600ms_vertflip\43.touch_top_to_bottom_with_sharp_wooden_stick_short_vertflip_short_600ms.mp4	43.touch_top_to_bottom_with_sharp_wooden_stick_short_vertflip_short_600ms.mp4	445.211567255873	445.8198870071078	0.6083197512348306	n/a	n/a	n/a	n/a
267.32177734375	0.2	547475	198	4	2	0	0	12	97	stimuli\Videos_short_600ms_horflip\16.repeated_touch_with_plastic_brush_short_horflip_short_600ms.mp4	16.repeated_touch_with_plastic_brush_short_horflip_short_600ms.mp4	446.01154766715354	446.6198653656788	0.6083176985252976	n/a	n/a	n/a	n/a
268.1220703125	0.2	549114	199	4	2	0	0	13	209	stimuli\Videos_short_600ms_horvertflip\36.single_slap_with_full_hand_short_horvertflip_short_600ms.mp4	36.single_slap_with_full_hand_short_horvertflip_short_600ms.mp4	446.81153804874066	447.4198446039827	0.6083065552420521	n/a	n/a	n/a	n/a
268.921875	0.2	550752	200	4	2	0	0	14	189	stimuli\Videos_short_600ms_horvertflip\18.single_stroke_from_top_to_bottom_with_rolling_pin_short_horvertflip_short_600ms.mp4	18.single_stroke_from_top_to_bottom_with_rolling_pin_short_horvertflip_short_600ms.mp4	447.6115123018917	448.21982794770656	0.6083156458148551	n/a	n/a	n/a	n/a
269.7216796875	0.2	552390	201	4	2	0	0	15	29	stimuli\Videos_short_600ms\36.single_slap_with_full_hand_short_short_600ms.mp4	36.single_slap_with_full_hand_short_short_600ms.mp4	448.4122181995622	449.0198101184533	0.607591918891103	n/a	n/a	n/a	n/a
270.52197265625	0.2	554029	202	4	2	0	0	16	149	stimuli\Videos_short_600ms_horflip\63.stroke_top_to_bottom_with_screwdriver_short_horflip_short_600ms.mp4	63.stroke_top_to_bottom_with_screwdriver_short_horflip_short_600ms.mp4	449.21152092327384	449.81979023649	0.6082693132161694	n/a	n/a	n/a	n/a
271.32177734375	0.2	555667	203	4	2	0	0	17	132	stimuli\Videos_short_600ms_horflip\48.single_slap_with_hand_short_horflip_short_600ms.mp4	48.single_slap_with_hand_short_horflip_short_600ms.mp4	450.0114289032135	450.6197691815496	0.6083402783360725	n/a	n/a	n/a	n/a
272.12158203125	0.2	557305	204	4	2	0	0	18	104	stimuli\Videos_short_600ms_horflip\22.single_touch_with_metal_chopstick_short_horflip_short_600ms.mp4	22.single_touch_with_metal_chopstick_short_horflip_short_600ms.mp4	450.81140344960886	451.4197589766477	0.6083555270388388	n/a	n/a	n/a	n/a
272.921875	0.2	558944	205	4	2	0	0	19	188	stimuli\Videos_short_600ms_horvertflip\17.repeated_touch_with_rolling_pin_short_horvertflip_short_600ms.mp4	17.repeated_touch_with_rolling_pin_short_horvertflip_short_600ms.mp4	451.6113976433717	452.2197308838445	0.6083332404728026	n/a	n/a	n/a	n/a
273.7216796875	0.2	560582	206	4	2	0	1	20	363	stimuli\Targets_short_600ms\finger-tap_short_short_600ms.mp4	finger-tap_short_short_600ms.mp4	452.41139740877634	453.0197133478355	0.608315939059139	n/a	n/a	n/a	n/a
274.521484375	0.2	562220	207	4	2	0	0	21	213	stimuli\Videos_short_600ms_horvertflip\4.repeated_tap_with_finger_slow_short_horvertflip_short_600ms.mp4	4.repeated_tap_with_finger_slow_short_horvertflip_short_600ms.mp4	453.2115326530457	453.81967147255	0.6081388195043473	n/a	n/a	n/a	n/a
275.32177734375	0.2	563859	208	4	2	0	0	22	244	stimuli\Videos_short_600ms_horvertflip\68.stroke_top_to_bottom_with_shawl_short_horvertflip_short_600ms.mp4	68.stroke_top_to_bottom_with_shawl_short_horvertflip_short_600ms.mp4	454.0113558853837	454.6196278377984	0.6082719524147251	n/a	n/a	n/a	n/a
276.12158203125	0.2	565497	209	4	2	0	0	23	116	stimuli\Videos_short_600ms_horflip\33.scratch_top_to_bottom_with_scissors_short_horflip_short_600ms.mp4	33.scratch_top_to_bottom_with_scissors_short_horflip_short_600ms.mp4	454.8113386426194	455.419631708623	0.6082930660036254	n/a	n/a	n/a	n/a
276.921875	0.2	567136	210	4	2	0	0	24	305	stimuli\Videos_short_600ms_vertflip\41.injection_with_blunt_syringe_short_vertflip_short_600ms.mp4	41.injection_with_blunt_syringe_short_vertflip_short_600ms.mp4	455.6113243322975	456.21961769154586	0.6082933592483641	n/a	n/a	n/a	n/a
277.7216796875	0.2	568774	211	4	2	0	0	25	345	stimuli\Videos_short_600ms_vertflip\78.single_stroke_top_to_bottom_with_soft_brush_short_vertflip_short_600ms.mp4	78.single_stroke_top_to_bottom_with_soft_brush_short_vertflip_short_600ms.mp4	456.4112988786924	457.0195975163383	0.6082986376459303	n/a	n/a	n/a	n/a
278.521484375	0.2	570412	212	4	2	0	0	26	160	stimuli\Videos_short_600ms_horflip\73.single_stroke_with_flat_hand_short_horflip_short_600ms.mp4	73.single_stroke_with_flat_hand_short_horflip_short_600ms.mp4	457.21127811699625	457.81960695880434	0.6083288418080883	n/a	n/a	n/a	n/a
279.32177734375	0.2	572051	213	4	2	0	0	27	273	stimuli\Videos_short_600ms_vertflip\12.repeated_touch_with_nail_file_short_vertflip_short_600ms.mp4	12.repeated_touch_with_nail_file_short_vertflip_short_600ms.mp4	458.0112594080101	458.6195812119554	0.6083218039452731	n/a	n/a	n/a	n/a
280.12158203125	0.2	573689	214	4	2	0	0	28	250	stimuli\Videos_short_600ms_horvertflip\73.single_stroke_with_flat_hand_short_horvertflip_short_600ms.mp4	73.single_stroke_with_flat_hand_short_horvertflip_short_600ms.mp4	458.811238646314	459.4195595705264	0.6083209242124212	n/a	n/a	n/a	n/a
280.92138671875	0.2	575327	215	4	2	0	0	29	139	stimuli\Videos_short_600ms_horflip\54.repeated_touch_with_knife_short_horflip_short_600ms.mp4	54.repeated_touch_with_knife_short_horflip_short_600ms.mp4	459.6112225765264	460.219537929097	0.6083153525705711	n/a	n/a	n/a	n/a
281.7216796875	0.2	576966	216	4	2	0	0	30	231	stimuli\Videos_short_600ms_horvertflip\56.repeated_touch_with_nail_file_short_horvertflip_short_600ms.mp4	56.repeated_touch_with_nail_file_short_horvertflip_short_600ms.mp4	460.4112029878074	461.0195206863327	0.6083176985252976	n/a	n/a	n/a	n/a
282.521484375	0.2	578604	217	4	2	0	0	31	180	stimuli\Videos_short_600ms_horvertflip\1.repeated_touch_with_finger_fast_short_horvertflip_short_600ms.mp4	1.repeated_touch_with_finger_fast_short_horvertflip_short_600ms.mp4	461.2111804666456	461.8195016841023	0.6083212174567052	n/a	n/a	n/a	n/a
283.3212890625	0.2	580242	218	4	2	0	0	32	151	stimuli\Videos_short_600ms_horflip\65.stroke_top_to_bottom_with_stanley_knife_short_horflip_short_600ms.mp4	65.stroke_top_to_bottom_with_stanley_knife_short_horflip_short_600ms.mp4	462.0111629306366	462.6194797494286	0.608316818791991	n/a	n/a	n/a	n/a
284.12158203125	0.2	581881	219	4	2	0	0	33	353	stimuli\Videos_short_600ms_vertflip\85.touch_top_to_bottom_with_fabric_short_vertflip_short_600ms.mp4	85.touch_top_to_bottom_with_fabric_short_vertflip_short_600ms.mp4	462.8111046336703	463.419461626931	0.6083569932607134	n/a	n/a	n/a	n/a
284.92138671875	0.2	583519	220	4	2	0	0	34	164	stimuli\Videos_short_600ms_horflip\77.tapping_with_all_fingers_short_horflip_short_600ms.mp4	77.tapping_with_all_fingers_short_horflip_short_600ms.mp4	463.6111085044954	464.2194414517234	0.6083329472280639	n/a	n/a	n/a	n/a
285.72119140625	0.2	585157	221	4	2	0	0	35	205	stimuli\Videos_short_600ms_horvertflip\32.single_(long)pinch_with_fingers_short_horvertflip_short_600ms.mp4	32.single_(long)pinch_with_fingers_short_horvertflip_short_600ms.mp4	464.4111073901667	465.01942244949305	0.6083150593262872	n/a	n/a	n/a	n/a
286.521484375	0.2	586796	222	4	2	0	0	36	71	stimuli\Videos_short_600ms\74.fingers_walking_from_top_to_bottom_short_short_600ms.mp4	74.fingers_walking_from_top_to_bottom_short_short_600ms.mp4	465.2110417620934	465.81940286077406	0.6083610986806889	n/a	n/a	n/a	n/a
287.3212890625	0.2	588434	223	4	2	0	0	37	316	stimuli\Videos_short_600ms_vertflip\51.repeated_touch_with_hammer_short_vertflip_short_600ms.mp4	51.repeated_touch_with_hammer_short_vertflip_short_600ms.mp4	466.0115893078437	466.61938679098694	0.6077974831432584	n/a	n/a	n/a	n/a
288.12109375	0.2	590072	224	4	2	0	0	38	137	stimuli\Videos_short_600ms_horflip\52.touch_top_to_bottom_with_hammer_short_horflip_short_600ms.mp4	52.touch_top_to_bottom_with_hammer_short_horflip_short_600ms.mp4	466.811041586147	467.41934902112143	0.6083074349744493	n/a	n/a	n/a	n/a
288.92138671875	0.2	591711	225	4	2	0	0	39	183	stimuli\Videos_short_600ms_horvertflip\12.repeated_touch_with_nail_file_short_horvertflip_short_600ms.mp4	12.repeated_touch_with_nail_file_short_horvertflip_short_600ms.mp4	467.61104516372734	468.21930040121697	0.6082552374896295	n/a	n/a	n/a	n/a
289.72119140625	0.2	593349	226	4	2	0	0	40	5	stimuli\Videos_short_600ms\14.repeated_touch_with_pencil_short_short_600ms.mp4	14.repeated_touch_with_pencil_short_short_600ms.mp4	468.4110144317251	469.0192819854751	0.6082675537500108	n/a	n/a	n/a	n/a
290.52099609375	0.2	594987	227	4	2	0	0	41	152	stimuli\Videos_short_600ms_horflip\66.stroke_top_to_bottom_with_sponge_short_horflip_short_600ms.mp4	66.stroke_top_to_bottom_with_sponge_short_horflip_short_600ms.mp4	469.21111653938897	469.8192629832447	0.6081464438557305	n/a	n/a	n/a	n/a
291.3212890625	0.2	596626	228	4	2	0	0	42	0	stimuli\Videos_short_600ms\1.repeated_touch_with_finger_fast_short_short_600ms.mp4	1.repeated_touch_with_finger_fast_short_short_600ms.mp4	470.0109503285216	470.6192299052882	0.608279576766563	n/a	n/a	n/a	n/a
292.12109375	0.2	598264	229	4	2	0	0	43	296	stimuli\Videos_short_600ms_vertflip\33.scratch_top_to_bottom_with_scissors_short_vertflip_short_600ms.mp4	33.scratch_top_to_bottom_with_scissors_short_vertflip_short_600ms.mp4	470.8109503871706	471.4192510775265	0.608300690355918	n/a	n/a	n/a	n/a
292.9208984375	0.2	599902	230	4	2	0	0	44	56	stimuli\Videos_short_600ms\60.single_push_with_tip_of_pencil_short_short_600ms.mp4	60.single_push_with_tip_of_pencil_short_short_600ms.mp4	471.61093138494016	472.219232955029	0.60830157008877	n/a	n/a	n/a	n/a
293.72119140625	0.2	601541	231	4	2	0	0	45	246	stimuli\Videos_short_600ms_horvertflip\7.repeated_touch_with_hairbrush_short_horvertflip_short_600ms.mp4	7.repeated_touch_with_hairbrush_short_horvertflip_short_600ms.mp4	472.4109132624426	473.0192412245178	0.6083279620752364	n/a	n/a	n/a	n/a
294.52099609375	0.2	603179	232	4	2	0	0	46	59	stimuli\Videos_short_600ms\63.stroke_top_to_bottom_with_screwdriver_short_short_600ms.mp4	63.stroke_top_to_bottom_with_screwdriver_short_short_600ms.mp4	473.2108974858993	473.819209906027	0.6083124201277315	n/a	n/a	n/a	n/a
295.3212890625	0.2	604818	233	4	2	0	0	47	30	stimuli\Videos_short_600ms\37.single_stab_with_nail_file_short_short_600ms.mp4	37.single_stab_with_nail_file_short_short_600ms.mp4	474.0108740850046	474.6191909037966	0.608316818791991	n/a	n/a	n/a	n/a
296.12109375	0.2	606456	234	4	2	0	0	48	233	stimuli\Videos_short_600ms_horvertflip\58.single_slap_with_pencil_short_horvertflip_short_600ms.mp4	58.single_slap_with_pencil_short_horvertflip_short_600ms.mp4	474.8108527368199	475.4191716083219	0.6083188715019787	n/a	n/a	n/a	n/a
296.9208984375	0.2	608094	235	4	2	0	0	49	338	stimuli\Videos_short_600ms_vertflip\71.single_stroke_with_finger_top_to_bottom_short_vertflip_short_600ms.mp4	71.single_stroke_with_finger_top_to_bottom_short_vertflip_short_600ms.mp4	475.61083637378806	476.2191546588015	0.6083182850134108	n/a	n/a	n/a	n/a
297.72119140625	0.2	609733	236	4	2	0	0	50	138	stimuli\Videos_short_600ms_horflip\53.touch_top_to_bottom_with_knife_short_horflip_short_600ms.mp4	53.touch_top_to_bottom_with_knife_short_horflip_short_600ms.mp4	476.4108182512905	477.0191353633268	0.6083171120362749	n/a	n/a	n/a	n/a
298.52099609375	0.2	611371	237	4	2	0	0	51	112	stimuli\Videos_short_600ms_horflip\3.single_push_with_finger_short_horflip_short_600ms.mp4	3.single_push_with_finger_short_horflip_short_600ms.mp4	477.21075702188136	477.8191154813635	0.6083584594821332	n/a	n/a	n/a	n/a
299.32080078125	0.2	613009	238	4	2	0	0	52	255	stimuli\Videos_short_600ms_horvertflip\78.single_stroke_top_to_bottom_with_soft_brush_short_horvertflip_short_600ms.mp4	78.single_stroke_top_to_bottom_with_soft_brush_short_horvertflip_short_600ms.mp4	478.0107755549211	478.6190955994002	0.6083200444791146	n/a	n/a	n/a	n/a
300.12109375	0.2	614648	239	4	2	0	0	53	13	stimuli\Videos_short_600ms\21.repeated_touch_with_metal_chopstick_short_short_600ms.mp4	21.repeated_touch_with_metal_chopstick_short_short_600ms.mp4	478.8107536202474	479.4190745444598	0.6083209242124212	n/a	n/a	n/a	n/a
300.9208984375	0.2	616286	240	4	2	0	0	54	184	stimuli\Videos_short_600ms_horvertflip\13.single_touch_with_pen_short_horvertflip_short_600ms.mp4	13.single_touch_with_pen_short_horvertflip_short_600ms.mp4	479.61071731660377	480.2190555422294	0.60833822562563	n/a	n/a	n/a	n/a
301.720703125	0.2	617924	241	4	2	0	0	55	44	stimuli\Videos_short_600ms\5.repeated_tap_with_finger_moving_from_top_to_bottom_short_short_600ms.mp4	5.repeated_tap_with_finger_moving_from_top_to_bottom_short_short_600ms.mp4	480.4106754413183	481.0190339008004	0.6083584594821332	n/a	n/a	n/a	n/a
302.52099609375	0.2	619563	242	4	2	0	0	56	348	stimuli\Videos_short_600ms_vertflip\80.stroke_with_sharp_stick_all_over_the_hand_short_vertflip_short_600ms.mp4	80.stroke_with_sharp_stick_all_over_the_hand_short_vertflip_short_600ms.mp4	481.210679312143	481.8190172445243	0.608337932381346	n/a	n/a	n/a	n/a
303.32080078125	0.2	621201	243	4	2	0	0	57	46	stimuli\Videos_short_600ms\51.repeated_touch_with_hammer_short_short_600ms.mp4	51.repeated_touch_with_hammer_short_short_600ms.mp4	482.01066177613393	482.6190052801571	0.6083435040231961	n/a	n/a	n/a	n/a
304.12060546875	0.2	622839	244	4	2	0	0	58	118	stimuli\Videos_short_600ms_horflip\35.single_punch_with_hand_short_horflip_short_600ms.mp4	35.single_punch_with_hand_short_horflip_short_600ms.mp4	482.8106729780661	483.4189815860177	0.6083086079515851	n/a	n/a	n/a	n/a
304.9208984375	0.2	624478	245	4	2	0	0	59	74	stimuli\Videos_short_600ms\77.tapping_with_all_fingers_short_short_600ms.mp4	77.tapping_with_all_fingers_short_short_600ms.mp4	483.61065338934714	484.21891390523433	0.6082605158871957	n/a	n/a	n/a	n/a
305.720703125	0.2	626116	246	4	2	0	0	60	72	stimuli\Videos_short_600ms\75.(long)stroke_with_fingers_all_over_the_hand_short_short_600ms.mp4	75.(long)stroke_with_fingers_all_over_the_hand_short_short_600ms.mp4	484.4106223641006	485.0189432883126	0.6083209242119665	n/a	n/a	n/a	n/a
306.5205078125	0.2	627754	247	4	2	0	0	61	6	stimuli\Videos_short_600ms\15.single_stroke_top_to_bottom_with_a_plastic_whisk_short_short_600ms.mp4	15.single_stroke_top_to_bottom_with_a_plastic_whisk_short_short_600ms.mp4	485.210601602404	485.8189037589814	0.6083021565773379	n/a	n/a	n/a	n/a
307.32080078125	0.2	629393	248	4	2	0	0	62	308	stimuli\Videos_short_600ms_vertflip\44.pushing_top_to_bottom_with_finger_short_vertflip_short_600ms.mp4	44.pushing_top_to_bottom_with_finger_short_vertflip_short_600ms.mp4	486.01058318666264	486.6188888621714	0.6083056755087455	n/a	n/a	n/a	n/a
308.12060546875	0.2	631031	249	4	2	0	0	63	276	stimuli\Videos_short_600ms_vertflip\15.single_stroke_top_to_bottom_with_a_plastic_whisk_short_vertflip_short_600ms.mp4	15.single_stroke_top_to_bottom_with_a_plastic_whisk_short_vertflip_short_600ms.mp4	486.81057298176074	487.4188642882991	0.6082913065383764	n/a	n/a	n/a	n/a
308.92041015625	0.2	632669	250	4	2	0	0	64	341	stimuli\Videos_short_600ms_vertflip\74.fingers_walking_from_top_to_bottom_short_vertflip_short_600ms.mp4	74.fingers_walking_from_top_to_bottom_short_vertflip_short_600ms.mp4	487.61055134033177	488.2188675726352	0.608316232303423	n/a	n/a	n/a	n/a
309.720703125	0.2	634308	251	4	2	0	0	65	278	stimuli\Videos_short_600ms_vertflip\17.repeated_touch_with_rolling_pin_short_vertflip_short_600ms.mp4	17.repeated_touch_with_rolling_pin_short_vertflip_short_600ms.mp4	488.41053028539136	489.0188494501376	0.6083191647462627	n/a	n/a	n/a	n/a
310.5205078125	0.2	635946	252	4	2	0	0	66	178	stimuli\Videos_short_600ms_horflip\9.single_touch_with_hammer_short_horflip_short_600ms.mp4	9.single_touch_with_hammer_short_horflip_short_600ms.mp4	489.2105054182748	489.81882575599866	0.6083203377238533	n/a	n/a	n/a	n/a
311.3203125	0.2	637584	253	4	2	0	0	67	245	stimuli\Videos_short_600ms_horvertflip\69.stroke_with_soft_sock_short_horvertflip_short_600ms.mp4	69.stroke_with_soft_sock_short_horvertflip_short_600ms.mp4	490.01048700253295	490.61878182800274	0.608294825469784	n/a	n/a	n/a	n/a
312.12060546875	0.2	639223	254	4	2	0	0	68	79	stimuli\Videos_short_600ms\81.single_stroke_top_to_bottom_with_cotton_pad_short_short_600ms.mp4	81.single_stroke_top_to_bottom_with_cotton_pad_short_short_600ms.mp4	490.8104682935468	491.41878716504925	0.6083188715024335	n/a	n/a	n/a	n/a
312.92041015625	0.2	640861	255	4	2	0	0	69	216	stimuli\Videos_short_600ms_horvertflip\42.single_slap_with_plastic_whisk_short_horvertflip_short_600ms.mp4	42.single_slap_with_plastic_whisk_short_horvertflip_short_600ms.mp4	491.61044841158355	492.2187669898417	0.6083185782581495	n/a	n/a	n/a	n/a
313.720703125	0.2	642500	256	4	2	0	0	70	37	stimuli\Videos_short_600ms\43.touch_top_to_bottom_with_sharp_wooden_stick_short_short_600ms.mp4	43.touch_top_to_bottom_with_sharp_wooden_stick_short_short_600ms.mp4	492.4104379134378	493.0187474011227	0.6083094876848918	n/a	n/a	n/a	n/a
314.5205078125	0.2	644138	257	4	2	0	0	71	235	stimuli\Videos_short_600ms_horvertflip\6.single_touch_with_flat_hand_short_horvertflip_short_600ms.mp4	6.single_touch_with_flat_hand_short_horvertflip_short_600ms.mp4	493.2103746313187	493.8187269326704	0.6083523013517151	n/a	n/a	n/a	n/a
315.3203125	0.2	645776	258	4	2	0	0	72	77	stimuli\Videos_short_600ms\8.single_touch_with_hairbrush_short_short_600ms.mp4	8.single_touch_with_hairbrush_short_short_600ms.mp4	494.0113294933972	494.6187073439514	0.6073778505542577	n/a	n/a	n/a	n/a
316.12060546875	0.2	647415	259	4	2	0	0	73	10	stimuli\Videos_short_600ms\19.single_touch_with_rolling_pin_short_short_600ms.mp4	19.single_touch_with_rolling_pin_short_short_600ms.mp4	494.8106498117668	495.4186912741643	0.608041462397523	n/a	n/a	n/a	n/a
316.9287109375	0.2	649070	260	4	2	0	0	74	121	stimuli\Videos_short_600ms_horflip\38.double_slap_with_pencil_short_horflip_short_600ms.mp4	38.double_slap_with_pencil_short_horflip_short_600ms.mp4	495.6186882830725	496.2270007031998	0.6083124201272767	n/a	n/a	n/a	n/a
317.728515625	0.2	650708	261	4	2	0	0	75	93	stimuli\Videos_short_600ms_horflip\12.repeated_touch_with_nail_file_short_horflip_short_600ms.mp4	12.repeated_touch_with_nail_file_short_horflip_short_600ms.mp4	496.41866517542167	497.0269828739465	0.6083176985248429	n/a	n/a	n/a	n/a
318.52880859375	0.2	652347	262	4	2	0	0	76	313	stimuli\Videos_short_600ms_vertflip\49.repeated_slap_with_hand_short_vertflip_short_600ms.mp4	49.repeated_slap_with_hand_short_vertflip_short_600ms.mp4	497.218626232579	497.8269618190061	0.6083355864270743	n/a	n/a	n/a	n/a
319.32861328125	0.2	653985	263	4	2	0	0	77	63	stimuli\Videos_short_600ms\67.single_touch_with_sponge_short_short_600ms.mp4	67.single_touch_with_sponge_short_short_600ms.mp4	498.01864124668737	498.62694340326425	0.6083021565768831	n/a	n/a	n/a	n/a
320.12841796875	0.2	655623	264	4	2	0	0	78	20	stimuli\Videos_short_600ms\28.single_injection_with_sharp_needle_short_short_600ms.mp4	28.single_injection_with_sharp_needle_short_short_600ms.mp4	498.81859145380577	499.42692821321	0.6083367594042102	n/a	n/a	n/a	n/a
320.9287109375	0.2	657262	265	4	2	0	0	79	174	stimuli\Videos_short_600ms_horflip\86.touch_top_to_bottom_with_hair_brush_short_horflip_short_600ms.mp4	86.touch_top_to_bottom_with_hair_brush_short_horflip_short_600ms.mp4	499.61922638635633	500.22690657178055	0.6076801854242149	n/a	n/a	n/a	n/a
321.73681640625	0.2	658917	266	4	2	0	0	80	280	stimuli\Videos_short_600ms_vertflip\19.single_touch_with_rolling_pin_short_vertflip_short_600ms.mp4	19.single_touch_with_rolling_pin_short_vertflip_short_600ms.mp4	500.4269012347345	501.03522127921406	0.6083200444795693	n/a	n/a	n/a	n/a
322.53662109375	0.2	660555	267	4	2	0	0	81	36	stimuli\Videos_short_600ms\42.single_slap_with_plastic_whisk_short_short_600ms.mp4	42.single_slap_with_plastic_whisk_short_short_600ms.mp4	501.22688399196977	501.83520139725033	0.6083174052805589	n/a	n/a	n/a	n/a
323.3369140625	0.2	662194	268	4	2	0	0	82	31	stimuli\Videos_short_600ms\38.double_slap_with_pencil_short_short_600ms.mp4	38.double_slap_with_pencil_short_short_600ms.mp4	502.0268702681369	502.6351806355542	0.6083103674172889	n/a	n/a	n/a	n/a
324.13671875	0.2	663832	269	4	2	0	0	83	202	stimuli\Videos_short_600ms_horvertflip\3.single_push_with_finger_short_horvertflip_short_600ms.mp4	3.single_push_with_finger_short_horvertflip_short_600ms.mp4	502.82684598750893	503.4351416927116	0.6082957052026359	n/a	n/a	n/a	n/a
324.9365234375	0.2	665470	270	4	2	0	0	84	349	stimuli\Videos_short_600ms_vertflip\81.single_stroke_top_to_bottom_with_cotton_pad_short_vertflip_short_600ms.mp4	81.single_stroke_top_to_bottom_with_cotton_pad_short_vertflip_short_600ms.mp4	503.6268434069593	504.23514263109337	0.6082992241340435	n/a	n/a	n/a	n/a
325.73681640625	0.2	667109	271	4	2	0	0	85	163	stimuli\Videos_short_600ms_horflip\76.tickle_with_fingers_from_top_to_bottom_short_horflip_short_600ms.mp4	76.tickle_with_fingers_from_top_to_bottom_short_horflip_short_600ms.mp4	504.4267874559473	505.0351042747393	0.608316818791991	n/a	n/a	n/a	n/a
326.53662109375	0.2	668747	272	4	2	0	0	86	357	stimuli\Videos_short_600ms_vertflip\89.single_touch_with_plastic_brush_short_vertflip_short_600ms.mp4	89.single_touch_with_plastic_brush_short_vertflip_short_600ms.mp4	505.22674352795184	505.8350926036164	0.6083490756645915	n/a	n/a	n/a	n/a
327.3369140625	0.2	670386	273	4	2	0	0	87	123	stimuli\Videos_short_600ms_horflip\4.repeated_tap_with_finger_slow_short_horflip_short_600ms.mp4	4.repeated_tap_with_finger_slow_short_horflip_short_600ms.mp4	506.0267453460665	506.6350621648585	0.608316818791991	n/a	n/a	n/a	n/a
328.13671875	0.2	672024	274	4	2	0	0	88	203	stimuli\Videos_short_600ms_horvertflip\30.finger_pulling_back_another_finger_short_horvertflip_short_600ms.mp4	30.finger_pulling_back_another_finger_short_horvertflip_short_600ms.mp4	506.8267239978818	507.4350411099181	0.6083171120362749	n/a	n/a	n/a	n/a
328.9365234375	0.2	673662	275	4	2	0	0	89	96	stimuli\Videos_short_600ms_horflip\15.single_stroke_top_to_bottom_with_a_plastic_whisk_short_horflip_short_600ms.mp4	15.single_stroke_top_to_bottom_with_a_plastic_whisk_short_horflip_short_600ms.mp4	507.62671232675893	508.235045273987	0.6083329472280639	n/a	n/a	n/a	n/a
329.73681640625	0.2	675301	276	4	2	0	0	90	12	stimuli\Videos_short_600ms\20.single_touch_with_screwdriver_short_short_600ms.mp4	20.single_touch_with_screwdriver_short_short_600ms.mp4	508.42671678407214	509.035018940649	0.6083021565768831	n/a	n/a	n/a	n/a
330.53662109375	0.2	676939	277	4	2	0	0	91	342	stimuli\Videos_short_600ms_vertflip\75.(long)stroke_with_fingers_all_over_the_hand_short_vertflip_short_600ms.mp4	75.(long)stroke_with_fingers_all_over_the_hand_short_vertflip_short_600ms.mp4	509.226691330467	509.8349896748682	0.6082983444011916	2.0	2.0	2.0364224078521147	1.0
369.03515625	0.2	755784	278	4	3	0	0	0	212	stimuli\Videos_short_600ms_horvertflip\39.single_stab_with_scissors_short_horvertflip_short_600ms.mp4	39.single_stab_with_scissors_short_horvertflip_short_600ms.mp4	547.7257640920016	548.3340732864417	0.6083091944401531	n/a	n/a	n/a	n/a
369.83544921875	0.2	757423	279	4	3	0	0	1	48	stimuli\Videos_short_600ms\53.touch_top_to_bottom_with_knife_short_short_600ms.mp4	53.touch_top_to_bottom_with_knife_short_short_600ms.mp4	548.5257591654972	549.1340583896313	0.6082992241340435	n/a	n/a	n/a	n/a
370.63525390625	0.2	759061	280	4	3	0	0	2	238	stimuli\Videos_short_600ms_horvertflip\62.touch_top_to_bottom_with_scissors_short_horvertflip_short_600ms.mp4	62.touch_top_to_bottom_with_scissors_short_horvertflip_short_600ms.mp4	549.3257208091431	549.9340361617137	0.6083153525705711	n/a	n/a	n/a	n/a
371.43505859375	0.2	760699	281	4	3	0	0	3	198	stimuli\Videos_short_600ms_horvertflip\26.single_touch_with_a_blunt_syringe_short_horvertflip_short_600ms.mp4	26.single_touch_with_a_blunt_syringe_short_horvertflip_short_600ms.mp4	550.125650782405	550.7340165729947	0.6083657905896871	n/a	n/a	n/a	n/a
372.2353515625	0.2	762338	282	4	3	0	0	4	204	stimuli\Videos_short_600ms_horvertflip\31.hand_grabbing_wrist_short_horvertflip_short_600ms.mp4	31.hand_grabbing_wrist_short_horvertflip_short_600ms.mp4	550.9256578789173	551.53399727752	0.6083393986027659	n/a	n/a	n/a	n/a
373.04345703125	0.2	763993	283	4	3	0	0	5	226	stimuli\Videos_short_600ms_horvertflip\51.repeated_touch_with_hammer_short_horvertflip_short_600ms.mp4	51.repeated_touch_with_hammer_short_horvertflip_short_600ms.mp4	551.7340077756658	552.3423099322431	0.6083021565773379	n/a	n/a	n/a	n/a
373.85205078125	0.2	765649	284	4	3	0	0	6	81	stimuli\Videos_short_600ms\83.single_stroke_top_to_bottom_with_cotton_bud_short_short_600ms.mp4	83.single_stroke_top_to_bottom_with_cotton_bud_short_short_600ms.mp4	552.542283774852	553.150627572119	0.6083437972670254	n/a	n/a	n/a	n/a
374.65185546875	0.2	767287	285	4	3	0	0	7	191	stimuli\Videos_short_600ms_horvertflip\2.single_touch_with_finger_short_horvertflip_short_600ms.mp4	2.single_touch_with_finger_short_horvertflip_short_600ms.mp4	553.3422826605233	553.9506041712243	0.6083215107009892	n/a	n/a	n/a	n/a
375.45166015625	0.2	768925	286	4	3	0	0	8	270	stimuli\Videos_short_600ms_vertflip\1.repeated_touch_with_finger_fast_short_vertflip_short_600ms.mp4	1.repeated_touch_with_finger_fast_short_vertflip_short_600ms.mp4	554.1422665907362	554.7505977784986	0.6083311877623601	n/a	n/a	n/a	n/a
376.251953125	0.2	770564	287	4	3	0	0	9	289	stimuli\Videos_short_600ms_vertflip\27.single_push_with_a_plastic_whisk_short_vertflip_short_600ms.mp4	27.single_push_with_a_plastic_whisk_short_vertflip_short_600ms.mp4	554.9422209032746	555.5505649937863	0.6083440905117641	n/a	n/a	n/a	n/a
377.0517578125	0.2	772202	288	4	3	0	0	10	39	stimuli\Videos_short_600ms\45.scratching_with_finger_nails_short_short_600ms.mp4	45.scratching_with_finger_nails_short_short_600ms.mp4	555.7422271200539	556.3505430591131	0.608315939059139	n/a	n/a	n/a	n/a
377.8515625	0.2	773840	289	4	3	0	0	11	47	stimuli\Videos_short_600ms\52.touch_top_to_bottom_with_hammer_short_short_600ms.mp4	52.touch_top_to_bottom_with_hammer_short_short_600ms.mp4	556.5421858312566	557.150524350127	0.6083385188703687	n/a	n/a	n/a	n/a
378.65185546875	0.2	775479	290	4	3	0	0	12	182	stimuli\Videos_short_600ms_horvertflip\11.single_touch_with_lighter_short_horvertflip_short_600ms.mp4	11.single_touch_with_lighter_short_horvertflip_short_600ms.mp4	557.3421870628827	557.950504761408	0.6083176985252976	n/a	n/a	n/a	n/a
379.45166015625	0.2	777117	291	4	3	0	0	13	319	stimuli\Videos_short_600ms_vertflip\54.repeated_touch_with_knife_short_vertflip_short_600ms.mp4	54.repeated_touch_with_knife_short_vertflip_short_600ms.mp4	558.1421668876751	558.750487225399	0.6083203377238533	n/a	n/a	n/a	n/a
380.25146484375	0.2	778755	292	4	3	0	0	14	54	stimuli\Videos_short_600ms\59.single_push_with_long_side_pencil_short_short_600ms.mp4	59.single_push_with_long_side_pencil_short_short_600ms.mp4	558.942152870598	559.5504664637028	0.6083135931048673	n/a	n/a	n/a	n/a
381.0517578125	0.2	780394	293	4	3	0	0	15	167	stimuli\Videos_short_600ms_horflip\8.single_touch_with_hairbrush_short_horflip_short_600ms.mp4	8.single_touch_with_hairbrush_short_horflip_short_600ms.mp4	559.7423813665537	560.3504459952505	0.6080646286968658	n/a	n/a	n/a	n/a
381.8515625	0.2	782032	294	4	3	0	0	16	158	stimuli\Videos_short_600ms_horflip\71.single_stroke_with_finger_top_to_bottom_short_horflip_short_600ms.mp4	71.single_stroke_with_finger_top_to_bottom_short_horflip_short_600ms.mp4	560.5420650146066	561.1504278727534	0.6083628581468474	n/a	n/a	n/a	n/a
382.6513671875	0.2	783670	295	4	3	0	0	17	232	stimuli\Videos_short_600ms_horvertflip\57.single_touch_with_nail_file_short_horvertflip_short_600ms.mp4	57.single_touch_with_nail_file_short_horvertflip_short_600ms.mp4	561.342044839399	561.9504091637673	0.6083643243682673	n/a	n/a	n/a	n/a
383.45166015625	0.2	785309	296	4	3	0	1	18	377	stimuli\Targets_short_600ms_horvertflip\hand-stroke_short_vertflip_short_600ms.mp4	hand-stroke_short_vertflip_short_600ms.mp4	562.1420378601847	562.7503892818036	0.6083514216188632	n/a	n/a	n/a	n/a
384.25146484375	0.2	786947	297	4	3	0	0	19	133	stimuli\Videos_short_600ms_horflip\49.repeated_slap_with_hand_short_horflip_short_600ms.mp4	49.repeated_slap_with_hand_short_horflip_short_600ms.mp4	562.9420335201689	563.5503471132738	0.6083135931048673	n/a	n/a	n/a	n/a
385.05126953125	0.2	788585	298	4	3	0	0	20	288	stimuli\Videos_short_600ms_vertflip\26.single_touch_with_a_blunt_syringe_short_vertflip_short_600ms.mp4	26.single_touch_with_a_blunt_syringe_short_vertflip_short_600ms.mp4	563.7420265409551	564.3503477584113	0.6083212174562505	n/a	n/a	n/a	n/a
385.8515625	0.2	790224	299	4	3	0	0	21	317	stimuli\Videos_short_600ms_vertflip\52.touch_top_to_bottom_with_hammer_short_vertflip_short_600ms.mp4	52.touch_top_to_bottom_with_hammer_short_vertflip_short_600ms.mp4	564.5420201482293	565.1502847695365	0.6082646213071712	n/a	n/a	n/a	n/a
386.6513671875	0.2	791862	300	4	3	0	0	22	171	stimuli\Videos_short_600ms_horflip\83.single_stroke_top_to_bottom_with_cotton_bud_short_horflip_short_600ms.mp4	83.single_stroke_top_to_bottom_with_cotton_bud_short_horflip_short_600ms.mp4	565.3419996797775	565.9502877606283	0.608288080850798	n/a	n/a	n/a	n/a
387.451171875	0.2	793500	301	4	3	0	0	23	120	stimuli\Videos_short_600ms_horflip\37.single_stab_with_nail_file_short_horflip_short_600ms.mp4	37.single_stab_with_nail_file_short_horflip_short_600ms.mp4	566.141980677547	566.750269931375	0.6082892538279339	n/a	n/a	n/a	n/a
388.25146484375	0.2	795139	302	4	3	0	0	24	295	stimuli\Videos_short_600ms_vertflip\32.single_(long)pinch_with_fingers_short_vertflip_short_600ms.mp4	32.single_(long)pinch_with_fingers_short_vertflip_short_600ms.mp4	566.9419546374534	567.550259139985	0.6083045025316096	n/a	n/a	n/a	n/a
389.05126953125	0.2	796777	303	4	3	0	0	25	328	stimuli\Videos_short_600ms_vertflip\62.touch_top_to_bottom_with_scissors_short_vertflip_short_600ms.mp4	62.touch_top_to_bottom_with_scissors_short_vertflip_short_600ms.mp4	567.7419353419787	568.3502336863799	0.6082983444011916	n/a	n/a	n/a	n/a
389.8515625	0.2	798416	304	4	3	0	0	26	117	stimuli\Videos_short_600ms_horflip\34.repeated_punch_with_hand_short_horflip_short_600ms.mp4	34.repeated_punch_with_hand_short_horflip_short_600ms.mp4	568.5419163397482	569.1502390234264	0.608322683678125	n/a	n/a	n/a	n/a
390.6513671875	0.2	800054	305	4	3	0	0	27	327	stimuli\Videos_short_600ms_vertflip\61.single_hit_with_rolling_pin_short_vertflip_short_600ms.mp4	61.single_hit_with_rolling_pin_short_vertflip_short_600ms.mp4	569.3419049618697	569.9502370293649	0.608332067495212	n/a	n/a	n/a	n/a
391.451171875	0.2	801692	306	4	3	0	1	28	373	stimuli\Targets_short_600ms_horvertflip\chopstick-silver-tap_short_vertflip_short_600ms.mp4	chopstick-silver-tap_short_vertflip_short_600ms.mp4	570.141880974486	570.7501939811023	0.6083130066162994	n/a	n/a	n/a	n/a
392.25146484375	0.2	803331	307	4	3	0	0	29	2	stimuli\Videos_short_600ms\11.single_touch_with_lighter_short_short_600ms.mp4	11.single_touch_with_lighter_short_short_600ms.mp4	570.9418564006141	571.5501752721161	0.6083188715019787	n/a	n/a	n/a	n/a
393.05126953125	0.2	804969	308	4	3	0	1	30	379	stimuli\Targets_short_600ms_vertflip\chopstick-silver-tap_short_horvertflip_short_600ms.mp4	chopstick-silver-tap_short_horvertflip_short_600ms.mp4	571.7418365186509	572.3501533374429	0.608316818791991	n/a	n/a	n/a	n/a
393.85107421875	0.2	806607	309	4	3	0	0	31	249	stimuli\Videos_short_600ms_horvertflip\72.(short)stroke_with_finger_all_over_the_hand_short_horvertflip_short_600ms.mp4	72.(short)stroke_with_finger_all_over_the_hand_short_horvertflip_short_600ms.mp4	572.5418163434433	573.1501384406324	0.6083220971891024	n/a	n/a	n/a	n/a
394.6513671875	0.2	808246	310	4	3	0	0	32	291	stimuli\Videos_short_600ms_vertflip\29.single_pinch_with_tweezers_short_vertflip_short_600ms.mp4	29.single_pinch_with_tweezers_short_vertflip_short_600ms.mp4	573.3417999804115	573.950115332982	0.6083153525705711	n/a	n/a	n/a	n/a
395.451171875	0.2	809884	311	4	3	0	0	33	156	stimuli\Videos_short_600ms_horflip\7.repeated_touch_with_hairbrush_short_horflip_short_600ms.mp4	7.repeated_touch_with_hairbrush_short_horflip_short_600ms.mp4	574.1417792187153	574.750095744263	0.608316525547707	n/a	n/a	n/a	n/a
396.2509765625	0.2	811522	312	4	3	0	0	34	83	stimuli\Videos_short_600ms\85.touch_top_to_bottom_with_fabric_short_short_600ms.mp4	85.touch_top_to_bottom_with_fabric_short_short_600ms.mp4	574.9417159365962	575.5500767420326	0.6083608054364049	n/a	n/a	n/a	n/a
397.05126953125	0.2	813161	313	4	3	0	0	35	187	stimuli\Videos_short_600ms_horvertflip\16.repeated_touch_with_plastic_brush_short_horvertflip_short_600ms.mp4	16.repeated_touch_with_plastic_brush_short_horvertflip_short_600ms.mp4	575.7417667265081	576.3500603790008	0.6082936524926481	n/a	n/a	n/a	n/a
397.85107421875	0.2	814799	314	4	3	0	0	36	210	stimuli\Videos_short_600ms_horvertflip\37.single_stab_with_nail_file_short_horvertflip_short_600ms.mp4	37.single_stab_with_nail_file_short_horvertflip_short_600ms.mp4	576.5416999254576	577.1500372713504	0.6083373458927781	n/a	n/a	n/a	n/a
398.65087890625	0.2	816437	315	4	3	0	0	37	134	stimuli\Videos_short_600ms_horflip\5.repeated_tap_with_finger_moving_from_top_to_bottom_short_horflip_short_600ms.mp4	5.repeated_tap_with_finger_moving_from_top_to_bottom_short_horflip_short_600ms.mp4	577.3416768178067	577.9500206150742	0.6083437972674801	n/a	n/a	n/a	n/a
399.451171875	0.2	818076	316	4	3	0	0	38	251	stimuli\Videos_short_600ms_horvertflip\74.fingers_walking_from_top_to_bottom_short_horvertflip_short_600ms.mp4	74.fingers_walking_from_top_to_bottom_short_horvertflip_short_600ms.mp4	578.141668372371	578.7499975074238	0.608329135052827	n/a	n/a	n/a	n/a
400.2509765625	0.2	819714	317	4	3	0	1	39	368	stimuli\Targets_short_600ms_horflip\chopstickwood-tap_short_horflip_short_600ms.mp4	chopstickwood-tap_short_horflip_short_600ms.mp4	578.9416493701406	579.5499609105354	0.6083115403948796	n/a	n/a	n/a	n/a
401.05078125	0.2	821352	318	4	3	0	0	40	50	stimuli\Videos_short_600ms\55.touch_top_to_bottom_with_nail_file_short_short_600ms.mp4	55.touch_top_to_bottom_with_nail_file_short_short_600ms.mp4	579.7416497220338	580.3499137568524	0.6082640348186032	n/a	n/a	n/a	n/a
401.85107421875	0.2	822991	319	4	3	0	0	41	148	stimuli\Videos_short_600ms_horflip\62.touch_top_to_bottom_with_scissors_short_horflip_short_600ms.mp4	62.touch_top_to_bottom_with_scissors_short_horflip_short_600ms.mp4	580.5416248549177	581.1499064843938	0.608281629476096	n/a	n/a	n/a	n/a
402.65087890625	0.2	824629	320	4	3	0	0	42	253	stimuli\Videos_short_600ms_horvertflip\76.tickle_with_fingers_from_top_to_bottom_short_horvertflip_short_600ms.mp4	76.tickle_with_fingers_from_top_to_bottom_short_horvertflip_short_600ms.mp4	581.3416108378401	581.9499024376228	0.6082915997826603	n/a	n/a	n/a	n/a
403.45068359375	0.2	826267	321	4	3	0	0	43	136	stimuli\Videos_short_600ms_horflip\51.repeated_touch_with_hammer_short_horflip_short_600ms.mp4	51.repeated_touch_with_hammer_short_horflip_short_600ms.mp4	582.1415836247693	582.7498828489038	0.6082992241344982	n/a	n/a	n/a	n/a
404.2509765625	0.2	827906	322	4	3	0	1	44	372	stimuli\Targets_short_600ms_horvertflip\brush-stroke_short_vertflip_short_600ms.mp4	brush-stroke_short_vertflip_short_600ms.mp4	582.9415690212036	583.5498626736962	0.6082936524926481	n/a	n/a	n/a	n/a
405.05078125	0.2	829544	323	4	3	0	0	45	75	stimuli\Videos_short_600ms\78.single_stroke_top_to_bottom_with_soft_brush_short_short_600ms.mp4	78.single_stroke_top_to_bottom_with_soft_brush_short_short_600ms.mp4	583.7415561771031	584.3498771013155	0.6083209242124212	n/a	n/a	n/a	n/a
405.8505859375	0.2	831182	324	4	3	0	0	46	290	stimuli\Videos_short_600ms_vertflip\28.single_injection_with_sharp_needle_short_vertflip_short_600ms.mp4	28.single_injection_with_sharp_needle_short_vertflip_short_600ms.mp4	584.5415274978109	585.1498622045051	0.6083347066942224	n/a	n/a	n/a	n/a
406.65087890625	0.2	832821	325	4	3	0	0	47	95	stimuli\Videos_short_600ms_horflip\14.repeated_touch_with_pencil_short_horflip_short_600ms.mp4	14.repeated_touch_with_pencil_short_horflip_short_600ms.mp4	585.3415058563819	585.9498273670829	0.6083215107009892	n/a	n/a	n/a	n/a
407.45068359375	0.2	834459	326	4	3	0	0	48	219	stimuli\Videos_short_600ms_horvertflip\45.scratching_with_finger_nails_short_horvertflip_short_600ms.mp4	45.scratching_with_finger_nails_short_horvertflip_short_600ms.mp4	586.1414883203729	586.7498048459206	0.608316525547707	n/a	n/a	n/a	n/a
408.2509765625	0.2	836098	327	4	3	0	0	49	9	stimuli\Videos_short_600ms\18.single_stroke_from_top_to_bottom_with_rolling_pin_short_short_600ms.mp4	18.single_stroke_from_top_to_bottom_with_rolling_pin_short_short_600ms.mp4	586.9414655059668	587.5497852572016	0.6083197512348306	n/a	n/a	n/a	n/a
409.05078125	0.2	837736	328	4	3	0	0	50	242	stimuli\Videos_short_600ms_horvertflip\66.stroke_top_to_bottom_with_sponge_short_horvertflip_short_600ms.mp4	66.stroke_top_to_bottom_with_sponge_short_horvertflip_short_600ms.mp4	587.7414488496906	588.3497650819941	0.608316232303423	n/a	n/a	n/a	n/a
409.8505859375	0.2	839374	329	4	3	0	0	51	85	stimuli\Videos_short_600ms\87.single_stroke_top_to_bottom_with_plastic_brush_short_short_600ms.mp4	87.single_stroke_top_to_bottom_with_plastic_brush_short_short_600ms.mp4	588.541405801428	589.1497469594965	0.6083411580684697	n/a	n/a	n/a	n/a
410.65087890625	0.2	841013	330	4	3	0	0	52	99	stimuli\Videos_short_600ms_horflip\18.single_stroke_from_top_to_bottom_with_rolling_pin_short_horflip_short_600ms.mp4	18.single_stroke_from_top_to_bottom_with_rolling_pin_short_horflip_short_600ms.mp4	589.3414008749237	589.9497273707775	0.6083264958538166	n/a	n/a	n/a	n/a
411.45068359375	0.2	842651	331	4	3	0	0	53	304	stimuli\Videos_short_600ms_vertflip\40.repeated_push_with_finger_short_vertflip_short_600ms.mp4	40.repeated_push_with_finger_short_vertflip_short_600ms.mp4	590.1414050389926	590.7497057293485	0.608300690355918	n/a	n/a	n/a	n/a
412.25048828125	0.2	844289	332	4	3	0	0	54	103	stimuli\Videos_short_600ms_horflip\21.repeated_touch_with_metal_chopstick_short_horflip_short_600ms.mp4	21.repeated_touch_with_metal_chopstick_short_horflip_short_600ms.mp4	590.9413663893947	591.5496864338738	0.6083200444791146	n/a	n/a	n/a	n/a
413.05078125	0.2	845928	333	4	3	0	0	55	330	stimuli\Videos_short_600ms_vertflip\64.repeated_touch_with_screwdriver_short_vertflip_short_600ms.mp4	64.repeated_touch_with_screwdriver_short_vertflip_short_600ms.mp4	591.7413268600635	592.3496677248877	0.6083408648241857	n/a	n/a	n/a	n/a
413.8505859375	0.2	847566	334	4	3	0	1	56	371	stimuli\Targets_short_600ms_horflip\hand-stroke_short_horflip_short_600ms.mp4	hand-stroke_short_horflip_short_600ms.mp4	592.5413093240545	593.1496478429244	0.608338518869914	n/a	n/a	n/a	n/a
414.65869140625	0.2	849221	335	4	3	0	0	57	65	stimuli\Videos_short_600ms\69.stroke_with_soft_sock_short_short_600ms.mp4	69.stroke_with_soft_sock_short_short_600ms.mp4	593.3496583410702	593.957963136846	0.6083047957758936	n/a	n/a	n/a	n/a
415.458984375	0.2	850860	336	4	3	0	0	58	333	stimuli\Videos_short_600ms_vertflip\67.single_touch_with_sponge_short_vertflip_short_600ms.mp4	67.single_touch_with_sponge_short_vertflip_short_600ms.mp4	594.1496279023122	594.7579426683942	0.6083147660820032	n/a	n/a	n/a	n/a
416.2587890625	0.2	852498	337	4	3	0	0	59	284	stimuli\Videos_short_600ms_vertflip\22.single_touch_with_metal_chopstick_short_vertflip_short_600ms.mp4	22.single_touch_with_metal_chopstick_short_vertflip_short_600ms.mp4	594.9495965838214	595.5579274783395	0.6083308945180761	n/a	n/a	n/a	n/a
417.05859375	0.2	854136	338	4	3	0	0	60	175	stimuli\Videos_short_600ms_horflip\87.single_stroke_top_to_bottom_with_plastic_brush_short_horflip_short_600ms.mp4	87.single_stroke_top_to_bottom_with_plastic_brush_short_horflip_short_600ms.mp4	595.7495626261316	596.3579114085524	0.6083487824207623	n/a	n/a	n/a	n/a
417.85888671875	0.2	855775	339	4	3	0	0	61	157	stimuli\Videos_short_600ms_horflip\70.(long)stroke_with_finger_all_over_the_hand_short_horflip_short_600ms.mp4	70.(long)stroke_with_finger_all_over_the_hand_short_horflip_short_600ms.mp4	596.549519577869	597.1578853684587	0.6083657905896871	n/a	n/a	n/a	n/a
418.65869140625	0.2	857413	340	4	3	0	0	62	314	stimuli\Videos_short_600ms_vertflip\5.repeated_tap_with_finger_moving_from_top_to_bottom_short_vertflip_short_600ms.mp4	5.repeated_tap_with_finger_moving_from_top_to_bottom_short_vertflip_short_600ms.mp4	597.34950204186	597.9578637270297	0.6083616851697116	n/a	n/a	n/a	n/a
419.45849609375	0.2	859051	341	4	3	0	0	63	45	stimuli\Videos_short_600ms\50.single_(long)hard_push_with_thumb_short_short_600ms.mp4	50.single_(long)hard_push_with_thumb_short_short_600ms.mp4	598.1495059126851	598.7578502964407	0.6083443837555933	n/a	n/a	n/a	n/a
420.2587890625	0.2	860690	342	4	3	0	0	64	125	stimuli\Videos_short_600ms_horflip\41.injection_with_blunt_syringe_short_horflip_short_600ms.mp4	41.injection_with_blunt_syringe_short_horflip_short_600ms.mp4	598.9494880834318	599.5578245495917	0.6083364661599262	n/a	n/a	n/a	n/a
421.05859375	0.2	862328	343	4	3	0	0	65	286	stimuli\Videos_short_600ms_vertflip\24.single_stroke_top_to_bottom_with_a_spoon_short_vertflip_short_600ms.mp4	24.single_stroke_top_to_bottom_with_a_spoon_short_vertflip_short_600ms.mp4	599.7495335949466	600.3578216757974	0.608288080850798	n/a	n/a	n/a	n/a
421.8583984375	0.2	863966	344	4	3	0	0	66	359	stimuli\Videos_short_600ms_vertflip\90.repeated_touch_with_sponge_short_vertflip_short_600ms.mp4	90.repeated_touch_with_sponge_short_vertflip_short_600ms.mp4	600.549485854775	601.1577639653196	0.6082781105446884	n/a	n/a	n/a	n/a
422.65869140625	0.2	865605	345	4	3	0	0	67	119	stimuli\Videos_short_600ms_horflip\36.single_slap_with_full_hand_short_horflip_short_600ms.mp4	36.single_slap_with_full_hand_short_horflip_short_600ms.mp4	601.3494524835742	601.9577429103792	0.6082904268050697	n/a	n/a	n/a	n/a
423.45849609375	0.2	867243	346	4	3	0	1	68	366	stimuli\Targets_short_600ms_horflip\brush-stroke_short_horflip_short_600ms.mp4	brush-stroke_short_horflip_short_600ms.mp4	602.1494320151223	602.757723028416	0.6082910132936377	n/a	n/a	n/a	n/a
424.2587890625	0.2	868882	347	4	3	0	0	69	129	stimuli\Videos_short_600ms_horflip\45.scratching_with_finger_nails_short_horflip_short_600ms.mp4	45.scratching_with_finger_nails_short_horflip_short_600ms.mp4	602.9494100804486	603.5577131167588	0.6083030363101898	n/a	n/a	n/a	n/a
425.05859375	0.2	870520	348	4	3	0	0	70	87	stimuli\Videos_short_600ms\89.single_touch_with_plastic_brush_short_short_600ms.mp4	89.single_touch_with_plastic_brush_short_short_600ms.mp4	603.7493910782182	604.3576935280398	0.6083024498216218	n/a	n/a	n/a	n/a
425.8583984375	0.2	872158	349	4	3	0	0	71	265	stimuli\Videos_short_600ms_horvertflip\87.single_stroke_top_to_bottom_with_plastic_brush_short_horvertflip_short_600ms.mp4	87.single_stroke_top_to_bottom_with_plastic_brush_short_horvertflip_short_600ms.mp4	604.5493797003396	605.1577009177963	0.6083212174567052	n/a	n/a	n/a	n/a
426.65869140625	0.2	873797	350	4	3	0	1	72	378	stimuli\Targets_short_600ms_vertflip\brush-stroke_short_horvertflip_short_600ms.mp4	brush-stroke_short_horvertflip_short_600ms.mp4	605.3493530737574	605.9576707722822	0.6083176985248429	n/a	n/a	n/a	n/a
427.45849609375	0.2	875435	351	4	3	0	0	73	25	stimuli\Videos_short_600ms\32.single_(long)pinch_with_fingers_short_short_600ms.mp4	32.single_(long)pinch_with_fingers_short_short_600ms.mp4	606.1493308458398	606.7576626200912	0.6083317742513827	n/a	n/a	n/a	n/a
428.25830078125	0.2	877073	352	4	3	0	0	74	76	stimuli\Videos_short_600ms\79.long_with_soft_brush_all_over_the_hand_short_short_600ms.mp4	79.long_with_soft_brush_all_over_the_hand_short_short_600ms.mp4	606.9493141895637	607.5576321813328	0.6083179917691268	n/a	n/a	n/a	n/a
429.05859375	0.2	878712	353	4	3	0	0	75	343	stimuli\Videos_short_600ms_vertflip\76.tickle_with_fingers_from_top_to_bottom_short_vertflip_short_600ms.mp4	76.tickle_with_fingers_from_top_to_bottom_short_vertflip_short_600ms.mp4	607.7492902021804	608.3576120061252	0.6083218039448184	n/a	n/a	n/a	n/a
429.8583984375	0.2	880350	354	4	3	0	0	76	135	stimuli\Videos_short_600ms_horflip\50.single_(long)hard_push_with_thumb_short_horflip_short_600ms.mp4	50.single_(long)hard_push_with_thumb_short_horflip_short_600ms.mp4	608.5492805837675	609.1575953498495	0.6083147660820032	n/a	n/a	n/a	n/a
430.658203125	0.2	881988	355	4	3	0	0	77	300	stimuli\Videos_short_600ms_vertflip\37.single_stab_with_nail_file_short_vertflip_short_600ms.mp4	37.single_stab_with_nail_file_short_vertflip_short_600ms.mp4	609.3492357760388	609.9575751746415	0.6083393986027659	n/a	n/a	n/a	n/a
431.45849609375	0.2	883627	356	4	3	0	0	78	89	stimuli\Videos_short_600ms\90.repeated_touch_with_sponge_short_short_600ms.mp4	90.repeated_touch_with_sponge_short_short_600ms.mp4	610.1492194130074	610.7575517737469	0.6083323607394959	n/a	n/a	n/a	n/a
432.25830078125	0.2	885265	357	4	3	0	0	79	320	stimuli\Videos_short_600ms_vertflip\55.touch_top_to_bottom_with_nail_file_short_vertflip_short_600ms.mp4	55.touch_top_to_bottom_with_nail_file_short_vertflip_short_600ms.mp4	610.949191613448	611.5575318917836	0.6083402783356178	n/a	n/a	n/a	n/a
433.05810546875	0.2	886903	358	4	3	0	0	80	258	stimuli\Videos_short_600ms_horvertflip\80.stroke_with_sharp_stick_all_over_the_hand_short_horvertflip_short_600ms.mp4	80.stroke_with_sharp_stick_all_over_the_hand_short_horvertflip_short_600ms.mp4	611.7491796490804	612.3575128895532	0.6083332404728026	n/a	n/a	n/a	n/a
