onset	duration	onsetsample	eventnumber	subjectnr	sequencenumber	blocksequencenumber	istarget	presentationnumber	stimnumber	stim	stimname	time_stimon	time_stimoff	stimdur	cresp	resp	rt	correct
19.55078125	0.2	40040	0	7	0	0	0	0	343	stimuli\Videos_short_600ms_vertflip\76.tickle_with_fingers_from_top_to_bottom_short_vertflip_short_600ms.mp4	76.tickle_with_fingers_from_top_to_bottom_short_vertflip_short_600ms.mp4	103.71441830294998	104.3222860095416	0.6078677065916054				
20.35107421875	0.2	41679	1	7	0	0	0	1	356	stimuli\Videos_short_600ms_vertflip\88.repeated_stroke_with_plastic_brush_short_vertflip_short_600ms.mp4	88.repeated_stroke_with_plastic_brush_short_vertflip_short_600ms.mp4	104.51395509303666	105.12226794564548	0.608312852608833				
21.15087890625	0.2	43317	2	7	0	0	0	2	180	stimuli\Videos_short_600ms_horvertflip\1.repeated_touch_with_finger_fast_short_horvertflip_short_600ms.mp4	1.repeated_touch_with_finger_fast_short_horvertflip_short_600ms.mp4	105.31391444926976	105.92224870876862	0.6083342594988608				
21.95068359375	0.2	44955	3	7	0	0	0	3	289	stimuli\Videos_short_600ms_vertflip\27.single_push_with_a_plastic_whisk_short_vertflip_short_600ms.mp4	27.single_push_with_a_plastic_whisk_short_vertflip_short_600ms.mp4	106.11387820417896	106.7222335773231	0.6083553731441498				
22.7509765625	0.2	46594	4	7	0	0	0	4	118	stimuli\Videos_short_600ms_horflip\35.single_punch_with_hand_short_horflip_short_600ms.mp4	35.single_punch_with_hand_short_horflip_short_600ms.mp4	106.91385544836156	107.52221287422115	0.6083574258595945				
23.55078125	0.2	48232	5	7	0	0	0	5	220	stimuli\Videos_short_600ms_horvertflip\46.scratching_top_to_bottom_with_finger_nails_short_horvertflip_short_600ms.mp4	46.scratching_top_to_bottom_with_finger_nails_short_horvertflip_short_600ms.mp4	107.71389984566532	108.32219715628526	0.6082973106199461				
24.3505859375	0.2	49870	6	7	0	0	0	6	81	stimuli\Videos_short_600ms\83.single_stroke_top_to_bottom_with_cotton_bud_short_short_600ms.mp4	83.single_stroke_top_to_bottom_with_cotton_bud_short_short_600ms.mp4	108.51381580162796	109.12217938563435	0.6083635840063835				
25.15087890625	0.2	51509	7	7	0	0	1	7	363	stimuli\Targets_short_600ms\finger-tap_short_short_600ms.mp4	finger-tap_short_short_600ms.mp4	109.31384465694282	109.9221557500814	0.6083110931385818				
25.95068359375	0.2	53147	8	7	0	0	0	8	167	stimuli\Videos_short_600ms_horflip\8.single_touch_with_hairbrush_short_horflip_short_600ms.mp4	8.single_touch_with_hairbrush_short_horflip_short_600ms.mp4	110.11380547940144	110.72212566313738	0.6083201837359411				
26.75048828125	0.2	54785	9	7	0	0	0	9	115	stimuli\Videos_short_600ms_horflip\32.single_(long)pinch_with_fingers_short_horflip_short_600ms.mp4	32.single_(long)pinch_with_fingers_short_horflip_short_600ms.mp4	110.91379298716174	111.52211375738716	0.6083207702254185				
27.55078125	0.2	56424	10	7	0	0	0	10	222	stimuli\Videos_short_600ms_horvertflip\48.single_slap_with_hand_short_horvertflip_short_600ms.mp4	48.single_slap_with_hand_short_horvertflip_short_600ms.mp4	111.71380014234136	112.32206724871912	0.6082671063777525				
28.3505859375	0.2	58062	11	7	0	0	0	11	13	stimuli\Videos_short_600ms\21.repeated_touch_with_metal_chopstick_short_short_600ms.mp4	21.repeated_touch_with_metal_chopstick_short_short_600ms.mp4	112.51377298784791	113.12204859833264	0.6082756104847249				
29.150390625	0.2	59700	12	7	0	0	0	12	336	stimuli\Videos_short_600ms_vertflip\7.repeated_touch_with_hairbrush_short_vertflip_short_600ms.mp4	7.repeated_touch_with_hairbrush_short_vertflip_short_600ms.mp4	113.3137628415684	113.92204079801375	0.6082779564453631				
29.95068359375	0.2	61339	13	7	0	0	0	13	98	stimuli\Videos_short_600ms_horflip\17.repeated_touch_with_rolling_pin_short_horflip_short_600ms.mp4	17.repeated_touch_with_rolling_pin_short_horflip_short_600ms.mp4	114.11373832628033	114.72204736670346	0.608309040423137				
30.75048828125	0.2	62977	14	7	0	0	0	14	77	stimuli\Videos_short_600ms\8.single_touch_with_hairbrush_short_short_600ms.mp4	8.single_touch_with_hairbrush_short_short_600ms.mp4	114.91373111245184	115.52202754333666	0.6082964308848204				
31.55078125	0.2	64616	15	7	0	0	1	15	361	stimuli\Targets_short_600ms\chopstick-silver-tap_short_short_600ms.mp4	chopstick-silver-tap_short_short_600ms.mp4	115.71370571742864	116.32203381878116	0.6083281013525266				
32.3505859375	0.2	66254	16	7	0	0	0	16	210	stimuli\Videos_short_600ms_horvertflip\37.single_stab_with_nail_file_short_horvertflip_short_600ms.mp4	37.single_stab_with_nail_file_short_horvertflip_short_600ms.mp4	116.51368765353207	117.12201810084524	0.6083304473131648				
33.150390625	0.2	67892	17	7	0	0	1	17	374	stimuli\Targets_short_600ms_horvertflip\chopstickwood-tap_short_vertflip_short_600ms.mp4	chopstickwood-tap_short_vertflip_short_600ms.mp4	117.3136698828812	117.9219965180082	0.608326635127014				
33.95068359375	0.2	69531	18	7	0	0	0	18	236	stimuli\Videos_short_600ms_horvertflip\60.single_push_with_tip_of_pencil_short_horvertflip_short_600ms.mp4	60.single_push_with_tip_of_pencil_short_horvertflip_short_600ms.mp4	118.11365357845489	118.72197522841589	0.6083216499609989				
34.75048828125	0.2	71169	19	7	0	0	0	19	252	stimuli\Videos_short_600ms_horvertflip\75.(long)stroke_with_fingers_all_over_the_hand_short_horvertflip_short_600ms.mp4	75.(long)stroke_with_fingers_all_over_the_hand_short_horvertflip_short_600ms.mp4	118.91363815376415	119.52191464398447	0.6082764902203053				
35.55029296875	0.2	72807	20	7	0	0	0	20	293	stimuli\Videos_short_600ms_vertflip\30.finger_pulling_back_another_finger_short_vertflip_short_600ms.mp4	30.finger_pulling_back_another_finger_short_vertflip_short_600ms.mp4	119.71359575052702	120.3219370479078	0.6083412973807754				
36.3505859375	0.2	74446	21	7	0	0	0	21	56	stimuli\Videos_short_600ms\60.single_push_with_tip_of_pencil_short_short_600ms.mp4	60.single_push_with_tip_of_pencil_short_short_600ms.mp4	120.51360378544224	121.1219227961974	0.6083190107551673				
37.150390625	0.2	76084	22	7	0	0	0	22	200	stimuli\Videos_short_600ms_horvertflip\28.single_injection_with_sharp_needle_short_horvertflip_short_600ms.mp4	28.single_injection_with_sharp_needle_short_horvertflip_short_600ms.mp4	121.31358337558504	121.92188655110658	0.6083031755215416				
37.9501953125	0.2	77722	23	7	0	0	1	23	366	stimuli\Targets_short_600ms_horflip\brush-stroke_short_horflip_short_600ms.mp4	brush-stroke_short_horflip_short_600ms.mp4	122.11356648466926	122.72188637515956	0.6083198904902929				
38.75048828125	0.2	79361	24	7	0	0	0	24	199	stimuli\Videos_short_600ms_horvertflip\27.single_push_with_a_plastic_whisk_short_horvertflip_short_600ms.mp4	27.single_push_with_a_plastic_whisk_short_horvertflip_short_600ms.mp4	122.9135079529533	123.52186772477307	0.608359771819778				
39.55029296875	0.2	80999	25	7	0	0	0	25	262	stimuli\Videos_short_600ms_horvertflip\84.single_touch_with_cotton_bud_short_horvertflip_short_600ms.mp4	84.single_touch_with_cotton_bud_short_horvertflip_short_600ms.mp4	123.71347581329336	124.32185200683762	0.6083761935442453				
40.35009765625	0.2	82637	26	7	0	0	1	26	365	stimuli\Targets_short_600ms\hand-stroke_short_short_600ms.mp4	hand-stroke_short_short_600ms.mp4	124.51349704423636	125.12183804837196	0.6083410041355819				
41.150390625	0.2	84276	27	7	0	0	0	27	285	stimuli\Videos_short_600ms_vertflip\23.single_push_with_a_spoon_short_vertflip_short_600ms.mp4	23.single_push_with_a_spoon_short_vertflip_short_600ms.mp4	125.31349422908396	125.92181793176042	0.6083237026764436				
41.9501953125	0.2	85914	28	7	0	0	0	28	44	stimuli\Videos_short_600ms\5.repeated_tap_with_finger_moving_from_top_to_bottom_short_short_600ms.mp4	5.repeated_tap_with_finger_moving_from_top_to_bottom_short_short_600ms.mp4	126.1134653151198	126.72178403263024	0.6083187175104285				
42.75	0.2	87552	29	7	0	0	0	29	105	stimuli\Videos_short_600ms_horflip\23.single_push_with_a_spoon_short_horflip_short_600ms.mp4	23.single_push_with_a_spoon_short_horflip_short_600ms.mp4	126.91347393652497	127.52176274303793	0.6082888065129737				
43.55029296875	0.2	89191	30	7	0	0	0	30	354	stimuli\Videos_short_600ms_vertflip\86.touch_top_to_bottom_with_hair_brush_short_vertflip_short_600ms.mp4	86.touch_top_to_bottom_with_hair_brush_short_vertflip_short_600ms.mp4	127.71344619554112	128.32174555887696	0.6082993633358456				
44.35009765625	0.2	90829	31	7	0	0	0	31	52	stimuli\Videos_short_600ms\57.single_touch_with_nail_file_short_short_600ms.mp4	57.single_touch_with_nail_file_short_short_600ms.mp4	128.51342901138014	129.12172544226496	0.6082964308848204				
45.14990234375	0.2	92467	32	7	0	0	0	32	7	stimuli\Videos_short_600ms\16.repeated_touch_with_plastic_brush_short_short_600ms.mp4	16.repeated_touch_with_plastic_brush_short_short_600ms.mp4	129.3134138799346	129.92171646896577	0.6083025890311546				
45.9501953125	0.2	94106	33	7	0	0	0	33	143	stimuli\Videos_short_600ms_horflip\58.single_slap_with_pencil_short_horflip_short_600ms.mp4	58.single_slap_with_pencil_short_horflip_short_600ms.mp4	130.11339640252845	130.72171658626394	0.6083201837354864				
46.75	0.2	95744	34	7	0	0	0	34	164	stimuli\Videos_short_600ms_horflip\77.tapping_with_all_fingers_short_horflip_short_600ms.mp4	77.tapping_with_all_fingers_short_horflip_short_600ms.mp4	130.91335839796693	131.5216985223674	0.6083401244004563				
47.5498046875	0.2	97382	35	7	0	0	0	35	137	stimuli\Videos_short_600ms_horflip\52.touch_top_to_bottom_with_hammer_short_horflip_short_600ms.mp4	52.touch_top_to_bottom_with_hammer_short_horflip_short_600ms.mp4	131.71336320718638	132.32168925582346	0.6083260486370818				
48.35009765625	0.2	99021	36	7	0	0	0	36	186	stimuli\Videos_short_600ms_horvertflip\15.single_stroke_top_to_bottom_with_a_plastic_whisk_short_horvertflip_short_600ms.mp4	15.single_stroke_top_to_bottom_with_a_plastic_whisk_short_horvertflip_short_600ms.mp4	132.51334543653502	133.12166356755506	0.6083181310200416				
49.14990234375	0.2	100659	37	7	0	0	0	37	126	stimuli\Videos_short_600ms_horflip\42.single_slap_with_plastic_whisk_short_horflip_short_600ms.mp4	42.single_slap_with_plastic_whisk_short_horflip_short_600ms.mp4	133.31330244680748	133.92168421200813	0.6083817652006474				
49.94970703125	0.2	102297	38	7	0	0	0	38	37	stimuli\Videos_short_600ms\43.touch_top_to_bottom_with_sharp_wooden_stick_short_short_600ms.mp4	43.touch_top_to_bottom_with_sharp_wooden_stick_short_short_600ms.mp4	134.11331077496789	134.72162597353736	0.6083151985694712				
50.75	0.2	103936	39	7	0	0	0	39	132	stimuli\Videos_short_600ms_horflip\48.single_slap_with_hand_short_horflip_short_600ms.mp4	48.single_slap_with_hand_short_horflip_short_600ms.mp4	134.91329271107134	135.521621692159	0.6083289810876522				
51.5498046875	0.2	105574	40	7	0	0	0	40	283	stimuli\Videos_short_600ms_vertflip\21.repeated_touch_with_metal_chopstick_short_vertflip_short_600ms.mp4	21.repeated_touch_with_metal_chopstick_short_vertflip_short_600ms.mp4	135.71327875260613	136.32159453766553	0.6083157850594034				
52.35009765625	0.2	107213	41	7	0	0	0	41	161	stimuli\Videos_short_600ms_horflip\74.fingers_walking_from_top_to_bottom_short_horflip_short_600ms.mp4	74.fingers_walking_from_top_to_bottom_short_horflip_short_600ms.mp4	136.51321816817426	137.12157588727905	0.608357719104788				
53.14990234375	0.2	108851	42	7	0	0	0	42	340	stimuli\Videos_short_600ms_vertflip\73.single_stroke_with_flat_hand_short_vertflip_short_600ms.mp4	73.single_stroke_with_flat_hand_short_vertflip_short_600ms.mp4	137.31319570560208	137.92154668007015	0.6083509744680669				
53.94970703125	0.2	110489	43	7	0	0	0	43	291	stimuli\Videos_short_600ms_vertflip\29.single_pinch_with_tweezers_short_vertflip_short_600ms.mp4	29.single_pinch_with_tweezers_short_vertflip_short_600ms.mp4	138.11318057415656	138.72154151895666	0.6083609448000971				
54.75	0.2	112128	44	7	0	0	0	44	185	stimuli\Videos_short_600ms_horvertflip\14.repeated_touch_with_pencil_short_horvertflip_short_600ms.mp4	14.repeated_touch_with_pencil_short_horvertflip_short_600ms.mp4	138.9131613372797	139.52152462804088	0.60836329076119				
55.5498046875	0.2	113766	45	7	0	0	0	45	338	stimuli\Videos_short_600ms_vertflip\71.single_stroke_with_finger_top_to_bottom_short_vertflip_short_600ms.mp4	71.single_stroke_with_finger_top_to_bottom_short_vertflip_short_600ms.mp4	139.71315295047089	140.32150744387943	0.6083544934085694				
56.349609375	0.2	115404	46	7	0	0	0	46	147	stimuli\Videos_short_600ms_horflip\61.single_hit_with_rolling_pin_short_horflip_short_600ms.mp4	61.single_hit_with_rolling_pin_short_horflip_short_600ms.mp4	140.51315570697443	141.12149495163976	0.6083392446653306				
57.14990234375	0.2	117043	47	7	0	0	0	47	259	stimuli\Videos_short_600ms_horvertflip\81.single_stroke_top_to_bottom_with_cotton_pad_short_horvertflip_short_600ms.mp4	81.single_stroke_top_to_bottom_with_cotton_pad_short_horvertflip_short_600ms.mp4	141.3131458539401	141.92143378071796	0.608287926777848				
57.94970703125	0.2	118681	48	7	0	0	0	48	19	stimuli\Videos_short_600ms\27.single_push_with_a_plastic_whisk_short_short_600ms.mp4	27.single_push_with_a_plastic_whisk_short_short_600ms.mp4	142.11314450501277	142.721446507554	0.6083020025412225				
58.74951171875	0.2	120319	49	7	0	0	0	49	63	stimuli\Videos_short_600ms\67.single_touch_with_sponge_short_short_600ms.mp4	67.single_touch_with_sponge_short_short_600ms.mp4	142.91311793700925	143.52139296100404	0.6082750239947927				
59.5498046875	0.2	121958	50	7	0	0	0	50	176	stimuli\Videos_short_600ms_horflip\88.repeated_stroke_with_plastic_brush_short_horflip_short_600ms.mp4	88.repeated_stroke_with_plastic_brush_short_horflip_short_600ms.mp4	143.71310309880892	144.3213974769783	0.6082943781693757				
60.349609375	0.2	123596	51	7	0	0	0	51	197	stimuli\Videos_short_600ms_horvertflip\25.single_touch_with_stanley_knife_short_horvertflip_short_600ms.mp4	25.single_touch_with_stanley_knife_short_horvertflip_short_600ms.mp4	144.51308444842243	145.12140257944247	0.6083181310200416				
61.1494140625	0.2	125234	52	7	0	0	0	52	15	stimuli\Videos_short_600ms\23.single_push_with_a_spoon_short_short_600ms.mp4	23.single_push_with_a_spoon_short_short_600ms.mp4	145.3130678507514	145.92141325356306	0.6083454028116648				
61.94970703125	0.2	126873	53	7	0	0	0	53	334	stimuli\Videos_short_600ms_vertflip\68.stroke_top_to_bottom_with_shawl_short_vertflip_short_600ms.mp4	68.stroke_top_to_bottom_with_shawl_short_vertflip_short_600ms.mp4	146.11305594500163	146.72136879761047	0.608312852608833				
62.74951171875	0.2	128511	54	7	0	0	0	54	120	stimuli\Videos_short_600ms_horflip\37.single_stab_with_nail_file_short_horflip_short_600ms.mp4	37.single_stab_with_nail_file_short_horflip_short_600ms.mp4	146.91303142971356	147.5213621702719	0.6083307405583582				
63.54931640625	0.2	130149	55	7	0	0	0	55	157	stimuli\Videos_short_600ms_horflip\70.(long)stroke_with_finger_all_over_the_hand_short_horflip_short_600ms.mp4	70.(long)stroke_with_finger_all_over_the_hand_short_horflip_short_600ms.mp4	147.71301453879732	148.32133442928807	0.6083198904907476				
64.349609375	0.2	131788	56	7	0	0	0	56	53	stimuli\Videos_short_600ms\58.single_slap_with_pencil_short_short_600ms.mp4	58.single_slap_with_pencil_short_short_600ms.mp4	148.5129994073518	149.1213157789016	0.6083163715497903				
65.1494140625	0.2	133426	57	7	0	0	0	57	136	stimuli\Videos_short_600ms_horflip\51.repeated_touch_with_hammer_short_horflip_short_600ms.mp4	51.repeated_touch_with_hammer_short_horflip_short_600ms.mp4	149.3129792907398	149.92130240692632	0.6083231161865115				
65.94921875	0.2	135064	58	7	0	0	0	58	304	stimuli\Videos_short_600ms_vertflip\40.repeated_push_with_finger_short_vertflip_short_600ms.mp4	40.repeated_push_with_finger_short_vertflip_short_600ms.mp4	150.11296357280435	150.7212825835595	0.6083190107551673				
66.74951171875	0.2	136703	59	7	0	0	0	59	211	stimuli\Videos_short_600ms_horvertflip\38.double_slap_with_pencil_short_horvertflip_short_600ms.mp4	38.double_slap_with_pencil_short_horvertflip_short_600ms.mp4	150.9129472683785	151.52126363992784	0.6083163715493356				
67.54931640625	0.2	138341	60	7	0	0	0	60	130	stimuli\Videos_short_600ms_horflip\46.scratching_top_to_bottom_with_finger_nails_short_horflip_short_600ms.mp4	46.scratching_top_to_bottom_with_finger_nails_short_horflip_short_600ms.mp4	151.71293213693252	152.32124704225726	0.6083149053247325				
68.34912109375	0.2	139979	61	7	0	0	0	61	195	stimuli\Videos_short_600ms_horvertflip\23.single_push_with_a_spoon_short_horvertflip_short_600ms.mp4	23.single_push_with_a_spoon_short_horvertflip_short_600ms.mp4	152.51292873528973	153.1212333770368	0.6083046417470541				
69.1494140625	0.2	141618	62	7	0	0	0	62	55	stimuli\Videos_short_600ms\6.single_touch_with_flat_hand_short_short_600ms.mp4	6.single_touch_with_flat_hand_short_short_600ms.mp4	153.31287577523017	153.92119683870078	0.608321063470612				
69.94921875	0.2	143256	63	7	0	0	0	63	168	stimuli\Videos_short_600ms_horflip\80.stroke_with_sharp_stick_all_over_the_hand_short_horflip_short_600ms.mp4	80.stroke_with_sharp_stick_all_over_the_hand_short_horflip_short_600ms.mp4	154.1128585910692	154.72117642884405	0.6083178377748482				
70.74951171875	0.2	144895	64	7	0	0	1	64	362	stimuli\Targets_short_600ms\chopstickwood-tap_short_short_600ms.mp4	chopstickwood-tap_short_short_600ms.mp4	154.9128194135278	155.52117625289702	0.6083568393692076				
71.54931640625	0.2	146533	65	7	0	0	0	65	278	stimuli\Videos_short_600ms_vertflip\17.repeated_touch_with_rolling_pin_short_vertflip_short_600ms.mp4	17.repeated_touch_with_rolling_pin_short_vertflip_short_600ms.mp4	155.712824515992	156.3211558430403	0.6083313270482904				
72.34912109375	0.2	148171	66	7	0	0	0	66	183	stimuli\Videos_short_600ms_horvertflip\12.repeated_touch_with_nail_file_short_horvertflip_short_600ms.mp4	12.repeated_touch_with_nail_file_short_horvertflip_short_600ms.mp4	156.51280762507577	157.12114745623103	0.6083398311552628				
73.1494140625	0.2	149810	67	7	0	0	0	67	311	stimuli\Videos_short_600ms_vertflip\47.(long)scratching_with_finger_nails_short_vertflip_short_600ms.mp4	47.(long)scratching_with_finger_nails_short_vertflip_short_600ms.mp4	157.31281272753995	157.92111003816035	0.6082973106204008				
73.94921875	0.2	151448	68	7	0	0	0	68	299	stimuli\Videos_short_600ms_vertflip\36.single_slap_with_full_hand_short_vertflip_short_600ms.mp4	36.single_slap_with_full_hand_short_vertflip_short_600ms.mp4	158.1127905582125	158.7211066365171	0.6083160783045969				
74.7490234375	0.2	153086	69	7	0	0	1	69	369	stimuli\Targets_short_600ms_horflip\finger-tap_short_horflip_short_600ms.mp4	finger-tap_short_horflip_short_600ms.mp4	158.91277044160097	159.5210727373874	0.6083022957864159				
75.54931640625	0.2	154725	70	7	0	0	0	70	352	stimuli\Videos_short_600ms_vertflip\84.single_touch_with_cotton_bud_short_vertflip_short_600ms.mp4	84.single_touch_with_cotton_bud_short_vertflip_short_600ms.mp4	159.71275618989057	160.32105555322596	0.6082993633353908				
76.34912109375	0.2	156363	71	7	0	0	1	71	372	stimuli\Targets_short_600ms_horvertflip\brush-stroke_short_vertflip_short_600ms.mp4	brush-stroke_short_vertflip_short_600ms.mp4	160.51273959221953	161.1210377825746	0.6082981903550717				
77.14892578125	0.2	158001	72	7	0	0	0	72	17	stimuli\Videos_short_600ms\25.single_touch_with_stanley_knife_short_short_600ms.mp4	25.single_touch_with_stanley_knife_short_short_600ms.mp4	161.31272035534266	161.92103789987277	0.6083175445301094				
77.94921875	0.2	159640	73	7	0	0	0	73	85	stimuli\Videos_short_600ms\87.single_stroke_top_to_bottom_with_plastic_brush_short_short_600ms.mp4	87.single_stroke_top_to_bottom_with_plastic_brush_short_short_600ms.mp4	162.1127046374072	162.72103508471992	0.60833044731271				
78.7490234375	0.2	161278	74	7	0	0	0	74	33	stimuli\Videos_short_600ms\4.repeated_tap_with_finger_slow_short_short_600ms.mp4	4.repeated_tap_with_finger_slow_short_short_600ms.mp4	162.91269067894154	163.5210196600292	0.6083289810876522				
79.548828125	0.2	162916	75	7	0	0	0	75	251	stimuli\Videos_short_600ms_horvertflip\74.fingers_walking_from_top_to_bottom_short_horvertflip_short_600ms.mp4	74.fingers_walking_from_top_to_bottom_short_horvertflip_short_600ms.mp4	163.71267056233	164.32099895692727	0.6083283945972653				
80.34912109375	0.2	164555	76	7	0	0	0	76	155	stimuli\Videos_short_600ms_horflip\69.stroke_with_soft_sock_short_horflip_short_600ms.mp4	69.stroke_with_soft_sock_short_horflip_short_600ms.mp4	164.5126542579037	165.120972095679	0.6083178377753029				
81.14892578125	0.2	166193	77	7	0	0	0	77	71	stimuli\Videos_short_600ms\74.fingers_walking_from_top_to_bottom_short_short_600ms.mp4	74.fingers_walking_from_top_to_bottom_short_short_600ms.mp4	165.31263941970337	165.9209525655574	0.6083131458540265				
81.94873046875	0.2	167831	78	7	0	0	0	78	260	stimuli\Videos_short_600ms_horvertflip\82.repeated_touch_with_cotton_bud_short_horvertflip_short_600ms.mp4	82.repeated_touch_with_cotton_bud_short_horvertflip_short_600ms.mp4	166.1126163706408	166.7209368476215	0.6083204769806798				
82.7490234375	0.2	169470	79	7	0	0	1	79	375	stimuli\Targets_short_600ms_horvertflip\finger-tap_short_vertflip_short_600ms.mp4	finger-tap_short_vertflip_short_600ms.mp4	166.91258657694152	167.52091966346052	0.6083330865189964				
83.548828125	0.2	171108	80	7	0	0	0	80	342	stimuli\Videos_short_600ms_vertflip\75.(long)stroke_with_fingers_all_over_the_hand_short_vertflip_short_600ms.mp4	75.(long)stroke_with_fingers_all_over_the_hand_short_vertflip_short_600ms.mp4	167.71260487543395	168.32090071982884	0.6082958443948883				
84.3486328125	0.2	172746	81	7	0	0	0	81	344	stimuli\Videos_short_600ms_vertflip\77.tapping_with_all_fingers_short_vertflip_short_600ms.mp4	77.tapping_with_all_fingers_short_vertflip_short_600ms.mp4	168.5125217111322	169.12088558838332	0.6083638772511222				
85.14892578125	0.2	174385	82	7	0	0	0	82	142	stimuli\Videos_short_600ms_horflip\57.single_touch_with_nail_file_short_horflip_short_600ms.mp4	57.single_touch_with_nail_file_short_horflip_short_600ms.mp4	169.31250394048084	169.9208437716361	0.6083398311552628				
85.94873046875	0.2	176023	83	7	0	0	0	83	94	stimuli\Videos_short_600ms_horflip\13.single_touch_with_pen_short_horflip_short_600ms.mp4	13.single_touch_with_pen_short_horflip_short_600ms.mp4	170.11251520109136	170.72084946059067	0.6083342594993155				
86.74853515625	0.2	177661	84	7	0	0	0	84	279	stimuli\Videos_short_600ms_vertflip\18.single_stroke_from_top_to_bottom_with_rolling_pin_short_vertflip_short_600ms.mp4	18.single_stroke_from_top_to_bottom_with_rolling_pin_short_vertflip_short_600ms.mp4	170.91250212236127	171.52083462238988	0.6083325000286095				
87.548828125	0.2	179300	85	7	0	0	0	85	250	stimuli\Videos_short_600ms_horvertflip\73.single_stroke_with_flat_hand_short_horvertflip_short_600ms.mp4	73.single_stroke_with_flat_hand_short_horvertflip_short_600ms.mp4	171.71257467119176	172.3208159720034	0.6082413008116418				
88.3486328125	0.2	180938	86	7	0	0	0	86	230	stimuli\Videos_short_600ms_horvertflip\55.touch_top_to_bottom_with_nail_file_short_horvertflip_short_600ms.mp4	55.touch_top_to_bottom_with_nail_file_short_horvertflip_short_600ms.mp4	172.51249180013474	173.1207606659832	0.6082688658484585				
89.1484375	0.2	182576	87	7	0	0	0	87	106	stimuli\Videos_short_600ms_horflip\24.single_stroke_top_to_bottom_with_a_spoon_short_horflip_short_600ms.mp4	24.single_stroke_top_to_bottom_with_a_spoon_short_horflip_short_600ms.mp4	173.31242007239052	173.92075697109522	0.6083368987046924				
89.94873046875	0.2	184215	88	7	0	0	0	88	238	stimuli\Videos_short_600ms_horvertflip\62.touch_top_to_bottom_with_scissors_short_horvertflip_short_600ms.mp4	62.touch_top_to_bottom_with_scissors_short_horvertflip_short_600ms.mp4	174.11244482227448	174.72073861395393	0.6082937916794435				
90.74853515625	0.2	185853	89	7	0	0	0	89	170	stimuli\Videos_short_600ms_horflip\82.repeated_touch_with_cotton_bud_short_horflip_short_600ms.mp4	82.repeated_touch_with_cotton_bud_short_horflip_short_600ms.mp4	174.91242529215288	175.52070618104926	0.6082808888963882				
91.548828125	0.2	187492	90	7	0	0	0	90	242	stimuli\Videos_short_600ms_horvertflip\66.stroke_top_to_bottom_with_sponge_short_horvertflip_short_600ms.mp4	66.stroke_top_to_bottom_with_sponge_short_horvertflip_short_600ms.mp4	175.71240869448184	176.32073738232475	0.6083286878429135				
92.3486328125	0.2	189130	91	7	0	0	0	91	89	stimuli\Videos_short_600ms\90.repeated_touch_with_sponge_short_short_600ms.mp4	90.repeated_touch_with_sponge_short_short_600ms.mp4	176.51239326979112	177.12070729538027	0.6083140255891522				
93.1484375	0.2	190768	92	7	0	0	0	92	0	stimuli\Videos_short_600ms\1.repeated_touch_with_finger_fast_short_short_600ms.mp4	1.repeated_touch_with_finger_fast_short_short_600ms.mp4	177.31237549913976	177.92070565320773	0.6083301540679713				
93.94873046875	0.2	192407	93	7	0	0	0	93	40	stimuli\Videos_short_600ms\46.scratching_top_to_bottom_with_finger_nails_short_short_600ms.mp4	46.scratching_top_to_bottom_with_finger_nails_short_short_600ms.mp4	178.11235714199847	178.72067673924403	0.6083195972455542				
94.74853515625	0.2	194045	94	7	0	0	0	94	327	stimuli\Videos_short_600ms_vertflip\61.single_hit_with_rolling_pin_short_vertflip_short_600ms.mp4	61.single_hit_with_rolling_pin_short_vertflip_short_600ms.mp4	178.91234318353327	179.52062319269407	0.6082800091608078				
95.54833984375	0.2	195683	95	7	0	0	0	95	302	stimuli\Videos_short_600ms_vertflip\39.single_stab_with_scissors_short_vertflip_short_600ms.mp4	39.single_stab_with_scissors_short_vertflip_short_600ms.mp4	179.71229520863972	180.320640024961	0.6083448163212779				
96.3486328125	0.2	197322	96	7	0	0	0	96	268	stimuli\Videos_short_600ms_horvertflip\9.single_touch_with_hammer_short_horvertflip_short_600ms.mp4	9.single_touch_with_hammer_short_horvertflip_short_600ms.mp4	180.51229004752625	181.1206275327213	0.6083374851950794				
97.1484375	0.2	198960	97	7	0	0	0	97	315	stimuli\Videos_short_600ms_vertflip\50.single_(long)hard_push_with_thumb_short_vertflip_short_600ms.mp4	50.single_(long)hard_push_with_thumb_short_vertflip_short_600ms.mp4	181.3122916310499	181.9206144539912	0.608322822941318				
97.9482421875	0.2	200598	98	7	0	0	0	98	101	stimuli\Videos_short_600ms_horflip\2.single_touch_with_finger_short_horflip_short_600ms.mp4	2.single_touch_with_finger_short_horflip_short_600ms.mp4	182.1122677022522	182.7205893522132	0.6083216499609989	9.0	9.0	2.549734217330297	1.0
133.00537109375	0.2	272395	99	7	1	0	0	0	59	stimuli\Videos_short_600ms\63.stroke_top_to_bottom_with_screwdriver_short_short_600ms.mp4	63.stroke_top_to_bottom_with_screwdriver_short_short_600ms.mp4	217.16982584468545	217.7781298999421	0.6083040552566672				
133.8056640625	0.2	274034	100	7	1	0	0	1	307	stimuli\Videos_short_600ms_vertflip\43.touch_top_to_bottom_with_sharp_wooden_stick_short_vertflip_short_600ms.mp4	43.touch_top_to_bottom_with_sharp_wooden_stick_short_vertflip_short_600ms.mp4	217.9698212700623	218.57814585247388	0.6083245824115693				
134.60546875	0.2	275672	101	7	1	0	0	2	350	stimuli\Videos_short_600ms_vertflip\82.repeated_touch_with_cotton_bud_short_vertflip_short_600ms.mp4	82.repeated_touch_with_cotton_bud_short_vertflip_short_600ms.mp4	218.7698190413994	219.3781286683129	0.608309626913524				
135.4052734375	0.2	277310	102	7	1	0	1	3	380	stimuli\Targets_short_600ms_vertflip\chopstickwood-tap_short_horvertflip_short_600ms.mp4	chopstickwood-tap_short_horvertflip_short_600ms.mp4	219.56974643392005	220.17810620574028	0.6083597718202327				
136.20556640625	0.2	278949	103	7	1	0	0	4	99	stimuli\Videos_short_600ms_horflip\18.single_stroke_from_top_to_bottom_with_rolling_pin_short_horflip_short_600ms.mp4	18.single_stroke_from_top_to_bottom_with_rolling_pin_short_horflip_short_600ms.mp4	220.36975153638423	220.9780708403846	0.6083193040003607				
137.00537109375	0.2	280587	104	7	1	0	0	5	234	stimuli\Videos_short_600ms_horvertflip\59.single_push_with_long_side_pencil_short_horvertflip_short_600ms.mp4	59.single_push_with_long_side_pencil_short_horvertflip_short_600ms.mp4	221.16974256308504	221.77807242390827	0.6083298608232326				
137.8056640625	0.2	282226	105	7	1	0	0	6	119	stimuli\Videos_short_600ms_horflip\36.single_slap_with_full_hand_short_horflip_short_600ms.mp4	36.single_slap_with_full_hand_short_horflip_short_600ms.mp4	221.96972860461983	222.57803559232752	0.6083069877076923				
138.60546875	0.2	283864	106	7	1	0	0	7	269	stimuli\Videos_short_600ms_horvertflip\90.repeated_touch_with_sponge_short_horvertflip_short_600ms.mp4	90.repeated_touch_with_sponge_short_horvertflip_short_600ms.mp4	222.76972109754615	223.3780148892251	0.6082937916789888				
139.4052734375	0.2	285502	107	7	1	0	0	8	319	stimuli\Videos_short_600ms_vertflip\54.repeated_touch_with_knife_short_vertflip_short_600ms.mp4	54.repeated_touch_with_knife_short_vertflip_short_600ms.mp4	223.56971652292304	224.17802409712067	0.6083075741976245				
140.20556640625	0.2	287141	108	7	1	0	0	9	39	stimuli\Videos_short_600ms\45.scratching_with_finger_nails_short_short_600ms.mp4	45.scratching_with_finger_nails_short_short_600ms.mp4	224.36968643597856	224.97796058023823	0.6082741442596671				
141.00537109375	0.2	288779	109	7	1	0	0	10	27	stimuli\Videos_short_600ms\34.repeated_punch_with_hand_short_short_600ms.mp4	34.repeated_punch_with_hand_short_short_600ms.mp4	225.16968244784584	225.77796890839815	0.6082864605523355				
141.80517578125	0.2	290417	110	7	1	0	0	11	67	stimuli\Videos_short_600ms\70.(long)stroke_with_finger_all_over_the_hand_short_short_600ms.mp4	70.(long)stroke_with_finger_all_over_the_hand_short_short_600ms.mp4	225.96965324063697	226.57795846887393	0.6083052282369863				
142.60546875	0.2	292056	111	7	1	0	0	12	42	stimuli\Videos_short_600ms\48.single_slap_with_hand_short_short_600ms.mp4	48.single_slap_with_hand_short_short_600ms.mp4	226.76963605647552	227.3779380590167	0.6083020025412225				
143.4052734375	0.2	293694	112	7	1	0	0	13	46	stimuli\Videos_short_600ms\51.repeated_touch_with_hammer_short_short_600ms.mp4	51.repeated_touch_with_hammer_short_short_600ms.mp4	227.56961623310872	228.17794550744156	0.6083292743328457				
144.205078125	0.2	295332	113	7	1	0	0	14	286	stimuli\Videos_short_600ms_vertflip\24.single_stroke_top_to_bottom_with_a_spoon_short_vertflip_short_600ms.mp4	24.single_stroke_top_to_bottom_with_a_spoon_short_vertflip_short_600ms.mp4	228.3696022746435	228.97792539083	0.6083231161865115				
145.00537109375	0.2	296971	114	7	1	0	0	15	324	stimuli\Videos_short_600ms_vertflip\59.single_push_with_long_side_pencil_short_vertflip_short_600ms.mp4	59.single_push_with_long_side_pencil_short_vertflip_short_600ms.mp4	229.16956339034732	229.7779026350122	0.6083392446648759				
145.80517578125	0.2	298609	115	7	1	0	0	16	78	stimuli\Videos_short_600ms\80.stroke_with_sharp_stick_all_over_the_hand_short_short_600ms.mp4	80.stroke_with_sharp_stick_all_over_the_hand_short_short_600ms.mp4	229.96956907930144	230.5778860373416	0.6083169580401773				
146.60498046875	0.2	300247	116	7	1	0	0	17	241	stimuli\Videos_short_600ms_horvertflip\65.stroke_top_to_bottom_with_stanley_knife_short_horvertflip_short_600ms.mp4	65.stroke_top_to_bottom_with_stanley_knife_short_horvertflip_short_600ms.mp4	230.76952931527012	231.37786738695513	0.6083380716850115				
147.4052734375	0.2	301886	117	7	1	0	0	18	337	stimuli\Videos_short_600ms_vertflip\70.(long)stroke_with_finger_all_over_the_hand_short_vertflip_short_600ms.mp4	70.(long)stroke_with_finger_all_over_the_hand_short_vertflip_short_600ms.mp4	231.5695303123034	232.1778528419995	0.6083225296961245				
148.205078125	0.2	303524	118	7	1	0	0	19	243	stimuli\Videos_short_600ms_horvertflip\67.single_touch_with_sponge_short_horvertflip_short_600ms.mp4	67.single_touch_with_sponge_short_horvertflip_short_600ms.mp4	232.3695134213872	232.9778330186327	0.6083195972455542				
149.0048828125	0.2	305162	119	7	1	0	0	20	108	stimuli\Videos_short_600ms_horflip\26.single_touch_with_a_blunt_syringe_short_horflip_short_600ms.mp4	26.single_touch_with_a_blunt_syringe_short_horflip_short_600ms.mp4	233.16948450742305	233.77781554122657	0.6083310338035517				
149.80517578125	0.2	306801	120	7	1	0	0	21	88	stimuli\Videos_short_600ms\9.single_touch_with_hammer_short_short_600ms.mp4	9.single_touch_with_hammer_short_short_600ms.mp4	233.96943682577464	234.5777980638204	0.6083612380457453				
150.60498046875	0.2	308439	121	7	1	0	0	22	233	stimuli\Videos_short_600ms_horvertflip\58.single_slap_with_pencil_short_horvertflip_short_600ms.mp4	58.single_slap_with_pencil_short_horvertflip_short_600ms.mp4	234.7694252132701	235.3777820526393	0.6083568393692076				
151.40478515625	0.2	310077	122	7	1	0	0	23	196	stimuli\Videos_short_600ms_horvertflip\24.single_stroke_top_to_bottom_with_a_spoon_short_horvertflip_short_600ms.mp4	24.single_stroke_top_to_bottom_with_a_spoon_short_horvertflip_short_600ms.mp4	235.56942210487205	236.1777622292725	0.6083401244004563				
152.205078125	0.2	311716	123	7	1	0	0	24	127	stimuli\Videos_short_600ms_horflip\43.touch_top_to_bottom_with_sharp_wooden_stick_short_horflip_short_600ms.mp4	43.touch_top_to_bottom_with_sharp_wooden_stick_short_horflip_short_600ms.mp4	236.36938820574187	236.97775677491427	0.6083685691723986				
153.0048828125	0.2	313354	124	7	1	0	0	25	50	stimuli\Videos_short_600ms\55.touch_top_to_bottom_with_nail_file_short_short_600ms.mp4	55.touch_top_to_bottom_with_nail_file_short_short_600ms.mp4	237.1693933082065	237.77770997300104	0.6083166647945291				
153.8046875	0.2	314992	125	7	1	0	0	26	187	stimuli\Videos_short_600ms_horvertflip\16.repeated_touch_with_plastic_brush_short_horvertflip_short_600ms.mp4	16.repeated_touch_with_plastic_brush_short_horvertflip_short_600ms.mp4	237.9693940119946	238.57766463731332	0.6082706253187098				
154.60498046875	0.2	316631	126	7	1	0	1	27	379	stimuli\Targets_short_600ms_vertflip\chopstick-silver-tap_short_horvertflip_short_600ms.mp4	chopstick-silver-tap_short_horvertflip_short_600ms.mp4	238.76937624134325	239.37764950586737	0.6082732645240867				
155.40478515625	0.2	318269	127	7	1	0	0	28	86	stimuli\Videos_short_600ms\88.repeated_stroke_with_plastic_brush_short_short_600ms.mp4	88.repeated_stroke_with_plastic_brush_short_short_600ms.mp4	239.5693558314861	240.1776320284612	0.6082761969751118				
156.20458984375	0.2	319907	128	7	1	0	0	29	82	stimuli\Videos_short_600ms\84.single_touch_with_cotton_bud_short_short_600ms.mp4	84.single_touch_with_cotton_bud_short_short_600ms.mp4	240.3693386473251	240.97761631052572	0.6082776632006244				
157.0048828125	0.2	321546	129	7	1	0	0	30	231	stimuli\Videos_short_600ms_horvertflip\56.repeated_touch_with_nail_file_short_horvertflip_short_600ms.mp4	56.repeated_touch_with_nail_file_short_horvertflip_short_600ms.mp4	241.16932351587957	241.7776313833224	0.608307867442818				
157.8046875	0.2	323184	130	7	1	0	1	31	360	stimuli\Targets_short_600ms\brush-stroke_short_short_600ms.mp4	brush-stroke_short_short_600ms.mp4	241.96930721145372	242.57761009373007	0.6083028822763481				
158.60498046875	0.2	324823	131	7	1	0	0	32	287	stimuli\Videos_short_600ms_vertflip\25.single_touch_with_stanley_knife_short_vertflip_short_600ms.mp4	25.single_touch_with_stanley_knife_short_vertflip_short_600ms.mp4	242.76928768133212	243.3776213543406	0.6083336730084739				
159.40478515625	0.2	326461	132	7	1	0	0	33	203	stimuli\Videos_short_600ms_horvertflip\30.finger_pulling_back_another_finger_short_horvertflip_short_600ms.mp4	30.finger_pulling_back_another_finger_short_horvertflip_short_600ms.mp4	243.56926991068076	244.17759126739656	0.6083213567158055				
160.20458984375	0.2	328099	133	7	1	0	0	34	9	stimuli\Videos_short_600ms\18.single_stroke_from_top_to_bottom_with_rolling_pin_short_short_600ms.mp4	18.single_stroke_from_top_to_bottom_with_rolling_pin_short_short_600ms.mp4	244.3692524332746	244.97757584270585	0.6083234094312502				
161.0048828125	0.2	329738	134	7	1	0	0	35	292	stimuli\Videos_short_600ms_vertflip\3.single_push_with_finger_short_vertflip_short_600ms.mp4	3.single_push_with_finger_short_vertflip_short_600ms.mp4	245.16923671533868	245.7775536733784	0.6083169580397225				
161.8046875	0.2	331376	135	7	1	0	0	36	107	stimuli\Videos_short_600ms_horflip\25.single_touch_with_stanley_knife_short_horflip_short_600ms.mp4	25.single_touch_with_stanley_knife_short_horflip_short_600ms.mp4	245.96921454601124	246.57753736895256	0.608322822941318				
162.6044921875	0.2	333014	136	7	1	0	0	37	102	stimuli\Videos_short_600ms_horflip\20.single_touch_with_screwdriver_short_horflip_short_600ms.mp4	20.single_touch_with_screwdriver_short_horflip_short_600ms.mp4	246.76920586595725	247.37751871856608	0.608312852608833				
163.40478515625	0.2	334653	137	7	1	0	0	38	306	stimuli\Videos_short_600ms_vertflip\42.single_slap_with_plastic_whisk_short_vertflip_short_600ms.mp4	42.single_slap_with_plastic_whisk_short_vertflip_short_600ms.mp4	247.56919132100165	248.17750094791472	0.6083096269130692				
164.20458984375	0.2	336291	138	7	1	0	0	39	322	stimuli\Videos_short_600ms_vertflip\57.single_touch_with_nail_file_short_vertflip_short_600ms.mp4	57.single_touch_with_nail_file_short_vertflip_short_600ms.mp4	248.36912780411967	248.9774852299793	0.6083574258595945				
165.00439453125	0.2	337929	139	7	1	0	0	40	265	stimuli\Videos_short_600ms_horvertflip\87.single_stroke_top_to_bottom_with_plastic_brush_short_horvertflip_short_600ms.mp4	87.single_stroke_top_to_bottom_with_plastic_brush_short_horvertflip_short_600ms.mp4	249.1691035820768	249.77746804581784	0.6083644637410544				
165.8046875	0.2	339568	140	7	1	0	0	41	191	stimuli\Videos_short_600ms_horvertflip\2.single_touch_with_finger_short_horvertflip_short_600ms.mp4	2.single_touch_with_finger_short_horvertflip_short_600ms.mp4	249.96910868454097	250.57745056841168	0.6083418838707075				
166.6044921875	0.2	341206	141	7	1	0	0	42	209	stimuli\Videos_short_600ms_horvertflip\36.single_slap_with_full_hand_short_horvertflip_short_600ms.mp4	36.single_slap_with_full_hand_short_horvertflip_short_600ms.mp4	250.7691530818447	251.3774322112704	0.6082791294256822				
167.404296875	0.2	342844	142	7	1	0	0	43	174	stimuli\Videos_short_600ms_horflip\86.touch_top_to_bottom_with_hair_brush_short_horflip_short_600ms.mp4	86.touch_top_to_bottom_with_hair_brush_short_horflip_short_600ms.mp4	251.56905378906367	252.17741532035416	0.608361531290484				
168.20458984375	0.2	344483	143	7	1	0	1	44	376	stimuli\Targets_short_600ms_horvertflip\hand-pinch_short_vertflip_short_600ms.mp4	hand-pinch_short_vertflip_short_600ms.mp4	252.3690568388124	252.97739549698736	0.6083386581749437				
169.00439453125	0.2	346121	144	7	1	0	0	45	6	stimuli\Videos_short_600ms\15.single_stroke_top_to_bottom_with_a_plastic_whisk_short_short_600ms.mp4	15.single_stroke_top_to_bottom_with_a_plastic_whisk_short_short_600ms.mp4	253.1690593020712	253.7773944413052	0.6083351392339864				
169.80419921875	0.2	347759	145	7	1	0	0	46	192	stimuli\Videos_short_600ms_horvertflip\20.single_touch_with_screwdriver_short_horvertflip_short_600ms.mp4	20.single_touch_with_screwdriver_short_horvertflip_short_600ms.mp4	253.96904446387043	254.5773385487946	0.6082940849241822				
170.6044921875	0.2	349398	146	7	1	0	0	47	256	stimuli\Videos_short_600ms_horvertflip\79.long_with_soft_brush_all_over_the_hand_short_horvertflip_short_600ms.mp4	79.long_with_soft_brush_all_over_the_hand_short_horvertflip_short_600ms.mp4	254.7690237607685	255.3772999577436	0.6082761969751118				
171.404296875	0.2	351036	147	7	1	0	0	48	68	stimuli\Videos_short_600ms\71.single_stroke_with_finger_top_to_bottom_short_short_600ms.mp4	71.single_stroke_with_finger_top_to_bottom_short_short_600ms.mp4	255.5690042306469	256.1773038872275	0.6082996565805843				
172.2041015625	0.2	352674	148	7	1	0	0	49	249	stimuli\Videos_short_600ms_horvertflip\72.(short)stroke_with_finger_all_over_the_hand_short_horvertflip_short_600ms.mp4	72.(short)stroke_with_finger_all_over_the_hand_short_horvertflip_short_600ms.mp4	256.36898587350515	256.9773128018778	0.6083269283726622				
173.00439453125	0.2	354313	149	7	1	0	0	50	313	stimuli\Videos_short_600ms_vertflip\49.repeated_slap_with_hand_short_vertflip_short_600ms.mp4	49.repeated_slap_with_hand_short_vertflip_short_600ms.mp4	257.16898276510756	257.77727333109124	0.6082905659836797				
173.80419921875	0.2	355951	150	7	1	0	0	51	323	stimuli\Videos_short_600ms_vertflip\58.single_slap_with_pencil_short_vertflip_short_600ms.mp4	58.single_slap_with_pencil_short_vertflip_short_600ms.mp4	257.96895883630987	258.5772869376624	0.6083281013525266				
174.60400390625	0.2	357589	151	7	1	0	0	52	74	stimuli\Videos_short_600ms\77.tapping_with_all_fingers_short_short_600ms.mp4	77.tapping_with_all_fingers_short_short_600ms.mp4	258.76893871969787	259.377256264228	0.6083175445301094				
175.404296875	0.2	359228	152	7	1	0	0	53	38	stimuli\Videos_short_600ms\44.pushing_top_to_bottom_with_finger_short_short_600ms.mp4	44.pushing_top_to_bottom_with_finger_short_short_600ms.mp4	259.5689203625566	260.17724083953726	0.6083204769806798				
176.2041015625	0.2	360866	153	7	1	0	0	54	47	stimuli\Videos_short_600ms\52.touch_top_to_bottom_with_hammer_short_short_600ms.mp4	52.touch_top_to_bottom_with_hammer_short_short_600ms.mp4	260.3689069905813	260.97722658782686	0.6083195972455542				
177.00439453125	0.2	362505	154	7	1	0	0	55	66	stimuli\Videos_short_600ms\7.repeated_touch_with_hairbrush_short_short_600ms.mp4	7.repeated_touch_with_hairbrush_short_short_600ms.mp4	261.16888511449906	261.7772038320095	0.6083187175104285				
177.80419921875	0.2	364143	155	7	1	0	1	56	383	stimuli\Targets_short_600ms_vertflip\hand-stroke_short_horvertflip_short_600ms.mp4	hand-stroke_short_horvertflip_short_600ms.mp4	261.968872035769	262.5771863546033	0.6083143188343456				
178.60400390625	0.2	365781	156	7	1	0	0	57	275	stimuli\Videos_short_600ms_vertflip\14.repeated_touch_with_pencil_short_vertflip_short_600ms.mp4	14.repeated_touch_with_pencil_short_vertflip_short_600ms.mp4	262.76885719756865	263.3771703434222	0.6083131458535718				
179.404296875	0.2	367420	157	7	1	0	0	58	156	stimuli\Videos_short_600ms_horflip\7.repeated_touch_with_hairbrush_short_horflip_short_600ms.mp4	7.repeated_touch_with_hairbrush_short_horflip_short_600ms.mp4	263.56878986850006	264.17715286601606	0.6083629975159965				
180.2041015625	0.2	369058	158	7	1	0	0	59	124	stimuli\Videos_short_600ms_horflip\40.repeated_push_with_finger_short_horflip_short_600ms.mp4	40.repeated_push_with_finger_short_horflip_short_600ms.mp4	264.3687712181136	264.97713362913964	0.6083624110260644				
181.00390625	0.2	370696	159	7	1	0	0	60	149	stimuli\Videos_short_600ms_horflip\63.stroke_top_to_bottom_with_screwdriver_short_horflip_short_600ms.mp4	63.stroke_top_to_bottom_with_screwdriver_short_horflip_short_600ms.mp4	265.1687555001781	265.7771170314686	0.608361531290484				
181.80419921875	0.2	372335	160	7	1	0	0	61	295	stimuli\Videos_short_600ms_vertflip\32.single_(long)pinch_with_fingers_short_vertflip_short_600ms.mp4	32.single_(long)pinch_with_fingers_short_vertflip_short_600ms.mp4	265.96875209853533	266.57709955406244	0.6083474555271096				
182.60400390625	0.2	373973	161	7	1	0	0	62	227	stimuli\Videos_short_600ms_horvertflip\52.touch_top_to_bottom_with_hammer_short_horvertflip_short_600ms.mp4	52.touch_top_to_bottom_with_hammer_short_horvertflip_short_600ms.mp4	266.76874811040216	267.37708618208717	0.6083380716850115				
183.40380859375	0.2	375611	162	7	1	0	1	63	373	stimuli\Targets_short_600ms_horvertflip\chopstick-silver-tap_short_vertflip_short_600ms.mp4	chopstick-silver-tap_short_vertflip_short_600ms.mp4	267.5687303397508	268.1770628397794	0.6083325000286095				
184.2041015625	0.2	377250	163	7	1	0	0	64	148	stimuli\Videos_short_600ms_horflip\62.touch_top_to_bottom_with_scissors_short_horflip_short_600ms.mp4	62.touch_top_to_bottom_with_scissors_short_horflip_short_600ms.mp4	268.3687163812856	268.9770591448919	0.6083427636062879				
185.00390625	0.2	378888	164	7	1	0	0	65	5	stimuli\Videos_short_600ms\14.repeated_touch_with_pencil_short_short_600ms.mp4	14.repeated_touch_with_pencil_short_short_600ms.mp4	269.1687176715641	269.77698565767696	0.6082679861128781				
185.8037109375	0.2	380526	165	7	1	0	0	66	114	stimuli\Videos_short_600ms_horflip\31.hand_grabbing_wrist_short_horflip_short_600ms.mp4	31.hand_grabbing_wrist_short_horflip_short_600ms.mp4	269.96869550223664	270.5769892939161	0.6082937916794435				
186.60400390625	0.2	382165	166	7	1	0	0	67	207	stimuli\Videos_short_600ms_horvertflip\34.repeated_punch_with_hand_short_horvertflip_short_600ms.mp4	34.repeated_punch_with_hand_short_horvertflip_short_600ms.mp4	270.7686800775459	271.37697152326473	0.6082914457188053				
187.40380859375	0.2	383803	167	7	1	0	0	68	162	stimuli\Videos_short_600ms_horflip\75.(long)stroke_with_fingers_all_over_the_hand_short_horflip_short_600ms.mp4	75.(long)stroke_with_fingers_all_over_the_hand_short_horflip_short_600ms.mp4	271.5686605474243	272.1769857163258	0.6083251689015015				
188.20361328125	0.2	385441	168	7	1	0	0	69	172	stimuli\Videos_short_600ms_horflip\84.single_touch_with_cotton_bud_short_horflip_short_600ms.mp4	84.single_touch_with_cotton_bud_short_horflip_short_600ms.mp4	272.36863720511656	272.9769412603732	0.6083040552566672				
189.00390625	0.2	387080	169	7	1	0	0	70	62	stimuli\Videos_short_600ms\66.stroke_top_to_bottom_with_sponge_short_short_600ms.mp4	66.stroke_top_to_bottom_with_sponge_short_short_600ms.mp4	273.1686197277104	273.77695574667996	0.6083360189695668				
189.8037109375	0.2	388718	170	7	1	0	0	71	8	stimuli\Videos_short_600ms\17.repeated_touch_with_rolling_pin_short_short_600ms.mp4	17.repeated_touch_with_rolling_pin_short_short_600ms.mp4	273.96860371652974	274.5769259529807	0.6083222364509311				
190.603515625	0.2	390356	171	7	1	0	0	72	239	stimuli\Videos_short_600ms_horvertflip\63.stroke_top_to_bottom_with_screwdriver_short_horvertflip_short_600ms.mp4	63.stroke_top_to_bottom_with_screwdriver_short_horvertflip_short_600ms.mp4	274.7685865323683	275.37690964855483	0.6083231161865115				
191.40380859375	0.2	391995	172	7	1	0	0	73	359	stimuli\Videos_short_600ms_vertflip\90.repeated_touch_with_sponge_short_vertflip_short_600ms.mp4	90.repeated_touch_with_sponge_short_vertflip_short_600ms.mp4	275.5685711076776	276.1768514100836	0.6082803024060013				
192.20361328125	0.2	393633	173	7	1	0	0	74	332	stimuli\Videos_short_600ms_vertflip\66.stroke_top_to_bottom_with_sponge_short_vertflip_short_600ms.mp4	66.stroke_top_to_bottom_with_sponge_short_vertflip_short_600ms.mp4	276.3685553897417	276.9768746937425	0.6083193040008155				
193.00341796875	0.2	395271	174	7	1	0	0	75	223	stimuli\Videos_short_600ms_horvertflip\49.repeated_slap_with_hand_short_horvertflip_short_600ms.mp4	49.repeated_slap_with_hand_short_horvertflip_short_600ms.mp4	277.1685434839919	277.77686102852203	0.6083175445301094				
193.8037109375	0.2	396910	175	7	1	0	0	76	254	stimuli\Videos_short_600ms_horvertflip\77.tapping_with_all_fingers_short_horvertflip_short_600ms.mp4	77.tapping_with_all_fingers_short_horvertflip_short_600ms.mp4	277.9685131038027	278.5768376862143	0.6083245824115693				
194.603515625	0.2	398548	176	7	1	0	0	77	345	stimuli\Videos_short_600ms_vertflip\78.single_stroke_top_to_bottom_with_soft_brush_short_vertflip_short_600ms.mp4	78.single_stroke_top_to_bottom_with_soft_brush_short_vertflip_short_600ms.mp4	278.76846395592884	279.3768207952985	0.6083568393696623				
195.4033203125	0.2	400186	177	7	1	0	0	78	177	stimuli\Videos_short_600ms_horflip\89.single_touch_with_plastic_brush_short_horflip_short_600ms.mp4	89.single_touch_with_plastic_brush_short_horflip_short_600ms.mp4	279.56846084753124	280.17680243815676	0.6083415906255141				
196.20361328125	0.2	401825	178	7	1	0	0	79	154	stimuli\Videos_short_600ms_horflip\68.stroke_top_to_bottom_with_shawl_short_horflip_short_600ms.mp4	68.stroke_top_to_bottom_with_shawl_short_horflip_short_600ms.mp4	280.36844483635014	280.9767858404862	0.6083410041360366				
197.00341796875	0.2	403463	179	7	1	0	0	80	11	stimuli\Videos_short_600ms\2.single_touch_with_finger_short_short_600ms.mp4	2.single_touch_with_finger_short_short_600ms.mp4	281.168427358944	281.7767666036093	0.6083392446653306				
197.8037109375	0.2	405102	180	7	1	0	0	81	247	stimuli\Videos_short_600ms_horvertflip\70.(long)stroke_with_finger_all_over_the_hand_short_horvertflip_short_600ms.mp4	70.(long)stroke_with_finger_all_over_the_hand_short_horvertflip_short_600ms.mp4	281.96841281398883	282.5767511789186	0.6083383649297502				
198.603515625	0.2	406740	181	7	1	0	0	82	91	stimuli\Videos_short_600ms_horflip\10.single_touch_with_knife_short_horflip_short_600ms.mp4	10.single_touch_with_knife_short_horflip_short_600ms.mp4	282.7683970960529	283.3767111216421	0.6083140255891522				
199.4033203125	0.2	408378	182	7	1	0	0	83	134	stimuli\Videos_short_600ms_horflip\5.repeated_tap_with_finger_moving_from_top_to_bottom_short_horflip_short_600ms.mp4	5.repeated_tap_with_finger_moving_from_top_to_bottom_short_horflip_short_600ms.mp4	283.5683810848718	284.17672648768394	0.6083454028121196				
200.20361328125	0.2	410017	183	7	1	0	0	84	281	stimuli\Videos_short_600ms_vertflip\2.single_touch_with_finger_short_vertflip_short_600ms.mp4	2.single_touch_with_finger_short_vertflip_short_600ms.mp4	284.3683835481306	284.9766738208691	0.6082902727384862				
201.00341796875	0.2	411655	184	7	1	0	0	85	194	stimuli\Videos_short_600ms_horvertflip\22.single_touch_with_metal_chopstick_short_horvertflip_short_600ms.mp4	22.single_touch_with_metal_chopstick_short_horvertflip_short_600ms.mp4	285.1683581531074	285.7766627948545	0.6083046417470541				
201.80322265625	0.2	413293	185	7	1	0	0	86	61	stimuli\Videos_short_600ms\65.stroke_top_to_bottom_with_stanley_knife_short_short_600ms.mp4	65.stroke_top_to_bottom_with_stanley_knife_short_short_600ms.mp4	285.96834214192677	286.5766183389019	0.6082761969751118				
202.603515625	0.2	414932	186	7	1	0	0	87	31	stimuli\Videos_short_600ms\38.double_slap_with_pencil_short_short_600ms.mp4	38.double_slap_with_pencil_short_short_600ms.mp4	286.76832261180516	287.3766389833545	0.6083163715493356				
203.4033203125	0.2	416570	187	7	1	0	0	88	65	stimuli\Videos_short_600ms\69.stroke_with_soft_sock_short_short_600ms.mp4	69.stroke_with_soft_sock_short_short_600ms.mp4	287.56830572088893	288.1766349952218	0.6083292743328457				
204.203125	0.2	418208	188	7	1	0	0	89	301	stimuli\Videos_short_600ms_vertflip\38.double_slap_with_pencil_short_vertflip_short_600ms.mp4	38.double_slap_with_pencil_short_vertflip_short_600ms.mp4	288.368290002953	288.97662514218746	0.6083351392344412				
205.00341796875	0.2	419847	189	7	1	0	0	90	87	stimuli\Videos_short_600ms\89.single_touch_with_plastic_brush_short_short_600ms.mp4	89.single_touch_with_plastic_brush_short_short_600ms.mp4	289.1682816161442	289.77659446875305	0.608312852608833				
205.80322265625	0.2	421485	190	7	1	0	0	91	93	stimuli\Videos_short_600ms_horflip\12.repeated_touch_with_nail_file_short_horflip_short_600ms.mp4	12.repeated_touch_with_nail_file_short_horflip_short_600ms.mp4	289.96825739410133	290.5765772845921	0.6083198904907476				
206.60302734375	0.2	423123	191	7	1	0	0	92	208	stimuli\Videos_short_600ms_horvertflip\35.single_punch_with_hand_short_horvertflip_short_600ms.mp4	35.single_punch_with_hand_short_horvertflip_short_600ms.mp4	290.7682378639797	291.3765592206955	0.6083213567158055				
207.4033203125	0.2	424762	192	7	1	0	0	93	305	stimuli\Videos_short_600ms_vertflip\41.injection_with_blunt_syringe_short_vertflip_short_600ms.mp4	41.injection_with_blunt_syringe_short_vertflip_short_600ms.mp4	291.5682277177002	292.17654086355424	0.6083131458540265				
208.203125	0.2	426400	193	7	1	0	0	94	218	stimuli\Videos_short_600ms_horvertflip\44.pushing_top_to_bottom_with_finger_short_horvertflip_short_600ms.mp4	44.pushing_top_to_bottom_with_finger_short_horvertflip_short_600ms.mp4	292.3682037889025	292.9765227996577	0.6083190107551673				
209.0029296875	0.2	428038	194	7	1	0	0	95	346	stimuli\Videos_short_600ms_vertflip\79.long_with_soft_brush_all_over_the_hand_short_vertflip_short_600ms.mp4	79.long_with_soft_brush_all_over_the_hand_short_vertflip_short_600ms.mp4	293.168193642623	293.77650766821216	0.6083140255891522	6.0	6.0	2.4286064085190446	1.0
243.38525390625	0.2	498453	195	7	2	0	0	0	51	stimuli\Videos_short_600ms\56.repeated_touch_with_nail_file_short_short_600ms.mp4	56.repeated_touch_with_nail_file_short_short_600ms.mp4	327.55074122090264	328.1590875034494	0.6083462825467905				
244.18505859375	0.2	500091	196	7	2	0	0	1	159	stimuli\Videos_short_600ms_horflip\72.(short)stroke_with_finger_all_over_the_hand_short_horflip_short_600ms.mp4	72.(short)stroke_with_finger_all_over_the_hand_short_horflip_short_600ms.mp4	328.3507495490626	328.95906885306294	0.6083193040003607				
244.9853515625	0.2	501730	197	7	2	0	0	2	22	stimuli\Videos_short_600ms\3.single_push_with_finger_short_short_600ms.mp4	3.single_push_with_finger_short_short_600ms.mp4	329.1507391095379	329.7590513756568	0.6083122661189009				
245.78515625	0.2	503368	198	7	2	0	1	3	368	stimuli\Targets_short_600ms_horflip\chopstickwood-tap_short_horflip_short_600ms.mp4	chopstickwood-tap_short_horflip_short_600ms.mp4	329.95067207371494	330.559036537456	0.6083644637410544				
246.58544921875	0.2	505007	199	7	2	0	0	4	109	stimuli\Videos_short_600ms_horflip\27.single_push_with_a_plastic_whisk_short_horflip_short_600ms.mp4	27.single_push_with_a_plastic_whisk_short_horflip_short_600ms.mp4	330.75067834915944	331.3590181803147	0.6083398311552628				
247.38525390625	0.2	506645	200	7	2	0	0	5	300	stimuli\Videos_short_600ms_vertflip\37.single_stab_with_nail_file_short_vertflip_short_600ms.mp4	37.single_stab_with_nail_file_short_vertflip_short_600ms.mp4	331.5506731880464	332.15899806370317	0.6083248756567627				
248.18505859375	0.2	508283	201	7	2	0	0	6	248	stimuli\Videos_short_600ms_horvertflip\71.single_stroke_with_finger_top_to_bottom_short_horvertflip_short_600ms.mp4	71.single_stroke_with_finger_top_to_bottom_short_horvertflip_short_600ms.mp4	332.3506416348764	332.95898234576725	0.6083407108908432				
248.9853515625	0.2	509922	202	7	2	0	0	7	284	stimuli\Videos_short_600ms_vertflip\22.single_touch_with_metal_chopstick_short_vertflip_short_600ms.mp4	22.single_touch_with_metal_chopstick_short_vertflip_short_600ms.mp4	333.1506326615777	333.7589642818707	0.6083316202930291				
249.78515625	0.2	511560	203	7	2	0	0	8	76	stimuli\Videos_short_600ms\79.long_with_soft_brush_all_over_the_hand_short_short_600ms.mp4	79.long_with_soft_brush_all_over_the_hand_short_short_600ms.mp4	333.9506125449657	334.55893683413206	0.6083242891663758				
250.5849609375	0.2	513198	204	7	2	0	0	9	267	stimuli\Videos_short_600ms_horvertflip\89.single_touch_with_plastic_brush_short_horvertflip_short_600ms.mp4	89.single_touch_with_plastic_brush_short_horvertflip_short_600ms.mp4	334.7506197001453	335.3589058674529	0.6082861673075968				
251.38525390625	0.2	514837	205	7	2	0	0	10	349	stimuli\Videos_short_600ms_vertflip\81.single_stroke_top_to_bottom_with_cotton_pad_short_vertflip_short_600ms.mp4	81.single_stroke_top_to_bottom_with_cotton_pad_short_vertflip_short_600ms.mp4	335.5505943051221	336.15888809680155	0.6082937916794435				
252.18505859375	0.2	516475	206	7	2	0	0	11	355	stimuli\Videos_short_600ms_vertflip\87.single_stroke_top_to_bottom_with_plastic_brush_short_vertflip_short_600ms.mp4	87.single_stroke_top_to_bottom_with_plastic_brush_short_vertflip_short_600ms.mp4	336.3505856250681	336.9588497989953	0.6082641739271821				
252.98486328125	0.2	518113	207	7	2	0	0	12	179	stimuli\Videos_short_600ms_horflip\90.repeated_touch_with_sponge_short_horflip_short_600ms.mp4	90.repeated_touch_with_sponge_short_horflip_short_600ms.mp4	337.15055817732946	337.7588587136456	0.6083005363161647				
253.78515625	0.2	519752	208	7	2	0	1	13	367	stimuli\Targets_short_600ms_horflip\chopstick-silver-tap_short_horflip_short_600ms.mp4	chopstick-silver-tap_short_horflip_short_600ms.mp4	337.95054011343336	338.55885003359117	0.6083099201578079				
254.5849609375	0.2	521390	209	7	2	0	0	14	3	stimuli\Videos_short_600ms\12.repeated_touch_with_nail_file_short_short_600ms.mp4	12.repeated_touch_with_nail_file_short_short_600ms.mp4	338.75052322251713	339.3588466319484	0.6083234094312502				
255.384765625	0.2	523028	210	7	2	0	0	15	10	stimuli\Videos_short_600ms\19.single_touch_with_rolling_pin_short_short_600ms.mp4	19.single_touch_with_rolling_pin_short_short_600ms.mp4	339.55050457213065	340.1588297410326	0.6083251689019562				
256.18505859375	0.2	524667	211	7	2	0	0	16	201	stimuli\Videos_short_600ms_horvertflip\29.single_pinch_with_tweezers_short_horvertflip_short_600ms.mp4	29.single_pinch_with_tweezers_short_horvertflip_short_600ms.mp4	340.3504873879697	340.95880727846	0.6083198904902929				
256.98486328125	0.2	526305	212	7	2	0	0	17	12	stimuli\Videos_short_600ms\20.single_touch_with_screwdriver_short_short_600ms.mp4	20.single_touch_with_screwdriver_short_short_600ms.mp4	341.15047049705345	341.7587895078086	0.6083190107551673				
257.78466796875	0.2	527943	213	7	2	0	0	18	60	stimuli\Videos_short_600ms\64.repeated_touch_with_screwdriver_short_short_600ms.mp4	64.repeated_touch_with_screwdriver_short_short_600ms.mp4	341.9504544858728	342.55877291013803	0.6083184242652351				
258.5849609375	0.2	529582	214	7	2	0	0	19	258	stimuli\Videos_short_600ms_horvertflip\80.stroke_with_sharp_stick_all_over_the_hand_short_horvertflip_short_600ms.mp4	80.stroke_with_sharp_stick_all_over_the_hand_short_horvertflip_short_600ms.mp4	342.7504373017114	343.35875250028084	0.6083151985694712				
259.384765625	0.2	531220	215	7	2	0	0	20	274	stimuli\Videos_short_600ms_vertflip\13.single_touch_with_pen_short_vertflip_short_600ms.mp4	13.single_touch_with_pen_short_vertflip_short_600ms.mp4	343.55040692152215	344.15873355664917	0.608326635127014				
260.1845703125	0.2	532858	216	7	2	0	0	21	158	stimuli\Videos_short_600ms_horflip\71.single_stroke_with_finger_top_to_bottom_short_horflip_short_600ms.mp4	71.single_stroke_with_finger_top_to_bottom_short_horflip_short_600ms.mp4	344.3504519053158	344.95867825062896	0.6082263453131418				
260.98486328125	0.2	534497	217	7	2	0	0	22	228	stimuli\Videos_short_600ms_horvertflip\53.touch_top_to_bottom_with_knife_short_horvertflip_short_600ms.mp4	53.touch_top_to_bottom_with_knife_short_horvertflip_short_600ms.mp4	345.15039777227594	345.7587012410427	0.608303468766735				
261.78466796875	0.2	536135	218	7	2	0	0	23	95	stimuli\Videos_short_600ms_horflip\14.repeated_touch_with_pencil_short_horflip_short_600ms.mp4	14.repeated_touch_with_pencil_short_horflip_short_600ms.mp4	345.9503292702275	346.55868464337163	0.6083553731441498				
262.58447265625	0.2	537773	219	7	2	0	0	24	35	stimuli\Videos_short_600ms\41.injection_with_blunt_syringe_short_short_600ms.mp4	41.injection_with_blunt_syringe_short_short_600ms.mp4	346.7503264550751	347.35866599298515	0.6083395379100693				
263.384765625	0.2	539412	220	7	2	0	0	25	23	stimuli\Videos_short_600ms\30.finger_pulling_back_another_finger_short_short_600ms.mp4	30.finger_pulling_back_another_finger_short_short_600ms.mp4	347.55032862508824	348.1586479290886	0.6083193040003607				
264.1845703125	0.2	541050	221	7	2	0	0	26	198	stimuli\Videos_short_600ms_horvertflip\26.single_touch_with_a_blunt_syringe_short_horvertflip_short_600ms.mp4	26.single_touch_with_a_blunt_syringe_short_horvertflip_short_600ms.mp4	348.3502920867527	348.95862751923187	0.6083354324791799				
264.984375	0.2	542688	222	7	2	0	1	27	370	stimuli\Targets_short_600ms_horflip\hand-pinch_short_horflip_short_600ms.mp4	hand-pinch_short_horflip_short_600ms.mp4	349.15029601623655	349.7586035904342	0.6083075741976245				
265.78466796875	0.2	544327	223	7	2	0	0	28	121	stimuli\Videos_short_600ms_horflip\38.double_slap_with_pencil_short_horflip_short_600ms.mp4	38.double_slap_with_pencil_short_horflip_short_600ms.mp4	349.9507931839289	350.558594617135	0.6078014332060775				
266.58447265625	0.2	545965	224	7	2	0	0	29	144	stimuli\Videos_short_600ms_horflip\59.single_push_with_long_side_pencil_short_horflip_short_600ms.mp4	59.single_push_with_long_side_pencil_short_horflip_short_600ms.mp4	350.7502587154636	351.3585539733681	0.6082952579045013				
267.384765625	0.2	547604	225	7	2	0	0	30	49	stimuli\Videos_short_600ms\54.repeated_touch_with_knife_short_short_600ms.mp4	54.repeated_touch_with_knife_short_short_600ms.mp4	351.5502591260065	352.1585367892071	0.6082776632006244				
268.1845703125	0.2	549242	226	7	2	0	0	31	270	stimuli\Videos_short_600ms_vertflip\1.repeated_touch_with_finger_fast_short_vertflip_short_600ms.mp4	1.repeated_touch_with_finger_fast_short_vertflip_short_600ms.mp4	352.35022229442575	352.95853045511376	0.6083081606880114				
268.984375	0.2	550880	227	7	2	0	0	32	139	stimuli\Videos_short_600ms_horflip\54.repeated_touch_with_knife_short_horflip_short_600ms.mp4	54.repeated_touch_with_knife_short_horflip_short_600ms.mp4	353.15020686973503	353.75850769929593	0.6083008295609034				
269.78466796875	0.2	552519	228	7	2	0	0	33	296	stimuli\Videos_short_600ms_vertflip\33.scratch_top_to_bottom_with_scissors_short_vertflip_short_600ms.mp4	33.scratch_top_to_bottom_with_scissors_short_vertflip_short_600ms.mp4	353.9501890990837	354.55851544096595	0.6083263418822753				
270.58447265625	0.2	554157	229	7	2	0	0	34	276	stimuli\Videos_short_600ms_vertflip\15.single_stroke_top_to_bottom_with_a_plastic_whisk_short_vertflip_short_600ms.mp4	15.single_stroke_top_to_bottom_with_a_plastic_whisk_short_vertflip_short_600ms.mp4	354.7501716216775	355.35849415137363	0.6083225296961245				
271.38427734375	0.2	555795	230	7	2	0	0	35	212	stimuli\Videos_short_600ms_horvertflip\39.single_stab_with_scissors_short_horvertflip_short_600ms.mp4	39.single_stab_with_scissors_short_horvertflip_short_600ms.mp4	355.5501550240065	356.1584728617818	0.6083178377753029				
272.1845703125	0.2	557434	231	7	2	0	0	36	244	stimuli\Videos_short_600ms_horvertflip\68.stroke_top_to_bottom_with_shawl_short_horvertflip_short_600ms.mp4	68.stroke_top_to_bottom_with_shawl_short_horvertflip_short_600ms.mp4	356.35014018580614	356.95845245192504	0.6083122661189009				
272.984375	0.2	559072	232	7	2	0	0	37	26	stimuli\Videos_short_600ms\33.scratch_top_to_bottom_with_scissors_short_short_600ms.mp4	33.scratch_top_to_bottom_with_scissors_short_short_600ms.mp4	357.15012124217446	357.7584370272343	0.6083157850598582				
273.7841796875	0.2	560710	233	7	2	0	0	38	237	stimuli\Videos_short_600ms_horvertflip\61.single_hit_with_rolling_pin_short_horvertflip_short_600ms.mp4	61.single_hit_with_rolling_pin_short_horvertflip_short_600ms.mp4	357.9501037647683	358.55842277552347	0.6083190107551673				
274.58447265625	0.2	562349	234	7	2	0	0	39	266	stimuli\Videos_short_600ms_horvertflip\88.repeated_stroke_with_plastic_brush_short_horvertflip_short_600ms.mp4	88.repeated_stroke_with_plastic_brush_short_horvertflip_short_600ms.mp4	358.75009215226373	359.35840207242154	0.6083099201578079				
275.38427734375	0.2	563987	235	7	2	0	0	40	160	stimuli\Videos_short_600ms_horflip\73.single_stroke_with_flat_hand_short_horflip_short_600ms.mp4	73.single_stroke_with_flat_hand_short_horflip_short_600ms.mp4	359.5500503355165	360.1583845950154	0.6083342594988608				
276.18408203125	0.2	565625	236	7	2	0	1	41	364	stimuli\Targets_short_600ms\hand-pinch_short_short_600ms.mp4	hand-pinch_short_short_600ms.mp4	360.3500349108258	360.9583685838347	0.6083336730089286				
276.984375	0.2	567264	237	7	2	0	0	42	351	stimuli\Videos_short_600ms_vertflip\83.single_stroke_top_to_bottom_with_cotton_bud_short_vertflip_short_600ms.mp4	83.single_stroke_top_to_bottom_with_cotton_bud_short_vertflip_short_600ms.mp4	361.1500168469293	361.75834934695786	0.6083325000286095				
277.7841796875	0.2	568902	238	7	2	0	0	43	303	stimuli\Videos_short_600ms_vertflip\4.repeated_tap_with_finger_slow_short_vertflip_short_600ms.mp4	4.repeated_tap_with_finger_slow_short_vertflip_short_600ms.mp4	361.94997239097665	362.5583547426672	0.6083823516905795				
278.583984375	0.2	570540	239	7	2	0	0	44	214	stimuli\Videos_short_600ms_horvertflip\40.repeated_push_with_finger_short_horvertflip_short_600ms.mp4	40.repeated_push_with_finger_short_horvertflip_short_600ms.mp4	362.7499789596663	363.3583138056556	0.6083348459892477				
279.38427734375	0.2	572179	240	7	2	0	0	45	182	stimuli\Videos_short_600ms_horvertflip\11.single_touch_with_lighter_short_horvertflip_short_600ms.mp4	11.single_touch_with_lighter_short_horvertflip_short_600ms.mp4	363.5500368462431	364.15827110917326	0.608234262930182				
280.18408203125	0.2	573817	241	7	2	0	0	46	341	stimuli\Videos_short_600ms_vertflip\74.fingers_walking_from_top_to_bottom_short_vertflip_short_600ms.mp4	74.fingers_walking_from_top_to_bottom_short_vertflip_short_600ms.mp4	364.3499648252541	364.9582744521672	0.6083096269130692				
280.98388671875	0.2	575455	242	7	2	0	0	47	140	stimuli\Videos_short_600ms_horflip\55.touch_top_to_bottom_with_nail_file_short_horflip_short_600ms.mp4	55.touch_top_to_bottom_with_nail_file_short_horflip_short_600ms.mp4	365.1499526262592	365.7582173866763	0.6082647604171143				
281.7841796875	0.2	577094	243	7	2	0	0	48	128	stimuli\Videos_short_600ms_horflip\44.pushing_top_to_bottom_with_finger_short_horflip_short_600ms.mp4	44.pushing_top_to_bottom_with_finger_short_horflip_short_600ms.mp4	365.9499257650105	366.5582330459629	0.608307280952431				
282.583984375	0.2	578732	244	7	2	0	1	49	382	stimuli\Targets_short_600ms_vertflip\hand-pinch_short_horvertflip_short_600ms.mp4	hand-pinch_short_horvertflip_short_600ms.mp4	366.7499109268101	367.3582267118695	0.6083157850594034				
283.3837890625	0.2	580370	245	7	2	0	0	50	221	stimuli\Videos_short_600ms_horvertflip\47.(long)scratching_with_finger_nails_short_horvertflip_short_600ms.mp4	47.(long)scratching_with_finger_nails_short_horvertflip_short_600ms.mp4	367.5498887574827	368.1581913465143	0.6083025890316094				
284.18408203125	0.2	582009	246	7	2	0	0	51	34	stimuli\Videos_short_600ms\40.repeated_push_with_finger_short_short_600ms.mp4	40.repeated_push_with_finger_short_short_600ms.mp4	368.349872746302	368.9581768015587	0.6083040552566672				
284.98388671875	0.2	583647	247	7	2	0	0	52	112	stimuli\Videos_short_600ms_horflip\3.single_push_with_finger_short_horflip_short_600ms.mp4	3.single_push_with_finger_short_horflip_short_600ms.mp4	369.14985409591554	369.75818483647345	0.6083307405579035				
285.78369140625	0.2	585285	248	7	2	0	0	53	204	stimuli\Videos_short_600ms_horvertflip\31.hand_grabbing_wrist_short_horvertflip_short_600ms.mp4	31.hand_grabbing_wrist_short_horvertflip_short_600ms.mp4	369.9498501077824	370.5581544562842	0.6083043485018607				
286.583984375	0.2	586924	249	7	2	0	0	54	18	stimuli\Videos_short_600ms\26.single_touch_with_a_blunt_syringe_short_short_600ms.mp4	26.single_touch_with_a_blunt_syringe_short_short_600ms.mp4	370.7498261789847	371.3581393248387	0.6083131458540265				
287.3837890625	0.2	588562	250	7	2	0	0	55	309	stimuli\Videos_short_600ms_vertflip\45.scratching_with_finger_nails_short_vertflip_short_600ms.mp4	45.scratching_with_finger_nails_short_vertflip_short_600ms.mp4	371.549803716412	372.15812184743254	0.6083181310204964				
288.18408203125	0.2	590201	251	7	2	0	0	56	104	stimuli\Videos_short_600ms_horflip\22.single_touch_with_metal_chopstick_short_horflip_short_600ms.mp4	22.single_touch_with_metal_chopstick_short_horflip_short_600ms.mp4	372.3497850660256	372.9581061294966	0.6083210634710667				
288.98388671875	0.2	591839	252	7	2	0	0	57	316	stimuli\Videos_short_600ms_vertflip\51.repeated_touch_with_hammer_short_vertflip_short_600ms.mp4	51.repeated_touch_with_hammer_short_vertflip_short_600ms.mp4	373.1497675886194	373.7580851331495	0.6083175445301094				
289.78369140625	0.2	593477	253	7	2	0	1	58	378	stimuli\Targets_short_600ms_vertflip\brush-stroke_short_horvertflip_short_600ms.mp4	brush-stroke_short_horvertflip_short_600ms.mp4	373.949703485247	374.5580658962731	0.6083624110260644				
290.583984375	0.2	595116	254	7	2	0	0	59	329	stimuli\Videos_short_600ms_vertflip\63.stroke_top_to_bottom_with_screwdriver_short_vertflip_short_600ms.mp4	63.stroke_top_to_bottom_with_screwdriver_short_vertflip_short_600ms.mp4	374.7497341000326	375.3580504715824	0.6083163715497903				
291.3837890625	0.2	596754	255	7	2	0	0	60	314	stimuli\Videos_short_600ms_vertflip\5.repeated_tap_with_finger_moving_from_top_to_bottom_short_vertflip_short_600ms.mp4	5.repeated_tap_with_finger_moving_from_top_to_bottom_short_vertflip_short_600ms.mp4	375.5496905238151	376.15803358066614	0.6083430568510266				
292.18359375	0.2	598392	256	7	2	0	0	61	150	stimuli\Videos_short_600ms_horflip\64.repeated_touch_with_screwdriver_short_horflip_short_600ms.mp4	64.repeated_touch_with_screwdriver_short_horflip_short_600ms.mp4	376.34967832482016	376.95801493027966	0.608336605459499				
292.98388671875	0.2	600031	257	7	2	0	0	62	232	stimuli\Videos_short_600ms_horvertflip\57.single_touch_with_nail_file_short_horvertflip_short_600ms.mp4	57.single_touch_with_nail_file_short_horvertflip_short_600ms.mp4	377.1497074733802	377.7579971596283	0.6082896862480993				
293.78369140625	0.2	601669	258	7	2	0	0	63	131	stimuli\Videos_short_600ms_horflip\47.(long)scratching_with_finger_nails_short_horflip_short_600ms.mp4	47.(long)scratching_with_finger_nails_short_horflip_short_600ms.mp4	377.94964307676264	378.5579802687125	0.6083371919498859				
294.58349609375	0.2	603307	259	7	2	0	0	64	280	stimuli\Videos_short_600ms_vertflip\19.single_touch_with_rolling_pin_short_vertflip_short_600ms.mp4	19.single_touch_with_rolling_pin_short_vertflip_short_600ms.mp4	378.7496467130013	379.3579648440218	0.6083181310204964				
295.3837890625	0.2	604946	260	7	2	0	0	65	318	stimuli\Videos_short_600ms_vertflip\53.touch_top_to_bottom_with_knife_short_vertflip_short_600ms.mp4	53.touch_top_to_bottom_with_knife_short_vertflip_short_600ms.mp4	379.5496336342712	380.15792244078466	0.6082888065134284				
296.18359375	0.2	606584	261	7	2	0	0	66	298	stimuli\Videos_short_600ms_vertflip\35.single_punch_with_hand_short_vertflip_short_600ms.mp4	35.single_punch_with_hand_short_vertflip_short_600ms.mp4	380.34961645011026	380.9578826767529	0.6082662266426269				
296.9833984375	0.2	608222	262	7	2	0	0	67	146	stimuli\Videos_short_600ms_horflip\60.single_push_with_tip_of_pencil_short_horflip_short_600ms.mp4	60.single_push_with_tip_of_pencil_short_horflip_short_600ms.mp4	381.14958958886155	381.7578901251777	0.6083005363161647				
297.78369140625	0.2	609861	263	7	2	0	0	68	138	stimuli\Videos_short_600ms_horflip\53.touch_top_to_bottom_with_knife_short_horflip_short_600ms.mp4	53.touch_top_to_bottom_with_knife_short_horflip_short_600ms.mp4	381.94957563039634	382.55786824909546	0.6082926186991244				
298.58349609375	0.2	611499	264	7	2	0	0	69	257	stimuli\Videos_short_600ms_horvertflip\8.single_touch_with_hairbrush_short_horvertflip_short_600ms.mp4	8.single_touch_with_hairbrush_short_horvertflip_short_600ms.mp4	382.7495546340492	383.35785429063026	0.608299656581039				
299.38330078125	0.2	613137	265	7	2	0	0	70	358	stimuli\Videos_short_600ms_vertflip\9.single_touch_with_hammer_short_vertflip_short_600ms.mp4	9.single_touch_with_hammer_short_vertflip_short_600ms.mp4	383.5495392093585	384.157840918655	0.6083017092964838				
300.18359375	0.2	614776	266	7	2	0	0	71	141	stimuli\Videos_short_600ms_horflip\56.repeated_touch_with_nail_file_short_horflip_short_600ms.mp4	56.repeated_touch_with_nail_file_short_horflip_short_600ms.mp4	384.34952466440336	384.9578483670798	0.6083237026764436				
300.9833984375	0.2	616414	267	7	2	0	0	72	317	stimuli\Videos_short_600ms_vertflip\52.touch_top_to_bottom_with_hammer_short_vertflip_short_600ms.mp4	52.touch_top_to_bottom_with_hammer_short_vertflip_short_600ms.mp4	385.1495010288504	385.7578229720566	0.6083219432061924				
301.783203125	0.2	618052	268	7	2	0	0	73	125	stimuli\Videos_short_600ms_horflip\41.injection_with_blunt_syringe_short_horflip_short_600ms.mp4	41.injection_with_blunt_syringe_short_horflip_short_600ms.mp4	385.9494826717091	386.55781018657126	0.6083275148621397				
302.58349609375	0.2	619691	269	7	2	0	0	74	181	stimuli\Videos_short_600ms_horvertflip\10.single_touch_with_knife_short_horvertflip_short_600ms.mp4	10.single_touch_with_knife_short_horvertflip_short_600ms.mp4	386.74946519430296	387.3577865510187	0.6083213567158055				
303.38330078125	0.2	621329	270	7	2	0	0	75	64	stimuli\Videos_short_600ms\68.stroke_top_to_bottom_with_shawl_short_short_600ms.mp4	68.stroke_top_to_bottom_with_shawl_short_short_600ms.mp4	387.5494488898771	388.15776848712267	0.6083195972455542				
304.18310546875	0.2	622967	271	7	2	0	0	76	171	stimuli\Videos_short_600ms_horflip\83.single_stroke_top_to_bottom_with_cotton_bud_short_horflip_short_600ms.mp4	83.single_stroke_top_to_bottom_with_cotton_bud_short_horflip_short_600ms.mp4	388.3494317057157	388.9577498367362	0.6083181310204964				
304.9833984375	0.2	624606	272	7	2	0	0	77	135	stimuli\Videos_short_600ms_horflip\50.single_(long)hard_push_with_thumb_short_horflip_short_600ms.mp4	50.single_(long)hard_push_with_thumb_short_horflip_short_600ms.mp4	389.1494148147999	389.7577367580057	0.6083219432057376				
305.783203125	0.2	626244	273	7	2	0	0	78	48	stimuli\Videos_short_600ms\53.touch_top_to_bottom_with_knife_short_short_600ms.mp4	53.touch_top_to_bottom_with_knife_short_short_600ms.mp4	389.94939117924696	390.5577140021883	0.608322822941318				
306.5830078125	0.2	627882	274	7	2	0	0	79	24	stimuli\Videos_short_600ms\31.hand_grabbing_wrist_short_short_600ms.mp4	31.hand_grabbing_wrist_short_short_600ms.mp4	390.74936637071414	391.3576974045173	0.6083310338030969				
307.38330078125	0.2	629521	275	7	2	0	0	80	166	stimuli\Videos_short_600ms_horflip\79.long_with_soft_brush_all_over_the_hand_short_horflip_short_600ms.mp4	79.long_with_soft_brush_all_over_the_hand_short_horflip_short_600ms.mp4	391.5493386297303	392.1576887244632	0.6083500947329412				
308.18310546875	0.2	631159	276	7	2	0	0	81	353	stimuli\Videos_short_600ms_vertflip\85.touch_top_to_bottom_with_fabric_short_vertflip_short_600ms.mp4	85.touch_top_to_bottom_with_fabric_short_vertflip_short_600ms.mp4	392.3493234982848	392.9576689010965	0.6083454028116648				
308.9833984375	0.2	632798	277	7	2	0	0	82	272	stimuli\Videos_short_600ms_vertflip\11.single_touch_with_lighter_short_vertflip_short_600ms.mp4	11.single_touch_with_lighter_short_vertflip_short_600ms.mp4	393.1493101263095	393.7576440925636	0.6083339662541221				
309.783203125	0.2	634436	278	7	2	0	0	83	57	stimuli\Videos_short_600ms\61.single_hit_with_rolling_pin_short_short_600ms.mp4	61.single_hit_with_rolling_pin_short_short_600ms.mp4	393.9492955813539	394.5576348260192	0.6083392446653306				
310.5830078125	0.2	636074	279	7	2	0	1	84	381	stimuli\Targets_short_600ms_vertflip\finger-tap_short_horvertflip_short_600ms.mp4	finger-tap_short_horvertflip_short_600ms.mp4	394.74929863110265	395.35761793510346	0.6083193040008155				
311.38330078125	0.2	637713	280	7	2	0	0	85	103	stimuli\Videos_short_600ms_horflip\21.repeated_touch_with_metal_chopstick_short_horflip_short_600ms.mp4	21.repeated_touch_with_metal_chopstick_short_horflip_short_600ms.mp4	395.5492796874714	396.15758726166905	0.6083075741976245				
312.18310546875	0.2	639351	281	7	2	0	0	86	92	stimuli\Videos_short_600ms_horflip\11.single_touch_with_lighter_short_horflip_short_600ms.mp4	11.single_touch_with_lighter_short_horflip_short_600ms.mp4	396.34926631549615	396.95754925710753	0.6082829416113782				
312.98291015625	0.2	640989	282	7	2	0	0	87	333	stimuli\Videos_short_600ms_vertflip\67.single_touch_with_sponge_short_vertflip_short_600ms.mp4	67.single_touch_with_sponge_short_vertflip_short_600ms.mp4	397.14923710828725	397.75753500539713	0.6082978971098782				
313.783203125	0.2	642628	283	7	2	0	0	88	58	stimuli\Videos_short_600ms\62.touch_top_to_bottom_with_scissors_short_short_600ms.mp4	62.touch_top_to_bottom_with_scissors_short_short_600ms.mp4	397.949220217371	398.55751371580527	0.6082934984342501				
314.5830078125	0.2	644266	284	7	2	0	0	89	133	stimuli\Videos_short_600ms_horflip\49.repeated_slap_with_hand_short_horflip_short_600ms.mp4	49.repeated_slap_with_hand_short_horflip_short_600ms.mp4	398.7492103643367	399.35749858435975	0.6082882200230415				
315.3828125	0.2	645904	285	7	2	0	0	90	202	stimuli\Videos_short_600ms_horvertflip\3.single_push_with_finger_short_horvertflip_short_600ms.mp4	3.single_push_with_finger_short_horvertflip_short_600ms.mp4	399.54918233010767	400.1575110179506	0.6083286878429135				
316.18310546875	0.2	647543	286	7	2	0	0	91	325	stimuli\Videos_short_600ms_vertflip\6.single_touch_with_flat_hand_short_vertflip_short_600ms.mp4	6.single_touch_with_flat_hand_short_vertflip_short_600ms.mp4	400.34916719866214	400.95748327696674	0.6083160783045969				
316.98291015625	0.2	649181	287	7	2	0	0	92	123	stimuli\Videos_short_600ms_horflip\4.repeated_tap_with_finger_slow_short_horflip_short_600ms.mp4	4.repeated_tap_with_finger_slow_short_horflip_short_600ms.mp4	401.14914884152086	401.757479288834	0.6083304473131648				
317.78271484375	0.2	650819	288	7	2	0	0	93	184	stimuli\Videos_short_600ms_horvertflip\13.single_touch_with_pen_short_horvertflip_short_600ms.mp4	13.single_touch_with_pen_short_horvertflip_short_600ms.mp4	401.9491304843796	402.5574500816251	0.6083195972455542				
318.5830078125	0.2	652458	289	7	2	0	0	94	213	stimuli\Videos_short_600ms_horvertflip\4.repeated_tap_with_finger_slow_short_horvertflip_short_600ms.mp4	4.repeated_tap_with_finger_slow_short_horvertflip_short_600ms.mp4	402.7491127137282	403.3574317244834	0.6083190107551673				
319.3828125	0.2	654096	290	7	2	0	0	95	347	stimuli\Videos_short_600ms_vertflip\8.single_touch_with_hairbrush_short_vertflip_short_600ms.mp4	8.single_touch_with_hairbrush_short_vertflip_short_600ms.mp4	403.5491069661248	404.157442398604	0.6083354324791799				
320.1826171875	0.2	655734	291	7	2	0	0	96	75	stimuli\Videos_short_600ms\78.single_stroke_top_to_bottom_with_soft_brush_short_short_600ms.mp4	78.single_stroke_top_to_bottom_with_soft_brush_short_short_600ms.mp4	404.34908596977766	404.9574158306009	0.6083298608232326	7.0	7.0	2.3342615517299237	1.0
354.115234375	0.2	725228	292	7	3	0	0	0	294	stimuli\Videos_short_600ms_vertflip\31.hand_grabbing_wrist_short_vertflip_short_600ms.mp4	31.hand_grabbing_wrist_short_vertflip_short_600ms.mp4	438.2816718605259	438.8899287033259	0.6082568428000741				
354.9150390625	0.2	726866	293	7	3	0	0	1	229	stimuli\Videos_short_600ms_horvertflip\54.repeated_touch_with_knife_short_horvertflip_short_600ms.mp4	54.repeated_touch_with_knife_short_horvertflip_short_600ms.mp4	439.0816186072211	439.68991093267505	0.608292325453931				
355.71484375	0.2	728504	294	7	3	0	0	2	113	stimuli\Videos_short_600ms_horflip\30.finger_pulling_back_another_finger_short_horflip_short_600ms.mp4	30.finger_pulling_back_another_finger_short_horflip_short_600ms.mp4	439.8815823621303	440.4898934552689	0.6083110931385818				
356.51513671875	0.2	730143	295	7	3	0	0	3	96	stimuli\Videos_short_600ms_horflip\15.single_stroke_top_to_bottom_with_a_plastic_whisk_short_horflip_short_600ms.mp4	15.single_stroke_top_to_bottom_with_a_plastic_whisk_short_horflip_short_600ms.mp4	440.6815915700254	441.28987509812714	0.6082835281017651				
357.31494140625	0.2	731781	296	7	3	0	0	4	14	stimuli\Videos_short_600ms\22.single_touch_with_metal_chopstick_short_short_600ms.mp4	22.single_touch_with_metal_chopstick_short_short_600ms.mp4	441.48156558851224	442.0898587937013	0.6082932051890566				
358.11474609375	0.2	733419	297	7	3	0	0	5	271	stimuli\Videos_short_600ms_vertflip\10.single_touch_with_knife_short_vertflip_short_600ms.mp4	10.single_touch_with_knife_short_vertflip_short_600ms.mp4	442.2818281601485	442.8898398500696	0.6080116899211134				
358.9150390625	0.2	735058	298	7	3	0	0	6	175	stimuli\Videos_short_600ms_horflip\87.single_stroke_top_to_bottom_with_plastic_brush_short_horflip_short_600ms.mp4	87.single_stroke_top_to_bottom_with_plastic_brush_short_horflip_short_600ms.mp4	443.0815458824436	443.68982237266346	0.6082764902198505				
359.71484375	0.2	736696	299	7	3	0	0	7	339	stimuli\Videos_short_600ms_vertflip\72.(short)stroke_with_finger_all_over_the_hand_short_vertflip_short_600ms.mp4	72.(short)stroke_with_finger_all_over_the_hand_short_vertflip_short_600ms.mp4	443.8815413078205	444.48979756413064	0.6082562563101419				
360.5146484375	0.2	738334	300	7	3	0	1	8	377	stimuli\Targets_short_600ms_horvertflip\hand-stroke_short_vertflip_short_600ms.mp4	hand-stroke_short_vertflip_short_600ms.mp4	444.6815185520031	445.28976777043135	0.6082492184282273				
361.31494140625	0.2	739973	301	7	3	0	0	9	331	stimuli\Videos_short_600ms_vertflip\65.stroke_top_to_bottom_with_stanley_knife_short_vertflip_short_600ms.mp4	65.stroke_top_to_bottom_with_stanley_knife_short_vertflip_short_600ms.mp4	445.4815069394981	446.08974999978	0.6082430602818931				
362.11474609375	0.2	741611	302	7	3	0	0	10	246	stimuli\Videos_short_600ms_horvertflip\7.repeated_touch_with_hairbrush_short_horvertflip_short_600ms.mp4	7.repeated_touch_with_hairbrush_short_horvertflip_short_600ms.mp4	446.2814918080526	446.8897404399909	0.6082486319382951				
362.91455078125	0.2	743249	303	7	3	0	0	11	357	stimuli\Videos_short_600ms_vertflip\89.single_touch_with_plastic_brush_short_vertflip_short_600ms.mp4	89.single_touch_with_plastic_brush_short_vertflip_short_600ms.mp4	447.0814799023028	447.68973586536777	0.6082559630649484				
363.71484375	0.2	744888	304	7	3	0	0	12	310	stimuli\Videos_short_600ms_vertflip\46.scratching_top_to_bottom_with_finger_nails_short_vertflip_short_600ms.mp4	46.scratching_top_to_bottom_with_finger_nails_short_vertflip_short_600ms.mp4	447.881448642378	448.48971047034456	0.6082618279665439				
364.5146484375	0.2	746526	305	7	3	0	0	13	152	stimuli\Videos_short_600ms_horflip\66.stroke_top_to_bottom_with_sponge_short_horflip_short_600ms.mp4	66.stroke_top_to_bottom_with_sponge_short_horflip_short_600ms.mp4	448.6814332176873	449.2897299418173	0.6082967241300139				
365.314453125	0.2	748164	306	7	3	0	0	14	169	stimuli\Videos_short_600ms_horflip\81.single_stroke_top_to_bottom_with_cotton_pad_short_horflip_short_600ms.mp4	81.single_stroke_top_to_bottom_with_cotton_pad_short_horflip_short_600ms.mp4	449.4814189659769	450.0897268334197	0.608307867442818				
366.11474609375	0.2	749803	307	7	3	0	0	15	30	stimuli\Videos_short_600ms\37.single_stab_with_nail_file_short_short_600ms.mp4	37.single_stab_with_nail_file_short_short_600ms.mp4	450.281394743934	450.8897225520418	0.6083278081077879				
366.91455078125	0.2	751441	308	7	3	0	0	16	335	stimuli\Videos_short_600ms_vertflip\69.stroke_with_soft_sock_short_vertflip_short_600ms.mp4	69.stroke_with_soft_sock_short_vertflip_short_600ms.mp4	451.08137609354753	451.6896939313229	0.6083178377753029				
367.71435546875	0.2	753079	309	7	3	0	0	17	328	stimuli\Videos_short_600ms_vertflip\62.touch_top_to_bottom_with_scissors_short_vertflip_short_600ms.mp4	62.touch_top_to_bottom_with_scissors_short_vertflip_short_600ms.mp4	451.8813612553472	452.4896767471614	0.60831549181421				
368.5146484375	0.2	754718	310	7	3	0	0	18	79	stimuli\Videos_short_600ms\81.single_stroke_top_to_bottom_with_cotton_pad_short_short_600ms.mp4	81.single_stroke_top_to_bottom_with_cotton_pad_short_short_600ms.mp4	452.68134348469584	453.2896578035302	0.6083143188343456				
369.314453125	0.2	756356	311	7	3	0	0	19	273	stimuli\Videos_short_600ms_vertflip\12.repeated_touch_with_nail_file_short_vertflip_short_600ms.mp4	12.repeated_touch_with_nail_file_short_vertflip_short_600ms.mp4	453.4813254207993	454.0896420855943	0.6083166647949838				
370.1142578125	0.2	757994	312	7	3	0	0	20	219	stimuli\Videos_short_600ms_horvertflip\45.scratching_with_finger_nails_short_horvertflip_short_600ms.mp4	45.scratching_with_finger_nails_short_horvertflip_short_600ms.mp4	454.2813129285596	454.8896234352078	0.6083105066481949				
370.91455078125	0.2	759633	313	7	3	0	0	21	235	stimuli\Videos_short_600ms_horvertflip\6.single_touch_with_flat_hand_short_horvertflip_short_600ms.mp4	6.single_touch_with_flat_hand_short_horvertflip_short_600ms.mp4	455.0812497049224	455.6896080105171	0.6083583055947202				
371.71435546875	0.2	761271	314	7	3	0	0	22	264	stimuli\Videos_short_600ms_horvertflip\86.touch_top_to_bottom_with_hair_brush_short_horvertflip_short_600ms.mp4	86.touch_top_to_bottom_with_hair_brush_short_horvertflip_short_600ms.mp4	455.8812474762599	456.4895878939051	0.608340417645195				
372.5146484375	0.2	762910	315	7	3	0	0	23	165	stimuli\Videos_short_600ms_horflip\78.single_stroke_top_to_bottom_with_soft_brush_short_horflip_short_600ms.mp4	78.single_stroke_top_to_bottom_with_soft_brush_short_horflip_short_600ms.mp4	456.6812575638901	457.289574815175	0.608317251284916				
373.314453125	0.2	764548	316	7	3	0	0	24	277	stimuli\Videos_short_600ms_vertflip\16.repeated_touch_with_plastic_brush_short_vertflip_short_600ms.mp4	16.repeated_touch_with_plastic_brush_short_vertflip_short_600ms.mp4	457.4812142809178	458.0895517661125	0.6083374851946246				
374.1142578125	0.2	766186	317	7	3	0	0	25	43	stimuli\Videos_short_600ms\49.repeated_slap_with_hand_short_short_600ms.mp4	49.repeated_slap_with_hand_short_short_600ms.mp4	458.2812050143734	458.8895342887063	0.6083292743328457				
374.91455078125	0.2	767825	318	7	3	0	0	26	240	stimuli\Videos_short_600ms_horvertflip\64.repeated_touch_with_screwdriver_short_horvertflip_short_600ms.mp4	64.repeated_touch_with_screwdriver_short_horvertflip_short_600ms.mp4	459.08118783021246	459.6895165180549	0.6083286878424587				
375.71435546875	0.2	769463	319	7	3	0	0	27	100	stimuli\Videos_short_600ms_horflip\19.single_touch_with_rolling_pin_short_horflip_short_600ms.mp4	19.single_touch_with_rolling_pin_short_horflip_short_600ms.mp4	459.88117797717814	460.4894327672628	0.6082547900846293				
376.51416015625	0.2	771101	320	7	3	0	0	28	348	stimuli\Videos_short_600ms_vertflip\80.stroke_with_sharp_stick_all_over_the_hand_short_vertflip_short_600ms.mp4	80.stroke_with_sharp_stick_all_over_the_hand_short_vertflip_short_600ms.mp4	460.6811716430843	461.28947129966537	0.608299656581039				
377.314453125	0.2	772740	321	7	3	0	0	29	178	stimuli\Videos_short_600ms_horflip\9.single_touch_with_hammer_short_horflip_short_600ms.mp4	9.single_touch_with_hammer_short_horflip_short_600ms.mp4	461.4811456615712	462.0894203923208	0.6082747307495993				
378.1142578125	0.2	774378	322	7	3	0	0	30	288	stimuli\Videos_short_600ms_vertflip\26.single_touch_with_a_blunt_syringe_short_vertflip_short_600ms.mp4	26.single_touch_with_a_blunt_syringe_short_vertflip_short_600ms.mp4	462.28114020721296	462.88940467438533	0.6082644671723756				
378.9140625	0.2	776016	323	7	3	0	0	31	330	stimuli\Videos_short_600ms_vertflip\64.repeated_touch_with_screwdriver_short_vertflip_short_600ms.mp4	64.repeated_touch_with_screwdriver_short_vertflip_short_600ms.mp4	463.0811133459647	463.68941593499585	0.6083025890311546				
379.71435546875	0.2	777655	324	7	3	0	0	32	2	stimuli\Videos_short_600ms\11.single_touch_with_lighter_short_short_600ms.mp4	11.single_touch_with_lighter_short_short_600ms.mp4	463.8810935225979	464.4893931791785	0.6082996565805843				
380.51416015625	0.2	779293	325	7	3	0	0	33	151	stimuli\Videos_short_600ms_horflip\65.stroke_top_to_bottom_with_stanley_knife_short_horflip_short_600ms.mp4	65.stroke_top_to_bottom_with_stanley_knife_short_horflip_short_600ms.mp4	464.6810748722114	465.289399454623	0.6083245824115693				
381.31396484375	0.2	780931	326	7	3	0	0	34	193	stimuli\Videos_short_600ms_horvertflip\21.repeated_touch_with_metal_chopstick_short_horvertflip_short_600ms.mp4	21.repeated_touch_with_metal_chopstick_short_horvertflip_short_600ms.mp4	465.48106150023614	466.0893825637067	0.608321063470612				
382.1142578125	0.2	782570	327	7	3	0	0	35	84	stimuli\Videos_short_600ms\86.touch_top_to_bottom_with_hair_brush_short_short_600ms.mp4	86.touch_top_to_bottom_with_hair_brush_short_short_600ms.mp4	466.28161409124687	466.88935892815425	0.6077448369073863				
382.9140625	0.2	784208	328	7	3	0	0	36	90	stimuli\Videos_short_600ms_horflip\1.repeated_touch_with_finger_fast_short_horflip_short_600ms.mp4	1.repeated_touch_with_finger_fast_short_horflip_short_600ms.mp4	467.081065253773	467.6893429169736	0.6082776632006244				
383.7138671875	0.2	785846	329	7	3	0	0	37	4	stimuli\Videos_short_600ms\13.single_touch_with_pen_short_short_600ms.mp4	13.single_touch_with_pen_short_short_600ms.mp4	467.8810040828512	468.4893271990377	0.6083231161865115				
384.51416015625	0.2	787485	330	7	3	0	0	38	224	stimuli\Videos_short_600ms_horvertflip\5.repeated_tap_with_finger_moving_from_top_to_bottom_short_horvertflip_short_600ms.mp4	5.repeated_tap_with_finger_moving_from_top_to_bottom_short_horvertflip_short_600ms.mp4	468.6809948163073	469.28930620269057	0.6083113863833205				
385.31396484375	0.2	789123	331	7	3	0	0	39	32	stimuli\Videos_short_600ms\39.single_stab_with_scissors_short_short_600ms.mp4	39.single_stab_with_scissors_short_short_600ms.mp4	469.480966488833	470.0892913644898	0.6083248756567627				
386.11376953125	0.2	790761	332	7	3	0	0	40	173	stimuli\Videos_short_600ms_horflip\85.touch_top_to_bottom_with_fabric_short_horflip_short_600ms.mp4	85.touch_top_to_bottom_with_fabric_short_horflip_short_600ms.mp4	470.2809510641423	470.8892727141033	0.6083216499609989				
386.9140625	0.2	792400	333	7	3	0	0	41	215	stimuli\Videos_short_600ms_horvertflip\41.injection_with_blunt_syringe_short_horvertflip_short_600ms.mp4	41.injection_with_blunt_syringe_short_horvertflip_short_600ms.mp4	471.08088959997576	471.68925142451144	0.6083618245356774				
387.7138671875	0.2	794038	334	7	3	0	0	42	263	stimuli\Videos_short_600ms_horvertflip\85.touch_top_to_bottom_with_fabric_short_horvertflip_short_600ms.mp4	85.touch_top_to_bottom_with_fabric_short_horvertflip_short_600ms.mp4	471.8808715360792	472.48923687955585	0.6083653434766347				
388.513671875	0.2	795676	335	7	3	0	0	43	28	stimuli\Videos_short_600ms\35.single_punch_with_hand_short_short_600ms.mp4	35.single_punch_with_hand_short_short_600ms.mp4	472.68085464516344	473.28923318466786	0.6083785395044288				
389.31396484375	0.2	797315	336	7	3	0	0	44	36	stimuli\Videos_short_600ms\42.single_slap_with_plastic_whisk_short_short_600ms.mp4	42.single_slap_with_plastic_whisk_short_short_600ms.mp4	473.4808647327936	474.0891992855377	0.6083345527440542				
390.11376953125	0.2	798953	337	7	3	0	0	45	145	stimuli\Videos_short_600ms_horflip\6.single_touch_with_flat_hand_short_horflip_short_600ms.mp4	6.single_touch_with_flat_hand_short_horflip_short_600ms.mp4	474.2808460824071	474.8891873797879	0.6083412973807754				
390.91357421875	0.2	800591	338	7	3	0	0	46	73	stimuli\Videos_short_600ms\76.tickle_with_fingers_from_top_to_bottom_short_short_600ms.mp4	76.tickle_with_fingers_from_top_to_bottom_short_short_600ms.mp4	475.0808608619586	475.6891188777395	0.6082580157808479				
391.7138671875	0.2	802230	339	7	3	0	0	47	217	stimuli\Videos_short_600ms_horvertflip\43.touch_top_to_bottom_with_sharp_wooden_stick_short_horvertflip_short_600ms.mp4	43.touch_top_to_bottom_with_sharp_wooden_stick_short_horvertflip_short_600ms.mp4	475.8808372264062	476.4891034530488	0.6082662266426269				
392.513671875	0.2	803868	340	7	3	0	0	48	261	stimuli\Videos_short_600ms_horvertflip\83.single_stroke_top_to_bottom_with_cotton_bud_short_horvertflip_short_600ms.mp4	83.single_stroke_top_to_bottom_with_cotton_bud_short_horvertflip_short_600ms.mp4	476.6808150570787	477.28910884875813	0.6082937916794435				
393.31396484375	0.2	805507	341	7	3	0	0	49	312	stimuli\Videos_short_600ms_vertflip\48.single_slap_with_hand_short_vertflip_short_600ms.mp4	48.single_slap_with_hand_short_vertflip_short_600ms.mp4	477.4807920080161	478.0890925443323	0.6083005363161647				
394.11376953125	0.2	807145	342	7	3	0	0	50	16	stimuli\Videos_short_600ms\24.single_stroke_top_to_bottom_with_a_spoon_short_short_600ms.mp4	24.single_stroke_top_to_bottom_with_a_spoon_short_short_600ms.mp4	478.2807754103451	478.8890821048076	0.6083066944624989				
394.91357421875	0.2	808783	343	7	3	0	0	51	1	stimuli\Videos_short_600ms\10.single_touch_with_knife_short_short_600ms.mp4	10.single_touch_with_knife_short_short_600ms.mp4	479.080757346449	479.6890593489902	0.6083020025412225				
395.7138671875	0.2	810422	344	7	3	0	0	52	190	stimuli\Videos_short_600ms_horvertflip\19.single_touch_with_rolling_pin_short_horvertflip_short_600ms.mp4	19.single_touch_with_rolling_pin_short_horvertflip_short_600ms.mp4	479.8807398690428	480.48906767715016	0.6083278081073331				
396.513671875	0.2	812060	345	7	3	0	0	53	111	stimuli\Videos_short_600ms_horflip\29.single_pinch_with_tweezers_short_horflip_short_600ms.mp4	29.single_pinch_with_tweezers_short_horflip_short_600ms.mp4	480.6807218051463	481.28904286861734	0.6083210634710667				
397.3134765625	0.2	813698	346	7	3	0	0	54	97	stimuli\Videos_short_600ms_horflip\16.repeated_touch_with_plastic_brush_short_horflip_short_600ms.mp4	16.repeated_touch_with_plastic_brush_short_horflip_short_600ms.mp4	481.4807066737007	482.08902304525054	0.6083163715497903				
398.11376953125	0.2	815337	347	7	3	0	0	55	245	stimuli\Videos_short_600ms_horvertflip\69.stroke_with_soft_sock_short_horvertflip_short_600ms.mp4	69.stroke_with_soft_sock_short_horvertflip_short_600ms.mp4	482.2807050315282	482.8890055678444	0.6083005363161647				
398.91357421875	0.2	816975	348	7	3	0	0	56	225	stimuli\Videos_short_600ms_horvertflip\50.single_(long)hard_push_with_thumb_short_horvertflip_short_600ms.mp4	50.single_(long)hard_push_with_thumb_short_horvertflip_short_600ms.mp4	483.0806702526629	483.68898867692815	0.6083184242652351				
399.71337890625	0.2	818613	349	7	3	0	0	57	20	stimuli\Videos_short_600ms\28.single_injection_with_sharp_needle_short_short_600ms.mp4	28.single_injection_with_sharp_needle_short_short_600ms.mp4	483.8806510157865	484.48896914680654	0.6083181310200416				
400.513671875	0.2	820252	350	7	3	0	0	58	45	stimuli\Videos_short_600ms\50.single_(long)hard_push_with_thumb_short_short_600ms.mp4	50.single_(long)hard_push_with_thumb_short_short_600ms.mp4	484.68063324513514	485.2889507896653	0.6083175445301094				
401.3134765625	0.2	821890	351	7	3	0	0	59	205	stimuli\Videos_short_600ms_horvertflip\32.single_(long)pinch_with_fingers_short_horvertflip_short_600ms.mp4	32.single_(long)pinch_with_fingers_short_horvertflip_short_600ms.mp4	485.48061312852315	486.0889356582197	0.6083225296965793				
402.11328125	0.2	823528	352	7	3	0	0	60	326	stimuli\Videos_short_600ms_vertflip\60.single_push_with_tip_of_pencil_short_vertflip_short_600ms.mp4	60.single_push_with_tip_of_pencil_short_vertflip_short_600ms.mp4	486.280607087675	486.8889178875684	0.6083107998933883				
402.91357421875	0.2	825167	353	7	3	0	0	61	226	stimuli\Videos_short_600ms_horvertflip\51.repeated_touch_with_hammer_short_horvertflip_short_600ms.mp4	51.repeated_touch_with_hammer_short_horvertflip_short_600ms.mp4	487.08053946536165	487.6888995304266	0.6083600650649714				
403.71337890625	0.2	826805	354	7	3	0	0	62	70	stimuli\Videos_short_600ms\73.single_stroke_with_flat_hand_short_short_600ms.mp4	73.single_stroke_with_flat_hand_short_short_600ms.mp4	487.8805838626654	488.4888797070603	0.6082958443948883				
404.51318359375	0.2	828443	355	7	3	0	0	63	83	stimuli\Videos_short_600ms\85.touch_top_to_bottom_with_fabric_short_short_600ms.mp4	85.touch_top_to_bottom_with_fabric_short_short_600ms.mp4	488.6805335418112	489.2888683878005	0.6083348459892477				
405.3134765625	0.2	830082	356	7	3	0	0	64	116	stimuli\Videos_short_600ms_horflip\33.scratch_top_to_bottom_with_scissors_short_horflip_short_600ms.mp4	33.scratch_top_to_bottom_with_scissors_short_horflip_short_600ms.mp4	489.4805099062587	490.0888380076112	0.6083281013525266				
406.11328125	0.2	831720	357	7	3	0	0	65	72	stimuli\Videos_short_600ms\75.(long)stroke_with_fingers_all_over_the_hand_short_short_600ms.mp4	75.(long)stroke_with_fingers_all_over_the_hand_short_short_600ms.mp4	490.28051207627186	490.88878328808096	0.6082712118090967				
406.9130859375	0.2	833358	358	7	3	0	0	66	41	stimuli\Videos_short_600ms\47.(long)scratching_with_finger_nails_short_short_600ms.mp4	47.(long)scratching_with_finger_nails_short_short_600ms.mp4	491.08049723807153	491.68877284855625	0.6082756104847249				
407.71337890625	0.2	834997	359	7	3	0	0	67	320	stimuli\Videos_short_600ms_vertflip\55.touch_top_to_bottom_with_nail_file_short_vertflip_short_600ms.mp4	55.touch_top_to_bottom_with_nail_file_short_vertflip_short_600ms.mp4	491.88047976066537	492.4887471602883	0.608267399622946				
408.51318359375	0.2	836635	360	7	3	0	0	68	297	stimuli\Videos_short_600ms_vertflip\34.repeated_punch_with_hand_short_vertflip_short_600ms.mp4	34.repeated_punch_with_hand_short_vertflip_short_600ms.mp4	492.68045407239697	493.28875138301737	0.6082973106204008				
409.31298828125	0.2	838273	361	7	3	0	0	69	308	stimuli\Videos_short_600ms_vertflip\44.pushing_top_to_bottom_with_finger_short_vertflip_short_600ms.mp4	44.pushing_top_to_bottom_with_finger_short_vertflip_short_600ms.mp4	493.48043864770625	494.0887427029629	0.6083040552566672				
410.11328125	0.2	839912	362	7	3	0	0	70	153	stimuli\Videos_short_600ms_horflip\67.single_touch_with_sponge_short_horflip_short_600ms.mp4	67.single_touch_with_sponge_short_horflip_short_600ms.mp4	494.28041911758464	494.8887263985371	0.608307280952431				
410.9130859375	0.2	841550	363	7	3	0	0	71	80	stimuli\Videos_short_600ms\82.repeated_touch_with_cotton_bud_short_short_600ms.mp4	82.repeated_touch_with_cotton_bud_short_short_600ms.mp4	495.08039958746303	495.6887309145113	0.6083313270482904				
411.712890625	0.2	843188	364	7	3	0	0	72	255	stimuli\Videos_short_600ms_horvertflip\78.single_stroke_top_to_bottom_with_soft_brush_short_horvertflip_short_600ms.mp4	78.single_stroke_top_to_bottom_with_soft_brush_short_horvertflip_short_600ms.mp4	495.88038562899783	496.4887014140572	0.6083157850594034				
412.51318359375	0.2	844827	365	7	3	0	0	73	216	stimuli\Videos_short_600ms_horvertflip\42.single_slap_with_plastic_whisk_short_horvertflip_short_600ms.mp4	42.single_slap_with_plastic_whisk_short_horvertflip_short_600ms.mp4	496.68036668536615	497.2886933204932	0.608326635127014				
413.31298828125	0.2	846465	366	7	3	0	0	74	253	stimuli\Videos_short_600ms_horvertflip\76.tickle_with_fingers_from_top_to_bottom_short_horvertflip_short_600ms.mp4	76.tickle_with_fingers_from_top_to_bottom_short_horvertflip_short_600ms.mp4	497.48034715524454	498.088670857921	0.6083237026764436				
414.11328125	0.2	848104	367	7	3	0	0	75	110	stimuli\Videos_short_600ms_horflip\28.single_injection_with_sharp_needle_short_horflip_short_600ms.mp4	28.single_injection_with_sharp_needle_short_horflip_short_600ms.mp4	498.2803317305538	498.8886495683287	0.6083178377748482				
414.9130859375	0.2	849742	368	7	3	0	0	76	25	stimuli\Videos_short_600ms\32.single_(long)pinch_with_fingers_short_short_600ms.mp4	32.single_(long)pinch_with_fingers_short_short_600ms.mp4	499.08026088254474	499.6886320909225	0.6083712083777755				
415.712890625	0.2	851380	369	7	3	0	0	77	206	stimuli\Videos_short_600ms_horvertflip\33.scratch_top_to_bottom_with_scissors_short_horvertflip_short_600ms.mp4	33.scratch_top_to_bottom_with_scissors_short_horvertflip_short_600ms.mp4	499.8802964824963	500.4886122675557	0.6083157850594034				
416.51318359375	0.2	853019	370	7	3	0	0	78	321	stimuli\Videos_short_600ms_vertflip\56.repeated_touch_with_nail_file_short_vertflip_short_600ms.mp4	56.repeated_touch_with_nail_file_short_vertflip_short_600ms.mp4	500.6803385338394	501.28859537663993	0.6082568428005288				
417.31298828125	0.2	854657	371	7	3	0	0	79	290	stimuli\Videos_short_600ms_vertflip\28.single_injection_with_sharp_needle_short_vertflip_short_600ms.mp4	28.single_injection_with_sharp_needle_short_vertflip_short_600ms.mp4	501.4802357221174	502.08858083168434	0.6083451095669261				
418.11279296875	0.2	856295	372	7	3	0	0	80	54	stimuli\Videos_short_600ms\59.single_push_with_long_side_pencil_short_short_600ms.mp4	59.single_push_with_long_side_pencil_short_short_600ms.mp4	502.2802246961028	502.888559542092	0.6083348459892477				
418.9130859375	0.2	857934	373	7	3	0	0	81	21	stimuli\Videos_short_600ms\29.single_pinch_with_tweezers_short_short_600ms.mp4	29.single_pinch_with_tweezers_short_short_600ms.mp4	503.0801767212092	503.6885455836268	0.608368862417592				
419.712890625	0.2	859572	374	7	3	0	1	82	371	stimuli\Targets_short_600ms_horflip\hand-stroke_short_horflip_short_600ms.mp4	hand-stroke_short_horflip_short_600ms.mp4	503.8801923804963	504.4885254670148	0.6083330865185417				
420.5126953125	0.2	861210	375	7	3	0	0	83	29	stimuli\Videos_short_600ms\36.single_slap_with_full_hand_short_short_600ms.mp4	36.single_slap_with_full_hand_short_short_600ms.mp4	504.6801699179237	505.288442889203	0.608272971279348				
421.31298828125	0.2	862849	376	7	3	0	0	84	122	stimuli\Videos_short_600ms_horflip\39.single_stab_with_scissors_short_horflip_short_600ms.mp4	39.single_stab_with_scissors_short_horflip_short_600ms.mp4	505.480175313633	506.0884861135264	0.6083107998933883				
