onset	duration	onsetsample	eventnumber	subjectnr	sequencenumber	blocksequencenumber	istarget	presentationnumber	stimnumber	stim	stimname	time_stimon	time_stimoff	stimdur	cresp	resp	rt	correct
60.1943359375	0.2	123278	0	24	0	0	0	0	183	stimuli\Videos_short_600ms_horvertflip\12.repeated_touch_with_nail_file_short_horvertflip_short_600ms.mp4	12.repeated_touch_with_nail_file_short_horvertflip_short_600ms.mp4	145.4078516954114	146.01617217239254	0.6083204769811346	n/a	n/a	n/a	n/a
60.994140625	0.2	124916	1	24	0	0	1	1	380	stimuli\Targets_short_600ms_vertflip\chopstickwood-tap_short_horvertflip_short_600ms.mp4	chopstickwood-tap_short_horvertflip_short_600ms.mp4	146.20783451125044	146.81615557472105	0.608321063470612	n/a	n/a	n/a	n/a
61.7939453125	0.2	126554	2	24	0	0	0	2	354	stimuli\Videos_short_600ms_vertflip\86.touch_top_to_bottom_with_hair_brush_short_vertflip_short_600ms.mp4	86.touch_top_to_bottom_with_hair_brush_short_vertflip_short_600ms.mp4	147.0078217257651	147.61613751082496	0.6083157850598582	n/a	n/a	n/a	n/a
62.59423828125	0.2	128193	3	24	0	0	0	3	269	stimuli\Videos_short_600ms_horvertflip\90.repeated_touch_with_sponge_short_horvertflip_short_600ms.mp4	90.repeated_touch_with_sponge_short_horvertflip_short_600ms.mp4	147.80780336862426	148.41612296586936	0.6083195972450994	n/a	n/a	n/a	n/a
63.39404296875	0.2	129831	4	24	0	0	0	4	329	stimuli\Videos_short_600ms_vertflip\63.stroke_top_to_bottom_with_screwdriver_short_vertflip_short_600ms.mp4	63.stroke_top_to_bottom_with_screwdriver_short_vertflip_short_600ms.mp4	148.60778031956124	149.21610343574775	0.6083231161865115	n/a	n/a	n/a	n/a
64.19384765625	0.2	131469	5	24	0	0	0	5	340	stimuli\Videos_short_600ms_vertflip\73.single_stroke_with_flat_hand_short_vertflip_short_600ms.mp4	73.single_stroke_with_flat_hand_short_vertflip_short_600ms.mp4	149.4077695867918	150.0160871313219	0.6083175445301094	n/a	n/a	n/a	n/a
64.994140625	0.2	133108	6	24	0	0	1	6	363	stimuli\Targets_short_600ms\finger-tap_short_short_600ms.mp4	finger-tap_short_short_600ms.mp4	150.20772425110408	150.81607405259183	0.6083498014877478	n/a	n/a	n/a	n/a
65.7939453125	0.2	134746	7	24	0	0	0	7	158	stimuli\Videos_short_600ms_horflip\71.single_stroke_with_finger_top_to_bottom_short_horflip_short_600ms.mp4	71.single_stroke_with_finger_top_to_bottom_short_horflip_short_600ms.mp4	151.00773228601884	151.61605452247022	0.6083222364513858	n/a	n/a	n/a	n/a
66.59375	0.2	136384	8	24	0	0	0	8	68	stimuli\Videos_short_600ms\71.single_stroke_with_finger_top_to_bottom_short_short_600ms.mp4	71.single_stroke_with_finger_top_to_bottom_short_short_600ms.mp4	151.8077077707312	152.416037631554	0.6083298608227778	n/a	n/a	n/a	n/a
67.39404296875	0.2	138023	9	24	0	0	0	9	120	stimuli\Videos_short_600ms_horflip\37.single_stab_with_nail_file_short_horflip_short_600ms.mp4	37.single_stab_with_nail_file_short_horflip_short_600ms.mp4	152.6077105272343	153.21601487573662	0.6083043485023154	n/a	n/a	n/a	n/a
68.19384765625	0.2	139661	10	24	0	0	0	10	2	stimuli\Videos_short_600ms\11.single_touch_with_lighter_short_short_600ms.mp4	11.single_touch_with_lighter_short_short_600ms.mp4	153.40769539578923	154.01599710508526	0.608301709296029	n/a	n/a	n/a	n/a
68.99365234375	0.2	141299	11	24	0	0	0	11	15	stimuli\Videos_short_600ms\23.single_push_with_a_spoon_short_short_600ms.mp4	23.single_push_with_a_spoon_short_short_600ms.mp4	154.20767381295173	154.81598431959992	0.6083105066481949	n/a	n/a	n/a	n/a
69.7939453125	0.2	142938	12	24	0	0	0	12	39	stimuli\Videos_short_600ms\45.scratching_with_finger_nails_short_short_600ms.mp4	45.scratching_with_finger_nails_short_short_600ms.mp4	155.00765047064397	155.61596860166446	0.6083181310204964	n/a	n/a	n/a	n/a
70.59375	0.2	144576	13	24	0	0	0	13	47	stimuli\Videos_short_600ms\52.touch_top_to_bottom_with_hammer_short_short_600ms.mp4	52.touch_top_to_bottom_with_hammer_short_short_600ms.mp4	155.80762830131698	156.41594848505247	0.6083201837354864	n/a	n/a	n/a	n/a
71.3935546875	0.2	146214	14	24	0	0	0	14	298	stimuli\Videos_short_600ms_vertflip\35.single_punch_with_hand_short_vertflip_short_600ms.mp4	35.single_punch_with_hand_short_vertflip_short_600ms.mp4	156.6076125833806	157.21593599281277	0.6083234094321597	n/a	n/a	n/a	n/a
72.19384765625	0.2	147853	15	24	0	0	0	15	34	stimuli\Videos_short_600ms\40.repeated_push_with_finger_short_short_600ms.mp4	40.repeated_push_with_finger_short_short_600ms.mp4	157.40759481273017	158.01591646269026	0.6083216499600894	n/a	n/a	n/a	n/a
72.99365234375	0.2	149491	16	24	0	0	1	16	366	stimuli\Targets_short_600ms_horflip\brush-stroke_short_horflip_short_600ms.mp4	brush-stroke_short_horflip_short_600ms.mp4	158.2075776285683	158.81590191773557	0.6083242891672853	n/a	n/a	n/a	n/a
73.79345703125	0.2	151129	17	24	0	0	0	17	203	stimuli\Videos_short_600ms_horvertflip\30.finger_pulling_back_another_finger_short_horvertflip_short_600ms.mp4	30.finger_pulling_back_another_finger_short_horvertflip_short_600ms.mp4	159.0075610308977	159.61588414708422	0.6083231161865115	n/a	n/a	n/a	n/a
74.59375	0.2	152768	18	24	0	0	0	18	229	stimuli\Videos_short_600ms_horvertflip\54.repeated_touch_with_knife_short_horvertflip_short_600ms.mp4	54.repeated_touch_with_knife_short_horvertflip_short_600ms.mp4	159.8075450197166	160.41587517378505	0.608330154068426	n/a	n/a	n/a	n/a
75.3935546875	0.2	154406	19	24	0	0	0	19	311	stimuli\Videos_short_600ms_vertflip\47.(long)scratching_with_finger_nails_short_vertflip_short_600ms.mp4	47.(long)scratching_with_finger_nails_short_vertflip_short_600ms.mp4	160.60752812880037	161.215847139556	0.608319010755622	n/a	n/a	n/a	n/a
76.19384765625	0.2	156045	20	24	0	0	0	20	133	stimuli\Videos_short_600ms_horflip\49.repeated_slap_with_hand_short_horflip_short_600ms.mp4	49.repeated_slap_with_hand_short_horflip_short_600ms.mp4	161.40751123788505	162.01583230135566	0.608321063470612	n/a	n/a	n/a	n/a
76.99365234375	0.2	157683	21	24	0	0	0	21	218	stimuli\Videos_short_600ms_horvertflip\44.pushing_top_to_bottom_with_finger_short_horvertflip_short_600ms.mp4	44.pushing_top_to_bottom_with_finger_short_horvertflip_short_600ms.mp4	162.2074908280274	162.8158124779884	0.6083216499609989	n/a	n/a	n/a	n/a
77.79345703125	0.2	159321	22	24	0	0	0	22	22	stimuli\Videos_short_600ms\3.single_push_with_finger_short_short_600ms.mp4	3.single_push_with_finger_short_short_600ms.mp4	163.00747569658233	163.61579529382743	0.6083195972450994	n/a	n/a	n/a	n/a
78.59375	0.2	160960	23	24	0	0	0	23	245	stimuli\Videos_short_600ms_horvertflip\69.stroke_with_soft_sock_short_horvertflip_short_600ms.mp4	69.stroke_with_soft_sock_short_horvertflip_short_600ms.mp4	163.80745968540123	164.4157798691367	0.6083201837354864	n/a	n/a	n/a	n/a
79.3935546875	0.2	162598	24	24	0	0	0	24	18	stimuli\Videos_short_600ms\26.single_touch_with_a_blunt_syringe_short_short_600ms.mp4	26.single_touch_with_a_blunt_syringe_short_short_600ms.mp4	164.60742519978066	165.215764444446	0.6083392446653306	n/a	n/a	n/a	n/a
80.193359375	0.2	164236	25	24	0	0	0	25	44	stimuli\Videos_short_600ms\5.repeated_tap_with_finger_moving_from_top_to_bottom_short_short_600ms.mp4	5.repeated_tap_with_finger_moving_from_top_to_bottom_short_short_600ms.mp4	165.4074267833039	166.01574198187336	0.6083151985694712	n/a	n/a	n/a	n/a
80.99365234375	0.2	165875	26	24	0	0	0	26	271	stimuli\Videos_short_600ms_vertflip\10.single_touch_with_knife_short_vertflip_short_600ms.mp4	10.single_touch_with_knife_short_vertflip_short_600ms.mp4	166.20740402748652	166.8157268504283	0.6083228229417728	n/a	n/a	n/a	n/a
81.79345703125	0.2	167513	27	24	0	0	0	27	345	stimuli\Videos_short_600ms_vertflip\78.single_stroke_top_to_bottom_with_soft_brush_short_vertflip_short_600ms.mp4	78.single_stroke_top_to_bottom_with_soft_brush_short_vertflip_short_600ms.mp4	167.0073871365712	167.6157117189823	0.6083245824111145	n/a	n/a	n/a	n/a
82.59326171875	0.2	169151	28	24	0	0	1	28	377	stimuli\Targets_short_600ms_horvertflip\hand-stroke_short_vertflip_short_600ms.mp4	hand-stroke_short_vertflip_short_600ms.mp4	167.8073907728094	168.41569541455647	0.6083046417470541	n/a	n/a	n/a	n/a
83.3935546875	0.2	170790	29	24	0	0	0	29	197	stimuli\Videos_short_600ms_horvertflip\25.single_touch_with_stanley_knife_short_horvertflip_short_600ms.mp4	25.single_touch_with_stanley_knife_short_horvertflip_short_600ms.mp4	168.60735921963987	169.21567676416998	0.6083175445301094	n/a	n/a	n/a	n/a
84.193359375	0.2	172428	30	24	0	0	0	30	285	stimuli\Videos_short_600ms_vertflip\23.single_push_with_a_spoon_short_vertflip_short_600ms.mp4	23.single_push_with_a_spoon_short_vertflip_short_600ms.mp4	169.40734790038005	170.01563758662903	0.6082896862490088	n/a	n/a	n/a	n/a
84.9931640625	0.2	174066	31	24	0	0	1	31	362	stimuli\Targets_short_600ms\chopstickwood-tap_short_short_600ms.mp4	chopstickwood-tap_short_short_600ms.mp4	170.20732221211256	170.8156218686927	0.6082996565801295	n/a	n/a	n/a	n/a
85.79345703125	0.2	175705	32	24	0	0	0	32	24	stimuli\Videos_short_600ms\31.hand_grabbing_wrist_short_short_600ms.mp4	31.hand_grabbing_wrist_short_short_600ms.mp4	171.00730502795068	171.61562697115733	0.6083219432066471	n/a	n/a	n/a	n/a
86.59326171875	0.2	177343	33	24	0	0	0	33	161	stimuli\Videos_short_600ms_horflip\74.fingers_walking_from_top_to_bottom_short_horflip_short_600ms.mp4	74.fingers_walking_from_top_to_bottom_short_horflip_short_600ms.mp4	171.8072878437897	172.4155913125569	0.6083034687671898	n/a	n/a	n/a	n/a
87.39306640625	0.2	178981	34	24	0	0	0	34	326	stimuli\Videos_short_600ms_vertflip\60.single_push_with_tip_of_pencil_short_vertflip_short_600ms.mp4	60.single_push_with_tip_of_pencil_short_vertflip_short_600ms.mp4	172.607272419099	173.21560081369716	0.6083283945981748	n/a	n/a	n/a	n/a
88.193359375	0.2	180620	35	24	0	0	0	35	213	stimuli\Videos_short_600ms_horvertflip\4.repeated_tap_with_finger_slow_short_horvertflip_short_600ms.mp4	4.repeated_tap_with_finger_slow_short_horvertflip_short_600ms.mp4	173.40725523493802	174.01558597549592	0.6083307405579035	n/a	n/a	n/a	n/a
88.9931640625	0.2	182258	36	24	0	0	0	36	157	stimuli\Videos_short_600ms_horflip\70.(long)stroke_with_finger_all_over_the_hand_short_horflip_short_600ms.mp4	70.(long)stroke_with_finger_all_over_the_hand_short_horflip_short_600ms.mp4	174.20723922375691	174.81555706153267	0.6083178377757577	n/a	n/a	n/a	n/a
89.79296875	0.2	183896	37	24	0	0	0	37	284	stimuli\Videos_short_600ms_vertflip\22.single_touch_with_metal_chopstick_short_vertflip_short_600ms.mp4	22.single_touch_with_metal_chopstick_short_vertflip_short_600ms.mp4	175.0072217463512	175.61554574227284	0.6083239959216371	n/a	n/a	n/a	n/a
90.59326171875	0.2	185535	38	24	0	0	0	38	87	stimuli\Videos_short_600ms\89.single_touch_with_plastic_brush_short_short_600ms.mp4	89.single_touch_with_plastic_brush_short_short_600ms.mp4	175.80720338920946	176.4155238661906	0.6083204769811346	n/a	n/a	n/a	n/a
91.39306640625	0.2	187173	39	24	0	0	0	39	140	stimuli\Videos_short_600ms_horflip\55.touch_top_to_bottom_with_nail_file_short_horflip_short_600ms.mp4	55.touch_top_to_bottom_with_nail_file_short_horflip_short_600ms.mp4	176.60718796451874	177.2155022833531	0.6083143188343456	n/a	n/a	n/a	n/a
92.19287109375	0.2	188811	40	24	0	0	0	40	319	stimuli\Videos_short_600ms_vertflip\54.repeated_touch_with_knife_short_vertflip_short_600ms.mp4	54.repeated_touch_with_knife_short_vertflip_short_600ms.mp4	177.40717048711304	178.01549096409326	0.6083204769802251	n/a	n/a	n/a	n/a
92.9931640625	0.2	190450	41	24	0	0	0	41	37	stimuli\Videos_short_600ms\43.touch_top_to_bottom_with_sharp_wooden_stick_short_short_600ms.mp4	43.touch_top_to_bottom_with_sharp_wooden_stick_short_short_600ms.mp4	178.20715183672655	178.81547143397165	0.6083195972450994	n/a	n/a	n/a	n/a
93.79296875	0.2	192088	42	24	0	0	0	42	16	stimuli\Videos_short_600ms\24.single_stroke_top_to_bottom_with_a_spoon_short_short_600ms.mp4	24.single_stroke_top_to_bottom_with_a_spoon_short_short_600ms.mp4	179.0071314268689	179.61545395656594	0.608322529697034	n/a	n/a	n/a	n/a
94.59326171875	0.2	193727	43	24	0	0	0	43	49	stimuli\Videos_short_600ms\54.repeated_touch_with_knife_short_short_600ms.mp4	54.repeated_touch_with_knife_short_short_600ms.mp4	179.8071813958295	180.41543735889445	0.6082559630649484	n/a	n/a	n/a	n/a
95.39306640625	0.2	195365	44	24	0	0	0	44	254	stimuli\Videos_short_600ms_horvertflip\77.tapping_with_all_fingers_short_horvertflip_short_600ms.mp4	77.tapping_with_all_fingers_short_horvertflip_short_600ms.mp4	180.60708034357776	181.21542252069412	0.6083421771163557	n/a	n/a	n/a	n/a
96.19287109375	0.2	197003	45	24	0	0	0	45	294	stimuli\Videos_short_600ms_vertflip\31.hand_grabbing_wrist_short_vertflip_short_600ms.mp4	31.hand_grabbing_wrist_short_vertflip_short_600ms.mp4	181.40709688259992	182.0154070960034	0.6083102134034561	n/a	n/a	n/a	n/a
96.9931640625	0.2	198642	46	24	0	0	0	46	247	stimuli\Videos_short_600ms_horvertflip\70.(long)stroke_with_finger_all_over_the_hand_short_horvertflip_short_600ms.mp4	70.(long)stroke_with_finger_all_over_the_hand_short_horvertflip_short_600ms.mp4	182.2070673821463	182.81538727263617	0.6083198904898381	n/a	n/a	n/a	n/a
97.79296875	0.2	200280	47	24	0	0	0	47	40	stimuli\Videos_short_600ms\46.scratching_top_to_bottom_with_finger_nails_short_short_600ms.mp4	46.scratching_top_to_bottom_with_finger_nails_short_short_600ms.mp4	183.00705782235673	183.6153686222497	0.6083107998929336	n/a	n/a	n/a	n/a
98.5927734375	0.2	201918	48	24	0	0	0	48	129	stimuli\Videos_short_600ms_horflip\45.scratching_with_finger_nails_short_horflip_short_600ms.mp4	45.scratching_with_finger_nails_short_horflip_short_600ms.mp4	183.80710749807167	184.415329151464	0.6082216533923201	n/a	n/a	n/a	n/a
99.39306640625	0.2	203557	49	24	0	0	0	49	185	stimuli\Videos_short_600ms_horvertflip\14.repeated_touch_with_pencil_short_horvertflip_short_600ms.mp4	14.repeated_touch_with_pencil_short_horvertflip_short_600ms.mp4	184.60702521350504	185.21531226054776	0.6082870470427224	n/a	n/a	n/a	n/a
100.19287109375	0.2	205195	50	24	0	0	0	50	211	stimuli\Videos_short_600ms_horvertflip\38.double_slap_with_pencil_short_horvertflip_short_600ms.mp4	38.double_slap_with_pencil_short_horvertflip_short_600ms.mp4	185.40701887941125	186.01529566287627	0.608276783465044	n/a	n/a	n/a	n/a
100.99267578125	0.2	206833	51	24	0	0	0	51	33	stimuli\Videos_short_600ms\4.repeated_tap_with_finger_slow_short_short_600ms.mp4	4.repeated_tap_with_finger_slow_short_short_600ms.mp4	186.20698146134055	186.8152784787153	0.6082970173747526	n/a	n/a	n/a	n/a
101.79296875	0.2	208472	52	24	0	0	0	52	83	stimuli\Videos_short_600ms\85.touch_top_to_bottom_with_fabric_short_short_600ms.mp4	85.touch_top_to_bottom_with_fabric_short_short_600ms.mp4	187.00696574340415	187.61528973932585	0.6083239959216371	n/a	n/a	n/a	n/a
102.5927734375	0.2	210110	53	24	0	0	0	53	270	stimuli\Videos_short_600ms_vertflip\1.repeated_touch_with_finger_fast_short_vertflip_short_600ms.mp4	1.repeated_touch_with_finger_fast_short_vertflip_short_600ms.mp4	187.80694826599847	188.4152757808606	0.6083275148621397	n/a	n/a	n/a	n/a
103.392578125	0.2	211748	54	24	0	0	0	54	239	stimuli\Videos_short_600ms_horvertflip\63.stroke_top_to_bottom_with_screwdriver_short_horvertflip_short_600ms.mp4	63.stroke_top_to_bottom_with_screwdriver_short_horvertflip_short_600ms.mp4	188.60693078859185	189.2152618223954	0.6083310338035517	n/a	n/a	n/a	n/a
104.19287109375	0.2	213387	55	24	0	0	0	55	227	stimuli\Videos_short_600ms_horvertflip\52.touch_top_to_bottom_with_hammer_short_horvertflip_short_600ms.mp4	52.touch_top_to_bottom_with_hammer_short_horvertflip_short_600ms.mp4	189.406914484166	190.01524493147917	0.6083304473131648	n/a	n/a	n/a	n/a
104.99267578125	0.2	215025	56	24	0	0	0	56	19	stimuli\Videos_short_600ms\27.single_push_with_a_plastic_whisk_short_short_600ms.mp4	27.single_push_with_a_plastic_whisk_short_short_600ms.mp4	190.20689759324975	190.81521777698617	0.6083201837363958	n/a	n/a	n/a	n/a
105.79248046875	0.2	216663	57	24	0	0	0	57	139	stimuli\Videos_short_600ms_horflip\54.repeated_touch_with_knife_short_horflip_short_600ms.mp4	54.repeated_touch_with_knife_short_horflip_short_600ms.mp4	191.0070381749365	191.6152000063348	0.6081618313983199	n/a	n/a	n/a	n/a
106.5927734375	0.2	218302	58	24	0	0	0	58	349	stimuli\Videos_short_600ms_vertflip\81.single_stroke_top_to_bottom_with_cotton_pad_short_vertflip_short_600ms.mp4	81.single_stroke_top_to_bottom_with_cotton_pad_short_vertflip_short_600ms.mp4	191.80686381141825	192.4151845816441	0.6083207702258733	n/a	n/a	n/a	n/a
107.392578125	0.2	219940	59	24	0	0	0	59	174	stimuli\Videos_short_600ms_horflip\86.touch_top_to_bottom_with_hair_brush_short_horflip_short_600ms.mp4	86.touch_top_to_bottom_with_hair_brush_short_horflip_short_600ms.mp4	192.6068463340116	193.2151668109927	0.6083204769811346	n/a	n/a	n/a	n/a
108.1923828125	0.2	221578	60	24	0	0	0	60	64	stimuli\Videos_short_600ms\68.stroke_top_to_bottom_with_shawl_short_short_600ms.mp4	68.stroke_top_to_bottom_with_shawl_short_short_600ms.mp4	193.4068309093209	194.0151499200765	0.608319010755622	n/a	n/a	n/a	n/a
108.99267578125	0.2	223217	61	24	0	0	0	61	4	stimuli\Videos_short_600ms\13.single_touch_with_pen_short_short_600ms.mp4	13.single_touch_with_pen_short_short_600ms.mp4	194.206804634563	194.81513420214105	0.6083295675780391	n/a	n/a	n/a	n/a
109.79248046875	0.2	224855	62	24	0	0	0	62	58	stimuli\Videos_short_600ms\62.touch_top_to_bottom_with_scissors_short_short_600ms.mp4	62.touch_top_to_bottom_with_scissors_short_short_600ms.mp4	195.00677923953936	195.6151173112248	0.6083380716854663	n/a	n/a	n/a	n/a
110.59228515625	0.2	226493	63	24	0	0	0	63	261	stimuli\Videos_short_600ms_horvertflip\83.single_stroke_top_to_bottom_with_cotton_bud_short_horvertflip_short_600ms.mp4	83.single_stroke_top_to_bottom_with_cotton_bud_short_horvertflip_short_600ms.mp4	195.80677730412208	196.41509895408308	0.6083216499609989	n/a	n/a	n/a	n/a
111.392578125	0.2	228132	64	24	0	0	0	64	85	stimuli\Videos_short_600ms\87.single_stroke_top_to_bottom_with_plastic_brush_short_short_600ms.mp4	87.single_stroke_top_to_bottom_with_plastic_brush_short_short_600ms.mp4	196.6068293257977	197.21508089018695	0.6082515643893203	n/a	n/a	n/a	n/a
112.1923828125	0.2	229770	65	24	0	0	0	65	30	stimuli\Videos_short_600ms\37.single_stab_with_nail_file_short_short_600ms.mp4	37.single_stab_with_nail_file_short_short_600ms.mp4	197.40672006268417	198.01506546549624	0.6083454028121196	n/a	n/a	n/a	n/a
112.9921875	0.2	231408	66	24	0	0	0	66	241	stimuli\Videos_short_600ms_horvertflip\65.stroke_top_to_bottom_with_stanley_knife_short_horvertflip_short_600ms.mp4	65.stroke_top_to_bottom_with_stanley_knife_short_horvertflip_short_600ms.mp4	198.20672927057967	198.8150482813353	0.608319010755622	n/a	n/a	n/a	n/a
113.79248046875	0.2	233047	67	24	0	0	0	67	275	stimuli\Videos_short_600ms_vertflip\14.repeated_touch_with_pencil_short_vertflip_short_600ms.mp4	14.repeated_touch_with_pencil_short_vertflip_short_600ms.mp4	199.0067197107901	199.61500646458808	0.6082867537979837	n/a	n/a	n/a	n/a
114.59228515625	0.2	234685	68	24	0	0	1	68	368	stimuli\Targets_short_600ms_horflip\chopstickwood-tap_short_horflip_short_600ms.mp4	chopstickwood-tap_short_horflip_short_600ms.mp4	199.8067113239813	200.41501684546347	0.6083055214821798	n/a	n/a	n/a	n/a
115.392578125	0.2	236324	69	24	0	0	0	69	335	stimuli\Videos_short_600ms_vertflip\69.stroke_with_soft_sock_short_vertflip_short_600ms.mp4	69.stroke_with_soft_sock_short_vertflip_short_600ms.mp4	200.60668094379253	201.2149718030205	0.6082908592279637	n/a	n/a	n/a	n/a
116.1923828125	0.2	237962	70	24	0	0	0	70	29	stimuli\Videos_short_600ms\36.single_slap_with_full_hand_short_short_600ms.mp4	36.single_slap_with_full_hand_short_short_600ms.mp4	201.40666170691568	202.014978078465	0.6083163715493356	n/a	n/a	n/a	n/a
116.9921875	0.2	239600	71	24	0	0	0	71	236	stimuli\Videos_short_600ms_horvertflip\60.single_push_with_tip_of_pencil_short_horvertflip_short_600ms.mp4	60.single_push_with_tip_of_pencil_short_horvertflip_short_600ms.mp4	202.20664276328353	202.81497584980295	0.6083330865194512	n/a	n/a	n/a	n/a
117.79248046875	0.2	241239	72	24	0	0	0	72	283	stimuli\Videos_short_600ms_vertflip\21.repeated_touch_with_metal_chopstick_short_vertflip_short_600ms.mp4	21.repeated_touch_with_metal_chopstick_short_vertflip_short_600ms.mp4	203.00662557912256	203.61494722908355	0.6083216499609989	n/a	n/a	n/a	n/a
118.59228515625	0.2	242877	73	24	0	0	0	73	200	stimuli\Videos_short_600ms_horvertflip\28.single_injection_with_sharp_needle_short_horvertflip_short_600ms.mp4	28.single_injection_with_sharp_needle_short_horvertflip_short_600ms.mp4	203.80660868820632	204.4149315111481	0.6083228229417728	n/a	n/a	n/a	n/a
119.39208984375	0.2	244515	74	24	0	0	0	74	113	stimuli\Videos_short_600ms_horflip\30.finger_pulling_back_another_finger_short_horflip_short_600ms.mp4	30.finger_pulling_back_another_finger_short_horflip_short_600ms.mp4	204.60659121080064	205.21492136486813	0.6083301540675166	n/a	n/a	n/a	n/a
120.1923828125	0.2	246154	75	24	0	0	0	75	237	stimuli\Videos_short_600ms_horvertflip\61.single_hit_with_rolling_pin_short_horvertflip_short_600ms.mp4	61.single_hit_with_rolling_pin_short_horvertflip_short_600ms.mp4	205.40657402663965	206.01489802256128	0.6083239959216371	n/a	n/a	n/a	n/a
120.9921875	0.2	247792	76	24	0	0	0	76	231	stimuli\Videos_short_600ms_horvertflip\56.repeated_touch_with_nail_file_short_horvertflip_short_600ms.mp4	56.repeated_touch_with_nail_file_short_horvertflip_short_600ms.mp4	206.20655860194893	206.8148787856844	0.6083201837354864	n/a	n/a	n/a	n/a
121.7919921875	0.2	249430	77	24	0	0	0	77	225	stimuli\Videos_short_600ms_horvertflip\50.single_(long)hard_push_with_thumb_short_horvertflip_short_600ms.mp4	50.single_(long)hard_push_with_thumb_short_horvertflip_short_600ms.mp4	207.00654288401256	207.61486218801292	0.6083193040003607	n/a	n/a	n/a	n/a
122.59228515625	0.2	251069	78	24	0	0	0	78	41	stimuli\Videos_short_600ms\47.(long)scratching_with_finger_nails_short_short_600ms.mp4	47.(long)scratching_with_finger_nails_short_short_600ms.mp4	207.8065256998516	208.41484353762644	0.6083178377748482	n/a	n/a	n/a	n/a
123.39208984375	0.2	252707	79	24	0	0	0	79	53	stimuli\Videos_short_600ms\58.single_slap_with_pencil_short_short_600ms.mp4	58.single_slap_with_pencil_short_short_600ms.mp4	208.60650851569065	209.21482693995583	0.6083184242652351	n/a	n/a	n/a	n/a
124.19189453125	0.2	254345	80	24	0	0	0	80	220	stimuli\Videos_short_600ms_horvertflip\46.scratching_top_to_bottom_with_finger_nails_short_horvertflip_short_600ms.mp4	46.scratching_top_to_bottom_with_finger_nails_short_horvertflip_short_600ms.mp4	209.406488985569	210.0148100490396	0.608321063470612	n/a	n/a	n/a	n/a
124.9921875	0.2	255984	81	24	0	0	0	81	112	stimuli\Videos_short_600ms_horflip\3.single_push_with_finger_short_horflip_short_600ms.mp4	3.single_push_with_finger_short_horflip_short_600ms.mp4	210.2064568459091	210.81479433110417	0.6083374851950794	n/a	n/a	n/a	n/a
125.7919921875	0.2	257622	82	24	0	0	0	82	92	stimuli\Videos_short_600ms_horflip\11.single_touch_with_lighter_short_horflip_short_600ms.mp4	11.single_touch_with_lighter_short_horflip_short_600ms.mp4	211.006441714464	211.6147786131678	0.6083368987037829	n/a	n/a	n/a	n/a
126.591796875	0.2	259260	83	24	0	0	0	83	96	stimuli\Videos_short_600ms_horflip\15.single_stroke_top_to_bottom_with_a_plastic_whisk_short_horflip_short_600ms.mp4	15.single_stroke_top_to_bottom_with_a_plastic_whisk_short_horflip_short_600ms.mp4	211.80641397347972	212.41475849655671	0.6083445230769939	n/a	n/a	n/a	n/a
127.39208984375	0.2	260899	84	24	0	0	0	84	314	stimuli\Videos_short_600ms_vertflip\5.repeated_tap_with_finger_moving_from_top_to_bottom_short_vertflip_short_600ms.mp4	5.repeated_tap_with_finger_moving_from_top_to_bottom_short_vertflip_short_600ms.mp4	212.6063973758091	213.21474160564048	0.6083442298313457	n/a	n/a	n/a	n/a
128.19189453125	0.2	262537	85	24	0	0	0	85	310	stimuli\Videos_short_600ms_vertflip\46.scratching_top_to_bottom_with_finger_nails_short_vertflip_short_600ms.mp4	46.scratching_top_to_bottom_with_finger_nails_short_vertflip_short_600ms.mp4	213.40641332834093	214.01472823366475	0.608314905323823	n/a	n/a	n/a	n/a
128.99169921875	0.2	264175	86	24	0	0	0	86	50	stimuli\Videos_short_600ms\55.touch_top_to_bottom_with_nail_file_short_short_600ms.mp4	55.touch_top_to_bottom_with_nail_file_short_short_600ms.mp4	214.20639614417996	214.8147166211602	0.6083204769802251	n/a	n/a	n/a	n/a
129.7919921875	0.2	265814	87	24	0	0	1	87	372	stimuli\Targets_short_600ms_horvertflip\brush-stroke_short_vertflip_short_600ms.mp4	brush-stroke_short_vertflip_short_600ms.mp4	215.00638365193936	215.61467304494272	0.6082893930033606	n/a	n/a	n/a	n/a
130.591796875	0.2	267452	88	24	0	0	0	88	54	stimuli\Videos_short_600ms\59.single_push_with_long_side_pencil_short_short_600ms.mp4	59.single_push_with_long_side_pencil_short_short_600ms.mp4	215.80635972314212	216.4146708162807	0.6083110931385818	n/a	n/a	n/a	n/a
131.3916015625	0.2	269090	89	24	0	0	0	89	170	stimuli\Videos_short_600ms_horflip\82.repeated_touch_with_cotton_bud_short_horflip_short_600ms.mp4	82.repeated_touch_with_cotton_bud_short_horflip_short_600ms.mp4	216.60635016335257	217.2146589105305	0.6083087471779436	n/a	n/a	n/a	n/a
132.19189453125	0.2	270729	90	24	0	0	0	90	127	stimuli\Videos_short_600ms_horflip\43.touch_top_to_bottom_with_sharp_wooden_stick_short_horflip_short_600ms.mp4	43.touch_top_to_bottom_with_sharp_wooden_stick_short_horflip_short_600ms.mp4	217.4063370846225	218.0146176802737	0.6082805956511947	n/a	n/a	n/a	n/a
132.99169921875	0.2	272367	91	24	0	0	0	91	267	stimuli\Videos_short_600ms_horvertflip\89.single_touch_with_plastic_brush_short_horvertflip_short_600ms.mp4	89.single_touch_with_plastic_brush_short_horvertflip_short_600ms.mp4	218.2063052382082	218.81463861797147	0.6083333797632804	n/a	n/a	n/a	n/a
133.79150390625	0.2	274005	92	24	0	0	0	92	238	stimuli\Videos_short_600ms_horvertflip\62.touch_top_to_bottom_with_scissors_short_horvertflip_short_600ms.mp4	62.touch_top_to_bottom_with_scissors_short_horvertflip_short_600ms.mp4	219.00628688106644	219.61461058374243	0.6083237026759889	n/a	n/a	n/a	n/a
134.591796875	0.2	275644	93	24	0	0	0	93	130	stimuli\Videos_short_600ms_horflip\46.scratching_top_to_bottom_with_finger_nails_short_horflip_short_600ms.mp4	46.scratching_top_to_bottom_with_finger_nails_short_horflip_short_600ms.mp4	219.80626940365983	220.41460073070812	0.6083313270482904	n/a	n/a	n/a	n/a
135.3916015625	0.2	277282	94	24	0	0	0	94	126	stimuli\Videos_short_600ms_horflip\42.single_slap_with_plastic_whisk_short_horflip_short_600ms.mp4	42.single_slap_with_plastic_whisk_short_horflip_short_600ms.mp4	220.60625368572437	221.21457445595024	0.6083207702258733	n/a	n/a	n/a	n/a
136.19189453125	0.2	278921	95	24	0	0	0	95	222	stimuli\Videos_short_600ms_horvertflip\48.single_slap_with_hand_short_horvertflip_short_600ms.mp4	48.single_slap_with_hand_short_horvertflip_short_600ms.mp4	221.40623826103365	222.0145587380148	0.6083204769811346	n/a	n/a	n/a	n/a
136.99169921875	0.2	280559	96	24	0	0	0	96	5	stimuli\Videos_short_600ms\14.repeated_touch_with_pencil_short_short_600ms.mp4	14.repeated_touch_with_pencil_short_short_600ms.mp4	222.2062204903823	222.81454096736343	0.6083204769811346	7.0	4.0	3.966058935808178	0.0
303.2529296875	0.2	621062	97	24	1	0	0	0	146	stimuli\Videos_short_600ms_horflip\60.single_push_with_tip_of_pencil_short_horflip_short_600ms.mp4	60.single_push_with_tip_of_pencil_short_horflip_short_600ms.mp4	388.46932348655537	389.0776536406229	0.6083301540675166	n/a	n/a	n/a	n/a
304.052734375	0.2	622700	98	24	1	0	0	1	143	stimuli\Videos_short_600ms_horflip\58.single_slap_with_pencil_short_horflip_short_600ms.mp4	58.single_slap_with_pencil_short_horflip_short_600ms.mp4	389.2693189119318	389.8776355767268	0.6083166647949838	n/a	n/a	n/a	n/a
304.85302734375	0.2	624339	99	24	1	0	0	2	280	stimuli\Videos_short_600ms_vertflip\19.single_touch_with_rolling_pin_short_vertflip_short_600ms.mp4	19.single_touch_with_rolling_pin_short_vertflip_short_600ms.mp4	390.06927328299935	390.67762015203607	0.6083468690367226	n/a	n/a	n/a	n/a
305.65283203125	0.2	625977	100	24	1	0	0	3	351	stimuli\Videos_short_600ms_vertflip\83.single_stroke_top_to_bottom_with_cotton_bud_short_vertflip_short_600ms.mp4	83.single_stroke_top_to_bottom_with_cotton_bud_short_vertflip_short_600ms.mp4	390.8692898220215	391.4776026746304	0.608312852608833	n/a	n/a	n/a	n/a
306.45263671875	0.2	627615	101	24	1	0	0	4	99	stimuli\Videos_short_600ms_horflip\18.single_stroke_from_top_to_bottom_with_rolling_pin_short_horflip_short_600ms.mp4	18.single_stroke_from_top_to_bottom_with_rolling_pin_short_horflip_short_600ms.mp4	391.6692512309701	392.2775834377535	0.608332206783416	n/a	n/a	n/a	n/a
307.2529296875	0.2	629254	102	24	1	0	0	5	82	stimuli\Videos_short_600ms\84.single_touch_with_cotton_bud_short_short_600ms.mp4	84.single_touch_with_cotton_bud_short_short_600ms.mp4	392.469248122572	393.0775724117384	0.6083242891663758	n/a	n/a	n/a	n/a
308.052734375	0.2	630892	103	24	1	0	0	6	177	stimuli\Videos_short_600ms_horflip\89.single_touch_with_plastic_brush_short_horflip_short_600ms.mp4	89.single_touch_with_plastic_brush_short_horflip_short_600ms.mp4	393.2692353370867	393.87755757353807	0.6083222364513858	n/a	n/a	n/a	n/a
308.8525390625	0.2	632530	104	24	1	0	0	7	90	stimuli\Videos_short_600ms_horflip\1.repeated_touch_with_finger_fast_short_horflip_short_600ms.mp4	1.repeated_touch_with_finger_fast_short_horflip_short_600ms.mp4	394.06920876908407	394.6775348177207	0.6083260486366271	n/a	n/a	n/a	n/a
309.65283203125	0.2	634169	105	24	1	0	0	8	141	stimuli\Videos_short_600ms_horflip\56.repeated_touch_with_nail_file_short_horflip_short_600ms.mp4	56.repeated_touch_with_nail_file_short_horflip_short_600ms.mp4	394.8692118188328	395.4775229119705	0.6083110931376723	n/a	n/a	n/a	n/a
310.45263671875	0.2	635807	106	24	1	0	0	9	215	stimuli\Videos_short_600ms_horvertflip\41.injection_with_blunt_syringe_short_horvertflip_short_600ms.mp4	41.injection_with_blunt_syringe_short_horvertflip_short_600ms.mp4	395.669175573742	396.2774799222434	0.6083043485014059	n/a	n/a	n/a	n/a
311.25244140625	0.2	637445	107	24	1	0	0	10	89	stimuli\Videos_short_600ms\90.repeated_touch_with_sponge_short_short_600ms.mp4	90.repeated_touch_with_sponge_short_short_600ms.mp4	396.46915721660025	397.0774835584825	0.6083263418822753	n/a	n/a	n/a	n/a
312.052734375	0.2	639084	108	24	1	0	1	11	379	stimuli\Targets_short_600ms_vertflip\chopstick-silver-tap_short_horvertflip_short_600ms.mp4	chopstick-silver-tap_short_horvertflip_short_600ms.mp4	397.269140325684	397.87746373511527	0.6083234094312502	n/a	n/a	n/a	n/a
312.8525390625	0.2	640722	109	24	1	0	0	12	315	stimuli\Videos_short_600ms_vertflip\50.single_(long)hard_push_with_thumb_short_vertflip_short_600ms.mp4	50.single_(long)hard_push_with_thumb_short_vertflip_short_600ms.mp4	398.0691240212582	398.677456814532	0.608332793273803	n/a	n/a	n/a	n/a
313.65234375	0.2	642360	110	24	1	0	0	13	312	stimuli\Videos_short_600ms_vertflip\48.single_slap_with_hand_short_vertflip_short_600ms.mp4	48.single_slap_with_hand_short_vertflip_short_600ms.mp4	398.86910859656746	399.47743024652846	0.6083216499609989	n/a	n/a	n/a	n/a
314.45263671875	0.2	643999	111	24	1	0	0	14	94	stimuli\Videos_short_600ms_horflip\13.single_touch_with_pen_short_horflip_short_600ms.mp4	13.single_touch_with_pen_short_horflip_short_600ms.mp4	399.669094931347	400.27742449892503	0.6083295675780391	n/a	n/a	n/a	n/a
315.25244140625	0.2	645637	112	24	1	0	0	15	17	stimuli\Videos_short_600ms\25.single_touch_with_stanley_knife_short_short_600ms.mp4	25.single_touch_with_stanley_knife_short_short_600ms.mp4	400.4690768674509	401.0773952917162	0.6083184242652351	n/a	n/a	n/a	n/a
316.05224609375	0.2	647275	113	24	1	0	0	16	216	stimuli\Videos_short_600ms_horvertflip\42.single_slap_with_plastic_whisk_short_horvertflip_short_600ms.mp4	42.single_slap_with_plastic_whisk_short_horvertflip_short_600ms.mp4	401.26906202925056	401.8773822129861	0.6083201837354864	n/a	n/a	n/a	n/a
316.8525390625	0.2	648914	114	24	1	0	0	17	102	stimuli\Videos_short_600ms_horflip\20.single_touch_with_screwdriver_short_horflip_short_600ms.mp4	20.single_touch_with_screwdriver_short_horflip_short_600ms.mp4	402.0690422058833	402.67736150988367	0.6083193040003607	n/a	n/a	n/a	n/a
317.65234375	0.2	650552	115	24	1	0	1	18	378	stimuli\Targets_short_600ms_vertflip\brush-stroke_short_horvertflip_short_600ms.mp4	brush-stroke_short_horvertflip_short_600ms.mp4	402.8690276609286	403.4773434459876	0.6083157850589487	n/a	n/a	n/a	n/a
318.4521484375	0.2	652190	116	24	1	0	0	19	7	stimuli\Videos_short_600ms\16.repeated_touch_with_plastic_brush_short_short_600ms.mp4	16.repeated_touch_with_plastic_brush_short_short_600ms.mp4	403.669030124187	404.2773277280521	0.6082976038651395	n/a	n/a	n/a	n/a
319.25244140625	0.2	653829	117	24	1	0	0	20	124	stimuli\Videos_short_600ms_horflip\40.repeated_push_with_finger_short_horflip_short_600ms.mp4	40.repeated_push_with_finger_short_horflip_short_600ms.mp4	404.4689689532652	405.0773090776656	0.6083401244004563	n/a	n/a	n/a	n/a
320.05224609375	0.2	655467	118	24	1	0	1	21	374	stimuli\Targets_short_600ms_horvertflip\chopstickwood-tap_short_vertflip_short_600ms.mp4	chopstickwood-tap_short_vertflip_short_600ms.mp4	405.26897288274904	405.87729247999414	0.6083195972450994	n/a	n/a	n/a	n/a
320.85205078125	0.2	657105	119	24	1	0	0	22	297	stimuli\Videos_short_600ms_vertflip\34.repeated_punch_with_hand_short_vertflip_short_600ms.mp4	34.repeated_punch_with_hand_short_vertflip_short_600ms.mp4	406.06895217964666	406.6772744160981	0.6083222364513858	n/a	n/a	n/a	n/a
321.65234375	0.2	658744	120	24	1	0	0	23	166	stimuli\Videos_short_600ms_horflip\79.long_with_soft_brush_all_over_the_hand_short_horflip_short_600ms.mp4	79.long_with_soft_brush_all_over_the_hand_short_horflip_short_600ms.mp4	406.8689191602525	407.4772619238583	0.6083427636058332	n/a	n/a	n/a	n/a
322.4521484375	0.2	660382	121	24	1	0	0	24	240	stimuli\Videos_short_600ms_horvertflip\64.repeated_touch_with_screwdriver_short_horvertflip_short_600ms.mp4	64.repeated_touch_with_screwdriver_short_horvertflip_short_600ms.mp4	407.6689260221865	408.2772426869815	0.6083166647949838	n/a	n/a	n/a	n/a
323.25244140625	0.2	662021	122	24	1	0	0	25	78	stimuli\Videos_short_600ms\80.stroke_with_sharp_stick_all_over_the_hand_short_short_600ms.mp4	80.stroke_with_sharp_stick_all_over_the_hand_short_short_600ms.mp4	408.46893669630754	409.077226969046	0.6082902727384862	n/a	n/a	n/a	n/a
324.05224609375	0.2	663659	123	24	1	0	0	26	287	stimuli\Videos_short_600ms_vertflip\25.single_touch_with_stanley_knife_short_vertflip_short_600ms.mp4	25.single_touch_with_stanley_knife_short_vertflip_short_600ms.mp4	409.2689215648616	409.8772033334935	0.6082817686319686	n/a	n/a	n/a	n/a
324.85205078125	0.2	665297	124	24	1	0	0	27	23	stimuli\Videos_short_600ms\30.finger_pulling_back_another_finger_short_short_600ms.mp4	30.finger_pulling_back_another_finger_short_short_600ms.mp4	410.0689164037485	410.6771653289315	0.6082489251830339	n/a	n/a	n/a	n/a
325.65234375	0.2	666936	125	24	1	0	0	28	75	stimuli\Videos_short_600ms\78.single_stroke_top_to_bottom_with_soft_brush_short_short_600ms.mp4	78.single_stroke_top_to_bottom_with_soft_brush_short_short_600ms.mp4	410.8688959938918	411.4771745368271	0.6082785429352953	n/a	n/a	n/a	n/a
326.4521484375	0.2	668574	126	24	1	0	0	29	42	stimuli\Videos_short_600ms\48.single_slap_with_hand_short_short_600ms.mp4	48.single_slap_with_hand_short_short_600ms.mp4	411.668842740587	412.2771655635279	0.6083228229408633	n/a	n/a	n/a	n/a
327.251953125	0.2	670212	127	24	1	0	0	30	178	stimuli\Videos_short_600ms_horflip\9.single_touch_with_hammer_short_horflip_short_600ms.mp4	9.single_touch_with_hammer_short_horflip_short_600ms.mp4	412.46881734556337	413.0771419279754	0.608324582412024	n/a	n/a	n/a	n/a
328.05224609375	0.2	671851	128	24	1	0	0	31	103	stimuli\Videos_short_600ms_horflip\21.repeated_touch_with_metal_chopstick_short_horflip_short_600ms.mp4	21.repeated_touch_with_metal_chopstick_short_horflip_short_600ms.mp4	413.26879840193214	413.8771291424901	0.6083307405579035	n/a	n/a	n/a	n/a
328.85205078125	0.2	673489	129	24	1	0	0	32	291	stimuli\Videos_short_600ms_vertflip\29.single_pinch_with_tweezers_short_vertflip_short_600ms.mp4	29.single_pinch_with_tweezers_short_vertflip_short_600ms.mp4	414.0687809245255	414.6771058001823	0.6083248756567627	n/a	n/a	n/a	n/a
329.65185546875	0.2	675127	130	24	1	0	0	33	219	stimuli\Videos_short_600ms_horvertflip\45.scratching_with_finger_nails_short_horvertflip_short_600ms.mp4	45.scratching_with_finger_nails_short_horvertflip_short_600ms.mp4	414.8687634471198	415.4770965336384	0.6083330865185417	n/a	n/a	n/a	n/a
330.4521484375	0.2	676766	131	24	1	0	0	34	286	stimuli\Videos_short_600ms_vertflip\24.single_stroke_top_to_bottom_with_a_spoon_short_vertflip_short_600ms.mp4	24.single_stroke_top_to_bottom_with_a_spoon_short_vertflip_short_600ms.mp4	415.6687474359387	416.2770726048402	0.6083251689015015	n/a	n/a	n/a	n/a
331.251953125	0.2	678404	132	24	1	0	0	35	137	stimuli\Videos_short_600ms_horflip\52.touch_top_to_bottom_with_hammer_short_horflip_short_600ms.mp4	52.touch_top_to_bottom_with_hammer_short_horflip_short_600ms.mp4	416.4687056191915	417.0770530747186	0.6083474555271096	n/a	n/a	n/a	n/a
332.0517578125	0.2	680042	133	24	1	0	0	36	199	stimuli\Videos_short_600ms_horvertflip\27.single_push_with_a_plastic_whisk_short_horvertflip_short_600ms.mp4	27.single_push_with_a_plastic_whisk_short_horvertflip_short_600ms.mp4	417.2687136541072	417.8770361838033	0.6083225296961245	n/a	n/a	n/a	n/a
332.85205078125	0.2	681681	134	24	1	0	0	37	268	stimuli\Videos_short_600ms_horvertflip\9.single_touch_with_hammer_short_horvertflip_short_600ms.mp4	9.single_touch_with_hammer_short_horvertflip_short_600ms.mp4	418.06869969564104	418.6770201726222	0.6083204769811346	n/a	n/a	n/a	n/a
333.65185546875	0.2	683319	135	24	1	0	0	38	244	stimuli\Videos_short_600ms_horvertflip\68.stroke_top_to_bottom_with_shawl_short_horvertflip_short_600ms.mp4	68.stroke_top_to_bottom_with_shawl_short_horvertflip_short_600ms.mp4	418.8686883763812	419.47700064250057	0.6083122661193556	n/a	n/a	n/a	n/a
334.45166015625	0.2	684957	136	24	1	0	0	39	295	stimuli\Videos_short_600ms_vertflip\32.single_(long)pinch_with_fingers_short_vertflip_short_600ms.mp4	32.single_(long)pinch_with_fingers_short_vertflip_short_600ms.mp4	419.66867412467127	420.2769849245642	0.6083107998929336	n/a	n/a	n/a	n/a
335.251953125	0.2	686596	137	24	1	0	0	40	123	stimuli\Videos_short_600ms_horflip\4.repeated_tap_with_finger_slow_short_horflip_short_600ms.mp4	4.repeated_tap_with_finger_slow_short_horflip_short_600ms.mp4	420.4686240970623	421.0769668606681	0.6083427636058332	n/a	n/a	n/a	n/a
336.0517578125	0.2	688234	138	24	1	0	0	41	313	stimuli\Videos_short_600ms_vertflip\49.repeated_slap_with_hand_short_vertflip_short_600ms.mp4	49.repeated_slap_with_hand_short_vertflip_short_600ms.mp4	421.2686072061461	421.8769490900167	0.6083418838707075	n/a	n/a	n/a	n/a
336.8515625	0.2	689872	139	24	1	0	0	42	98	stimuli\Videos_short_600ms_horflip\17.repeated_touch_with_rolling_pin_short_horflip_short_600ms.mp4	17.repeated_touch_with_rolling_pin_short_horflip_short_600ms.mp4	422.06864603179383	422.6769342518164	0.6082882200225868	n/a	n/a	n/a	n/a
337.65185546875	0.2	691511	140	24	1	0	0	43	111	stimuli\Videos_short_600ms_horflip\29.single_pinch_with_tweezers_short_horflip_short_600ms.mp4	29.single_pinch_with_tweezers_short_horflip_short_600ms.mp4	422.8686637437959	423.4769126689789	0.6082489251830339	n/a	n/a	n/a	n/a
338.45166015625	0.2	693149	141	24	1	0	0	44	232	stimuli\Videos_short_600ms_horvertflip\57.single_touch_with_nail_file_short_horvertflip_short_600ms.mp4	57.single_touch_with_nail_file_short_horvertflip_short_600ms.mp4	423.6685773537984	424.2768793563391	0.6083020025407677	n/a	n/a	n/a	n/a
339.25146484375	0.2	694787	142	24	1	0	0	45	173	stimuli\Videos_short_600ms_horflip\85.touch_top_to_bottom_with_fabric_short_horflip_short_600ms.mp4	85.touch_top_to_bottom_with_fabric_short_horflip_short_600ms.mp4	424.4685669142737	425.0768568937665	0.608289979492838	n/a	n/a	n/a	n/a
340.0517578125	0.2	696426	143	24	1	0	0	46	163	stimuli\Videos_short_600ms_horflip\76.tickle_with_fingers_from_top_to_bottom_short_horflip_short_600ms.mp4	76.tickle_with_fingers_from_top_to_bottom_short_horflip_short_600ms.mp4	425.2685429854755	425.8768417623214	0.6082987768459134	n/a	n/a	n/a	n/a
340.8515625	0.2	698064	144	24	1	0	0	47	148	stimuli\Videos_short_600ms_horflip\62.touch_top_to_bottom_with_scissors_short_horflip_short_600ms.mp4	62.touch_top_to_bottom_with_scissors_short_horflip_short_600ms.mp4	426.06852521482415	426.6768298565712	0.6083046417470541	n/a	n/a	n/a	n/a
341.65185546875	0.2	699703	145	24	1	0	0	48	45	stimuli\Videos_short_600ms\50.single_(long)hard_push_with_thumb_short_short_600ms.mp4	50.single_(long)hard_push_with_thumb_short_short_600ms.mp4	426.8688989263419	427.4768411171817	0.6079421908398217	n/a	n/a	n/a	n/a
342.45166015625	0.2	701341	146	24	1	0	0	49	116	stimuli\Videos_short_600ms_horflip\33.scratch_top_to_bottom_with_scissors_short_horflip_short_600ms.mp4	33.scratch_top_to_bottom_with_scissors_short_horflip_short_600ms.mp4	427.6684843951107	428.2768444601761	0.6083600650654262	n/a	n/a	n/a	n/a
343.25146484375	0.2	702979	147	24	1	0	1	50	365	stimuli\Targets_short_600ms\hand-stroke_short_short_600ms.mp4	hand-stroke_short_short_600ms.mp4	428.4684853921435	429.0768079218397	0.6083225296961245	n/a	n/a	n/a	n/a
344.0517578125	0.2	704618	148	24	1	0	0	51	344	stimuli\Videos_short_600ms_vertflip\77.tapping_with_all_fingers_short_vertflip_short_600ms.mp4	77.tapping_with_all_fingers_short_vertflip_short_600ms.mp4	429.2684547187091	429.87678018085626	0.6083254621471497	n/a	n/a	n/a	n/a
344.8515625	0.2	706256	149	24	1	0	0	52	260	stimuli\Videos_short_600ms_horvertflip\82.repeated_touch_with_cotton_bud_short_horvertflip_short_600ms.mp4	82.repeated_touch_with_cotton_bud_short_horvertflip_short_600ms.mp4	430.0684401737544	430.67676211696016	0.6083219432057376	n/a	n/a	n/a	n/a
345.6513671875	0.2	707894	150	24	1	0	0	53	74	stimuli\Videos_short_600ms\77.tapping_with_all_fingers_short_short_600ms.mp4	77.tapping_with_all_fingers_short_short_600ms.mp4	430.8684209368776	431.47674463955354	0.6083237026759889	n/a	n/a	n/a	n/a
346.45166015625	0.2	709533	151	24	1	0	0	54	60	stimuli\Videos_short_600ms\64.repeated_touch_with_screwdriver_short_short_600ms.mp4	64.repeated_touch_with_screwdriver_short_short_600ms.mp4	431.6684066851667	432.27672804188296	0.6083213567162602	n/a	n/a	n/a	n/a
347.25146484375	0.2	711171	152	24	1	0	0	55	263	stimuli\Videos_short_600ms_horvertflip\85.touch_top_to_bottom_with_fabric_short_horvertflip_short_600ms.mp4	85.touch_top_to_bottom_with_fabric_short_horvertflip_short_600ms.mp4	432.46838744829074	433.07671115096673	0.6083237026759889	n/a	n/a	n/a	n/a
348.05126953125	0.2	712809	153	24	1	0	0	56	334	stimuli\Videos_short_600ms_vertflip\68.stroke_top_to_bottom_with_shawl_short_vertflip_short_600ms.mp4	68.stroke_top_to_bottom_with_shawl_short_vertflip_short_600ms.mp4	433.2683767155204	433.87669455329615	0.6083178377757577	n/a	n/a	n/a	n/a
348.8515625	0.2	714448	154	24	1	0	1	57	375	stimuli\Targets_short_600ms_horvertflip\finger-tap_short_vertflip_short_600ms.mp4	finger-tap_short_vertflip_short_600ms.mp4	434.068353959703	434.6766788353598	0.6083248756567627	n/a	n/a	n/a	n/a
349.6513671875	0.2	716086	155	24	1	0	0	58	38	stimuli\Videos_short_600ms\44.pushing_top_to_bottom_with_finger_short_short_600ms.mp4	44.pushing_top_to_bottom_with_finger_short_short_600ms.mp4	434.8684068611137	435.4766587187478	0.608251857634059	n/a	n/a	n/a	n/a
350.451171875	0.2	717724	156	24	1	0	0	59	207	stimuli\Videos_short_600ms_horvertflip\34.repeated_punch_with_hand_short_horvertflip_short_600ms.mp4	34.repeated_punch_with_hand_short_horvertflip_short_600ms.mp4	435.6683629916515	436.27664241432194	0.6082794226704209	n/a	n/a	n/a	n/a
351.25146484375	0.2	719363	157	24	1	0	1	60	361	stimuli\Targets_short_600ms\chopstick-silver-tap_short_short_600ms.mp4	chopstick-silver-tap_short_short_600ms.mp4	436.4682792408594	437.07662376393546	0.6083445230760844	n/a	n/a	n/a	n/a
352.05126953125	0.2	721001	158	24	1	0	0	61	259	stimuli\Videos_short_600ms_horvertflip\81.single_stroke_top_to_bottom_with_cotton_pad_short_horvertflip_short_600ms.mp4	81.single_stroke_top_to_bottom_with_cotton_pad_short_horvertflip_short_600ms.mp4	437.26829167445067	437.8766033540787	0.6083116796280592	n/a	n/a	n/a	n/a
352.85107421875	0.2	722639	159	24	1	0	0	62	135	stimuli\Videos_short_600ms_horflip\50.single_(long)hard_push_with_thumb_short_horflip_short_600ms.mp4	50.single_(long)hard_push_with_thumb_short_horflip_short_600ms.mp4	438.068271264593	438.6765656427624	0.6082943781693757	n/a	n/a	n/a	n/a
353.6513671875	0.2	724278	160	24	1	0	0	63	328	stimuli\Videos_short_600ms_vertflip\62.touch_top_to_bottom_with_scissors_short_vertflip_short_600ms.mp4	62.touch_top_to_bottom_with_scissors_short_vertflip_short_600ms.mp4	438.8682499750011	439.4765537370131	0.6083037620119285	n/a	n/a	n/a	n/a
354.451171875	0.2	725916	161	24	1	0	0	64	306	stimuli\Videos_short_600ms_vertflip\42.single_slap_with_plastic_whisk_short_vertflip_short_600ms.mp4	42.single_slap_with_plastic_whisk_short_vertflip_short_600ms.mp4	439.6682946655501	440.2765309811957	0.6082363156456267	n/a	n/a	n/a	n/a
355.2509765625	0.2	727554	162	24	1	0	1	65	371	stimuli\Targets_short_600ms_horflip\hand-stroke_short_horflip_short_600ms.mp4	hand-stroke_short_horflip_short_600ms.mp4	440.4682156066792	441.076515556505	0.6082999498257777	n/a	n/a	n/a	n/a
356.05126953125	0.2	729193	163	24	1	0	0	66	299	stimuli\Videos_short_600ms_vertflip\36.single_slap_with_full_hand_short_vertflip_short_600ms.mp4	36.single_slap_with_full_hand_short_vertflip_short_600ms.mp4	441.2682001819885	441.87652271168463	0.6083225296961245	n/a	n/a	n/a	n/a
356.85107421875	0.2	730831	164	24	1	0	0	67	265	stimuli\Videos_short_600ms_horvertflip\87.single_stroke_top_to_bottom_with_plastic_brush_short_horvertflip_short_600ms.mp4	87.single_stroke_top_to_bottom_with_plastic_brush_short_horvertflip_short_600ms.mp4	442.0681806518669	442.6765292803738	0.6083486285069739	n/a	n/a	n/a	n/a
357.65087890625	0.2	732469	165	24	1	0	0	68	171	stimuli\Videos_short_600ms_horflip\83.single_stroke_top_to_bottom_with_cotton_bud_short_horflip_short_600ms.mp4	83.single_stroke_top_to_bottom_with_cotton_bud_short_horflip_short_600ms.mp4	442.8681731447932	443.47649098256807	0.6083178377748482	n/a	n/a	n/a	n/a
358.451171875	0.2	734108	166	24	1	0	0	69	246	stimuli\Videos_short_600ms_horvertflip\7.repeated_touch_with_hairbrush_short_horvertflip_short_600ms.mp4	7.repeated_touch_with_hairbrush_short_horvertflip_short_600ms.mp4	443.6681468700344	444.2764781970827	0.6083313270482904	n/a	n/a	n/a	n/a
359.2509765625	0.2	735746	167	24	1	0	0	70	66	stimuli\Videos_short_600ms\7.repeated_touch_with_hairbrush_short_short_600ms.mp4	7.repeated_touch_with_hairbrush_short_short_600ms.mp4	444.4681340845491	445.0764542682855	0.6083201837363958	n/a	n/a	n/a	n/a
360.05078125	0.2	737384	168	24	1	0	0	71	235	stimuli\Videos_short_600ms_horvertflip\6.single_touch_with_flat_hand_short_horvertflip_short_600ms.mp4	6.single_touch_with_flat_hand_short_horvertflip_short_600ms.mp4	445.2681154341626	445.87643591114374	0.6083204769811346	n/a	n/a	n/a	n/a
360.85107421875	0.2	739023	169	24	1	0	1	72	382	stimuli\Targets_short_600ms_vertflip\hand-pinch_short_horvertflip_short_600ms.mp4	hand-pinch_short_horvertflip_short_600ms.mp4	446.0680967837761	446.67641989996264	0.6083231161865115	n/a	n/a	n/a	n/a
361.65087890625	0.2	740661	170	24	1	0	0	73	134	stimuli\Videos_short_600ms_horflip\5.repeated_tap_with_finger_moving_from_top_to_bottom_short_horflip_short_600ms.mp4	5.repeated_tap_with_finger_moving_from_top_to_bottom_short_horflip_short_600ms.mp4	446.8680790131248	447.4764030090464	0.6083239959216371	n/a	n/a	n/a	n/a
362.451171875	0.2	742300	171	24	1	0	0	74	302	stimuli\Videos_short_600ms_vertflip\39.single_stab_with_scissors_short_vertflip_short_600ms.mp4	39.single_stab_with_scissors_short_vertflip_short_600ms.mp4	447.6680612424743	448.2763843586599	0.608323116185602	n/a	n/a	n/a	n/a
363.2509765625	0.2	743938	172	24	1	0	0	75	224	stimuli\Videos_short_600ms_horvertflip\5.repeated_tap_with_finger_moving_from_top_to_bottom_short_horvertflip_short_600ms.mp4	5.repeated_tap_with_finger_moving_from_top_to_bottom_short_horvertflip_short_600ms.mp4	448.4680464042731	449.07636922721485	0.6083228229417728	n/a	n/a	n/a	n/a
364.05078125	0.2	745576	173	24	1	0	0	76	108	stimuli\Videos_short_600ms_horflip\26.single_touch_with_a_blunt_syringe_short_horflip_short_600ms.mp4	26.single_touch_with_a_blunt_syringe_short_horflip_short_600ms.mp4	449.2680151443492	449.8763505768284	0.6083354324791799	n/a	n/a	n/a	n/a
364.85107421875	0.2	747215	174	24	1	0	0	77	117	stimuli\Videos_short_600ms_horflip\34.repeated_punch_with_hand_short_horflip_short_600ms.mp4	34.repeated_punch_with_hand_short_horflip_short_600ms.mp4	450.0680158481373	450.6763339791569	0.6083181310195869	n/a	n/a	n/a	n/a
365.65087890625	0.2	748853	175	24	1	0	0	78	101	stimuli\Videos_short_600ms_horflip\2.single_touch_with_finger_short_horflip_short_600ms.mp4	2.single_touch_with_finger_short_horflip_short_600ms.mp4	450.8679948517902	451.47631708824065	0.6083222364504763	n/a	n/a	n/a	n/a
366.45068359375	0.2	750491	176	24	1	0	0	79	28	stimuli\Videos_short_600ms\35.single_punch_with_hand_short_short_600ms.mp4	35.single_punch_with_hand_short_short_600ms.mp4	451.66795362153334	452.27630166354993	0.608348042016587	n/a	n/a	n/a	n/a
367.2509765625	0.2	752130	177	24	1	0	0	80	73	stimuli\Videos_short_600ms\76.tickle_with_fingers_from_top_to_bottom_short_short_600ms.mp4	76.tickle_with_fingers_from_top_to_bottom_short_short_600ms.mp4	452.46796077671297	453.0762841861442	0.6083234094312502	n/a	n/a	n/a	n/a
368.05078125	0.2	753768	178	24	1	0	0	81	43	stimuli\Videos_short_600ms\49.repeated_slap_with_hand_short_short_600ms.mp4	49.repeated_slap_with_hand_short_short_600ms.mp4	453.2679729170586	453.87626348304184	0.608290565983225	n/a	n/a	n/a	n/a
368.8505859375	0.2	755406	179	24	1	0	0	82	76	stimuli\Videos_short_600ms\79.long_with_soft_brush_all_over_the_hand_short_short_600ms.mp4	79.long_with_soft_brush_all_over_the_hand_short_short_600ms.mp4	454.0678900460016	454.6762542164979	0.6083641704963156	n/a	n/a	n/a	n/a
369.65087890625	0.2	757045	180	24	1	0	0	83	57	stimuli\Videos_short_600ms\61.single_hit_with_rolling_pin_short_short_600ms.mp4	61.single_hit_with_rolling_pin_short_short_600ms.mp4	454.86789309575033	455.4762059483592	0.608312852608833	n/a	n/a	n/a	n/a
370.45068359375	0.2	758683	181	24	1	0	0	84	36	stimuli\Videos_short_600ms\42.single_slap_with_plastic_whisk_short_short_600ms.mp4	42.single_slap_with_plastic_whisk_short_short_600ms.mp4	455.6678891076171	456.2762095845983	0.6083204769811346	n/a	n/a	n/a	n/a
371.25048828125	0.2	760321	182	24	1	0	0	85	192	stimuli\Videos_short_600ms_horvertflip\20.single_touch_with_screwdriver_short_horvertflip_short_600ms.mp4	20.single_touch_with_screwdriver_short_horvertflip_short_600ms.mp4	456.4678725099466	457.0761976788481	0.6083251689015015	n/a	n/a	n/a	n/a
372.05078125	0.2	761960	183	24	1	0	1	86	376	stimuli\Targets_short_600ms_horvertflip\hand-pinch_short_vertflip_short_600ms.mp4	hand-pinch_short_vertflip_short_600ms.mp4	457.26785767174624	457.8761802014424	0.6083225296961245	n/a	n/a	n/a	n/a
372.8505859375	0.2	763598	184	24	1	0	0	87	184	stimuli\Videos_short_600ms_horvertflip\13.single_touch_with_pen_short_horvertflip_short_600ms.mp4	13.single_touch_with_pen_short_horvertflip_short_600ms.mp4	458.0678393146045	458.67616829569215	0.6083289810876522	n/a	n/a	n/a	n/a
373.650390625	0.2	765236	185	24	1	0	0	88	264	stimuli\Videos_short_600ms_horvertflip\86.touch_top_to_bottom_with_hair_brush_short_horvertflip_short_600ms.mp4	86.touch_top_to_bottom_with_hair_brush_short_horvertflip_short_600ms.mp4	458.86782301017865	459.47617398464627	0.6083509744676121	n/a	n/a	n/a	n/a
374.45068359375	0.2	766875	186	24	1	0	0	89	249	stimuli\Videos_short_600ms_horvertflip\72.(short)stroke_with_finger_all_over_the_hand_short_horvertflip_short_600ms.mp4	72.(short)stroke_with_finger_all_over_the_hand_short_horvertflip_short_600ms.mp4	459.66779849489103	460.276128062469	0.6083295675780391	n/a	n/a	n/a	n/a
375.25048828125	0.2	768513	187	24	1	0	0	90	144	stimuli\Videos_short_600ms_horflip\59.single_push_with_long_side_pencil_short_horflip_short_600ms.mp4	59.single_push_with_long_side_pencil_short_horflip_short_600ms.mp4	460.4677692876822	461.0761129310231	0.6083436433409588	n/a	n/a	n/a	n/a
376.05029296875	0.2	770151	188	24	1	0	0	91	31	stimuli\Videos_short_600ms\38.double_slap_with_pencil_short_short_600ms.mp4	38.double_slap_with_pencil_short_short_600ms.mp4	461.2677720441852	461.8760936941462	0.6083216499609989	n/a	n/a	n/a	n/a
376.8505859375	0.2	771790	189	24	1	0	0	92	292	stimuli\Videos_short_600ms_vertflip\3.single_push_with_finger_short_vertflip_short_600ms.mp4	3.single_push_with_finger_short_vertflip_short_600ms.mp4	462.067755153269	462.6760756302501	0.6083204769811346	n/a	n/a	n/a	n/a
377.650390625	0.2	773428	190	24	1	0	0	93	132	stimuli\Videos_short_600ms_horflip\48.single_slap_with_hand_short_horflip_short_600ms.mp4	48.single_slap_with_hand_short_horflip_short_600ms.mp4	462.8677538043421	463.47605903257863	0.6083052282365315	n/a	n/a	n/a	n/a
378.4501953125	0.2	775066	191	24	1	0	0	94	62	stimuli\Videos_short_600ms\66.stroke_top_to_bottom_with_sponge_short_short_600ms.mp4	66.stroke_top_to_bottom_with_sponge_short_short_600ms.mp4	463.66772019845666	464.2760415551729	0.6083213567162602	n/a	n/a	n/a	n/a
379.25048828125	0.2	776705	192	24	1	0	0	95	11	stimuli\Videos_short_600ms\2.single_touch_with_finger_short_short_600ms.mp4	2.single_touch_with_finger_short_short_600ms.mp4	464.4676983223744	465.0760255439918	0.6083272216174009	n/a	n/a	n/a	n/a
380.05029296875	0.2	778343	193	24	1	0	0	96	214	stimuli\Videos_short_600ms_horvertflip\40.repeated_push_with_finger_short_horvertflip_short_600ms.mp4	40.repeated_push_with_finger_short_horvertflip_short_600ms.mp4	465.2676650097346	465.876009239566	0.6083442298313457	n/a	n/a	n/a	n/a
380.85009765625	0.2	779981	194	24	1	0	0	97	26	stimuli\Videos_short_600ms\33.scratch_top_to_bottom_with_scissors_short_short_600ms.mp4	33.scratch_top_to_bottom_with_scissors_short_short_600ms.mp4	466.06765603643544	466.6759894161996	0.6083333797641899	n/a	n/a	n/a	n/a
381.650390625	0.2	781620	195	24	1	0	0	98	228	stimuli\Videos_short_600ms_horvertflip\53.touch_top_to_bottom_with_knife_short_horvertflip_short_600ms.mp4	53.touch_top_to_bottom_with_knife_short_horvertflip_short_600ms.mp4	466.8676306414127	467.47597369826326	0.6083430568505719	9.0	9.0	2.6056707145235123	1.0
417.52392578125	0.2	855089	196	24	2	0	0	0	337	stimuli\Videos_short_600ms_vertflip\70.(long)stroke_with_finger_all_over_the_hand_short_vertflip_short_600ms.mp4	70.(long)stroke_with_finger_all_over_the_hand_short_vertflip_short_600ms.mp4	502.7418845159864	503.35020118078137	0.6083166647949838	n/a	n/a	n/a	n/a
418.32421875	0.2	856728	197	24	2	0	0	1	272	stimuli\Videos_short_600ms_vertflip\11.single_touch_with_lighter_short_vertflip_short_600ms.mp4	11.single_touch_with_lighter_short_vertflip_short_600ms.mp4	503.5418664520903	504.15019279397166	0.6083263418813658	n/a	n/a	n/a	n/a
419.1240234375	0.2	858366	198	24	2	0	0	2	105	stimuli\Videos_short_600ms_horflip\23.single_push_with_a_spoon_short_horflip_short_600ms.mp4	23.single_push_with_a_spoon_short_horflip_short_600ms.mp4	504.34185161388905	504.9501835274277	0.6083319135386773	n/a	n/a	n/a	n/a
419.923828125	0.2	860004	199	24	2	0	0	3	70	stimuli\Videos_short_600ms\73.single_stroke_with_flat_hand_short_short_600ms.mp4	73.single_stroke_with_flat_hand_short_short_600ms.mp4	505.1418326702578	505.7501540269741	0.6083213567162602	n/a	n/a	n/a	n/a
420.72412109375	0.2	861643	200	24	2	0	1	4	360	stimuli\Targets_short_600ms\brush-stroke_short_short_600ms.mp4	brush-stroke_short_short_600ms.mp4	505.94181812530223	506.5501406549984	0.6083225296961245	n/a	n/a	n/a	n/a
421.52392578125	0.2	863281	201	24	2	0	0	5	51	stimuli\Videos_short_600ms\56.repeated_touch_with_nail_file_short_short_600ms.mp4	56.repeated_touch_with_nail_file_short_short_600ms.mp4	506.74179888842536	507.3501143802405	0.6083154918151195	n/a	n/a	n/a	n/a
422.32421875	0.2	864920	202	24	2	0	0	6	196	stimuli\Videos_short_600ms_horvertflip\24.single_stroke_top_to_bottom_with_a_spoon_short_horvertflip_short_600ms.mp4	24.single_stroke_top_to_bottom_with_a_spoon_short_horvertflip_short_600ms.mp4	507.5417802380389	508.1501001285296	0.6083198904907476	n/a	n/a	n/a	n/a
423.1240234375	0.2	866558	203	24	2	0	0	7	250	stimuli\Videos_short_600ms_horvertflip\73.single_stroke_with_flat_hand_short_horvertflip_short_600ms.mp4	73.single_stroke_with_flat_hand_short_horvertflip_short_600ms.mp4	508.3417651065938	508.9500841173485	0.6083190107547125	n/a	n/a	n/a	n/a
423.923828125	0.2	868196	204	24	2	0	0	8	164	stimuli\Videos_short_600ms_horflip\77.tapping_with_all_fingers_short_horflip_short_600ms.mp4	77.tapping_with_all_fingers_short_horflip_short_600ms.mp4	509.1417429372659	509.7500666399428	0.6083237026768984	n/a	n/a	n/a	n/a
424.72412109375	0.2	869835	205	24	2	0	0	9	212	stimuli\Videos_short_600ms_horvertflip\39.single_stab_with_scissors_short_horvertflip_short_600ms.mp4	39.single_stab_with_scissors_short_horvertflip_short_600ms.mp4	509.9417193017134	510.5500497490266	0.6083304473131648	n/a	n/a	n/a	n/a
425.52392578125	0.2	871473	206	24	2	0	0	10	205	stimuli\Videos_short_600ms_horvertflip\32.single_(long)pinch_with_fingers_short_horvertflip_short_600ms.mp4	32.single_(long)pinch_with_fingers_short_horvertflip_short_600ms.mp4	510.7417202987472	511.35003344460074	0.6083131458535718	n/a	n/a	n/a	n/a
426.32373046875	0.2	873111	207	24	2	0	0	11	25	stimuli\Videos_short_600ms\32.single_(long)pinch_with_fingers_short_short_600ms.mp4	32.single_(long)pinch_with_fingers_short_short_600ms.mp4	511.541668511667	512.1500162604398	0.6083477487727578	n/a	n/a	n/a	n/a
427.1240234375	0.2	874750	208	24	2	0	0	12	338	stimuli\Videos_short_600ms_vertflip\71.single_stroke_with_finger_top_to_bottom_short_vertflip_short_600ms.mp4	71.single_stroke_with_finger_top_to_bottom_short_vertflip_short_600ms.mp4	512.3416783060529	512.9499964370725	0.6083181310195869	n/a	n/a	n/a	n/a
427.923828125	0.2	876388	209	24	2	0	0	13	276	stimuli\Videos_short_600ms_vertflip\15.single_stroke_top_to_bottom_with_a_plastic_whisk_short_vertflip_short_600ms.mp4	15.single_stroke_top_to_bottom_with_a_plastic_whisk_short_vertflip_short_600ms.mp4	513.141661121892	513.749984824568	0.6083237026759889	n/a	n/a	n/a	n/a
428.7236328125	0.2	878026	210	24	2	0	0	14	217	stimuli\Videos_short_600ms_horvertflip\43.touch_top_to_bottom_with_sharp_wooden_stick_short_horvertflip_short_600ms.mp4	43.touch_top_to_bottom_with_sharp_wooden_stick_short_horvertflip_short_600ms.mp4	513.9416465769364	514.5499597227899	0.6083131458535718	n/a	n/a	n/a	n/a
429.52392578125	0.2	879665	211	24	2	0	0	15	77	stimuli\Videos_short_600ms\8.single_touch_with_hairbrush_short_short_600ms.mp4	8.single_touch_with_hairbrush_short_short_600ms.mp4	514.7416276333042	515.34992758313	0.6082999498257777	n/a	n/a	n/a	n/a
430.32373046875	0.2	881303	212	24	2	0	0	16	304	stimuli\Videos_short_600ms_vertflip\40.repeated_push_with_finger_short_vertflip_short_600ms.mp4	40.repeated_push_with_finger_short_vertflip_short_600ms.mp4	515.5416169005348	516.1499045340679	0.6082876335331093	n/a	n/a	n/a	n/a
431.12353515625	0.2	882941	213	24	2	0	0	17	149	stimuli\Videos_short_600ms_horflip\63.stroke_top_to_bottom_with_screwdriver_short_horflip_short_600ms.mp4	63.stroke_top_to_bottom_with_screwdriver_short_horflip_short_600ms.mp4	516.3415923852472	516.9498958540134	0.6083034687662803	n/a	n/a	n/a	n/a
431.923828125	0.2	884580	214	24	2	0	0	18	201	stimuli\Videos_short_600ms_horvertflip\29.single_pinch_with_tweezers_short_horvertflip_short_600ms.mp4	29.single_pinch_with_tweezers_short_horvertflip_short_600ms.mp4	517.1415749078405	517.7498698725003	0.6082949646597626	n/a	n/a	n/a	n/a
432.7236328125	0.2	886218	215	24	2	0	0	19	323	stimuli\Videos_short_600ms_vertflip\58.single_slap_with_pencil_short_vertflip_short_600ms.mp4	58.single_slap_with_pencil_short_vertflip_short_600ms.mp4	517.9415550844742	518.5498764411896	0.6083213567153507	n/a	n/a	n/a	n/a
433.5234375	0.2	887856	216	24	2	0	1	20	373	stimuli\Targets_short_600ms_horvertflip\chopstick-silver-tap_short_vertflip_short_600ms.mp4	chopstick-silver-tap_short_vertflip_short_600ms.mp4	518.7415390732931	519.3498692273615	0.608330154068426	n/a	n/a	n/a	n/a
434.32373046875	0.2	889495	217	24	2	0	0	21	95	stimuli\Videos_short_600ms_horflip\14.repeated_touch_with_pencil_short_horflip_short_600ms.mp4	14.repeated_touch_with_pencil_short_horflip_short_600ms.mp4	519.5415221823769	520.1498546824059	0.6083325000290642	n/a	n/a	n/a	n/a
435.12353515625	0.2	891133	218	24	2	0	0	22	110	stimuli\Videos_short_600ms_horflip\28.single_injection_with_sharp_needle_short_horflip_short_600ms.mp4	28.single_injection_with_sharp_needle_short_horflip_short_600ms.mp4	520.341505877951	520.949827527912	0.6083216499609989	n/a	n/a	n/a	n/a
435.92333984375	0.2	892771	219	24	2	0	0	23	48	stimuli\Videos_short_600ms\53.touch_top_to_bottom_with_knife_short_short_600ms.mp4	53.touch_top_to_bottom_with_knife_short_short_600ms.mp4	521.1414866410751	521.749810343751	0.6083237026759889	n/a	n/a	n/a	n/a
436.7236328125	0.2	894410	220	24	2	0	0	24	339	stimuli\Videos_short_600ms_vertflip\72.(short)stroke_with_finger_all_over_the_hand_short_vertflip_short_600ms.mp4	72.(short)stroke_with_finger_all_over_the_hand_short_vertflip_short_600ms.mp4	521.9414700434036	522.5497908136294	0.6083207702258733	n/a	n/a	n/a	n/a
437.5234375	0.2	896048	221	24	2	0	0	25	12	stimuli\Videos_short_600ms\20.single_touch_with_screwdriver_short_short_600ms.mp4	20.single_touch_with_screwdriver_short_short_600ms.mp4	522.7414531524873	523.3497733362228	0.6083201837354864	n/a	n/a	n/a	n/a
438.3232421875	0.2	897686	222	24	2	0	0	26	230	stimuli\Videos_short_600ms_horvertflip\55.touch_top_to_bottom_with_nail_file_short_horvertflip_short_600ms.mp4	55.touch_top_to_bottom_with_nail_file_short_horvertflip_short_600ms.mp4	523.5414356750816	524.1497546858363	0.6083190107547125	n/a	n/a	n/a	n/a
439.12353515625	0.2	899325	223	24	2	0	0	27	182	stimuli\Videos_short_600ms_horvertflip\11.single_touch_with_lighter_short_horvertflip_short_600ms.mp4	11.single_touch_with_lighter_short_horvertflip_short_600ms.mp4	524.3416325598218	524.949739847636	0.608107287814164	n/a	n/a	n/a	n/a
439.92333984375	0.2	900963	224	24	2	0	0	28	121	stimuli\Videos_short_600ms_horflip\38.double_slap_with_pencil_short_horflip_short_600ms.mp4	38.double_slap_with_pencil_short_horflip_short_600ms.mp4	525.1413766741734	525.7497232499654	0.6083465757919839	n/a	n/a	n/a	n/a
440.72314453125	0.2	902601	225	24	2	0	0	29	186	stimuli\Videos_short_600ms_horvertflip\15.single_stroke_top_to_bottom_with_a_plastic_whisk_short_horvertflip_short_600ms.mp4	15.single_stroke_top_to_bottom_with_a_plastic_whisk_short_horvertflip_short_600ms.mp4	525.9413671143839	526.5497037198438	0.6083366054599537	n/a	n/a	n/a	n/a
441.5234375	0.2	904240	226	24	2	0	0	30	274	stimuli\Videos_short_600ms_vertflip\13.single_touch_with_pen_short_vertflip_short_600ms.mp4	13.single_touch_with_pen_short_vertflip_short_600ms.mp4	526.7413669384368	527.3496865356819	0.6083195972450994	n/a	n/a	n/a	n/a
442.3232421875	0.2	905878	227	24	2	0	0	31	188	stimuli\Videos_short_600ms_horvertflip\17.repeated_touch_with_rolling_pin_short_horvertflip_short_600ms.mp4	17.repeated_touch_with_rolling_pin_short_horvertflip_short_600ms.mp4	527.5413345055322	528.149669351521	0.608334845988793	n/a	n/a	n/a	n/a
443.12353515625	0.2	907517	228	24	2	0	0	32	32	stimuli\Videos_short_600ms\39.single_stab_with_scissors_short_short_600ms.mp4	39.single_stab_with_scissors_short_short_600ms.mp4	528.3413088172638	528.9496518741153	0.6083430568514814	n/a	n/a	n/a	n/a
443.92333984375	0.2	909155	229	24	2	0	0	33	180	stimuli\Videos_short_600ms_horvertflip\1.repeated_touch_with_finger_fast_short_horvertflip_short_600ms.mp4	1.repeated_touch_with_finger_fast_short_horvertflip_short_600ms.mp4	529.1413230103253	529.7496361561789	0.6083131458535718	n/a	n/a	n/a	n/a
444.72314453125	0.2	910793	230	24	2	0	0	34	122	stimuli\Videos_short_600ms_horflip\39.single_stab_with_scissors_short_horflip_short_600ms.mp4	39.single_stab_with_scissors_short_horflip_short_600ms.mp4	529.9413037734485	530.5495978583731	0.608294084924637	n/a	n/a	n/a	n/a
445.5234375	0.2	912432	231	24	2	0	0	35	10	stimuli\Videos_short_600ms\19.single_touch_with_rolling_pin_short_short_600ms.mp4	19.single_touch_with_rolling_pin_short_short_600ms.mp4	530.7412968528652	531.349604720308	0.608307867442818	n/a	n/a	n/a	n/a
446.3232421875	0.2	914070	232	24	2	0	0	36	72	stimuli\Videos_short_600ms\75.(long)stroke_with_fingers_all_over_the_hand_short_short_600ms.mp4	75.(long)stroke_with_fingers_all_over_the_hand_short_short_600ms.mp4	531.5412652996956	532.149564663031	0.6082993633353908	n/a	n/a	n/a	n/a
447.123046875	0.2	915708	233	24	2	0	0	37	325	stimuli\Videos_short_600ms_vertflip\6.single_touch_with_flat_hand_short_vertflip_short_600ms.mp4	6.single_touch_with_flat_hand_short_vertflip_short_600ms.mp4	532.3412469425539	532.9495662465542	0.6083193040003607	n/a	n/a	n/a	n/a
447.92333984375	0.2	917347	234	24	2	0	1	38	381	stimuli\Targets_short_600ms_vertflip\finger-tap_short_horvertflip_short_600ms.mp4	finger-tap_short_horvertflip_short_600ms.mp4	533.1412282921674	533.7495414380219	0.6083131458544813	n/a	n/a	n/a	n/a
448.72314453125	0.2	918985	235	24	2	0	0	39	52	stimuli\Videos_short_600ms\57.single_touch_with_nail_file_short_short_600ms.mp4	57.single_touch_with_nail_file_short_short_600ms.mp4	533.9412102282713	534.5495345174377	0.6083242891663758	n/a	n/a	n/a	n/a
449.52294921875	0.2	920623	236	24	2	0	0	40	321	stimuli\Videos_short_600ms_vertflip\56.repeated_touch_with_nail_file_short_vertflip_short_600ms.mp4	56.repeated_touch_with_nail_file_short_vertflip_short_600ms.mp4	534.7411936305998	535.3495208522172	0.6083272216174009	n/a	n/a	n/a	n/a
450.3232421875	0.2	922262	237	24	2	0	0	41	86	stimuli\Videos_short_600ms\88.repeated_stroke_with_plastic_brush_short_short_600ms.mp4	88.repeated_stroke_with_plastic_brush_short_short_600ms.mp4	535.541177326174	536.1494954571945	0.6083181310204964	n/a	n/a	n/a	n/a
451.123046875	0.2	923900	238	24	2	0	0	42	181	stimuli\Videos_short_600ms_horvertflip\10.single_touch_with_knife_short_horvertflip_short_600ms.mp4	10.single_touch_with_knife_short_horvertflip_short_600ms.mp4	536.3411613149938	536.949481791974	0.6083204769802251	n/a	n/a	n/a	n/a
451.9228515625	0.2	925538	239	24	2	0	0	43	341	stimuli\Videos_short_600ms_vertflip\74.fingers_walking_from_top_to_bottom_short_vertflip_short_600ms.mp4	74.fingers_walking_from_top_to_bottom_short_vertflip_short_600ms.mp4	537.1411411983818	537.7494690064887	0.6083278081068784	n/a	n/a	n/a	n/a
452.72314453125	0.2	927177	240	24	2	0	0	44	3	stimuli\Videos_short_600ms\12.repeated_touch_with_nail_file_short_short_600ms.mp4	12.repeated_touch_with_nail_file_short_short_600ms.mp4	537.941099968125	538.5494456641818	0.6083456960568583	n/a	n/a	n/a	n/a
453.52294921875	0.2	928815	241	24	2	0	0	45	281	stimuli\Videos_short_600ms_vertflip\2.single_touch_with_finger_short_vertflip_short_600ms.mp4	2.single_touch_with_finger_short_vertflip_short_600ms.mp4	538.7411106422451	539.3494276002848	0.6083169580397225	n/a	n/a	n/a	n/a
454.32275390625	0.2	930453	242	24	2	0	0	46	320	stimuli\Videos_short_600ms_vertflip\55.touch_top_to_bottom_with_nail_file_short_vertflip_short_600ms.mp4	55.touch_top_to_bottom_with_nail_file_short_vertflip_short_600ms.mp4	539.5410881796724	540.14941422831	0.6083260486375366	n/a	n/a	n/a	n/a
455.123046875	0.2	932092	243	24	2	0	0	47	109	stimuli\Videos_short_600ms_horflip\27.single_push_with_a_plastic_whisk_short_horflip_short_600ms.mp4	27.single_push_with_a_plastic_whisk_short_horflip_short_600ms.mp4	540.341050468357	540.9493949914331	0.6083445230760844	n/a	n/a	n/a	n/a
455.9228515625	0.2	933730	244	24	2	0	0	48	253	stimuli\Videos_short_600ms_horvertflip\76.tickle_with_fingers_from_top_to_bottom_short_horvertflip_short_600ms.mp4	76.tickle_with_fingers_from_top_to_bottom_short_horvertflip_short_600ms.mp4	541.1410350436663	541.7493760478019	0.6083410041355819	n/a	n/a	n/a	n/a
456.72265625	0.2	935368	245	24	2	0	0	49	107	stimuli\Videos_short_600ms_horflip\25.single_touch_with_stanley_knife_short_horflip_short_600ms.mp4	25.single_touch_with_stanley_knife_short_horflip_short_600ms.mp4	541.9410248973863	542.549359743376	0.6083348459897024	n/a	n/a	n/a	n/a
457.52294921875	0.2	937007	246	24	2	0	0	50	191	stimuli\Videos_short_600ms_horvertflip\2.single_touch_with_finger_short_horvertflip_short_600ms.mp4	2.single_touch_with_finger_short_horvertflip_short_600ms.mp4	542.7410291201159	543.349341679479	0.6083125593631848	n/a	n/a	n/a	n/a
458.32275390625	0.2	938645	247	24	2	0	0	51	91	stimuli\Videos_short_600ms_horflip\10.single_touch_with_knife_short_horflip_short_600ms.mp4	10.single_touch_with_knife_short_horflip_short_600ms.mp4	543.5409805587324	544.1493274277691	0.6083468690367226	n/a	n/a	n/a	n/a
459.12255859375	0.2	940283	248	24	2	0	0	52	14	stimuli\Videos_short_600ms\22.single_touch_with_metal_chopstick_short_short_600ms.mp4	22.single_touch_with_metal_chopstick_short_short_600ms.mp4	544.340995631529	544.9493090706274	0.6083134390983105	n/a	n/a	n/a	n/a
459.9228515625	0.2	941922	249	24	2	0	0	53	9	stimuli\Videos_short_600ms\18.single_stroke_from_top_to_bottom_with_rolling_pin_short_short_600ms.mp4	18.single_stroke_from_top_to_bottom_with_rolling_pin_short_short_600ms.mp4	545.1409470701446	545.7492921797111	0.6083451095664714	n/a	n/a	n/a	n/a
460.72265625	0.2	943560	250	24	2	0	0	54	257	stimuli\Videos_short_600ms_horvertflip\8.single_touch_with_hairbrush_short_horvertflip_short_600ms.mp4	8.single_touch_with_hairbrush_short_horvertflip_short_600ms.mp4	545.9409627294317	546.5492488967393	0.6082861673075968	n/a	n/a	n/a	n/a
461.5224609375	0.2	945198	251	24	2	0	0	55	160	stimuli\Videos_short_600ms_horflip\73.single_stroke_with_flat_hand_short_horflip_short_600ms.mp4	73.single_stroke_with_flat_hand_short_horflip_short_600ms.mp4	546.7409364546738	547.3492522397328	0.6083157850589487	n/a	n/a	n/a	n/a
462.32275390625	0.2	946837	252	24	2	0	0	56	168	stimuli\Videos_short_600ms_horflip\80.stroke_with_sharp_stick_all_over_the_hand_short_horflip_short_600ms.mp4	80.stroke_with_sharp_stick_all_over_the_hand_short_horflip_short_600ms.mp4	547.5409160448162	548.1492376947772	0.6083216499609989	n/a	n/a	n/a	n/a
463.12255859375	0.2	948475	253	24	2	0	0	57	282	stimuli\Videos_short_600ms_vertflip\20.single_touch_with_screwdriver_short_vertflip_short_600ms.mp4	20.single_touch_with_screwdriver_short_vertflip_short_600ms.mp4	548.3409014998606	548.9492131794896	0.6083116796289687	n/a	n/a	n/a	n/a
463.9228515625	0.2	950114	254	24	2	0	0	58	278	stimuli\Videos_short_600ms_vertflip\17.repeated_touch_with_rolling_pin_short_vertflip_short_600ms.mp4	17.repeated_touch_with_rolling_pin_short_vertflip_short_600ms.mp4	549.1408846089453	549.7492062589063	0.6083216499609989	n/a	n/a	n/a	n/a
464.72265625	0.2	951752	255	24	2	0	1	59	370	stimuli\Targets_short_600ms_horflip\hand-pinch_short_horflip_short_600ms.mp4	hand-pinch_short_horflip_short_600ms.mp4	549.9408659585588	550.5491920071954	0.6083260486366271	n/a	n/a	n/a	n/a
465.5224609375	0.2	953390	256	24	2	0	0	60	327	stimuli\Videos_short_600ms_vertflip\61.single_hit_with_rolling_pin_short_vertflip_short_600ms.mp4	61.single_hit_with_rolling_pin_short_vertflip_short_600ms.mp4	550.7408801516194	551.3491710108483	0.6082908592288732	n/a	n/a	n/a	n/a
466.32275390625	0.2	955029	257	24	2	0	0	61	358	stimuli\Videos_short_600ms_vertflip\9.single_touch_with_hammer_short_vertflip_short_600ms.mp4	9.single_touch_with_hammer_short_vertflip_short_600ms.mp4	551.5408834946138	552.1491538266873	0.6082703320735163	n/a	n/a	n/a	n/a
467.12255859375	0.2	956667	258	24	2	0	0	62	322	stimuli\Videos_short_600ms_vertflip\57.single_touch_with_nail_file_short_vertflip_short_600ms.mp4	57.single_touch_with_nail_file_short_vertflip_short_600ms.mp4	552.3408660172072	552.9491363492807	0.6082703320735163	n/a	n/a	n/a	n/a
467.92236328125	0.2	958305	259	24	2	0	0	63	175	stimuli\Videos_short_600ms_horflip\87.single_stroke_top_to_bottom_with_plastic_brush_short_horflip_short_600ms.mp4	87.single_stroke_top_to_bottom_with_plastic_brush_short_horflip_short_600ms.mp4	553.1408508857621	553.7491212178356	0.6082703320735163	n/a	n/a	n/a	n/a
468.72265625	0.2	959944	260	24	2	0	0	64	333	stimuli\Videos_short_600ms_vertflip\67.single_touch_with_sponge_short_vertflip_short_600ms.mp4	67.single_touch_with_sponge_short_vertflip_short_600ms.mp4	553.9408313556405	554.5490999282438	0.6082685726032651	n/a	n/a	n/a	n/a
469.5224609375	0.2	961582	261	24	2	0	0	65	308	stimuli\Videos_short_600ms_vertflip\44.pushing_top_to_bottom_with_finger_short_vertflip_short_600ms.mp4	44.pushing_top_to_bottom_with_finger_short_vertflip_short_600ms.mp4	554.7408112390285	555.3490842103074	0.6082729712788932	n/a	n/a	n/a	n/a
470.322265625	0.2	963220	262	24	2	0	0	66	301	stimuli\Videos_short_600ms_vertflip\38.double_slap_with_pencil_short_vertflip_short_600ms.mp4	38.double_slap_with_pencil_short_vertflip_short_600ms.mp4	555.5407635573802	556.149066439656	0.6083028822758934	n/a	n/a	n/a	n/a
471.12255859375	0.2	964859	263	24	2	0	1	67	367	stimuli\Targets_short_600ms_horflip\chopstick-silver-tap_short_horflip_short_600ms.mp4	chopstick-silver-tap_short_horflip_short_600ms.mp4	556.340736696131	556.9490495487398	0.608312852608833	n/a	n/a	n/a	n/a
471.92236328125	0.2	966497	264	24	2	0	0	68	104	stimuli\Videos_short_600ms_horflip\22.single_touch_with_metal_chopstick_short_horflip_short_600ms.mp4	22.single_touch_with_metal_chopstick_short_horflip_short_600ms.mp4	557.1407409188605	557.7490326578245	0.6082917389639988	n/a	n/a	n/a	n/a
472.72216796875	0.2	968135	265	24	2	0	0	69	251	stimuli\Videos_short_600ms_horvertflip\74.fingers_walking_from_top_to_bottom_short_horvertflip_short_600ms.mp4	74.fingers_walking_from_top_to_bottom_short_horvertflip_short_600ms.mp4	557.9406955831728	558.5490169398881	0.6083213567153507	n/a	n/a	n/a	n/a
473.5224609375	0.2	969774	266	24	2	0	0	70	202	stimuli\Videos_short_600ms_horvertflip\3.single_push_with_finger_short_horvertflip_short_600ms.mp4	3.single_push_with_finger_short_horvertflip_short_600ms.mp4	558.740872527248	559.3489977030122	0.6081251757641439	n/a	n/a	n/a	n/a
474.322265625	0.2	971412	267	24	2	0	0	71	195	stimuli\Videos_short_600ms_horvertflip\23.single_push_with_a_spoon_short_horvertflip_short_600ms.mp4	23.single_push_with_a_spoon_short_horvertflip_short_600ms.mp4	559.5406667865063	560.1489793458704	0.6083125593640943	n/a	n/a	n/a	n/a
475.1220703125	0.2	973050	268	24	2	0	0	72	155	stimuli\Videos_short_600ms_horflip\69.stroke_with_soft_sock_short_horflip_short_600ms.mp4	69.stroke_with_soft_sock_short_horflip_short_600ms.mp4	560.3406560537369	560.9489595225032	0.6083034687662803	n/a	n/a	n/a	n/a
475.92236328125	0.2	974689	269	24	2	0	0	73	226	stimuli\Videos_short_600ms_horvertflip\51.repeated_touch_with_hammer_short_horvertflip_short_600ms.mp4	51.repeated_touch_with_hammer_short_horvertflip_short_600ms.mp4	561.1406423885164	561.7489218111878	0.6082794226713304	n/a	n/a	n/a	n/a
476.72216796875	0.2	976327	270	24	2	0	0	74	359	stimuli\Videos_short_600ms_vertflip\90.repeated_touch_with_sponge_short_vertflip_short_600ms.mp4	90.repeated_touch_with_sponge_short_vertflip_short_600ms.mp4	561.9406140610427	562.5489043337811	0.6082902727384862	n/a	n/a	n/a	n/a
477.52197265625	0.2	977965	271	24	2	0	0	75	46	stimuli\Videos_short_600ms\51.repeated_touch_with_hammer_short_short_600ms.mp4	51.repeated_touch_with_hammer_short_short_600ms.mp4	562.740596583637	563.3489085565107	0.6083119728737074	n/a	n/a	n/a	n/a
478.322265625	0.2	979604	272	24	2	0	0	76	6	stimuli\Videos_short_600ms\15.single_stroke_top_to_bottom_with_a_plastic_whisk_short_short_600ms.mp4	15.single_stroke_top_to_bottom_with_a_plastic_whisk_short_short_600ms.mp4	563.5405776400048	564.1488963575157	0.6083187175108833	n/a	n/a	n/a	n/a
479.1220703125	0.2	981242	273	24	2	0	0	77	97	stimuli\Videos_short_600ms_horflip\16.repeated_touch_with_plastic_brush_short_horflip_short_600ms.mp4	16.repeated_touch_with_plastic_brush_short_horflip_short_600ms.mp4	564.3405531247172	564.9488777071292	0.608324582412024	n/a	n/a	n/a	n/a
479.921875	0.2	982880	274	24	2	0	0	78	179	stimuli\Videos_short_600ms_horflip\90.repeated_touch_with_sponge_short_horflip_short_600ms.mp4	90.repeated_touch_with_sponge_short_horflip_short_600ms.mp4	565.1405265567137	565.7488640419087	0.6083374851950794	n/a	n/a	n/a	n/a
480.72216796875	0.2	984519	275	24	2	0	0	79	309	stimuli\Videos_short_600ms_vertflip\45.scratching_with_finger_nails_short_vertflip_short_600ms.mp4	45.scratching_with_finger_nails_short_vertflip_short_600ms.mp4	565.9405008684453	566.5488409928457	0.6083401244004563	n/a	n/a	n/a	n/a
481.52197265625	0.2	986157	276	24	2	0	0	80	189	stimuli\Videos_short_600ms_horvertflip\18.single_stroke_from_top_to_bottom_with_rolling_pin_short_horvertflip_short_600ms.mp4	18.single_stroke_from_top_to_bottom_with_rolling_pin_short_horvertflip_short_600ms.mp4	566.7404807518342	567.3488261546454	0.6083454028112101	n/a	n/a	n/a	n/a
482.322265625	0.2	987796	277	24	2	0	0	81	288	stimuli\Videos_short_600ms_vertflip\26.single_touch_with_a_blunt_syringe_short_vertflip_short_600ms.mp4	26.single_touch_with_a_blunt_syringe_short_vertflip_short_600ms.mp4	567.5404521311148	568.1488075042589	0.6083553731441498	n/a	n/a	n/a	n/a
483.1220703125	0.2	989434	278	24	2	0	0	82	35	stimuli\Videos_short_600ms\41.injection_with_blunt_syringe_short_short_600ms.mp4	41.injection_with_blunt_syringe_short_short_600ms.mp4	568.3404249766218	568.9487911998331	0.6083662232113056	n/a	n/a	n/a	n/a
483.921875	0.2	991072	279	24	2	0	0	83	176	stimuli\Videos_short_600ms_horflip\88.repeated_stroke_with_plastic_brush_short_horflip_short_600ms.mp4	88.repeated_stroke_with_plastic_brush_short_horflip_short_600ms.mp4	569.1404001680885	569.748773135937	0.6083729678484815	n/a	n/a	n/a	n/a
484.72216796875	0.2	992711	280	24	2	0	0	84	21	stimuli\Videos_short_600ms\29.single_pinch_with_tweezers_short_short_600ms.mp4	29.single_pinch_with_tweezers_short_short_600ms.mp4	569.9403750663105	570.5487562450207	0.6083811787102604	n/a	n/a	n/a	n/a
485.52197265625	0.2	994349	281	24	2	0	0	85	223	stimuli\Videos_short_600ms_horvertflip\49.repeated_slap_with_hand_short_horvertflip_short_600ms.mp4	49.repeated_slap_with_hand_short_horvertflip_short_600ms.mp4	570.7403599348645	571.3487396473502	0.6083797124856574	n/a	n/a	n/a	n/a
486.32177734375	0.2	995987	282	24	2	0	0	86	318	stimuli\Videos_short_600ms_vertflip\53.touch_top_to_bottom_with_knife_short_vertflip_short_600ms.mp4	53.touch_top_to_bottom_with_knife_short_vertflip_short_600ms.mp4	571.5403492020951	572.1487204104733	0.6083712083782302	n/a	n/a	n/a	n/a
487.1220703125	0.2	997626	283	24	2	0	0	87	145	stimuli\Videos_short_600ms_horflip\6.single_touch_with_flat_hand_short_horflip_short_600ms.mp4	6.single_touch_with_flat_hand_short_horflip_short_600ms.mp4	572.3403443342268	572.9487073317432	0.6083629975164513	n/a	n/a	n/a	n/a
487.921875	0.2	999264	284	24	2	0	0	88	346	stimuli\Videos_short_600ms_vertflip\79.long_with_soft_brush_all_over_the_hand_short_vertflip_short_600ms.mp4	79.long_with_soft_brush_all_over_the_hand_short_vertflip_short_600ms.mp4	573.1403142472827	573.7486869218865	0.6083726746037428	n/a	n/a	n/a	n/a
488.7216796875	0.2	1000902	285	24	2	0	0	89	147	stimuli\Videos_short_600ms_horflip\61.single_hit_with_rolling_pin_short_horflip_short_600ms.mp4	61.single_hit_with_rolling_pin_short_horflip_short_600ms.mp4	573.9402979428569	574.5486700309702	0.6083720881133559	n/a	n/a	n/a	n/a
489.52197265625	0.2	1002541	286	24	2	0	0	90	317	stimuli\Videos_short_600ms_vertflip\52.touch_top_to_bottom_with_hammer_short_vertflip_short_600ms.mp4	52.touch_top_to_bottom_with_hammer_short_vertflip_short_600ms.mp4	574.7402983534002	575.3486510873381	0.6083527339378634	n/a	n/a	n/a	n/a
490.32177734375	0.2	1004179	287	24	2	0	0	91	348	stimuli\Videos_short_600ms_vertflip\80.stroke_with_sharp_stick_all_over_the_hand_short_vertflip_short_600ms.mp4	80.stroke_with_sharp_stick_all_over_the_hand_short_vertflip_short_600ms.mp4	575.5403835117686	576.1486315572165	0.6082480454479082	n/a	n/a	n/a	n/a
491.12158203125	0.2	1005817	288	24	2	0	0	92	114	stimuli\Videos_short_600ms_horflip\31.hand_grabbing_wrist_short_horflip_short_600ms.mp4	31.hand_grabbing_wrist_short_horflip_short_600ms.mp4	576.3402440444133	576.9485994175575	0.6083553731441498	n/a	n/a	n/a	n/a
491.921875	0.2	1007456	289	24	2	0	0	93	119	stimuli\Videos_short_600ms_horflip\36.single_slap_with_full_hand_short_horflip_short_600ms.mp4	36.single_slap_with_full_hand_short_horflip_short_600ms.mp4	577.1402459211813	577.7486007078351	0.6083547866537629	n/a	n/a	n/a	n/a
492.7216796875	0.2	1009094	290	24	2	0	0	94	59	stimuli\Videos_short_600ms\63.stroke_top_to_bottom_with_screwdriver_short_short_600ms.mp4	63.stroke_top_to_bottom_with_screwdriver_short_short_600ms.mp4	577.9402146612565	578.5485591843335	0.6083445230769939	5.0	5.0	2.603703626591596	1.0
527.8203125	0.2	1080976	291	24	3	0	0	0	330	stimuli\Videos_short_600ms_vertflip\64.repeated_touch_with_screwdriver_short_vertflip_short_600ms.mp4	64.repeated_touch_with_screwdriver_short_vertflip_short_600ms.mp4	613.0395042164246	613.6478208812196	0.6083166647949838	n/a	n/a	n/a	n/a
528.62060546875	0.2	1082615	292	24	3	0	0	1	233	stimuli\Videos_short_600ms_horvertflip\58.single_slap_with_pencil_short_horvertflip_short_600ms.mp4	58.single_slap_with_pencil_short_horvertflip_short_600ms.mp4	613.8394835133231	614.4478057497736	0.6083222364504763	n/a	n/a	n/a	n/a
529.42041015625	0.2	1084253	293	24	3	0	0	2	154	stimuli\Videos_short_600ms_horflip\68.stroke_top_to_bottom_with_shawl_short_horflip_short_600ms.mp4	68.stroke_top_to_bottom_with_shawl_short_horflip_short_600ms.mp4	614.6394657426717	615.2477879791222	0.6083222364504763	n/a	n/a	n/a	n/a
530.22021484375	0.2	1085891	294	24	3	0	0	3	273	stimuli\Videos_short_600ms_vertflip\12.repeated_touch_with_nail_file_short_vertflip_short_600ms.mp4	12.repeated_touch_with_nail_file_short_vertflip_short_600ms.mp4	615.4393978271128	616.0477702084709	0.6083723813580946	n/a	n/a	n/a	n/a
531.0205078125	0.2	1087530	295	24	3	0	1	4	383	stimuli\Targets_short_600ms_vertflip\hand-stroke_short_horvertflip_short_600ms.mp4	hand-stroke_short_horvertflip_short_600ms.mp4	616.2394375324957	616.8477524378204	0.6083149053247325	n/a	n/a	n/a	n/a
531.8203125	0.2	1089168	296	24	3	0	0	5	296	stimuli\Videos_short_600ms_vertflip\33.scratch_top_to_bottom_with_scissors_short_vertflip_short_600ms.mp4	33.scratch_top_to_bottom_with_scissors_short_vertflip_short_600ms.mp4	617.0394537782722	617.6477349604138	0.6082811821415817	n/a	n/a	n/a	n/a
532.62060546875	0.2	1090807	297	24	3	0	0	6	342	stimuli\Videos_short_600ms_vertflip\75.(long)stroke_with_fingers_all_over_the_hand_short_vertflip_short_600ms.mp4	75.(long)stroke_with_fingers_all_over_the_hand_short_vertflip_short_600ms.mp4	617.8393703207257	618.4477174830072	0.6083471622814614	n/a	n/a	n/a	n/a
533.42041015625	0.2	1092445	298	24	3	0	0	7	71	stimuli\Videos_short_600ms\74.fingers_walking_from_top_to_bottom_short_short_600ms.mp4	74.fingers_walking_from_top_to_bottom_short_short_600ms.mp4	618.6394510804175	619.2477005920919	0.6082495116743303	n/a	n/a	n/a	n/a
534.22021484375	0.2	1094083	299	24	3	0	0	8	172	stimuli\Videos_short_600ms_horflip\84.single_touch_with_cotton_bud_short_horflip_short_600ms.mp4	84.single_touch_with_cotton_bud_short_horflip_short_600ms.mp4	619.439359705254	620.0476819417054	0.6083222364513858	n/a	n/a	n/a	n/a
535.0205078125	0.2	1095722	300	24	3	0	0	9	303	stimuli\Videos_short_600ms_vertflip\4.repeated_tap_with_finger_slow_short_vertflip_short_600ms.mp4	4.repeated_tap_with_finger_slow_short_vertflip_short_600ms.mp4	620.2393463332792	620.8476668102594	0.6083204769802251	n/a	n/a	n/a	n/a
535.8203125	0.2	1097360	301	24	3	0	0	10	115	stimuli\Videos_short_600ms_horflip\32.single_(long)pinch_with_fingers_short_horflip_short_600ms.mp4	32.single_(long)pinch_with_fingers_short_horflip_short_600ms.mp4	621.0393071557373	621.6476285124536	0.6083213567162602	n/a	n/a	n/a	n/a
536.6201171875	0.2	1098998	302	24	3	0	1	11	369	stimuli\Targets_short_600ms_horflip\finger-tap_short_horflip_short_600ms.mp4	finger-tap_short_horflip_short_600ms.mp4	621.8393169501223	622.4476283365066	0.60831138638423	n/a	n/a	n/a	n/a
537.42041015625	0.2	1100637	303	24	3	0	0	12	332	stimuli\Videos_short_600ms_vertflip\66.stroke_top_to_bottom_with_sponge_short_vertflip_short_600ms.mp4	66.stroke_top_to_bottom_with_sponge_short_vertflip_short_600ms.mp4	622.6392930213251	623.2476164307564	0.6083234094312502	n/a	n/a	n/a	n/a
538.22021484375	0.2	1102275	304	24	3	0	0	13	331	stimuli\Videos_short_600ms_vertflip\65.stroke_top_to_bottom_with_stanley_knife_short_vertflip_short_600ms.mp4	65.stroke_top_to_bottom_with_stanley_knife_short_vertflip_short_600ms.mp4	623.4392875669664	624.0475819451358	0.6082943781693757	n/a	n/a	n/a	n/a
539.02001953125	0.2	1103913	305	24	3	0	0	14	352	stimuli\Videos_short_600ms_vertflip\84.single_touch_with_cotton_bud_short_vertflip_short_600ms.mp4	84.single_touch_with_cotton_bud_short_vertflip_short_600ms.mp4	624.239256893532	624.8475829421695	0.6083260486375366	n/a	n/a	n/a	n/a
539.8203125	0.2	1105552	306	24	3	0	0	15	63	stimuli\Videos_short_600ms\67.single_touch_with_sponge_short_short_600ms.mp4	67.single_touch_with_sponge_short_short_600ms.mp4	625.0392408823518	625.6475622390672	0.6083213567153507	n/a	n/a	n/a	n/a
540.6201171875	0.2	1107190	307	24	3	0	0	16	350	stimuli\Videos_short_600ms_vertflip\82.repeated_touch_with_cotton_bud_short_vertflip_short_600ms.mp4	82.repeated_touch_with_cotton_bud_short_vertflip_short_600ms.mp4	625.8392236981899	626.447546227886	0.6083225296961245	n/a	n/a	n/a	n/a
541.419921875	0.2	1108828	308	24	3	0	0	17	167	stimuli\Videos_short_600ms_horflip\8.single_touch_with_hairbrush_short_horflip_short_600ms.mp4	8.single_touch_with_hairbrush_short_horflip_short_600ms.mp4	626.6392050478034	627.2475349086271	0.6083298608236873	n/a	n/a	n/a	n/a
542.22021484375	0.2	1110467	309	24	3	0	0	18	307	stimuli\Videos_short_600ms_vertflip\43.touch_top_to_bottom_with_sharp_wooden_stick_short_vertflip_short_600ms.mp4	43.touch_top_to_bottom_with_sharp_wooden_stick_short_vertflip_short_600ms.mp4	627.4391878636425	628.0475077541332	0.6083198904907476	n/a	n/a	n/a	n/a
543.02001953125	0.2	1112105	310	24	3	0	0	19	27	stimuli\Videos_short_600ms\34.repeated_punch_with_hand_short_short_600ms.mp4	34.repeated_punch_with_hand_short_short_600ms.mp4	628.2391689200113	628.8474935024224	0.6083245824111145	n/a	n/a	n/a	n/a
543.81982421875	0.2	1113743	311	24	3	0	0	20	67	stimuli\Videos_short_600ms\70.(long)stroke_with_finger_all_over_the_hand_short_short_600ms.mp4	70.(long)stroke_with_finger_all_over_the_hand_short_short_600ms.mp4	629.0391517358503	629.6474560843517	0.6083043485014059	n/a	n/a	n/a	n/a
544.6201171875	0.2	1115382	312	24	3	0	0	21	80	stimuli\Videos_short_600ms\82.repeated_touch_with_cotton_bud_short_short_600ms.mp4	82.repeated_touch_with_cotton_bud_short_short_600ms.mp4	629.8391357246692	630.4474570813854	0.6083213567162602	n/a	n/a	n/a	n/a
545.419921875	0.2	1117020	313	24	3	0	0	22	356	stimuli\Videos_short_600ms_vertflip\88.repeated_stroke_with_plastic_brush_short_vertflip_short_600ms.mp4	88.repeated_stroke_with_plastic_brush_short_vertflip_short_600ms.mp4	630.6391164877923	631.247440483714	0.6083239959216371	n/a	n/a	n/a	n/a
546.2197265625	0.2	1118658	314	24	3	0	0	23	100	stimuli\Videos_short_600ms_horflip\19.single_touch_with_rolling_pin_short_horflip_short_600ms.mp4	19.single_touch_with_rolling_pin_short_horflip_short_600ms.mp4	631.4391359592655	632.0474238860434	0.608287926777848	n/a	n/a	n/a	n/a
547.02001953125	0.2	1120297	315	24	3	0	0	24	193	stimuli\Videos_short_600ms_horvertflip\21.repeated_touch_with_metal_chopstick_short_horvertflip_short_600ms.mp4	21.repeated_touch_with_metal_chopstick_short_horvertflip_short_600ms.mp4	632.2390604193351	632.8474052356569	0.6083448163217327	n/a	n/a	n/a	n/a
547.81982421875	0.2	1121935	316	24	3	0	0	25	106	stimuli\Videos_short_600ms_horflip\24.single_stroke_top_to_bottom_with_a_spoon_short_horflip_short_600ms.mp4	24.single_stroke_top_to_bottom_with_a_spoon_short_horflip_short_600ms.mp4	633.0390649353094	633.6473877582503	0.6083228229408633	n/a	n/a	n/a	n/a
548.61962890625	0.2	1123573	317	24	3	0	0	26	355	stimuli\Videos_short_600ms_vertflip\87.single_stroke_top_to_bottom_with_plastic_brush_short_vertflip_short_600ms.mp4	87.single_stroke_top_to_bottom_with_plastic_brush_short_vertflip_short_600ms.mp4	633.8390451119421	634.4473699875989	0.6083248756567627	n/a	n/a	n/a	n/a
549.419921875	0.2	1125212	318	24	3	0	0	27	255	stimuli\Videos_short_600ms_horvertflip\78.single_stroke_top_to_bottom_with_soft_brush_short_horvertflip_short_600ms.mp4	78.single_stroke_top_to_bottom_with_soft_brush_short_horvertflip_short_600ms.mp4	634.6390074006258	635.2473501642326	0.6083427636067427	n/a	n/a	n/a	n/a
550.2197265625	0.2	1126850	319	24	3	0	0	28	1	stimuli\Videos_short_600ms\10.single_touch_with_knife_short_short_600ms.mp4	10.single_touch_with_knife_short_short_600ms.mp4	635.4390183679916	636.0473414841781	0.6083231161865115	n/a	n/a	n/a	n/a
551.01953125	0.2	1128488	320	24	3	0	0	29	152	stimuli\Videos_short_600ms_horflip\66.stroke_top_to_bottom_with_sponge_short_horflip_short_600ms.mp4	66.stroke_top_to_bottom_with_sponge_short_horflip_short_600ms.mp4	636.2390011838306	636.8473175553809	0.6083163715502451	n/a	n/a	n/a	n/a
551.81982421875	0.2	1130127	321	24	3	0	0	30	13	stimuli\Videos_short_600ms\21.repeated_touch_with_metal_chopstick_short_short_600ms.mp4	21.repeated_touch_with_metal_chopstick_short_short_600ms.mp4	637.0389872253654	637.6473006644646	0.60831343909922	n/a	n/a	n/a	n/a
552.61962890625	0.2	1131765	322	24	3	0	0	31	0	stimuli\Videos_short_600ms\1.repeated_touch_with_finger_fast_short_short_600ms.mp4	1.repeated_touch_with_finger_fast_short_short_600ms.mp4	637.8389797182917	638.4472579679823	0.6082782496905565	n/a	n/a	n/a	n/a
553.419921875	0.2	1133404	323	24	3	0	1	32	364	stimuli\Targets_short_600ms\hand-pinch_short_short_600ms.mp4	hand-pinch_short_short_600ms.mp4	638.638944352936	639.2472709880631	0.608326635127014	n/a	n/a	n/a	n/a
554.2197265625	0.2	1135042	324	24	3	0	0	33	136	stimuli\Videos_short_600ms_horflip\51.repeated_touch_with_hammer_short_horflip_short_600ms.mp4	51.repeated_touch_with_hammer_short_horflip_short_600ms.mp4	639.4389265822847	640.0472470592658	0.6083204769811346	n/a	n/a	n/a	n/a
555.01953125	0.2	1136680	325	24	3	0	0	34	65	stimuli\Videos_short_600ms\69.stroke_with_soft_sock_short_short_600ms.mp4	69.stroke_with_soft_sock_short_short_600ms.mp4	640.238909104879	640.8472594928562	0.6083503879772252	n/a	n/a	n/a	n/a
555.81982421875	0.2	1138319	326	24	3	0	0	35	81	stimuli\Videos_short_600ms\83.single_stroke_top_to_bottom_with_cotton_bud_short_short_600ms.mp4	83.single_stroke_top_to_bottom_with_cotton_bud_short_short_600ms.mp4	641.0391429384981	641.6472165031291	0.6080735646310131	n/a	n/a	n/a	n/a
556.61962890625	0.2	1139957	327	24	3	0	0	36	324	stimuli\Videos_short_600ms_vertflip\59.single_push_with_long_side_pencil_short_vertflip_short_600ms.mp4	59.single_push_with_long_side_pencil_short_vertflip_short_600ms.mp4	641.8388744433114	642.4472016649288	0.6083272216174009	n/a	n/a	n/a	n/a
557.41943359375	0.2	1141595	328	24	3	0	0	37	187	stimuli\Videos_short_600ms_horvertflip\16.repeated_touch_with_plastic_brush_short_horvertflip_short_600ms.mp4	16.repeated_touch_with_plastic_brush_short_horvertflip_short_600ms.mp4	642.6388557929249	643.2471771496412	0.6083213567162602	n/a	n/a	n/a	n/a
558.2197265625	0.2	1143234	329	24	3	0	0	38	118	stimuli\Videos_short_600ms_horflip\35.single_punch_with_hand_short_horflip_short_600ms.mp4	35.single_punch_with_hand_short_horflip_short_600ms.mp4	643.4388380222736	644.0471593789898	0.6083213567162602	n/a	n/a	n/a	n/a
559.01953125	0.2	1144872	330	24	3	0	0	39	69	stimuli\Videos_short_600ms\72.(short)stroke_with_finger_all_over_the_hand_short_short_600ms.mp4	72.(short)stroke_with_finger_all_over_the_hand_short_short_600ms.mp4	644.2388217178477	644.8471436610535	0.6083219432057376	n/a	n/a	n/a	n/a
559.8193359375	0.2	1146510	331	24	3	0	0	40	8	stimuli\Videos_short_600ms\17.repeated_touch_with_rolling_pin_short_short_600ms.mp4	17.repeated_touch_with_rolling_pin_short_short_600ms.mp4	645.0388030674612	645.6471270633829	0.6083239959216371	n/a	n/a	n/a	n/a
560.61962890625	0.2	1148149	332	24	3	0	0	41	258	stimuli\Videos_short_600ms_horvertflip\80.stroke_with_sharp_stick_all_over_the_hand_short_horvertflip_short_600ms.mp4	80.stroke_with_sharp_stick_all_over_the_hand_short_horvertflip_short_600ms.mp4	645.8387905752215	646.4471084129964	0.6083178377748482	n/a	n/a	n/a	n/a
561.41943359375	0.2	1149787	333	24	3	0	0	42	252	stimuli\Videos_short_600ms_horvertflip\75.(long)stroke_with_fingers_all_over_the_hand_short_horvertflip_short_600ms.mp4	75.(long)stroke_with_fingers_all_over_the_hand_short_horvertflip_short_600ms.mp4	646.6387686991393	647.2470921085705	0.6083234094312502	n/a	n/a	n/a	n/a
562.21923828125	0.2	1151425	334	24	3	0	0	43	234	stimuli\Videos_short_600ms_horvertflip\59.single_push_with_long_side_pencil_short_horvertflip_short_600ms.mp4	59.single_push_with_long_side_pencil_short_horvertflip_short_600ms.mp4	647.4387500487528	648.0470728716937	0.6083228229408633	n/a	n/a	n/a	n/a
563.01953125	0.2	1153064	335	24	3	0	0	44	206	stimuli\Videos_short_600ms_horvertflip\33.scratch_top_to_bottom_with_scissors_short_horvertflip_short_600ms.mp4	33.scratch_top_to_bottom_with_scissors_short_horvertflip_short_600ms.mp4	648.2387369700218	648.8470562740231	0.6083193040012702	n/a	n/a	n/a	n/a
563.8193359375	0.2	1154702	336	24	3	0	0	45	55	stimuli\Videos_short_600ms\6.single_touch_with_flat_hand_short_short_600ms.mp4	6.single_touch_with_flat_hand_short_short_600ms.mp4	649.0387024844022	649.6469959828364	0.6082934984342501	n/a	n/a	n/a	n/a
564.619140625	0.2	1156340	337	24	3	0	0	46	353	stimuli\Videos_short_600ms_vertflip\85.touch_top_to_bottom_with_fabric_short_vertflip_short_600ms.mp4	85.touch_top_to_bottom_with_fabric_short_vertflip_short_600ms.mp4	649.8386750366635	650.4470397936493	0.6083647569857931	n/a	n/a	n/a	n/a
565.41943359375	0.2	1157979	338	24	3	0	0	47	79	stimuli\Videos_short_600ms\81.single_stroke_top_to_bottom_with_cotton_pad_short_short_600ms.mp4	81.single_stroke_top_to_bottom_with_cotton_pad_short_short_600ms.mp4	650.6386959743613	651.2470012025988	0.608305228237441	n/a	n/a	n/a	n/a
566.21923828125	0.2	1159617	339	24	3	0	1	48	381	stimuli\Targets_short_600ms_vertflip\finger-tap_short_horvertflip_short_600ms.mp4	finger-tap_short_horvertflip_short_600ms.mp4	651.4388506318119	652.0469599723419	0.6081093405300635	n/a	n/a	n/a	n/a
567.01904296875	0.2	1161255	340	24	3	0	0	49	256	stimuli\Videos_short_600ms_horvertflip\79.long_with_soft_brush_all_over_the_hand_short_horvertflip_short_600ms.mp4	79.long_with_soft_brush_all_over_the_hand_short_horvertflip_short_600ms.mp4	652.2386548614022	652.8469480665917	0.6082932051895114	n/a	n/a	n/a	n/a
567.8193359375	0.2	1162894	341	24	3	0	0	50	221	stimuli\Videos_short_600ms_horvertflip\47.(long)scratching_with_finger_nails_short_horvertflip_short_600ms.mp4	47.(long)scratching_with_finger_nails_short_horvertflip_short_600ms.mp4	653.0386297596242	653.6469514095852	0.6083216499609989	n/a	n/a	n/a	n/a
568.619140625	0.2	1164532	342	24	3	0	0	51	138	stimuli\Videos_short_600ms_horflip\53.touch_top_to_bottom_with_knife_short_horflip_short_600ms.mp4	53.touch_top_to_bottom_with_knife_short_horflip_short_600ms.mp4	653.8386131619536	654.4469087131029	0.60829555114924	n/a	n/a	n/a	n/a
569.4189453125	0.2	1166170	343	24	3	0	0	52	248	stimuli\Videos_short_600ms_horvertflip\71.single_stroke_with_finger_top_to_bottom_short_horvertflip_short_600ms.mp4	71.single_stroke_with_finger_top_to_bottom_short_horvertflip_short_600ms.mp4	654.6385939250767	655.2469017925196	0.608307867442818	n/a	n/a	n/a	n/a
570.21923828125	0.2	1167809	344	24	3	0	0	53	289	stimuli\Videos_short_600ms_vertflip\27.single_push_with_a_plastic_whisk_short_vertflip_short_600ms.mp4	27.single_push_with_a_plastic_whisk_short_vertflip_short_600ms.mp4	655.4385770341605	656.0469086544545	0.6083316202939386	n/a	n/a	n/a	n/a
571.01904296875	0.2	1169447	345	24	3	0	0	54	20	stimuli\Videos_short_600ms\28.single_injection_with_sharp_needle_short_short_600ms.mp4	28.single_injection_with_sharp_needle_short_short_600ms.mp4	656.2385607297347	656.8468882445977	0.6083275148630491	n/a	n/a	n/a	n/a
571.81884765625	0.2	1171085	346	24	3	0	0	55	198	stimuli\Videos_short_600ms_horvertflip\26.single_touch_with_a_blunt_syringe_short_horvertflip_short_600ms.mp4	26.single_touch_with_a_blunt_syringe_short_horvertflip_short_600ms.mp4	657.0385441320641	657.6468663685155	0.6083222364513858	n/a	n/a	n/a	n/a
572.619140625	0.2	1172724	347	24	3	0	0	56	61	stimuli\Videos_short_600ms\65.stroke_top_to_bottom_with_stanley_knife_short_short_600ms.mp4	65.stroke_top_to_bottom_with_stanley_knife_short_short_600ms.mp4	657.838528120883	658.4468456654131	0.6083175445301094	n/a	n/a	n/a	n/a
573.4189453125	0.2	1174362	348	24	3	0	0	57	279	stimuli\Videos_short_600ms_vertflip\18.single_stroke_from_top_to_bottom_with_rolling_pin_short_vertflip_short_600ms.mp4	18.single_stroke_from_top_to_bottom_with_rolling_pin_short_vertflip_short_600ms.mp4	658.6385088840061	659.2468281880065	0.6083193040003607	n/a	n/a	n/a	n/a
574.21923828125	0.2	1176001	349	24	3	0	0	58	316	stimuli\Videos_short_600ms_vertflip\51.repeated_touch_with_hammer_short_vertflip_short_600ms.mp4	51.repeated_touch_with_hammer_short_vertflip_short_600ms.mp4	659.4384899403749	660.0468115903359	0.6083216499609989	n/a	n/a	n/a	n/a
575.01904296875	0.2	1177639	350	24	3	0	0	59	162	stimuli\Videos_short_600ms_horflip\75.(long)stroke_with_fingers_all_over_the_hand_short_horflip_short_600ms.mp4	75.(long)stroke_with_fingers_all_over_the_hand_short_horflip_short_600ms.mp4	660.2384888846927	660.846797338625	0.6083084539322954	n/a	n/a	n/a	n/a
575.81884765625	0.2	1179277	351	24	3	0	0	60	142	stimuli\Videos_short_600ms_horflip\57.single_touch_with_nail_file_short_horflip_short_600ms.mp4	57.single_touch_with_nail_file_short_horflip_short_600ms.mp4	661.0384529328467	661.646775169298	0.6083222364513858	n/a	n/a	n/a	n/a
576.619140625	0.2	1180916	352	24	3	0	0	61	357	stimuli\Videos_short_600ms_vertflip\89.single_touch_with_plastic_brush_short_vertflip_short_600ms.mp4	89.single_touch_with_plastic_brush_short_vertflip_short_600ms.mp4	661.838437508156	662.4467626770584	0.608325168902411	n/a	n/a	n/a	n/a
577.4189453125	0.2	1182554	353	24	3	0	0	62	84	stimuli\Videos_short_600ms\86.touch_top_to_bottom_with_hair_brush_short_short_600ms.mp4	86.touch_top_to_bottom_with_hair_brush_short_short_600ms.mp4	662.6384220834652	663.2467413874656	0.6083193040003607	n/a	n/a	n/a	n/a
578.21875	0.2	1184192	354	24	3	0	0	63	151	stimuli\Videos_short_600ms_horflip\65.stroke_top_to_bottom_with_stanley_knife_short_horflip_short_600ms.mp4	65.stroke_top_to_bottom_with_stanley_knife_short_horflip_short_600ms.mp4	663.4384321710959	664.0467224438344	0.6082902727384862	n/a	n/a	n/a	n/a
579.01904296875	0.2	1185831	355	24	3	0	0	64	131	stimuli\Videos_short_600ms_horflip\47.(long)scratching_with_finger_nails_short_horflip_short_600ms.mp4	47.(long)scratching_with_finger_nails_short_horflip_short_600ms.mp4	664.2383853691827	664.846704673183	0.6083193040003607	n/a	n/a	n/a	n/a
579.81884765625	0.2	1187469	356	24	3	0	0	65	93	stimuli\Videos_short_600ms_horflip\12.repeated_touch_with_nail_file_short_horflip_short_600ms.mp4	12.repeated_touch_with_nail_file_short_horflip_short_600ms.mp4	665.0383872459515	665.6466869025317	0.6082996565801295	n/a	n/a	n/a	n/a
580.61865234375	0.2	1189107	357	24	3	0	0	66	262	stimuli\Videos_short_600ms_horvertflip\84.single_touch_with_cotton_bud_short_horvertflip_short_600ms.mp4	84.single_touch_with_cotton_bud_short_horvertflip_short_600ms.mp4	665.8383612644384	666.4466685453908	0.608307280952431	n/a	n/a	n/a	n/a
581.4189453125	0.2	1190746	358	24	3	0	0	67	169	stimuli\Videos_short_600ms_horflip\81.single_stroke_top_to_bottom_with_cotton_pad_short_horflip_short_600ms.mp4	81.single_stroke_top_to_bottom_with_cotton_pad_short_horflip_short_600ms.mp4	666.6383429072966	667.2466328867895	0.608289979492838	n/a	n/a	n/a	n/a
582.21875	0.2	1192384	359	24	3	0	0	68	159	stimuli\Videos_short_600ms_horflip\72.(short)stroke_with_finger_all_over_the_hand_short_horflip_short_600ms.mp4	72.(short)stroke_with_finger_all_over_the_hand_short_horflip_short_600ms.mp4	667.4383251366453	668.0466101309721	0.6082849943268229	n/a	n/a	n/a	n/a
