onset	duration	onsetsample	eventnumber	subjectnr	sequencenumber	blocksequencenumber	istarget	presentationnumber	stimnumber	stim	stimname	time_stimon	time_stimoff	stimdur	cresp	resp	rt	correct
55.4501953125	0.2	113562	0	21	0	0	0	0	245	stimuli\Videos_short_600ms_horvertflip\69.stroke_with_soft_sock_short_horvertflip_short_600ms.mp4	69.stroke_with_soft_sock_short_horvertflip_short_600ms.mp4	135.22323470564038	135.8311267978595	0.6078920922191173				
56.25	0.2	115200	1	21	0	0	0	1	122	stimuli\Videos_short_600ms_horflip\39.single_stab_with_scissors_short_horflip_short_600ms.mp4	39.single_stab_with_scissors_short_horflip_short_600ms.mp4	136.02285888055394	136.63111694476743	0.6082580642134872				
57.0498046875	0.2	116838	2	21	0	0	0	2	270	stimuli\Videos_short_600ms_vertflip\1.repeated_touch_with_finger_fast_short_vertflip_short_600ms.mp4	1.repeated_touch_with_finger_fast_short_vertflip_short_600ms.mp4	136.8227540155017	137.43110298622014	0.6083489707184526				
57.85009765625	0.2	118477	3	21	0	0	0	3	359	stimuli\Videos_short_600ms_vertflip\90.repeated_touch_with_sponge_short_vertflip_short_600ms.mp4	90.repeated_touch_with_sponge_short_vertflip_short_600ms.mp4	137.62276322345087	138.2310899074132	0.608326683962332				
58.64990234375	0.2	120115	4	21	0	0	0	4	288	stimuli\Videos_short_600ms_vertflip\26.single_touch_with_a_blunt_syringe_short_vertflip_short_600ms.mp4	26.single_touch_with_a_blunt_syringe_short_vertflip_short_600ms.mp4	138.42275249061845	139.0310771218533	0.6083246312348365				
59.4580078125	0.2	121770	5	21	0	0	0	5	42	stimuli\Videos_short_600ms\48.single_slap_with_hand_short_short_600ms.mp4	48.single_slap_with_hand_short_short_600ms.mp4	139.23109049390678	139.83939958306178	0.608309089155				
60.25830078125	0.2	123409	6	21	0	0	0	6	57	stimuli\Videos_short_600ms\61.single_hit_with_rolling_pin_short_short_600ms.mp4	61.single_hit_with_rolling_pin_short_short_600ms.mp4	140.03105190262932	140.63938797048877	0.6083360678594545				
61.05810546875	0.2	125047	7	21	0	0	0	7	218	stimuli\Videos_short_600ms_horvertflip\44.pushing_top_to_bottom_with_finger_short_horvertflip_short_600ms.mp4	44.pushing_top_to_bottom_with_finger_short_horvertflip_short_600ms.mp4	140.8310467414858	141.43937489168206	0.6083281501962574				
61.85791015625	0.2	126685	8	21	0	0	0	8	203	stimuli\Videos_short_600ms_horvertflip\30.finger_pulling_back_another_finger_short_horvertflip_short_600ms.mp4	30.finger_pulling_back_another_finger_short_horvertflip_short_600ms.mp4	141.631038941121	142.23936298586227	0.6083240447412663				
62.658203125	0.2	128324	9	21	0	0	0	9	43	stimuli\Videos_short_600ms\49.repeated_slap_with_hand_short_short_600ms.mp4	49.repeated_slap_with_hand_short_short_600ms.mp4	142.4310009363371	143.03934990705557	0.6083489707184526				
63.4580078125	0.2	129962	10	21	0	0	0	10	252	stimuli\Videos_short_600ms_horvertflip\75.(long)stroke_with_fingers_all_over_the_hand_short_horvertflip_short_600ms.mp4	75.(long)stroke_with_fingers_all_over_the_hand_short_horvertflip_short_600ms.mp4	143.23098844402375	143.83934064045684	0.6083521964330885				
64.2578125	0.2	131600	11	21	0	0	0	11	31	stimuli\Videos_short_600ms\38.double_slap_with_pencil_short_short_600ms.mp4	38.double_slap_with_pencil_short_short_600ms.mp4	144.03100439664922	144.63932785489692	0.6083234582476962				
65.05810546875	0.2	133239	12	21	0	0	0	12	61	stimuli\Videos_short_600ms\65.stroke_top_to_bottom_with_stanley_knife_short_short_600ms.mp4	65.stroke_top_to_bottom_with_stanley_knife_short_short_600ms.mp4	144.83099190433586	145.43931301660928	0.6083211122734156				
65.85791015625	0.2	134877	13	21	0	0	0	13	68	stimuli\Videos_short_600ms\71.single_stroke_with_finger_top_to_bottom_short_short_600ms.mp4	71.single_stroke_with_finger_top_to_bottom_short_short_600ms.mp4	145.63097853228237	146.23929788507485	0.6083193527924777				
66.65771484375	0.2	136515	14	21	0	0	0	14	273	stimuli\Videos_short_600ms_vertflip\12.repeated_touch_with_nail_file_short_vertflip_short_600ms.mp4	12.repeated_touch_with_nail_file_short_vertflip_short_600ms.mp4	146.43094844516168	147.03926574522666	0.6083173000649822				
67.4580078125	0.2	138154	15	21	0	0	0	15	81	stimuli\Videos_short_600ms\83.single_stroke_top_to_bottom_with_cotton_bud_short_short_600ms.mp4	83.single_stroke_top_to_bottom_with_cotton_bud_short_short_600ms.mp4	147.23095530713658	147.8392529596665	0.6082976525299273				
68.26611328125	0.2	139809	16	21	0	0	0	16	205	stimuli\Videos_short_600ms_horvertflip\32.single_(long)pinch_with_fingers_short_horvertflip_short_600ms.mp4	32.single_(long)pinch_with_fingers_short_horvertflip_short_600ms.mp4	148.03926339925238	148.6475985873717	0.6083351881193266				
69.06640625	0.2	141448	17	21	0	0	0	17	48	stimuli\Videos_short_600ms\53.touch_top_to_bottom_with_knife_short_short_600ms.mp4	53.touch_top_to_bottom_with_knife_short_short_600ms.mp4	148.8392371243399	149.44758638830513	0.6083492639652377				
69.8662109375	0.2	143086	18	21	0	0	0	18	304	stimuli\Videos_short_600ms_vertflip\40.repeated_push_with_finger_short_vertflip_short_600ms.mp4	40.repeated_push_with_finger_short_vertflip_short_600ms.mp4	149.6392501444975	150.24757360274498	0.6083234582474688				
70.666015625	0.2	144724	19	21	0	0	0	19	310	stimuli\Videos_short_600ms_vertflip\46.scratching_top_to_bottom_with_finger_nails_short_vertflip_short_600ms.mp4	46.scratching_top_to_bottom_with_finger_nails_short_vertflip_short_600ms.mp4	150.439244983354	151.04756111043184	0.6083161270778419				
71.46630859375	0.2	146363	20	21	0	0	0	20	79	stimuli\Videos_short_600ms\81.single_stroke_top_to_bottom_with_cotton_pad_short_short_600ms.mp4	81.single_stroke_top_to_bottom_with_cotton_pad_short_short_600ms.mp4	151.23925272506926	151.84753160980472	0.608278884735455				
72.26611328125	0.2	148001	21	21	0	0	0	21	160	stimuli\Videos_short_600ms_horflip\73.single_stroke_with_flat_hand_short_horflip_short_600ms.mp4	73.single_stroke_with_flat_hand_short_horflip_short_600ms.mp4	152.03922263794857	152.64753377983106	0.6083111418824956				
73.06591796875	0.2	149639	22	21	0	0	0	22	103	stimuli\Videos_short_600ms_horflip\21.repeated_touch_with_metal_chopstick_short_horflip_short_600ms.mp4	21.repeated_touch_with_metal_chopstick_short_horflip_short_600ms.mp4	152.839201934725	153.4475230469984	0.6083211122734156				
73.8662109375	0.2	151278	23	21	0	0	0	23	300	stimuli\Videos_short_600ms_vertflip\37.single_stab_with_nail_file_short_vertflip_short_600ms.mp4	37.single_stab_with_nail_file_short_vertflip_short_600ms.mp4	153.6391885626715	154.24748797468237	0.6082994120108651				
74.666015625	0.2	152916	24	21	0	0	1	24	370	stimuli\Targets_short_600ms_horflip\hand-pinch_short_horflip_short_600ms.mp4	hand-pinch_short_horflip_short_600ms.mp4	154.43917782983883	155.04749307717657	0.608315247337714				
75.4658203125	0.2	154554	25	21	0	0	0	25	341	stimuli\Videos_short_600ms_vertflip\74.fingers_walking_from_top_to_bottom_short_vertflip_short_600ms.mp4	74.fingers_walking_from_top_to_bottom_short_vertflip_short_600ms.mp4	155.23916651051286	155.84751812045238	0.6083516099395183				
76.26611328125	0.2	156193	26	21	0	0	0	26	167	stimuli\Videos_short_600ms_horflip\8.single_touch_with_hairbrush_short_horflip_short_600ms.mp4	8.single_touch_with_hairbrush_short_horflip_short_600ms.mp4	156.03916868053898	156.64748070216183	0.6083120216228508				
77.07421875	0.2	157848	27	21	0	0	0	27	147	stimuli\Videos_short_600ms_horflip\61.single_hit_with_rolling_pin_short_horflip_short_600ms.mp4	61.single_hit_with_rolling_pin_short_horflip_short_600ms.mp4	156.84748146460356	157.45577237245743	0.6082909078538705				
77.8740234375	0.2	159486	28	21	0	0	0	28	272	stimuli\Videos_short_600ms_vertflip\11.single_touch_with_lighter_short_vertflip_short_600ms.mp4	11.single_touch_with_lighter_short_vertflip_short_600ms.mp4	157.6474631073545	158.25576134637822	0.6082982390237248				
78.67431640625	0.2	161125	29	21	0	0	1	29	373	stimuli\Targets_short_600ms_horvertflip\chopstick-silver-tap_short_vertflip_short_600ms.mp4	chopstick-silver-tap_short_vertflip_short_600ms.mp4	158.44746234491276	159.0557482675713	0.6082859226585242				
79.47412109375	0.2	162763	30	21	0	0	0	30	158	stimuli\Videos_short_600ms_horflip\71.single_stroke_with_finger_top_to_bottom_short_horflip_short_600ms.mp4	71.single_stroke_with_finger_top_to_bottom_short_horflip_short_600ms.mp4	159.2474378294812	159.85576832565175	0.608330496170538				
80.27392578125	0.2	164401	31	21	0	0	0	31	198	stimuli\Videos_short_600ms_horvertflip\26.single_touch_with_a_blunt_syringe_short_horvertflip_short_600ms.mp4	26.single_touch_with_a_blunt_syringe_short_horvertflip_short_600ms.mp4	160.0474326683377	160.65575876580647	0.6083260974687619				
81.07421875	0.2	166040	32	21	0	0	0	32	4	stimuli\Videos_short_600ms\13.single_touch_with_pen_short_short_600ms.mp4	13.single_touch_with_pen_short_short_600ms.mp4	160.8474172435565	161.45574304777847	0.6083258042219768				
81.8740234375	0.2	167678	33	21	0	0	0	33	346	stimuli\Videos_short_600ms_vertflip\79.long_with_soft_brush_all_over_the_hand_short_vertflip_short_600ms.mp4	79.long_with_soft_brush_all_over_the_hand_short_vertflip_short_600ms.mp4	161.6474015255285	162.25573378117997	0.6083322556514759				
82.67431640625	0.2	169317	34	21	0	0	1	34	369	stimuli\Targets_short_600ms_horflip\finger-tap_short_horflip_short_600ms.mp4	finger-tap_short_horflip_short_600ms.mp4	162.44738903321513	163.0557154239309	0.6083263907157743				
83.47412109375	0.2	170955	35	21	0	0	0	35	110	stimuli\Videos_short_600ms_horflip\28.single_injection_with_sharp_needle_short_horflip_short_600ms.mp4	28.single_injection_with_sharp_needle_short_horflip_short_600ms.mp4	163.24737595440843	163.85570879655324	0.6083328421448186				
84.27392578125	0.2	172593	36	21	0	0	0	36	187	stimuli\Videos_short_600ms_horvertflip\16.repeated_touch_with_plastic_brush_short_horvertflip_short_600ms.mp4	16.repeated_touch_with_plastic_brush_short_horvertflip_short_600ms.mp4	164.04736522157577	164.65569542449975	0.6083302029239803				
85.07421875	0.2	174232	37	21	0	0	0	37	344	stimuli\Videos_short_600ms_vertflip\77.tapping_with_all_fingers_short_vertflip_short_600ms.mp4	77.tapping_with_all_fingers_short_vertflip_short_600ms.mp4	164.847353609003	165.45567589426355	0.6083222852605559				
85.8740234375	0.2	175870	38	21	0	0	0	38	11	stimuli\Videos_short_600ms\2.single_touch_with_finger_short_short_600ms.mp4	2.single_touch_with_finger_short_short_600ms.mp4	165.64733935720892	166.2556757183154	0.6083363611064669				
86.673828125	0.2	177508	39	21	0	0	0	39	108	stimuli\Videos_short_600ms_horflip\26.single_touch_with_a_blunt_syringe_short_horflip_short_600ms.mp4	26.single_touch_with_a_blunt_syringe_short_horflip_short_600ms.mp4	166.447330677104	167.05565530833883	0.6083246312348365				
87.47412109375	0.2	179147	40	21	0	0	0	40	320	stimuli\Videos_short_600ms_vertflip\55.touch_top_to_bottom_with_nail_file_short_vertflip_short_600ms.mp4	55.touch_top_to_bottom_with_nail_file_short_vertflip_short_600ms.mp4	167.2473002967365	167.85565161342925	0.6083513166927332				
88.27392578125	0.2	180785	41	21	0	0	0	41	90	stimuli\Videos_short_600ms_horflip\1.repeated_touch_with_finger_fast_short_horflip_short_600ms.mp4	1.repeated_touch_with_finger_fast_short_horflip_short_600ms.mp4	168.0472790070196	168.65563120345269	0.6083521964330885				
89.07373046875	0.2	182423	42	21	0	0	1	42	376	stimuli\Targets_short_600ms_horvertflip\hand-pinch_short_vertflip_short_600ms.mp4	hand-pinch_short_vertflip_short_600ms.mp4	168.84727853782465	169.45561460568433	0.6083360678596819				
89.8740234375	0.2	184062	43	21	0	0	0	43	303	stimuli\Videos_short_600ms_vertflip\4.repeated_tap_with_finger_slow_short_vertflip_short_600ms.mp4	4.repeated_tap_with_finger_slow_short_vertflip_short_600ms.mp4	169.64727777538292	170.2556100310344	0.6083322556514759				
90.673828125	0.2	185700	44	21	0	0	0	44	302	stimuli\Videos_short_600ms_vertflip\39.single_stab_with_scissors_short_vertflip_short_600ms.mp4	39.single_stab_with_scissors_short_vertflip_short_600ms.mp4	170.44726205735492	171.0555905007982	0.6083284434432699				
91.4736328125	0.2	187338	45	21	0	0	1	45	362	stimuli\Targets_short_600ms\chopstickwood-tap_short_short_600ms.mp4	chopstickwood-tap_short_short_600ms.mp4	171.24726481387484	171.85557947471875	0.6083146608439165				
92.27392578125	0.2	188977	46	21	0	0	0	46	175	stimuli\Videos_short_600ms_horflip\87.single_stroke_top_to_bottom_with_plastic_brush_short_horflip_short_600ms.mp4	87.single_stroke_top_to_bottom_with_plastic_brush_short_horflip_short_600ms.mp4	172.04724528363863	172.65554352266236	0.6082982390237248				
93.07373046875	0.2	190615	47	21	0	0	0	47	325	stimuli\Videos_short_600ms_vertflip\6.single_touch_with_flat_hand_short_vertflip_short_600ms.mp4	6.single_touch_with_flat_hand_short_vertflip_short_600ms.mp4	172.847234844053	173.4555553698326	0.608320525779618				
93.87353515625	0.2	192253	48	21	0	0	0	48	63	stimuli\Videos_short_600ms\67.single_touch_with_sponge_short_short_600ms.mp4	67.single_touch_with_sponge_short_short_600ms.mp4	173.647219126025	174.25554023829818	0.6083211122731882				
94.673828125	0.2	193892	49	21	0	0	0	49	139	stimuli\Videos_short_600ms_horflip\54.repeated_touch_with_knife_short_horflip_short_600ms.mp4	54.repeated_touch_with_knife_short_horflip_short_600ms.mp4	174.44720809994556	175.0555306784529	0.608322578507341				
95.4736328125	0.2	195530	50	21	0	0	0	50	354	stimuli\Videos_short_600ms_vertflip\86.touch_top_to_bottom_with_hair_brush_short_vertflip_short_600ms.mp4	86.touch_top_to_bottom_with_hair_brush_short_vertflip_short_600ms.mp4	175.24720059282777	175.85552287808832	0.6083222852605559				
96.2734375	0.2	197168	51	21	0	0	0	51	155	stimuli\Videos_short_600ms_horflip\69.stroke_with_soft_sock_short_horflip_short_600ms.mp4	69.stroke_with_soft_sock_short_horflip_short_600ms.mp4	176.04718546129334	176.65550803980068	0.608322578507341				
97.07373046875	0.2	198807	52	21	0	0	0	52	166	stimuli\Videos_short_600ms_horflip\79.long_with_soft_brush_all_over_the_hand_short_horflip_short_600ms.mp4	79.long_with_soft_brush_all_over_the_hand_short_horflip_short_600ms.mp4	176.84717179599306	177.4555002394361	0.6083284434430425				
97.87353515625	0.2	200445	53	21	0	0	0	53	194	stimuli\Videos_short_600ms_horvertflip\22.single_touch_with_metal_chopstick_short_horvertflip_short_600ms.mp4	22.single_touch_with_metal_chopstick_short_horvertflip_short_600ms.mp4	177.64715783744575	178.25548393491454	0.6083260974687619				
98.67333984375	0.2	202083	54	21	0	0	0	54	154	stimuli\Videos_short_600ms_horflip\68.stroke_top_to_bottom_with_shawl_short_horflip_short_600ms.mp4	68.stroke_top_to_bottom_with_shawl_short_horflip_short_600ms.mp4	178.447150330328	179.05547261558831	0.6083222852603285				
99.4736328125	0.2	203722	55	21	0	0	0	55	206	stimuli\Videos_short_600ms_horvertflip\33.scratch_top_to_bottom_with_scissors_short_horvertflip_short_600ms.mp4	33.scratch_top_to_bottom_with_scissors_short_horvertflip_short_600ms.mp4	179.24713519879356	179.85546012327518	0.6083249244816216				
100.2734375	0.2	205360	56	21	0	0	0	56	238	stimuli\Videos_short_600ms_horvertflip\62.touch_top_to_bottom_with_scissors_short_horvertflip_short_600ms.mp4	62.touch_top_to_bottom_with_scissors_short_horvertflip_short_600ms.mp4	180.0471271051822	180.6554482174554	0.6083211122731882				
101.07373046875	0.2	206999	57	21	0	0	0	57	157	stimuli\Videos_short_600ms_horflip\70.(long)stroke_with_finger_all_over_the_hand_short_horflip_short_600ms.mp4	70.(long)stroke_with_finger_all_over_the_hand_short_horflip_short_600ms.mp4	180.84711373312848	181.45543601838904	0.6083222852605559				
101.87353515625	0.2	208637	58	21	0	0	0	58	168	stimuli\Videos_short_600ms_horflip\80.stroke_with_sharp_stick_all_over_the_hand_short_horflip_short_600ms.mp4	80.stroke_with_sharp_stick_all_over_the_hand_short_horflip_short_600ms.mp4	181.64710212055547	182.25542645854352	0.6083243379880514				
102.67333984375	0.2	210275	59	21	0	0	0	59	230	stimuli\Videos_short_600ms_horvertflip\55.touch_top_to_bottom_with_nail_file_short_horvertflip_short_600ms.mp4	55.touch_top_to_bottom_with_nail_file_short_horvertflip_short_600ms.mp4	182.4471336152608	183.05541220674968	0.6082785914888973				
103.4736328125	0.2	211914	60	21	0	0	0	60	92	stimuli\Videos_short_600ms_horflip\11.single_touch_with_lighter_short_horflip_short_600ms.mp4	11.single_touch_with_lighter_short_horflip_short_600ms.mp4	183.24705250319855	183.85540088742343	0.6083483842248825				
104.2734375	0.2	213552	61	21	0	0	0	61	255	stimuli\Videos_short_600ms_horvertflip\78.single_stroke_top_to_bottom_with_soft_brush_short_horvertflip_short_600ms.mp4	78.single_stroke_top_to_bottom_with_soft_brush_short_horvertflip_short_600ms.mp4	184.04703825140473	184.65538956809743	0.6083513166927332				
105.0732421875	0.2	215190	62	21	0	0	0	62	144	stimuli\Videos_short_600ms_horflip\59.single_push_with_long_side_pencil_short_horflip_short_600ms.mp4	59.single_push_with_long_side_pencil_short_horflip_short_600ms.mp4	184.8470272253253	185.455378542018	0.6083513166927332				
105.87353515625	0.2	216829	63	21	0	0	0	63	264	stimuli\Videos_short_600ms_horvertflip\86.touch_top_to_bottom_with_hair_brush_short_horvertflip_short_600ms.mp4	86.touch_top_to_bottom_with_hair_brush_short_horvertflip_short_600ms.mp4	185.6470156127525	186.25537103490024	0.6083554221477243				
106.67333984375	0.2	218467	64	21	0	0	0	64	5	stimuli\Videos_short_600ms\14.repeated_touch_with_pencil_short_short_600ms.mp4	14.repeated_touch_with_pencil_short_short_600ms.mp4	186.4470086921281	187.05535854258687	0.6083498504588079				
107.47314453125	0.2	220105	65	21	0	0	0	65	115	stimuli\Videos_short_600ms_horflip\32.single_(long)pinch_with_fingers_short_horflip_short_600ms.mp4	32.single_(long)pinch_with_fingers_short_horflip_short_600ms.mp4	187.24702083254533	187.85534223806553	0.6083214055202006				
108.2734375	0.2	221744	66	21	0	0	0	66	87	stimuli\Videos_short_600ms\89.single_touch_with_plastic_brush_short_short_600ms.mp4	89.single_touch_with_plastic_brush_short_short_600ms.mp4	188.0470159646486	188.6553335579604	0.6083175933117673				
109.0732421875	0.2	223382	67	21	0	0	0	67	132	stimuli\Videos_short_600ms_horflip\48.single_slap_with_hand_short_horflip_short_600ms.mp4	48.single_slap_with_hand_short_horflip_short_600ms.mp4	188.8470064048031	189.4552929139552	0.6082865091520944				
109.873046875	0.2	225020	68	21	0	0	0	68	98	stimuli\Videos_short_600ms_horflip\17.repeated_touch_with_rolling_pin_short_horflip_short_600ms.mp4	17.repeated_touch_with_rolling_pin_short_horflip_short_600ms.mp4	189.6469810096312	190.25530006917688	0.6083190595456927				
110.67333984375	0.2	226659	69	21	0	0	0	69	19	stimuli\Videos_short_600ms\27.single_push_with_a_plastic_whisk_short_short_600ms.mp4	27.single_push_with_a_plastic_whisk_short_short_600ms.mp4	190.44696851731783	191.05529197556552	0.6083234582476962				
111.47314453125	0.2	228297	70	21	0	0	0	70	317	stimuli\Videos_short_600ms_vertflip\52.touch_top_to_bottom_with_hammer_short_vertflip_short_600ms.mp4	52.touch_top_to_bottom_with_hammer_short_vertflip_short_600ms.mp4	191.24695543851112	191.85528857390273	0.6083331353916037				
112.27294921875	0.2	229935	71	21	0	0	0	71	104	stimuli\Videos_short_600ms_horflip\22.single_touch_with_metal_chopstick_short_horflip_short_600ms.mp4	22.single_touch_with_metal_chopstick_short_horflip_short_600ms.mp4	192.0469505706144	192.65526875041976	0.6083181798053374				
113.0732421875	0.2	231574	72	21	0	0	0	72	121	stimuli\Videos_short_600ms_horflip\38.double_slap_with_pencil_short_horflip_short_600ms.mp4	38.double_slap_with_pencil_short_horflip_short_600ms.mp4	192.84695068791305	193.45525684460017	0.6083061566871493				
113.873046875	0.2	233212	73	21	0	0	1	73	371	stimuli\Targets_short_600ms_horflip\hand-stroke_short_horflip_short_600ms.mp4	hand-stroke_short_horflip_short_600ms.mp4	193.646898607283	194.2552484577418	0.6083498504588079				
114.6728515625	0.2	234850	74	21	0	0	0	74	134	stimuli\Videos_short_600ms_horflip\5.repeated_tap_with_finger_moving_from_top_to_bottom_short_horflip_short_600ms.mp4	5.repeated_tap_with_finger_moving_from_top_to_bottom_short_horflip_short_600ms.mp4	194.44690928146633	195.05523039373952	0.6083211122731882				
115.47314453125	0.2	236489	75	21	0	0	0	75	162	stimuli\Videos_short_600ms_horflip\75.(long)stroke_with_fingers_all_over_the_hand_short_horflip_short_600ms.mp4	75.(long)stroke_with_fingers_all_over_the_hand_short_horflip_short_600ms.mp4	195.2469310990275	195.85523080428516	0.6082997052576502				
116.27294921875	0.2	238127	76	21	0	0	1	76	361	stimuli\Targets_short_600ms\chopstick-silver-tap_short_short_600ms.mp4	chopstick-silver-tap_short_short_600ms.mp4	196.0468848833332	196.65520716859373	0.6083222852605559				
117.07275390625	0.2	239765	77	21	0	0	0	77	231	stimuli\Videos_short_600ms_horvertflip\56.repeated_touch_with_nail_file_short_horvertflip_short_600ms.mp4	56.repeated_touch_with_nail_file_short_horvertflip_short_600ms.mp4	196.8468844141385	197.4551964357613	0.6083120216228508				
117.873046875	0.2	241404	78	21	0	0	0	78	64	stimuli\Videos_short_600ms\68.stroke_top_to_bottom_with_shawl_short_short_600ms.mp4	68.stroke_top_to_bottom_with_shawl_short_short_600ms.mp4	197.64686928260403	198.25518540968187	0.6083161270778419				
118.6728515625	0.2	243042	79	21	0	0	0	79	8	stimuli\Videos_short_600ms\17.repeated_touch_with_rolling_pin_short_short_600ms.mp4	17.repeated_touch_with_rolling_pin_short_short_600ms.mp4	198.44684564691283	199.0551720376284	0.608326390715547				
119.47265625	0.2	244680	80	21	0	0	0	80	88	stimuli\Videos_short_600ms\9.single_touch_with_hammer_short_short_600ms.mp4	9.single_touch_with_hammer_short_short_600ms.mp4	199.24681028134975	199.85515543986003	0.6083451585102466				
120.27294921875	0.2	246319	81	21	0	0	0	81	140	stimuli\Videos_short_600ms_horflip\55.touch_top_to_bottom_with_nail_file_short_horflip_short_600ms.mp4	55.touch_top_to_bottom_with_nail_file_short_horflip_short_600ms.mp4	200.04679954851736	200.65514998546973	0.608350436952378				
121.07275390625	0.2	247957	82	21	0	0	0	82	334	stimuli\Videos_short_600ms_vertflip\68.stroke_top_to_bottom_with_shawl_short_vertflip_short_600ms.mp4	68.stroke_top_to_bottom_with_shawl_short_vertflip_short_600ms.mp4	200.84683368244373	201.45513602692245	0.6083023444787159				
121.873046875	0.2	249596	83	21	0	0	0	83	85	stimuli\Videos_short_600ms\87.single_stroke_top_to_bottom_with_plastic_brush_short_short_600ms.mp4	87.single_stroke_top_to_bottom_with_plastic_brush_short_short_600ms.mp4	201.6468024223359	202.2551255873368	0.6083231650009111				
122.6728515625	0.2	251234	84	21	0	0	0	84	120	stimuli\Videos_short_600ms_horflip\37.single_stab_with_nail_file_short_horflip_short_600ms.mp4	37.single_stab_with_nail_file_short_horflip_short_600ms.mp4	202.44679784768596	203.05511250852987	0.6083146608439165				
123.47265625	0.2	252872	85	21	0	0	0	85	126	stimuli\Videos_short_600ms_horflip\42.single_slap_with_plastic_whisk_short_horflip_short_600ms.mp4	42.single_slap_with_plastic_whisk_short_horflip_short_600ms.mp4	203.24678564861935	203.8550762632267	0.6082906146073128				
124.27294921875	0.2	254511	86	21	0	0	0	86	224	stimuli\Videos_short_600ms_horvertflip\5.repeated_tap_with_finger_moving_from_top_to_bottom_short_horvertflip_short_600ms.mp4	5.repeated_tap_with_finger_moving_from_top_to_bottom_short_horvertflip_short_600ms.mp4	204.04676494539603	204.65506406416011	0.60829911876408				
125.07275390625	0.2	256149	87	21	0	0	0	87	338	stimuli\Videos_short_600ms_vertflip\71.single_stroke_with_finger_top_to_bottom_short_vertflip_short_600ms.mp4	71.single_stroke_with_finger_top_to_bottom_short_vertflip_short_600ms.mp4	204.84675303957624	205.45508852094235	0.6083354813661117				
125.87255859375	0.2	257787	88	21	0	0	0	88	266	stimuli\Videos_short_600ms_horvertflip\88.repeated_stroke_with_plastic_brush_short_horvertflip_short_600ms.mp4	88.repeated_stroke_with_plastic_brush_short_horvertflip_short_600ms.mp4	205.64674142700343	206.25506459200437	0.6083231650009111				
126.6728515625	0.2	259426	89	21	0	0	0	89	23	stimuli\Videos_short_600ms\30.finger_pulling_back_another_finger_short_short_600ms.mp4	30.finger_pulling_back_another_finger_short_short_600ms.mp4	206.44672952118367	207.05505327267815	0.6083237514944813				
127.47265625	0.2	261064	90	21	0	0	0	90	188	stimuli\Videos_short_600ms_horvertflip\17.repeated_touch_with_rolling_pin_short_horvertflip_short_600ms.mp4	17.repeated_touch_with_rolling_pin_short_horvertflip_short_600ms.mp4	207.2467184951045	207.85504195335216	0.6083234582476962				
128.2724609375	0.2	262702	91	21	0	0	0	91	82	stimuli\Videos_short_600ms\84.single_touch_with_cotton_bud_short_short_600ms.mp4	84.single_touch_with_cotton_bud_short_short_600ms.mp4	208.04670541629753	208.6550312205195	0.6083258042219768				
129.07275390625	0.2	264341	92	21	0	0	0	92	208	stimuli\Videos_short_600ms_horvertflip\35.single_punch_with_hand_short_horvertflip_short_600ms.mp4	35.single_punch_with_hand_short_horvertflip_short_600ms.mp4	208.84669409697153	209.45501755521923	0.6083234582476962				
129.87255859375	0.2	265979	93	21	0	0	0	93	225	stimuli\Videos_short_600ms_horvertflip\50.single_(long)hard_push_with_thumb_short_horvertflip_short_600ms.mp4	50.single_(long)hard_push_with_thumb_short_horvertflip_short_600ms.mp4	209.64668013842424	210.2550027169316	0.608322578507341				
130.67236328125	0.2	267617	94	21	0	0	0	94	54	stimuli\Videos_short_600ms\59.single_push_with_long_side_pencil_short_short_600ms.mp4	59.single_push_with_long_side_pencil_short_short_600ms.mp4	210.44666911234503	211.05499960851557	0.608330496170538				
131.47265625	0.2	269256	95	21	0	0	0	95	260	stimuli\Videos_short_600ms_horvertflip\82.repeated_touch_with_cotton_bud_short_horvertflip_short_600ms.mp4	82.repeated_touch_with_cotton_bud_short_horvertflip_short_600ms.mp4	211.24665896600595	211.8549812512665	0.6083222852605559				
132.2724609375	0.2	270894	96	21	0	0	0	96	335	stimuli\Videos_short_600ms_vertflip\69.stroke_with_soft_sock_short_vertflip_short_600ms.mp4	69.stroke_with_soft_sock_short_vertflip_short_600ms.mp4	212.0466447142121	212.65496846570636	0.6083237514942539	7.0	7.0	2.630311689080827	1.0
168.021484375	0.2	344108	97	21	1	0	0	0	311	stimuli\Videos_short_600ms_vertflip\47.(long)scratching_with_finger_nails_short_vertflip_short_600ms.mp4	47.(long)scratching_with_finger_nails_short_vertflip_short_600ms.mp4	247.79612984615983	248.40443629609376	0.6083064499339343				
168.8212890625	0.2	345746	98	21	1	0	0	1	193	stimuli\Videos_short_600ms_horvertflip\21.repeated_touch_with_metal_chopstick_short_horvertflip_short_600ms.mp4	21.repeated_touch_with_metal_chopstick_short_horvertflip_short_600ms.mp4	248.59610533072828	249.20442321728683	0.6083178865585523				
169.62109375	0.2	347384	99	21	1	0	0	2	145	stimuli\Videos_short_600ms_horflip\6.single_touch_with_flat_hand_short_horflip_short_600ms.mp4	6.single_touch_with_flat_hand_short_horflip_short_600ms.mp4	249.39677229122825	250.00439518289363	0.6076228916654145				
170.42138671875	0.2	349023	100	21	1	0	0	3	352	stimuli\Videos_short_600ms_vertflip\84.single_touch_with_cotton_bud_short_vertflip_short_600ms.mp4	84.single_touch_with_cotton_bud_short_vertflip_short_600ms.mp4	250.19605571337115	250.8043744796703	0.608318766299135				
171.22119140625	0.2	350661	101	21	1	0	0	4	181	stimuli\Videos_short_600ms_horvertflip\10.single_touch_with_knife_short_horvertflip_short_600ms.mp4	10.single_touch_with_knife_short_horvertflip_short_600ms.mp4	250.99617694159429	251.6043625738505	0.6081856322562089				
172.02099609375	0.2	352299	102	21	1	0	0	5	107	stimuli\Videos_short_600ms_horflip\25.single_touch_with_stanley_knife_short_horflip_short_600ms.mp4	25.single_touch_with_stanley_knife_short_horflip_short_600ms.mp4	251.79605418848791	252.40437236829348	0.6083181798055648				
172.8212890625	0.2	353938	103	21	1	0	0	6	24	stimuli\Videos_short_600ms\31.hand_grabbing_wrist_short_short_600ms.mp4	31.hand_grabbing_wrist_short_short_600ms.mp4	252.5960416961748	253.2043742450728	0.6083325488980336				
173.62109375	0.2	355576	104	21	1	0	0	7	86	stimuli\Videos_short_600ms\88.repeated_stroke_with_plastic_brush_short_short_600ms.mp4	88.repeated_stroke_with_plastic_brush_short_short_600ms.mp4	253.3960277376275	254.00435383509625	0.6083260974687619				
174.4208984375	0.2	357214	105	21	1	0	0	8	30	stimuli\Videos_short_600ms\37.single_stab_with_nail_file_short_short_600ms.mp4	37.single_stab_with_nail_file_short_short_600ms.mp4	254.1960404645381	254.80435072668024	0.6083102621421403				
175.22119140625	0.2	358853	106	21	1	0	0	9	177	stimuli\Videos_short_600ms_horflip\89.single_touch_with_plastic_brush_short_horflip_short_600ms.mp4	89.single_touch_with_plastic_brush_short_horflip_short_600ms.mp4	254.99600304624775	255.60430275150543	0.6082997052576502				
176.02099609375	0.2	360491	107	21	1	0	0	10	202	stimuli\Videos_short_600ms_horvertflip\3.single_push_with_finger_short_horvertflip_short_600ms.mp4	3.single_push_with_finger_short_horvertflip_short_600ms.mp4	255.79601108120983	256.40431753114353	0.608306449933707				
176.8212890625	0.2	362130	108	21	1	0	0	11	58	stimuli\Videos_short_600ms\62.touch_top_to_bottom_with_scissors_short_short_600ms.mp4	62.touch_top_to_bottom_with_scissors_short_short_600ms.mp4	256.59599858889646	257.2043047455836	0.6083061566871493				
177.62109375	0.2	363768	109	21	1	0	0	12	184	stimuli\Videos_short_600ms_horvertflip\13.single_touch_with_pen_short_horvertflip_short_600ms.mp4	13.single_touch_with_pen_short_horvertflip_short_600ms.mp4	257.3959693815161	258.00429225327025	0.608322871754126				
178.4208984375	0.2	365406	110	21	1	0	0	13	221	stimuli\Videos_short_600ms_horvertflip\47.(long)scratching_with_finger_nails_short_horvertflip_short_600ms.mp4	47.(long)scratching_with_finger_nails_short_horvertflip_short_600ms.mp4	258.19595806219013	258.8042803474507	0.6083222852605559				
179.22119140625	0.2	367045	111	21	1	0	0	14	135	stimuli\Videos_short_600ms_horflip\50.single_(long)hard_push_with_thumb_short_horflip_short_600ms.mp4	50.single_(long)hard_push_with_thumb_short_horflip_short_600ms.mp4	258.99594996857877	259.6042666821502	0.608316713571412				
180.02099609375	0.2	368683	112	21	1	0	0	15	25	stimuli\Videos_short_600ms\32.single_(long)pinch_with_fingers_short_short_600ms.mp4	32.single_(long)pinch_with_fingers_short_short_600ms.mp4	259.79591430976893	260.40425594931753	0.6083416395485983				
180.82080078125	0.2	370321	113	21	1	0	0	16	299	stimuli\Videos_short_600ms_vertflip\36.single_slap_with_full_hand_short_vertflip_short_600ms.mp4	36.single_slap_with_full_hand_short_vertflip_short_600ms.mp4	260.59592087849705	261.20424433674475	0.6083234582476962				
181.62109375	0.2	371960	114	21	1	0	0	17	46	stimuli\Videos_short_600ms\51.repeated_touch_with_hammer_short_short_600ms.mp4	51.repeated_touch_with_hammer_short_short_600ms.mp4	261.3959104389114	262.0042344836527	0.6083240447412663				
182.4208984375	0.2	373598	115	21	1	0	0	18	102	stimuli\Videos_short_600ms_horflip\20.single_touch_with_screwdriver_short_horflip_short_600ms.mp4	20.single_touch_with_screwdriver_short_horflip_short_600ms.mp4	262.1958926681559	262.80421935211825	0.608326683962332				
183.220703125	0.2	375236	116	21	1	0	0	19	233	stimuli\Videos_short_600ms_horvertflip\58.single_slap_with_pencil_short_horvertflip_short_600ms.mp4	58.single_slap_with_pencil_short_horvertflip_short_600ms.mp4	262.9958898529867	263.60420773954525	0.6083178865585523				
184.02099609375	0.2	376875	117	21	1	0	0	20	70	stimuli\Videos_short_600ms\73.single_stroke_with_flat_hand_short_short_600ms.mp4	73.single_stroke_with_flat_hand_short_short_600ms.mp4	263.79588175937533	264.4042034581421	0.6083216987667583				
184.82080078125	0.2	378513	118	21	1	0	0	21	220	stimuli\Videos_short_600ms_horvertflip\46.scratching_top_to_bottom_with_finger_nails_short_horvertflip_short_600ms.mp4	46.scratching_top_to_bottom_with_finger_nails_short_horvertflip_short_600ms.mp4	264.5958645751134	265.20418451439946	0.6083199392860479				
185.62060546875	0.2	380151	119	21	1	0	0	22	298	stimuli\Videos_short_600ms_vertflip\35.single_punch_with_hand_short_vertflip_short_600ms.mp4	35.single_punch_with_hand_short_vertflip_short_600ms.mp4	265.39585765448896	266.00416908961824	0.6083114351292807				
186.4208984375	0.2	381790	120	21	1	0	0	23	32	stimuli\Videos_short_600ms\39.single_stab_with_scissors_short_short_600ms.mp4	39.single_stab_with_scissors_short_short_600ms.mp4	266.19584868113725	266.8041360700297	0.6082873888924496				
187.220703125	0.2	383428	121	21	1	0	0	24	289	stimuli\Videos_short_600ms_vertflip\27.single_push_with_a_plastic_whisk_short_vertflip_short_600ms.mp4	27.single_push_with_a_plastic_whisk_short_vertflip_short_600ms.mp4	266.9957684488154	267.60414615771924	0.6083777089038449				
188.0205078125	0.2	385066	122	21	1	0	0	25	77	stimuli\Videos_short_600ms\8.single_touch_with_hairbrush_short_short_600ms.mp4	8.single_touch_with_hairbrush_short_short_600ms.mp4	267.79581519235376	268.4041380641079	0.608322871754126				
188.82080078125	0.2	386705	123	21	1	0	0	26	239	stimuli\Videos_short_600ms_horvertflip\63.stroke_top_to_bottom_with_screwdriver_short_horvertflip_short_600ms.mp4	63.stroke_top_to_bottom_with_screwdriver_short_horvertflip_short_600ms.mp4	268.5958056325085	269.20412733127546	0.6083216987669857				
189.62060546875	0.2	388343	124	21	1	0	0	27	269	stimuli\Videos_short_600ms_horvertflip\90.repeated_touch_with_sponge_short_horvertflip_short_600ms.mp4	90.repeated_touch_with_sponge_short_horvertflip_short_600ms.mp4	269.39588668592137	270.00412217013195	0.6082354842105815				
190.42041015625	0.2	389981	125	21	1	0	0	28	297	stimuli\Videos_short_600ms_vertflip\34.repeated_punch_with_hand_short_vertflip_short_600ms.mp4	34.repeated_punch_with_hand_short_vertflip_short_600ms.mp4	270.1957844600902	270.80410234664896	0.6083178865587797				
191.220703125	0.2	391620	126	21	1	0	0	29	159	stimuli\Videos_short_600ms_horflip\72.(short)stroke_with_finger_all_over_the_hand_short_horflip_short_600ms.mp4	72.(short)stroke_with_finger_all_over_the_hand_short_horflip_short_600ms.mp4	270.99576580959433	271.6040916138163	0.6083258042219768				
192.0205078125	0.2	393258	127	21	1	0	0	30	343	stimuli\Videos_short_600ms_vertflip\76.tickle_with_fingers_from_top_to_bottom_short_vertflip_short_600ms.mp4	76.tickle_with_fingers_from_top_to_bottom_short_vertflip_short_600ms.mp4	271.79575009156633	272.4040234046129	0.6082733130465385				
192.8203125	0.2	394896	128	21	1	0	0	31	178	stimuli\Videos_short_600ms_horflip\9.single_touch_with_hammer_short_horflip_short_600ms.mp4	9.single_touch_with_hammer_short_horflip_short_600ms.mp4	272.59575841977517	273.20406574944946	0.6083073296742896				
193.62060546875	0.2	396535	129	21	1	0	0	32	34	stimuli\Videos_short_600ms\40.repeated_push_with_finger_short_short_600ms.mp4	40.repeated_push_with_finger_short_short_600ms.mp4	273.39613477270586	274.00405237739574	0.6079176046898738				
194.42041015625	0.2	398173	130	21	1	0	0	33	204	stimuli\Videos_short_600ms_horvertflip\31.hand_grabbing_wrist_short_horvertflip_short_600ms.mp4	31.hand_grabbing_wrist_short_horvertflip_short_600ms.mp4	274.1957413528121	274.8040401783294	0.608298825517295				
195.220703125	0.2	399812	131	21	1	0	0	34	125	stimuli\Videos_short_600ms_horflip\41.injection_with_blunt_syringe_short_horflip_short_600ms.mp4	41.injection_with_blunt_syringe_short_horflip_short_600ms.mp4	274.99570393452154	275.60403120497745	0.6083272704559022				
196.0205078125	0.2	401450	132	21	1	0	0	35	326	stimuli\Videos_short_600ms_vertflip\60.single_push_with_tip_of_pencil_short_vertflip_short_600ms.mp4	60.single_push_with_tip_of_pencil_short_vertflip_short_600ms.mp4	275.7956932016891	276.4039386562904	0.6082454546012741				
196.82861328125	0.2	403105	133	21	1	0	0	36	170	stimuli\Videos_short_600ms_horflip\82.repeated_touch_with_cotton_bud_short_horflip_short_600ms.mp4	82.repeated_touch_with_cotton_bud_short_horflip_short_600ms.mp4	276.60401859536546	277.2123391211453	0.6083205257798454				
197.62890625	0.2	404744	134	21	1	0	1	37	381	stimuli\Targets_short_600ms_vertflip\finger-tap_short_horvertflip_short_600ms.mp4	finger-tap_short_horvertflip_short_600ms.mp4	277.40400932876696	278.0123269220787	0.6083175933117673				
198.4287109375	0.2	406382	135	21	1	0	0	38	236	stimuli\Videos_short_600ms_horvertflip\60.single_push_with_tip_of_pencil_short_horvertflip_short_600ms.mp4	60.single_push_with_tip_of_pencil_short_horvertflip_short_600ms.mp4	278.20396340631964	278.8123144297656	0.6083510234459482				
199.228515625	0.2	408020	136	21	1	0	0	39	267	stimuli\Videos_short_600ms_horvertflip\89.single_touch_with_plastic_brush_short_horvertflip_short_600ms.mp4	89.single_touch_with_plastic_brush_short_horvertflip_short_600ms.mp4	279.0039811184258	279.61230369693294	0.6083225785071136				
200.02880859375	0.2	409659	137	21	1	0	0	40	185	stimuli\Videos_short_600ms_horvertflip\14.repeated_touch_with_pencil_short_horvertflip_short_600ms.mp4	14.repeated_touch_with_pencil_short_horvertflip_short_600ms.mp4	279.8039642274107	280.4122193591561	0.608255131745409				
200.82861328125	0.2	411297	138	21	1	0	0	41	137	stimuli\Videos_short_600ms_horflip\52.touch_top_to_bottom_with_hammer_short_horflip_short_600ms.mp4	52.touch_top_to_bottom_with_hammer_short_horflip_short_600ms.mp4	280.60406404861806	281.2122798852936	0.6082158366755266				
201.62841796875	0.2	412935	139	21	1	0	0	42	199	stimuli\Videos_short_600ms_horvertflip\27.single_push_with_a_plastic_whisk_short_horvertflip_short_600ms.mp4	27.single_push_with_a_plastic_whisk_short_horvertflip_short_600ms.mp4	281.40392282096377	282.01226739298045	0.6083445720166765				
202.4287109375	0.2	414574	140	21	1	0	0	43	235	stimuli\Videos_short_600ms_horvertflip\6.single_touch_with_flat_hand_short_horvertflip_short_600ms.mp4	6.single_touch_with_flat_hand_short_horvertflip_short_600ms.mp4	282.2043050388304	282.81225548716066	0.6079504483302571				
203.23681640625	0.2	416229	141	21	1	0	0	44	353	stimuli\Videos_short_600ms_vertflip\85.touch_top_to_bottom_with_fabric_short_vertflip_short_600ms.mp4	85.touch_top_to_bottom_with_fabric_short_vertflip_short_600ms.mp4	283.01226563349974	283.6205055164121	0.6082398829123576				
204.03662109375	0.2	417867	142	21	1	0	0	45	60	stimuli\Videos_short_600ms\64.repeated_touch_with_screwdriver_short_short_600ms.mp4	64.repeated_touch_with_screwdriver_short_short_600ms.mp4	283.81263553500094	284.4204941970859	0.6078586620849364				
204.8369140625	0.2	419506	143	21	1	0	0	46	287	stimuli\Videos_short_600ms_vertflip\25.single_touch_with_stanley_knife_short_vertflip_short_600ms.mp4	25.single_touch_with_stanley_knife_short_vertflip_short_600ms.mp4	284.6123893249958	285.2205972440081	0.6082079190123295				
205.63671875	0.2	421144	144	21	1	0	1	47	379	stimuli\Targets_short_600ms_vertflip\chopstick-silver-tap_short_horvertflip_short_600ms.mp4	chopstick-silver-tap_short_horvertflip_short_600ms.mp4	285.4121970724	286.02055425402864	0.6083571816286621				
206.43701171875	0.2	422783	145	21	1	0	0	48	146	stimuli\Videos_short_600ms_horflip\60.single_push_with_tip_of_pencil_short_horflip_short_600ms.mp4	60.single_push_with_tip_of_pencil_short_horflip_short_600ms.mp4	286.21251301649204	286.8205007071647	0.607987690672644				
207.23681640625	0.2	424421	146	21	1	0	0	49	28	stimuli\Videos_short_600ms\35.single_punch_with_hand_short_short_600ms.mp4	35.single_punch_with_hand_short_short_600ms.mp4	287.01216886205884	287.6205143138159	0.6083454517570317				
208.03662109375	0.2	426059	147	21	1	0	0	50	308	stimuli\Videos_short_600ms_vertflip\44.pushing_top_to_bottom_with_finger_short_vertflip_short_600ms.mp4	44.pushing_top_to_bottom_with_finger_short_vertflip_short_600ms.mp4	287.8121540237712	288.4205059269575	0.6083519031863034				
208.8369140625	0.2	427698	148	21	1	0	0	51	321	stimuli\Videos_short_600ms_vertflip\56.repeated_touch_with_nail_file_short_vertflip_short_600ms.mp4	56.repeated_touch_with_nail_file_short_vertflip_short_600ms.mp4	288.61271424243955	289.22054504607945	0.6078308036398994				
209.63671875	0.2	429336	149	21	1	0	0	52	51	stimuli\Videos_short_600ms\56.repeated_touch_with_nail_file_short_short_600ms.mp4	56.repeated_touch_with_nail_file_short_short_600ms.mp4	289.4122785950078	290.0204832883053	0.6082046932974663				
210.4365234375	0.2	430974	150	21	1	0	0	53	251	stimuli\Videos_short_600ms_horvertflip\74.fingers_walking_from_top_to_bottom_short_horvertflip_short_600ms.mp4	74.fingers_walking_from_top_to_bottom_short_horvertflip_short_600ms.mp4	290.2127745926289	290.8204367793644	0.6076621867355243				
211.23681640625	0.2	432613	151	21	1	0	0	54	97	stimuli\Videos_short_600ms_horflip\16.repeated_touch_with_plastic_brush_short_horflip_short_600ms.mp4	16.repeated_touch_with_plastic_brush_short_horflip_short_600ms.mp4	291.01209496386764	291.62045038601536	0.6083554221477243				
212.03662109375	0.2	434251	152	21	1	0	0	55	111	stimuli\Videos_short_600ms_horflip\29.single_pinch_with_tweezers_short_horflip_short_600ms.mp4	29.single_pinch_with_tweezers_short_horflip_short_600ms.mp4	291.81285107139183	292.4204176596736	0.6075665882817702				
212.83642578125	0.2	435889	153	21	1	0	0	56	256	stimuli\Videos_short_600ms_horvertflip\79.long_with_soft_brush_all_over_the_hand_short_horvertflip_short_600ms.mp4	79.long_with_soft_brush_all_over_the_hand_short_horvertflip_short_600ms.mp4	292.6126453294437	293.2204063403476	0.6077610109039142				
213.63671875	0.2	437528	154	21	1	0	1	57	374	stimuli\Targets_short_600ms_horvertflip\chopstickwood-tap_short_vertflip_short_600ms.mp4	chopstickwood-tap_short_vertflip_short_600ms.mp4	293.4128885483317	294.0204648137576	0.6075762654259051				
214.44482421875	0.2	439183	155	21	1	0	0	58	285	stimuli\Videos_short_600ms_vertflip\23.single_push_with_a_spoon_short_vertflip_short_600ms.mp4	23.single_push_with_a_spoon_short_vertflip_short_600ms.mp4	294.22047466684967	294.8287377162585	0.6082630494088335				
215.24462890625	0.2	440821	156	21	1	0	0	59	95	stimuli\Videos_short_600ms_horflip\14.repeated_touch_with_pencil_short_horflip_short_600ms.mp4	14.repeated_touch_with_pencil_short_horflip_short_600ms.mp4	295.0204519108988	295.6287105616059	0.6082586507070573				
216.044921875	0.2	442460	157	21	1	0	0	60	94	stimuli\Videos_short_600ms_horflip\13.single_touch_with_pen_short_horflip_short_600ms.mp4	13.single_touch_with_pen_short_horflip_short_600ms.mp4	295.82033355649423	296.42866610539227	0.6083325488980336				
216.8447265625	0.2	444098	158	21	1	0	0	61	340	stimuli\Videos_short_600ms_vertflip\73.single_stroke_with_flat_hand_short_vertflip_short_600ms.mp4	73.single_stroke_with_flat_hand_short_vertflip_short_600ms.mp4	296.6203248763893	297.2289565370136	0.608631660624269				
217.64453125	0.2	445736	159	21	1	0	0	62	275	stimuli\Videos_short_600ms_vertflip\14.repeated_touch_with_pencil_short_vertflip_short_600ms.mp4	14.repeated_touch_with_pencil_short_vertflip_short_600ms.mp4	297.4211715971717	298.02868862674586	0.6075170295741827				
218.44482421875	0.2	447375	160	21	1	0	0	63	153	stimuli\Videos_short_600ms_horflip\67.single_touch_with_sponge_short_horflip_short_600ms.mp4	67.single_touch_with_sponge_short_horflip_short_600ms.mp4	298.2206796463561	298.82865707339124	0.6079774270351663				
219.2529296875	0.2	449030	161	21	1	0	0	64	295	stimuli\Videos_short_600ms_vertflip\32.single_(long)pinch_with_fingers_short_vertflip_short_600ms.mp4	32.single_(long)pinch_with_fingers_short_vertflip_short_600ms.mp4	299.02869243895407	299.6370076862918	0.608315247337714				
220.05322265625	0.2	450669	162	21	1	0	0	65	113	stimuli\Videos_short_600ms_horflip\30.finger_pulling_back_another_finger_short_horflip_short_600ms.mp4	30.finger_pulling_back_another_finger_short_horflip_short_600ms.mp4	299.82866733702895	300.4369934344977	0.6083260974687619				
220.85302734375	0.2	452307	163	21	1	0	0	66	56	stimuli\Videos_short_600ms\60.single_push_with_tip_of_pencil_short_short_600ms.mp4	60.single_push_with_tip_of_pencil_short_short_600ms.mp4	300.6287841665501	301.23698240841827	0.6081982418681946				
221.65283203125	0.2	453945	164	21	1	0	0	67	279	stimuli\Videos_short_600ms_vertflip\18.single_stroke_from_top_to_bottom_with_rolling_pin_short_vertflip_short_600ms.mp4	18.single_stroke_from_top_to_bottom_with_rolling_pin_short_vertflip_short_600ms.mp4	301.4288892661998	302.0369702093519	0.6080809431521175				
222.453125	0.2	455584	165	21	1	0	0	68	262	stimuli\Videos_short_600ms_horvertflip\84.single_touch_with_cotton_bud_short_horvertflip_short_600ms.mp4	84.single_touch_with_cotton_bud_short_horvertflip_short_600ms.mp4	302.22863073982944	302.8369342572953	0.6083035174658562				
223.2529296875	0.2	457222	166	21	1	0	0	69	6	stimuli\Videos_short_600ms\15.single_stroke_top_to_bottom_with_a_plastic_whisk_short_short_600ms.mp4	15.single_stroke_top_to_bottom_with_a_plastic_whisk_short_short_600ms.mp4	303.02861912725666	303.63694874368684	0.6083296164301828				
224.052734375	0.2	458860	167	21	1	0	0	70	174	stimuli\Videos_short_600ms_horflip\86.touch_top_to_bottom_with_hair_brush_short_horflip_short_600ms.mp4	86.touch_top_to_bottom_with_hair_brush_short_horflip_short_600ms.mp4	303.8286045822158	304.43694094332227	0.6083363611064669				
224.85302734375	0.2	460499	168	21	1	0	1	71	383	stimuli\Targets_short_600ms_vertflip\hand-stroke_short_horvertflip_short_600ms.mp4	hand-stroke_short_horvertflip_short_600ms.mp4	304.6285727356144	305.23692522529427	0.6083524896798735				
225.65283203125	0.2	462137	169	21	1	0	0	72	76	stimuli\Videos_short_600ms\79.long_with_soft_brush_all_over_the_hand_short_short_600ms.mp4	79.long_with_soft_brush_all_over_the_hand_short_short_600ms.mp4	305.42858106382323	306.036915372202	0.608334308378744				
226.45263671875	0.2	463775	170	21	1	0	0	73	191	stimuli\Videos_short_600ms_horvertflip\2.single_touch_with_finger_short_horvertflip_short_600ms.mp4	2.single_touch_with_finger_short_horvertflip_short_600ms.mp4	306.2285676917695	306.8368852850813	0.6083175933117673				
227.2529296875	0.2	465414	171	21	1	0	0	74	52	stimuli\Videos_short_600ms\57.single_touch_with_nail_file_short_short_600ms.mp4	57.single_touch_with_nail_file_short_short_600ms.mp4	307.0290073860069	307.63686428861115	0.607856902604226				
228.052734375	0.2	467052	172	21	1	0	0	75	38	stimuli\Videos_short_600ms\44.pushing_top_to_bottom_with_finger_short_short_600ms.mp4	44.pushing_top_to_bottom_with_finger_short_short_600ms.mp4	307.8288400593883	308.43684681110244	0.6080067517141288				
228.8525390625	0.2	468690	173	21	1	0	0	76	173	stimuli\Videos_short_600ms_horflip\85.touch_top_to_bottom_with_fabric_short_horflip_short_600ms.mp4	85.touch_top_to_bottom_with_fabric_short_horflip_short_600ms.mp4	308.6285624719767	309.2368240551516	0.6082615831749081				
229.65283203125	0.2	470329	174	21	1	0	0	77	37	stimuli\Videos_short_600ms\43.touch_top_to_bottom_with_sharp_wooden_stick_short_short_600ms.mp4	43.touch_top_to_bottom_with_sharp_wooden_stick_short_short_600ms.mp4	309.4285203617376	310.0368045249154	0.6082841631778138				
230.4609375	0.2	471984	175	21	1	0	0	78	293	stimuli\Videos_short_600ms_vertflip\30.finger_pulling_back_another_finger_short_vertflip_short_600ms.mp4	30.finger_pulling_back_another_finger_short_vertflip_short_600ms.mp4	310.2368176037221	310.8451692136616	0.6083516099395183				
231.2607421875	0.2	473622	176	21	1	0	0	79	59	stimuli\Videos_short_600ms\63.stroke_top_to_bottom_with_screwdriver_short_short_600ms.mp4	63.stroke_top_to_bottom_with_screwdriver_short_short_600ms.mp4	311.03677725296393	311.6451608268035	0.6083835738395464				
232.06103515625	0.2	475261	177	21	1	0	1	80	380	stimuli\Targets_short_600ms_vertflip\chopstickwood-tap_short_horvertflip_short_600ms.mp4	chopstickwood-tap_short_horvertflip_short_600ms.mp4	311.8367943785763	312.4451427628012	0.6083483842248825				
232.86083984375	0.2	476899	178	21	1	0	0	81	127	stimuli\Videos_short_600ms_horflip\43.touch_top_to_bottom_with_sharp_wooden_stick_short_horflip_short_600ms.mp4	43.touch_top_to_bottom_with_sharp_wooden_stick_short_horflip_short_600ms.mp4	312.6367346735299	313.2451299772413	0.6083953037114043				
233.6611328125	0.2	478538	179	21	1	0	0	82	268	stimuli\Videos_short_600ms_horvertflip\9.single_touch_with_hammer_short_horvertflip_short_600ms.mp4	9.single_touch_with_hammer_short_horvertflip_short_600ms.mp4	313.4367283393992	314.0451468096069	0.6084184702076527				
234.4609375	0.2	480176	180	21	1	0	0	83	348	stimuli\Videos_short_600ms_vertflip\80.stroke_with_sharp_stick_all_over_the_hand_short_vertflip_short_600ms.mp4	80.stroke_with_sharp_stick_all_over_the_hand_short_vertflip_short_600ms.mp4	314.2367070496823	314.8451070453423	0.6083999956599655				
235.2607421875	0.2	481814	181	21	1	0	0	84	263	stimuli\Videos_short_600ms_horvertflip\85.touch_top_to_bottom_with_fabric_short_horvertflip_short_600ms.mp4	85.touch_top_to_bottom_with_fabric_short_horvertflip_short_600ms.mp4	315.0367162576315	315.6450951395225	0.6083788818909852				
236.06103515625	0.2	483453	182	21	1	0	0	85	36	stimuli\Videos_short_600ms\42.single_slap_with_plastic_whisk_short_short_600ms.mp4	42.single_slap_with_plastic_whisk_short_short_600ms.mp4	315.83670699103277	316.44508235396233	0.6083753629295643				
236.86083984375	0.2	485091	183	21	1	0	0	86	114	stimuli\Videos_short_600ms_horflip\31.hand_grabbing_wrist_short_horflip_short_600ms.mp4	31.hand_grabbing_wrist_short_horflip_short_600ms.mp4	316.63669977716177	317.24507103463634	0.6083712574745732				
237.66064453125	0.2	486729	184	21	1	0	0	87	192	stimuli\Videos_short_600ms_horvertflip\20.single_touch_with_screwdriver_short_horvertflip_short_600ms.mp4	20.single_touch_with_screwdriver_short_horvertflip_short_600ms.mp4	317.4366811266659	318.0450605950505	0.6083794683845554				
238.4609375	0.2	488368	185	21	1	0	0	88	116	stimuli\Videos_short_600ms_horflip\33.scratch_top_to_bottom_with_scissors_short_horflip_short_600ms.mp4	33.scratch_top_to_bottom_with_scissors_short_horflip_short_600ms.mp4	318.2366698073399	318.8450463432566	0.6083765359167046				
239.2607421875	0.2	490006	186	21	1	0	0	89	226	stimuli\Videos_short_600ms_horvertflip\51.repeated_touch_with_hammer_short_horvertflip_short_600ms.mp4	51.repeated_touch_with_hammer_short_horvertflip_short_600ms.mp4	319.03665731502656	319.64503385094326	0.6083765359167046				
240.060546875	0.2	491644	187	21	1	0	0	90	156	stimuli\Videos_short_600ms_horflip\7.repeated_touch_with_hairbrush_short_horflip_short_600ms.mp4	7.repeated_touch_with_hairbrush_short_horflip_short_600ms.mp4	319.8366471686877	320.445024291098	0.6083771224102748				
240.86083984375	0.2	493283	188	21	1	0	0	91	319	stimuli\Videos_short_600ms_vertflip\54.repeated_touch_with_knife_short_vertflip_short_600ms.mp4	54.repeated_touch_with_knife_short_vertflip_short_600ms.mp4	320.6366393683229	321.2450141447589	0.6083747764359941				
241.66064453125	0.2	494921	189	21	1	0	0	92	290	stimuli\Videos_short_600ms_vertflip\28.single_injection_with_sharp_needle_short_vertflip_short_600ms.mp4	28.single_injection_with_sharp_needle_short_vertflip_short_600ms.mp4	321.4366183718528	322.0449943212759	0.6083759494231344				
242.46044921875	0.2	496559	190	21	1	0	0	93	211	stimuli\Videos_short_600ms_horvertflip\38.double_slap_with_pencil_short_horvertflip_short_600ms.mp4	38.double_slap_with_pencil_short_horvertflip_short_600ms.mp4	322.2366070525268	322.8449830019499	0.6083759494231344				
243.2607421875	0.2	498198	191	21	1	0	0	94	232	stimuli\Videos_short_600ms_horvertflip\57.single_touch_with_nail_file_short_horvertflip_short_600ms.mp4	57.single_touch_with_nail_file_short_horvertflip_short_600ms.mp4	323.0365969061877	323.6449757880789	0.6083788818912126	5.0	5.0	1.7116894328812575	1.0
279.0595703125	0.2	571514	192	21	2	0	0	0	253	stimuli\Videos_short_600ms_horvertflip\76.tickle_with_fingers_from_top_to_bottom_short_horvertflip_short_600ms.mp4	76.tickle_with_fingers_from_top_to_bottom_short_horvertflip_short_600ms.mp4	358.8361114068016	359.44443339881536	0.6083219920137708				
279.859375	0.2	573152	193	21	2	0	0	1	357	stimuli\Videos_short_600ms_vertflip\89.single_touch_with_plastic_brush_short_vertflip_short_600ms.mp4	89.single_touch_with_plastic_brush_short_vertflip_short_600ms.mp4	359.63609539552704	360.24442471871043	0.6083293231833977				
280.6591796875	0.2	574790	194	21	2	0	0	2	324	stimuli\Videos_short_600ms_vertflip\59.single_push_with_long_side_pencil_short_vertflip_short_600ms.mp4	59.single_push_with_long_side_pencil_short_vertflip_short_600ms.mp4	360.43608700866866	361.04441926432014	0.6083322556514759				
281.45947265625	0.2	576429	195	21	2	0	0	3	26	stimuli\Videos_short_600ms\33.scratch_top_to_bottom_with_scissors_short_short_600ms.mp4	33.scratch_top_to_bottom_with_scissors_short_short_600ms.mp4	361.2360736366152	361.8443959218755	0.6083222852603285				
282.25927734375	0.2	578067	196	21	2	0	0	4	347	stimuli\Videos_short_600ms_vertflip\8.single_touch_with_hairbrush_short_vertflip_short_600ms.mp4	8.single_touch_with_hairbrush_short_vertflip_short_600ms.mp4	362.03604970767697	362.6443957459276	0.6083460382506019				
283.05908203125	0.2	579705	197	21	2	0	0	5	323	stimuli\Videos_short_600ms_vertflip\58.single_slap_with_pencil_short_vertflip_short_600ms.mp4	58.single_slap_with_pencil_short_vertflip_short_600ms.mp4	362.8360234327645	363.4443726967297	0.6083492639652377				
283.859375	0.2	581344	198	21	2	0	0	6	21	stimuli\Videos_short_600ms\29.single_pinch_with_tweezers_short_short_600ms.mp4	29.single_pinch_with_tweezers_short_short_600ms.mp4	363.6360097674642	364.2443657761055	0.6083560086412945				
284.6591796875	0.2	582982	199	21	2	0	1	7	382	stimuli\Targets_short_600ms_vertflip\hand-pinch_short_horvertflip_short_600ms.mp4	hand-pinch_short_horvertflip_short_600ms.mp4	364.4359978616444	365.04434683236286	0.6083489707184526				
285.458984375	0.2	584620	200	21	2	0	0	8	2	stimuli\Videos_short_600ms\11.single_touch_with_lighter_short_short_600ms.mp4	11.single_touch_with_lighter_short_short_600ms.mp4	365.2360120547892	365.84433375355593	0.6083216987667583				
286.25927734375	0.2	586259	201	21	2	0	0	9	16	stimuli\Videos_short_600ms\24.single_stroke_top_to_bottom_with_a_spoon_short_short_600ms.mp4	24.single_stroke_top_to_bottom_with_a_spoon_short_short_600ms.mp4	366.0360039611778	366.6443203815024	0.608316420324627				
287.05908203125	0.2	587897	202	21	2	0	0	10	67	stimuli\Videos_short_600ms\70.(long)stroke_with_finger_all_over_the_hand_short_short_600ms.mp4	70.(long)stroke_with_finger_all_over_the_hand_short_short_600ms.mp4	366.8359926418516	367.44431023516336	0.6083175933117673				
287.859375	0.2	589536	203	21	2	0	0	11	339	stimuli\Videos_short_600ms_vertflip\72.(short)stroke_with_finger_all_over_the_hand_short_vertflip_short_600ms.mp4	72.(short)stroke_with_finger_all_over_the_hand_short_vertflip_short_600ms.mp4	367.63598396174666	368.2442977428502	0.6083137811035613				
288.6591796875	0.2	591174	204	21	2	0	0	12	50	stimuli\Videos_short_600ms\55.touch_top_to_bottom_with_nail_file_short_short_600ms.mp4	55.touch_top_to_bottom_with_nail_file_short_short_600ms.mp4	368.43695531241497	369.0442878897579	0.6073325773429588				
289.458984375	0.2	592812	205	21	2	0	0	13	91	stimuli\Videos_short_600ms_horflip\10.single_touch_with_knife_short_horflip_short_600ms.mp4	10.single_touch_with_knife_short_horflip_short_600ms.mp4	369.23632641534846	369.8442806758869	0.6079542605384631				
290.25927734375	0.2	594451	206	21	2	0	0	14	73	stimuli\Videos_short_600ms\76.tickle_with_fingers_from_top_to_bottom_short_short_600ms.mp4	76.tickle_with_fingers_from_top_to_bottom_short_short_600ms.mp4	370.0359837271492	370.6442602659104	0.6082765387611744				
291.05908203125	0.2	596089	207	21	2	0	0	15	318	stimuli\Videos_short_600ms_vertflip\53.touch_top_to_bottom_with_knife_short_vertflip_short_600ms.mp4	53.touch_top_to_bottom_with_knife_short_vertflip_short_600ms.mp4	370.8359269545706	371.44425891697506	0.6083319624044634				
291.85888671875	0.2	597727	208	21	2	0	0	16	182	stimuli\Videos_short_600ms_horvertflip\11.single_touch_with_lighter_short_horvertflip_short_600ms.mp4	11.single_touch_with_lighter_short_horvertflip_short_600ms.mp4	371.6359129960233	372.2442426124537	0.6083296164304102				
292.6591796875	0.2	599366	209	21	2	0	0	17	29	stimuli\Videos_short_600ms\36.single_slap_with_full_hand_short_short_600ms.mp4	36.single_slap_with_full_hand_short_short_600ms.mp4	372.43590284968445	373.04422630793215	0.6083234582476962				
293.458984375	0.2	601004	210	21	2	0	0	18	228	stimuli\Videos_short_600ms_horvertflip\53.touch_top_to_bottom_with_knife_short_horvertflip_short_600ms.mp4	53.touch_top_to_bottom_with_knife_short_horvertflip_short_600ms.mp4	373.2358883046436	373.8442193873077	0.6083310826641082				
294.2587890625	0.2	602642	211	21	2	0	0	19	190	stimuli\Videos_short_600ms_horvertflip\19.single_touch_with_rolling_pin_short_horvertflip_short_600ms.mp4	19.single_touch_with_rolling_pin_short_horvertflip_short_600ms.mp4	374.0358766920706	374.6442016165522	0.6083249244816216				
295.05908203125	0.2	604281	212	21	2	0	0	20	3	stimuli\Videos_short_600ms\12.repeated_touch_with_nail_file_short_short_600ms.mp4	12.repeated_touch_with_nail_file_short_short_600ms.mp4	374.83586390651067	375.44419000397943	0.6083260974687619				
295.85888671875	0.2	605919	213	21	2	0	0	21	355	stimuli\Videos_short_600ms_vertflip\87.single_stroke_top_to_bottom_with_plastic_brush_short_vertflip_short_600ms.mp4	87.single_stroke_top_to_bottom_with_plastic_brush_short_vertflip_short_600ms.mp4	375.6358528804312	376.2441798576406	0.6083269772093445				
296.65869140625	0.2	607557	214	21	2	0	0	22	331	stimuli\Videos_short_600ms_vertflip\65.stroke_top_to_bottom_with_stanley_knife_short_vertflip_short_600ms.mp4	65.stroke_top_to_bottom_with_stanley_knife_short_vertflip_short_600ms.mp4	376.4358398016245	377.0441653125997	0.6083255109751917				
297.458984375	0.2	609196	215	21	2	0	0	23	286	stimuli\Videos_short_600ms_vertflip\24.single_stroke_top_to_bottom_with_a_spoon_short_vertflip_short_600ms.mp4	24.single_stroke_top_to_bottom_with_a_spoon_short_vertflip_short_600ms.mp4	377.2358243768433	377.8441537000267	0.6083293231833977				
298.2587890625	0.2	610834	216	21	2	0	0	24	10	stimuli\Videos_short_600ms\19.single_touch_with_rolling_pin_short_short_600ms.mp4	19.single_touch_with_rolling_pin_short_short_600ms.mp4	378.03581862920623	378.6441441401814	0.6083255109751917				
299.05859375	0.2	612472	217	21	2	0	0	25	313	stimuli\Videos_short_600ms_vertflip\49.repeated_slap_with_hand_short_vertflip_short_600ms.mp4	49.repeated_slap_with_hand_short_vertflip_short_600ms.mp4	378.83585217663904	379.4441304748809	0.6082782982418848				
299.85888671875	0.2	614111	218	21	2	0	0	26	180	stimuli\Videos_short_600ms_horvertflip\1.repeated_touch_with_finger_fast_short_horvertflip_short_600ms.mp4	1.repeated_touch_with_finger_fast_short_horvertflip_short_600ms.mp4	379.6358018554897	380.2441153433465	0.6083134878567762				
300.65869140625	0.2	615749	219	21	2	0	0	27	20	stimuli\Videos_short_600ms\28.single_injection_with_sharp_needle_short_short_600ms.mp4	28.single_injection_with_sharp_needle_short_short_600ms.mp4	380.435776167071	381.0441142876582	0.6083381205871774				
301.45849609375	0.2	617387	220	21	2	0	0	28	69	stimuli\Videos_short_600ms\72.(short)stroke_with_finger_all_over_the_hand_short_short_600ms.mp4	72.(short)stroke_with_finger_all_over_the_hand_short_short_600ms.mp4	381.23577041943395	381.8441032615788	0.6083328421448186				
302.2587890625	0.2	619026	221	21	2	0	0	29	327	stimuli\Videos_short_600ms_vertflip\61.single_hit_with_rolling_pin_short_vertflip_short_600ms.mp4	61.single_hit_with_rolling_pin_short_vertflip_short_600ms.mp4	382.03576496504365	382.6440546999104	0.6082897348667302				
303.05859375	0.2	620664	222	21	2	0	0	30	259	stimuli\Videos_short_600ms_horvertflip\81.single_stroke_top_to_bottom_with_cotton_pad_short_horvertflip_short_600ms.mp4	81.single_stroke_top_to_bottom_with_cotton_pad_short_horvertflip_short_600ms.mp4	382.83577241351213	383.4440756377312	0.6083032242190711				
303.8583984375	0.2	622302	223	21	2	0	0	31	35	stimuli\Videos_short_600ms\41.injection_with_blunt_syringe_short_short_600ms.mp4	41.injection_with_blunt_syringe_short_short_600ms.mp4	383.635730303273	384.244051708793	0.6083214055199733				
304.65869140625	0.2	623941	224	21	2	0	0	32	152	stimuli\Videos_short_600ms_horflip\66.stroke_top_to_bottom_with_sponge_short_horflip_short_600ms.mp4	66.stroke_top_to_bottom_with_sponge_short_horflip_short_600ms.mp4	384.4357183974532	385.0440201554384	0.6083017579851457				
305.45849609375	0.2	625579	225	21	2	0	0	33	277	stimuli\Videos_short_600ms_vertflip\16.repeated_touch_with_plastic_brush_short_vertflip_short_600ms.mp4	16.repeated_touch_with_plastic_brush_short_vertflip_short_600ms.mp4	385.2357061983869	385.8440337620896	0.6083275637026873				
306.2587890625	0.2	627218	226	21	2	0	0	34	294	stimuli\Videos_short_600ms_vertflip\31.hand_grabbing_wrist_short_vertflip_short_600ms.mp4	31.hand_grabbing_wrist_short_vertflip_short_600ms.mp4	386.0356937060735	386.64402009678906	0.608326390715547				
307.05859375	0.2	628856	227	21	2	0	0	35	209	stimuli\Videos_short_600ms_horvertflip\36.single_slap_with_full_hand_short_horvertflip_short_600ms.mp4	36.single_slap_with_full_hand_short_horvertflip_short_600ms.mp4	386.83568150700694	387.4440137626584	0.6083322556514759				
307.8583984375	0.2	630494	228	21	2	0	0	36	351	stimuli\Videos_short_600ms_vertflip\83.single_stroke_top_to_bottom_with_cotton_bud_short_vertflip_short_600ms.mp4	83.single_stroke_top_to_bottom_with_cotton_bud_short_vertflip_short_600ms.mp4	387.63566989443416	388.2439968716433	0.6083269772091171				
308.65869140625	0.2	632133	229	21	2	0	0	37	237	stimuli\Videos_short_600ms_horvertflip\61.single_hit_with_rolling_pin_short_horvertflip_short_600ms.mp4	61.single_hit_with_rolling_pin_short_horvertflip_short_600ms.mp4	388.4356597480953	389.04398379283634	0.608324044741039				
309.45849609375	0.2	633771	230	21	2	0	0	38	207	stimuli\Videos_short_600ms_horvertflip\34.repeated_punch_with_hand_short_horvertflip_short_600ms.mp4	34.repeated_punch_with_hand_short_horvertflip_short_600ms.mp4	389.2356463760416	389.8439777519525	0.6083313759108933				
310.25830078125	0.2	635409	231	21	2	0	0	39	151	stimuli\Videos_short_600ms_horflip\65.stroke_top_to_bottom_with_stanley_knife_short_horflip_short_600ms.mp4	65.stroke_top_to_bottom_with_stanley_knife_short_horflip_short_600ms.mp4	390.0356318310007	390.64395880820985	0.6083269772091171				
311.05859375	0.2	637048	232	21	2	0	0	40	55	stimuli\Videos_short_600ms\6.single_touch_with_flat_hand_short_short_600ms.mp4	6.single_touch_with_flat_hand_short_short_600ms.mp4	390.835622857649	391.4439589255087	0.6083360678596819				
311.8583984375	0.2	638686	233	21	2	0	0	41	172	stimuli\Videos_short_600ms_horflip\84.single_touch_with_cotton_bud_short_horflip_short_600ms.mp4	84.single_touch_with_cotton_bud_short_horflip_short_600ms.mp4	391.6356569915754	392.2439344100769	0.6082774185015296				
312.658203125	0.2	640324	234	21	2	0	0	42	214	stimuli\Videos_short_600ms_horvertflip\40.repeated_push_with_finger_short_horvertflip_short_600ms.mp4	40.repeated_push_with_finger_short_horvertflip_short_600ms.mp4	392.4355975797758	393.0439204515296	0.6083228717538987				
313.45849609375	0.2	641963	235	21	2	0	0	43	75	stimuli\Videos_short_600ms\78.single_stroke_top_to_bottom_with_soft_brush_short_short_600ms.mp4	78.single_stroke_top_to_bottom_with_soft_brush_short_short_600ms.mp4	393.2355592817448	393.84390854571006	0.6083492639652377				
314.25830078125	0.2	643601	236	21	2	0	0	44	244	stimuli\Videos_short_600ms_horvertflip\68.stroke_top_to_bottom_with_shawl_short_horvertflip_short_600ms.mp4	68.stroke_top_to_bottom_with_shawl_short_horvertflip_short_600ms.mp4	394.03557142216187	394.6438992791116	0.6083278569496997				
315.05810546875	0.2	645239	237	21	2	0	1	45	367	stimuli\Targets_short_600ms_horflip\chopstick-silver-tap_short_horflip_short_600ms.mp4	chopstick-silver-tap_short_horflip_short_600ms.mp4	394.8355363498458	395.44388590705785	0.6083495572120228				
315.8583984375	0.2	646878	238	21	2	0	0	46	131	stimuli\Videos_short_600ms_horflip\47.(long)scratching_with_finger_nails_short_horflip_short_600ms.mp4	47.(long)scratching_with_finger_nails_short_horflip_short_600ms.mp4	395.63554673078215	396.24387400123805	0.6083272704559022				
316.658203125	0.2	648516	239	21	2	0	0	47	22	stimuli\Videos_short_600ms\3.single_push_with_finger_short_short_600ms.mp4	3.single_push_with_finger_short_short_600ms.mp4	396.43554127639186	397.04386268191206	0.6083214055202006				
317.4580078125	0.2	650154	240	21	2	0	0	48	119	stimuli\Videos_short_600ms_horflip\36.single_slap_with_full_hand_short_horflip_short_600ms.mp4	36.single_slap_with_full_hand_short_horflip_short_600ms.mp4	397.23553054355943	397.8438496031051	0.6083190595456927				
318.25830078125	0.2	651793	241	21	2	0	0	49	315	stimuli\Videos_short_600ms_vertflip\50.single_(long)hard_push_with_thumb_short_vertflip_short_600ms.mp4	50.single_(long)hard_push_with_thumb_short_vertflip_short_600ms.mp4	398.0355189309864	398.6438365242984	0.6083175933119946				
319.05810546875	0.2	653431	242	21	2	0	0	50	197	stimuli\Videos_short_600ms_horvertflip\25.single_touch_with_stanley_knife_short_horvertflip_short_600ms.mp4	25.single_touch_with_stanley_knife_short_horvertflip_short_600ms.mp4	398.835471835552	399.4438073169181	0.6083354813661117				
319.85791015625	0.2	655069	243	21	2	0	0	51	280	stimuli\Videos_short_600ms_vertflip\19.single_touch_with_rolling_pin_short_vertflip_short_600ms.mp4	19.single_touch_with_rolling_pin_short_vertflip_short_600ms.mp4	399.635492480126	400.2438241492837	0.6083316691576783				
320.658203125	0.2	656708	244	21	2	0	0	52	163	stimuli\Videos_short_600ms_horflip\76.tickle_with_fingers_from_top_to_bottom_short_horflip_short_600ms.mp4	76.tickle_with_fingers_from_top_to_bottom_short_horflip_short_600ms.mp4	400.4354776418384	401.04379552839714	0.6083178865587797				
321.4580078125	0.2	658346	245	21	2	0	0	53	161	stimuli\Videos_short_600ms_horflip\74.fingers_walking_from_top_to_bottom_short_horflip_short_600ms.mp4	74.fingers_walking_from_top_to_bottom_short_horflip_short_600ms.mp4	401.2354636832911	401.8437883145259	0.6083246312348365				
322.2578125	0.2	659984	246	21	2	0	0	54	257	stimuli\Videos_short_600ms_horvertflip\8.single_touch_with_hairbrush_short_horvertflip_short_600ms.mp4	8.single_touch_with_hairbrush_short_horvertflip_short_600ms.mp4	402.03545470993936	402.6437787546806	0.6083240447412663				
323.05810546875	0.2	661623	247	21	2	0	0	55	13	stimuli\Videos_short_600ms\21.repeated_touch_with_metal_chopstick_short_short_600ms.mp4	21.repeated_touch_with_metal_chopstick_short_short_600ms.mp4	402.8354378189242	403.44376890158856	0.6083310826643356				
323.85791015625	0.2	663261	248	21	2	0	0	56	249	stimuli\Videos_short_600ms_horvertflip\72.(short)stroke_with_finger_all_over_the_hand_short_horvertflip_short_600ms.mp4	72.(short)stroke_with_finger_all_over_the_hand_short_horvertflip_short_600ms.mp4	403.6354273793386	404.24375318356056	0.6083258042219768				
324.658203125	0.2	664900	249	21	2	0	1	57	365	stimuli\Targets_short_600ms\hand-stroke_short_short_600ms.mp4	hand-stroke_short_short_600ms.mp4	404.4354148870252	405.0437398115069	0.6083249244816216				
325.4580078125	0.2	666538	250	21	2	0	0	58	241	stimuli\Videos_short_600ms_horvertflip\65.stroke_top_to_bottom_with_stanley_knife_short_horvertflip_short_600ms.mp4	65.stroke_top_to_bottom_with_stanley_knife_short_horvertflip_short_600ms.mp4	405.235391251334	405.84372673270013	0.6083354813661117				
326.2578125	0.2	668176	251	21	2	0	0	59	12	stimuli\Videos_short_600ms\20.single_touch_with_screwdriver_short_short_600ms.mp4	20.single_touch_with_screwdriver_short_short_600ms.mp4	406.03538960915193	406.6437145336336	0.6083249244816216				
327.05810546875	0.2	669815	252	21	2	0	1	60	378	stimuli\Targets_short_600ms_vertflip\brush-stroke_short_horvertflip_short_600ms.mp4	brush-stroke_short_horvertflip_short_600ms.mp4	406.8353750641111	407.44370086833305	0.6083258042219768				
327.85791015625	0.2	671453	253	21	2	0	0	61	276	stimuli\Videos_short_600ms_vertflip\15.single_stroke_top_to_bottom_with_a_plastic_whisk_short_vertflip_short_600ms.mp4	15.single_stroke_top_to_bottom_with_a_plastic_whisk_short_vertflip_short_600ms.mp4	407.63535172166667	408.24369189498134	0.6083401733146729				
328.65771484375	0.2	673091	254	21	2	0	0	62	0	stimuli\Videos_short_600ms\1.repeated_touch_with_finger_fast_short_short_600ms.mp4	1.repeated_touch_with_finger_fast_short_short_600ms.mp4	408.4353515457185	409.0436767634469	0.6083252177284066				
329.4580078125	0.2	674730	255	21	2	0	0	63	106	stimuli\Videos_short_600ms_horflip\24.single_stroke_top_to_bottom_with_a_spoon_short_horflip_short_600ms.mp4	24.single_stroke_top_to_bottom_with_a_spoon_short_horflip_short_600ms.mp4	409.2353372939244	409.8436736550309	0.6083363611064669				
330.2578125	0.2	676368	256	21	2	0	0	64	217	stimuli\Videos_short_600ms_horvertflip\43.touch_top_to_bottom_with_sharp_wooden_stick_short_horvertflip_short_600ms.mp4	43.touch_top_to_bottom_with_sharp_wooden_stick_short_horvertflip_short_600ms.mp4	410.0353142447268	410.6436526585608	0.6083384138339625				
331.0576171875	0.2	678006	257	21	2	0	0	65	33	stimuli\Videos_short_600ms\4.repeated_tap_with_finger_slow_short_short_600ms.mp4	4.repeated_tap_with_finger_slow_short_short_600ms.mp4	410.8353252121567	411.4436416324816	0.6083164203248543				
331.85791015625	0.2	679645	258	21	2	0	1	66	372	stimuli\Targets_short_600ms_horvertflip\brush-stroke_short_vertflip_short_600ms.mp4	brush-stroke_short_vertflip_short_600ms.mp4	411.6353059751673	412.2436311928957	0.6083252177284066				
332.65771484375	0.2	681283	259	21	2	0	0	67	84	stimuli\Videos_short_600ms\86.touch_top_to_bottom_with_hair_brush_short_short_600ms.mp4	86.touch_top_to_bottom_with_hair_brush_short_short_600ms.mp4	412.4352949490881	413.043613715387	0.6083187662989076				
333.45751953125	0.2	682921	260	21	2	0	0	68	96	stimuli\Videos_short_600ms_horflip\15.single_stroke_top_to_bottom_with_a_plastic_whisk_short_horflip_short_600ms.mp4	15.single_stroke_top_to_bottom_with_a_plastic_whisk_short_horflip_short_600ms.mp4	413.2352625159931	413.8435789363177	0.608316420324627				
334.2578125	0.2	684560	261	21	2	0	0	69	133	stimuli\Videos_short_600ms_horflip\49.repeated_slap_with_hand_short_horflip_short_600ms.mp4	49.repeated_slap_with_hand_short_horflip_short_600ms.mp4	414.03527231043586	414.64358902400727	0.608316713571412				
335.0576171875	0.2	686198	262	21	2	0	0	70	72	stimuli\Videos_short_600ms\75.(long)stroke_with_fingers_all_over_the_hand_short_short_600ms.mp4	75.(long)stroke_with_fingers_all_over_the_hand_short_short_600ms.mp4	414.8352671492923	415.4435826898766	0.6083155405842717				
335.857421875	0.2	687836	263	21	2	0	0	71	143	stimuli\Videos_short_600ms_horflip\58.single_slap_with_pencil_short_horflip_short_600ms.mp4	58.single_slap_with_pencil_short_horflip_short_600ms.mp4	415.6352438068477	416.2435640393808	0.6083202325330603				
336.65771484375	0.2	689475	264	21	2	0	0	72	142	stimuli\Videos_short_600ms_horflip\57.single_touch_with_nail_file_short_horflip_short_600ms.mp4	57.single_touch_with_nail_file_short_horflip_short_600ms.mp4	416.4352313145346	417.0435577052501	0.608326390715547				
337.45751953125	0.2	691113	265	21	2	0	0	73	333	stimuli\Videos_short_600ms_vertflip\67.single_touch_with_sponge_short_vertflip_short_600ms.mp4	67.single_touch_with_sponge_short_vertflip_short_600ms.mp4	417.2352205817019	417.8435487318984	0.6083281501964848				
338.25732421875	0.2	692751	266	21	2	0	0	74	186	stimuli\Videos_short_600ms_horvertflip\15.single_stroke_top_to_bottom_with_a_plastic_whisk_short_horvertflip_short_600ms.mp4	15.single_stroke_top_to_bottom_with_a_plastic_whisk_short_horvertflip_short_600ms.mp4	418.0352080893888	418.64354239776753	0.608334308378744				
339.0576171875	0.2	694390	267	21	2	0	0	75	201	stimuli\Videos_short_600ms_horvertflip\29.single_pinch_with_tweezers_short_horvertflip_short_600ms.mp4	29.single_pinch_with_tweezers_short_horvertflip_short_600ms.mp4	418.8351914916205	419.44352052155705	0.6083290299366126				
339.857421875	0.2	696028	268	21	2	0	0	76	141	stimuli\Videos_short_600ms_horflip\56.repeated_touch_with_nail_file_short_horflip_short_600ms.mp4	56.repeated_touch_with_nail_file_short_horflip_short_600ms.mp4	419.6352215200918	420.24350920223105	0.6082876821392347				
340.6572265625	0.2	697666	269	21	2	0	0	77	216	stimuli\Videos_short_600ms_horvertflip\42.single_slap_with_plastic_whisk_short_horvertflip_short_600ms.mp4	42.single_slap_with_plastic_whisk_short_horvertflip_short_600ms.mp4	420.435177357125	421.04349553693055	0.6083181798055648				
341.4658203125	0.2	699322	270	21	2	0	0	78	265	stimuli\Videos_short_600ms_horvertflip\87.single_stroke_top_to_bottom_with_plastic_brush_short_horvertflip_short_600ms.mp4	87.single_stroke_top_to_bottom_with_plastic_brush_short_horvertflip_short_600ms.mp4	421.2434919006703	421.85181799813904	0.6083260974687619				
342.265625	0.2	700960	271	21	2	0	1	79	377	stimuli\Targets_short_600ms_horvertflip\hand-stroke_short_vertflip_short_600ms.mp4	hand-stroke_short_vertflip_short_600ms.mp4	422.0434788218636	422.6518046260855	0.6083258042219768				
343.06591796875	0.2	702599	272	21	2	0	0	80	176	stimuli\Videos_short_600ms_horflip\88.repeated_stroke_with_plastic_brush_short_horflip_short_600ms.mp4	88.repeated_stroke_with_plastic_brush_short_horflip_short_600ms.mp4	422.843466622797	423.4517994649421	0.608332842145046				
343.86572265625	0.2	704237	273	21	2	0	0	81	278	stimuli\Videos_short_600ms_vertflip\17.repeated_touch_with_rolling_pin_short_vertflip_short_600ms.mp4	17.repeated_touch_with_rolling_pin_short_vertflip_short_600ms.mp4	423.64345178450935	424.251779348212	0.6083275637026873				
344.66552734375	0.2	705875	274	21	2	0	0	82	44	stimuli\Videos_short_600ms\5.repeated_tap_with_finger_moving_from_top_to_bottom_short_short_600ms.mp4	5.repeated_tap_with_finger_moving_from_top_to_bottom_short_short_600ms.mp4	424.4434433976512	425.0517797587577	0.6083363611064669				
345.4658203125	0.2	707514	275	21	2	0	0	83	243	stimuli\Videos_short_600ms_horvertflip\67.single_touch_with_sponge_short_horvertflip_short_600ms.mp4	67.single_touch_with_sponge_short_horvertflip_short_600ms.mp4	425.2434317850782	425.851753777092	0.6083219920137708				
346.265625	0.2	709152	276	21	2	0	0	84	189	stimuli\Videos_short_600ms_horvertflip\18.single_stroke_from_top_to_bottom_with_rolling_pin_short_horvertflip_short_600ms.mp4	18.single_stroke_from_top_to_bottom_with_rolling_pin_short_horvertflip_short_600ms.mp4	426.0434181197779	426.65174333750633	0.6083252177284066				
347.0654296875	0.2	710790	277	21	2	0	0	85	296	stimuli\Videos_short_600ms_vertflip\33.scratch_top_to_bottom_with_scissors_short_vertflip_short_600ms.mp4	33.scratch_top_to_bottom_with_scissors_short_vertflip_short_600ms.mp4	426.84340416123064	427.4517287924655	0.6083246312348365				
347.86572265625	0.2	712429	278	21	2	0	0	86	49	stimuli\Videos_short_600ms\54.repeated_touch_with_knife_short_short_600ms.mp4	54.repeated_touch_with_knife_short_short_600ms.mp4	427.6434039852827	428.2517165933991	0.608312608116421				
348.66552734375	0.2	714067	279	21	2	0	0	87	356	stimuli\Videos_short_600ms_vertflip\88.repeated_stroke_with_plastic_brush_short_vertflip_short_600ms.mp4	88.repeated_stroke_with_plastic_brush_short_vertflip_short_600ms.mp4	428.4433639277711	429.0517029280986	0.6083390003275326				
349.46533203125	0.2	715705	280	21	2	0	1	88	368	stimuli\Targets_short_600ms_horflip\chopstickwood-tap_short_horflip_short_600ms.mp4	chopstickwood-tap_short_horflip_short_600ms.mp4	429.2433725492267	429.8516957142276	0.6083231650009111				
350.265625	0.2	717344	281	21	2	0	0	89	128	stimuli\Videos_short_600ms_horflip\44.pushing_top_to_bottom_with_finger_short_horflip_short_600ms.mp4	44.pushing_top_to_bottom_with_finger_short_horflip_short_600ms.mp4	430.0433533122373	430.6516805826932	0.6083272704559022				
351.0654296875	0.2	718982	282	21	2	0	0	90	250	stimuli\Videos_short_600ms_horvertflip\73.single_stroke_with_flat_hand_short_horvertflip_short_600ms.mp4	73.single_stroke_with_flat_hand_short_horvertflip_short_600ms.mp4	430.8433199994018	431.4516689701202	0.6083489707184526				
351.865234375	0.2	720620	283	21	2	0	0	91	196	stimuli\Videos_short_600ms_horvertflip\24.single_stroke_top_to_bottom_with_a_spoon_short_horvertflip_short_600ms.mp4	24.single_stroke_top_to_bottom_with_a_spoon_short_horvertflip_short_600ms.mp4	431.64333272631256	432.2516573575474	0.6083246312348365				
352.66552734375	0.2	722259	284	21	2	0	0	92	171	stimuli\Videos_short_600ms_horflip\83.single_stroke_top_to_bottom_with_cotton_bud_short_horflip_short_600ms.mp4	83.single_stroke_top_to_bottom_with_cotton_bud_short_horflip_short_600ms.mp4	432.4433219934799	433.05164046653226	0.6083184730523499				
353.46533203125	0.2	723897	285	21	2	0	0	93	282	stimuli\Videos_short_600ms_vertflip\20.single_touch_with_screwdriver_short_vertflip_short_600ms.mp4	20.single_touch_with_screwdriver_short_vertflip_short_600ms.mp4	433.24331008766035	433.8516320796741	0.6083219920137708				
354.26513671875	0.2	725535	286	21	2	0	0	94	274	stimuli\Videos_short_600ms_vertflip\13.single_touch_with_pen_short_vertflip_short_600ms.mp4	13.single_touch_with_pen_short_vertflip_short_600ms.mp4	434.04330258054256	434.651601112813	0.6082985322705099				
355.0654296875	0.2	727174	287	21	2	0	0	95	112	stimuli\Videos_short_600ms_horflip\3.single_push_with_finger_short_horflip_short_600ms.mp4	3.single_push_with_finger_short_horflip_short_600ms.mp4	434.8432824638128	435.45160621530704	0.6083237514942539				
355.865234375	0.2	728812	288	21	2	0	0	96	136	stimuli\Videos_short_600ms_horflip\51.repeated_touch_with_hammer_short_horflip_short_600ms.mp4	51.repeated_touch_with_hammer_short_horflip_short_600ms.mp4	435.64327143773335	436.25159489598104	0.6083234582476962	7.0	7.0	1.7442981827202857	1.0
390.26416015625	0.2	799261	289	21	3	0	0	0	7	stimuli\Videos_short_600ms\16.repeated_touch_with_plastic_brush_short_short_600ms.mp4	16.repeated_touch_with_plastic_brush_short_short_600ms.mp4	470.0427424791728	470.65106505768017	0.608322578507341				
391.06396484375	0.2	800899	290	21	3	0	0	1	349	stimuli\Videos_short_600ms_vertflip\81.single_stroke_top_to_bottom_with_cotton_pad_short_vertflip_short_600ms.mp4	81.single_stroke_top_to_bottom_with_cotton_pad_short_vertflip_short_600ms.mp4	470.8427279341322	471.45105197887347	0.6083240447412663				
391.8642578125	0.2	802538	291	21	3	0	0	2	27	stimuli\Videos_short_600ms\34.repeated_punch_with_hand_short_short_600ms.mp4	34.repeated_punch_with_hand_short_short_600ms.mp4	471.64271133636385	472.2510415392876	0.608330202923753				
392.6640625	0.2	804176	292	21	3	0	0	3	200	stimuli\Videos_short_600ms_horvertflip\28.single_injection_with_sharp_needle_short_horvertflip_short_600ms.mp4	28.single_injection_with_sharp_needle_short_horvertflip_short_600ms.mp4	472.4427041224928	473.0510287537277	0.6083246312348365				
393.4638671875	0.2	805814	293	21	3	0	0	4	246	stimuli\Videos_short_600ms_horvertflip\7.repeated_touch_with_hairbrush_short_horvertflip_short_600ms.mp4	7.repeated_touch_with_hairbrush_short_horvertflip_short_600ms.mp4	473.242730045509	473.85102388583095	0.6082938403219487				
394.26416015625	0.2	807453	294	21	3	0	1	5	375	stimuli\Targets_short_600ms_horvertflip\finger-tap_short_vertflip_short_600ms.mp4	finger-tap_short_vertflip_short_600ms.mp4	474.0427237113784	474.6510031826074	0.6082794712290251				
395.06396484375	0.2	809091	295	21	3	0	0	6	109	stimuli\Videos_short_600ms_horflip\27.single_push_with_a_plastic_whisk_short_horflip_short_600ms.mp4	27.single_push_with_a_plastic_whisk_short_horflip_short_600ms.mp4	474.8426678185401	475.4509912767878	0.6083234582476962				
395.86376953125	0.2	810729	296	21	3	0	0	7	130	stimuli\Videos_short_600ms_horflip\46.scratching_top_to_bottom_with_finger_nails_short_horflip_short_600ms.mp4	46.scratching_top_to_bottom_with_finger_nails_short_horflip_short_600ms.mp4	475.6426521005121	476.2509790777213	0.6083269772091171				
396.67236328125	0.2	812385	297	21	3	0	0	8	283	stimuli\Videos_short_600ms_vertflip\21.repeated_touch_with_metal_chopstick_short_vertflip_short_600ms.mp4	21.repeated_touch_with_metal_chopstick_short_vertflip_short_600ms.mp4	476.4509915700346	477.0592991929557	0.6083076229210747				
397.47216796875	0.2	814023	298	21	3	0	0	9	345	stimuli\Videos_short_600ms_vertflip\78.single_stroke_top_to_bottom_with_soft_brush_short_vertflip_short_600ms.mp4	78.single_stroke_top_to_bottom_with_soft_brush_short_vertflip_short_600ms.mp4	477.2509802507084	477.85928640739553	0.6083061566871493				
398.2724609375	0.2	815662	299	21	3	0	0	10	210	stimuli\Videos_short_600ms_horvertflip\37.single_stab_with_nail_file_short_horvertflip_short_600ms.mp4	37.single_stab_with_nail_file_short_horvertflip_short_600ms.mp4	478.0509498703409	478.65927450157574	0.6083246312348365				
399.072265625	0.2	817300	300	21	3	0	0	11	332	stimuli\Videos_short_600ms_vertflip\66.stroke_top_to_bottom_with_sponge_short_vertflip_short_600ms.mp4	66.stroke_top_to_bottom_with_sponge_short_vertflip_short_600ms.mp4	478.8509364982874	479.4592620092626	0.6083255109751917				
399.8720703125	0.2	818938	301	21	3	0	0	12	314	stimuli\Videos_short_600ms_vertflip\5.repeated_tap_with_finger_moving_from_top_to_bottom_short_vertflip_short_600ms.mp4	5.repeated_tap_with_finger_moving_from_top_to_bottom_short_vertflip_short_600ms.mp4	479.65093045740355	480.2592483439621	0.6083178865585523				
400.67236328125	0.2	820577	302	21	3	0	1	13	364	stimuli\Targets_short_600ms\hand-pinch_short_short_600ms.mp4	hand-pinch_short_short_600ms.mp4	480.45088629443694	481.0592408368443	0.6083545424073691				
401.47216796875	0.2	822215	303	21	3	0	0	14	234	stimuli\Videos_short_600ms_horvertflip\59.single_push_with_long_side_pencil_short_horvertflip_short_600ms.mp4	59.single_push_with_long_side_pencil_short_horvertflip_short_600ms.mp4	481.2509016605686	481.85922863777773	0.6083269772091171				
402.27197265625	0.2	823853	304	21	3	0	0	15	292	stimuli\Videos_short_600ms_vertflip\3.single_push_with_finger_short_vertflip_short_600ms.mp4	3.single_push_with_finger_short_vertflip_short_600ms.mp4	482.0509196659216	482.6592140927371	0.6082944268155188				
403.072265625	0.2	825492	305	21	3	0	0	16	39	stimuli\Videos_short_600ms\45.scratching_with_finger_nails_short_short_600ms.mp4	45.scratching_with_finger_nails_short_short_600ms.mp4	482.85087638269533	483.45919984094303	0.6083234582476962				
403.8720703125	0.2	827130	306	21	3	0	0	17	254	stimuli\Videos_short_600ms_horvertflip\77.tapping_with_all_fingers_short_horvertflip_short_600ms.mp4	77.tapping_with_all_fingers_short_horvertflip_short_600ms.mp4	483.6508380846644	484.2591703403159	0.6083322556514759				
404.671875	0.2	828768	307	21	3	0	0	18	301	stimuli\Videos_short_600ms_vertflip\38.double_slap_with_pencil_short_vertflip_short_600ms.mp4	38.double_slap_with_pencil_short_vertflip_short_600ms.mp4	484.45085667651097	485.05915784800254	0.6083011714915756				
405.47216796875	0.2	830407	308	21	3	0	1	19	366	stimuli\Targets_short_600ms_horflip\brush-stroke_short_horflip_short_600ms.mp4	brush-stroke_short_horflip_short_600ms.mp4	485.2508400787426	485.8591386110131	0.6082985322705099				
406.27197265625	0.2	832045	309	21	3	0	0	20	45	stimuli\Videos_short_600ms\50.single_(long)hard_push_with_thumb_short_short_600ms.mp4	50.single_(long)hard_push_with_thumb_short_short_600ms.mp4	486.05082817292305	486.6591510446772	0.608322871754126				
407.07177734375	0.2	833683	310	21	3	0	0	21	105	stimuli\Videos_short_600ms_horflip\23.single_push_with_a_spoon_short_horflip_short_600ms.mp4	23.single_push_with_a_spoon_short_horflip_short_600ms.mp4	486.8508150941161	487.45913796587024	0.608322871754126				
407.8720703125	0.2	835322	311	21	3	0	0	22	281	stimuli\Videos_short_600ms_vertflip\2.single_touch_with_finger_short_vertflip_short_600ms.mp4	2.single_touch_with_finger_short_vertflip_short_600ms.mp4	487.65080318829655	488.2591292857653	0.6083260974687619				
408.671875	0.2	836960	312	21	3	0	0	23	305	stimuli\Videos_short_600ms_vertflip\41.injection_with_blunt_syringe_short_vertflip_short_600ms.mp4	41.injection_with_blunt_syringe_short_vertflip_short_600ms.mp4	488.45078747026855	489.05911884617944	0.6083313759108933				
409.4716796875	0.2	838598	313	21	3	0	0	24	284	stimuli\Videos_short_600ms_vertflip\22.single_touch_with_metal_chopstick_short_vertflip_short_600ms.mp4	22.single_touch_with_metal_chopstick_short_vertflip_short_600ms.mp4	489.2507787901634	489.8591116323085	0.608332842145046				
410.27197265625	0.2	840237	314	21	3	0	0	25	80	stimuli\Videos_short_600ms\82.repeated_touch_with_cotton_bud_short_short_600ms.mp4	82.repeated_touch_with_cotton_bud_short_short_600ms.mp4	490.05076483161633	490.65909151557867	0.608326683962332				
411.07177734375	0.2	841875	315	21	3	0	0	26	229	stimuli\Videos_short_600ms_horvertflip\54.repeated_touch_with_knife_short_horvertflip_short_600ms.mp4	54.repeated_touch_with_knife_short_horvertflip_short_600ms.mp4	490.8507535122901	491.4590898733966	0.6083363611064669				
411.87158203125	0.2	843513	316	21	3	0	0	27	222	stimuli\Videos_short_600ms_horvertflip\48.single_slap_with_hand_short_horvertflip_short_600ms.mp4	48.single_slap_with_hand_short_horvertflip_short_600ms.mp4	491.65074131322376	492.2590644782247	0.6083231650009111				
412.68017578125	0.2	845169	317	21	3	0	0	28	309	stimuli\Videos_short_600ms_vertflip\45.scratching_with_finger_nails_short_vertflip_short_600ms.mp4	45.scratching_with_finger_nails_short_vertflip_short_600ms.mp4	492.45906406767904	493.0673840069653	0.6083199392862753				
413.47998046875	0.2	846807	318	21	3	0	0	29	17	stimuli\Videos_short_600ms\25.single_touch_with_stanley_knife_short_short_600ms.mp4	25.single_touch_with_stanley_knife_short_short_600ms.mp4	493.25904834965104	493.8673744471198	0.6083260974687619				
414.2802734375	0.2	848446	319	21	3	0	0	30	117	stimuli\Videos_short_600ms_horflip\34.repeated_punch_with_hand_short_horflip_short_600ms.mp4	34.repeated_punch_with_hand_short_horflip_short_600ms.mp4	494.0590358573379	494.66736048857274	0.6083246312348365				
415.080078125	0.2	850084	320	21	3	0	0	31	129	stimuli\Videos_short_600ms_horflip\45.scratching_with_finger_nails_short_horflip_short_600ms.mp4	45.scratching_with_finger_nails_short_horflip_short_600ms.mp4	494.8590192595695	495.4673477030126	0.6083284434430425				
415.8798828125	0.2	851722	321	21	3	0	0	32	183	stimuli\Videos_short_600ms_horvertflip\12.repeated_touch_with_nail_file_short_horvertflip_short_600ms.mp4	12.repeated_touch_with_nail_file_short_horvertflip_short_600ms.mp4	495.65901380517926	496.2673396094012	0.6083258042219768				
416.68017578125	0.2	853361	322	21	3	0	0	33	165	stimuli\Videos_short_600ms_horflip\78.single_stroke_top_to_bottom_with_soft_brush_short_horflip_short_600ms.mp4	78.single_stroke_top_to_bottom_with_soft_brush_short_horflip_short_600ms.mp4	496.4590001398787	497.0673247711136	0.6083246312348365				
417.47998046875	0.2	854999	323	21	3	0	0	34	40	stimuli\Videos_short_600ms\46.scratching_top_to_bottom_with_finger_nails_short_short_600ms.mp4	46.scratching_top_to_bottom_with_finger_nails_short_short_600ms.mp4	497.2589882340592	497.8673108125663	0.6083225785071136				
418.27978515625	0.2	856637	324	21	3	0	0	35	18	stimuli\Videos_short_600ms\26.single_touch_with_a_blunt_syringe_short_short_600ms.mp4	26.single_touch_with_a_blunt_syringe_short_short_600ms.mp4	498.05924816801394	498.6672983202532	0.6080501522392296				
419.080078125	0.2	858276	325	21	3	0	0	36	78	stimuli\Videos_short_600ms\80.stroke_with_sharp_stick_all_over_the_hand_short_short_600ms.mp4	80.stroke_with_sharp_stick_all_over_the_hand_short_short_600ms.mp4	498.85896559540697	499.4672875874205	0.6083219920135434				
419.8798828125	0.2	859914	326	21	3	0	0	37	329	stimuli\Videos_short_600ms_vertflip\63.stroke_top_to_bottom_with_screwdriver_short_vertflip_short_600ms.mp4	63.stroke_top_to_bottom_with_screwdriver_short_vertflip_short_600ms.mp4	499.6589554490679	500.2672745086138	0.60831905954592				
420.6796875	0.2	861552	327	21	3	0	0	38	123	stimuli\Videos_short_600ms_horflip\4.repeated_tap_with_finger_slow_short_horflip_short_600ms.mp4	4.repeated_tap_with_finger_slow_short_horflip_short_600ms.mp4	500.4589435432483	501.06726025681974	0.608316713571412				
421.47998046875	0.2	863191	328	21	3	0	0	39	328	stimuli\Videos_short_600ms_vertflip\62.touch_top_to_bottom_with_scissors_short_vertflip_short_600ms.mp4	62.touch_top_to_bottom_with_scissors_short_vertflip_short_600ms.mp4	501.2589216670376	501.8672477645064	0.6083260974687619				
422.27978515625	0.2	864829	329	21	3	0	0	40	212	stimuli\Videos_short_600ms_horvertflip\39.single_stab_with_scissors_short_horvertflip_short_600ms.mp4	39.single_stab_with_scissors_short_horvertflip_short_600ms.mp4	502.05891386667304	502.6672370316739	0.6083231650009111				
423.07958984375	0.2	866467	330	21	3	0	0	41	124	stimuli\Videos_short_600ms_horflip\40.repeated_push_with_finger_short_horflip_short_600ms.mp4	40.repeated_push_with_finger_short_horflip_short_600ms.mp4	502.8588758618889	503.46722541910094	0.6083495572120228				
423.8798828125	0.2	868106	331	21	3	0	0	42	248	stimuli\Videos_short_600ms_horvertflip\71.single_stroke_with_finger_top_to_bottom_short_horvertflip_short_600ms.mp4	71.single_stroke_with_finger_top_to_bottom_short_horvertflip_short_600ms.mp4	503.65890852958137	504.2672114605539	0.6083029309725134				
424.6796875	0.2	869744	332	21	3	0	0	43	62	stimuli\Videos_short_600ms\66.stroke_top_to_bottom_with_sponge_short_short_600ms.mp4	66.stroke_top_to_bottom_with_sponge_short_short_600ms.mp4	504.4588863601241	505.0671760949908	0.6082897348667302				
425.4794921875	0.2	871382	333	21	3	0	0	44	336	stimuli\Videos_short_600ms_vertflip\7.repeated_touch_with_hairbrush_short_vertflip_short_600ms.mp4	7.repeated_touch_with_hairbrush_short_vertflip_short_600ms.mp4	505.25888618417616	505.86719468683737	0.6083085026612025				
426.27978515625	0.2	873021	334	21	3	0	0	45	65	stimuli\Videos_short_600ms\69.stroke_with_soft_sock_short_short_600ms.mp4	69.stroke_with_soft_sock_short_short_600ms.mp4	506.0588514051067	506.6671499373772	0.6082985322705099				
427.07958984375	0.2	874659	335	21	3	0	0	46	322	stimuli\Videos_short_600ms_vertflip\57.single_touch_with_nail_file_short_vertflip_short_600ms.mp4	57.single_touch_with_nail_file_short_vertflip_short_600ms.mp4	506.85883920604033	507.4671603183135	0.6083211122731882				
427.87939453125	0.2	876297	336	21	3	0	0	47	169	stimuli\Videos_short_600ms_horflip\81.single_stroke_top_to_bottom_with_cotton_pad_short_horflip_short_600ms.mp4	81.single_stroke_top_to_bottom_with_cotton_pad_short_horflip_short_600ms.mp4	507.65882671372697	508.267142547558	0.6083158338310568				
428.6796875	0.2	877936	337	21	3	0	0	48	342	stimuli\Videos_short_600ms_vertflip\75.(long)stroke_with_fingers_all_over_the_hand_short_vertflip_short_600ms.mp4	75.(long)stroke_with_fingers_all_over_the_hand_short_vertflip_short_600ms.mp4	508.4588139281668	509.0671672975873	0.6083533694204561				
429.4794921875	0.2	879574	338	21	3	0	1	49	360	stimuli\Targets_short_600ms\brush-stroke_short_short_600ms.mp4	brush-stroke_short_short_600ms.mp4	509.2588008493601	509.8671287063096	0.6083278569494723				
430.27978515625	0.2	881213	339	21	3	0	0	50	15	stimuli\Videos_short_600ms\23.single_push_with_a_spoon_short_short_600ms.mp4	23.single_push_with_a_spoon_short_short_600ms.mp4	510.0587883570467	510.6671118152945	0.6083234582476962				
431.07958984375	0.2	882851	340	21	3	0	0	51	215	stimuli\Videos_short_600ms_horvertflip\41.injection_with_blunt_syringe_short_horvertflip_short_600ms.mp4	41.injection_with_blunt_syringe_short_horvertflip_short_600ms.mp4	510.85877498499326	511.4671007892152	0.6083258042219768				
431.87939453125	0.2	884489	341	21	3	0	0	52	307	stimuli\Videos_short_600ms_vertflip\43.touch_top_to_bottom_with_sharp_wooden_stick_short_vertflip_short_600ms.mp4	43.touch_top_to_bottom_with_sharp_wooden_stick_short_vertflip_short_600ms.mp4	511.6587624926799	512.2670862441744	0.6083237514944813				
432.6796875	0.2	886128	342	21	3	0	0	53	271	stimuli\Videos_short_600ms_vertflip\10.single_touch_with_knife_short_vertflip_short_600ms.mp4	10.single_touch_with_knife_short_vertflip_short_600ms.mp4	512.4587517598475	513.0670749248482	0.6083231650006837				
433.4794921875	0.2	887766	343	21	3	0	0	54	118	stimuli\Videos_short_600ms_horflip\35.single_punch_with_hand_short_horflip_short_600ms.mp4	35.single_punch_with_hand_short_horflip_short_600ms.mp4	513.2587386810405	513.8670644852625	0.6083258042219768				
434.279296875	0.2	889404	344	21	3	0	0	55	138	stimuli\Videos_short_600ms_horflip\53.touch_top_to_bottom_with_knife_short_horflip_short_600ms.mp4	53.touch_top_to_bottom_with_knife_short_horflip_short_600ms.mp4	514.0587458362622	514.6670505267152	0.6083046904529965				
435.07958984375	0.2	891043	345	21	3	0	0	56	227	stimuli\Videos_short_600ms_horvertflip\52.touch_top_to_bottom_with_hammer_short_horvertflip_short_600ms.mp4	52.touch_top_to_bottom_with_hammer_short_horvertflip_short_600ms.mp4	514.8586984475808	515.467036861415	0.6083384138341899				
435.87939453125	0.2	892681	346	21	3	0	0	57	150	stimuli\Videos_short_600ms_horflip\64.repeated_touch_with_screwdriver_short_horflip_short_600ms.mp4	64.repeated_touch_with_screwdriver_short_horflip_short_600ms.mp4	515.6587009108539	516.2670249555952	0.6083240447412663				
436.67919921875	0.2	894319	347	21	3	0	0	58	219	stimuli\Videos_short_600ms_horvertflip\45.scratching_with_finger_nails_short_horvertflip_short_600ms.mp4	45.scratching_with_finger_nails_short_horvertflip_short_600ms.mp4	516.4586646655507	517.0670124632818	0.6083477977310849				
437.4794921875	0.2	895958	348	21	3	0	0	59	89	stimuli\Videos_short_600ms\90.repeated_touch_with_sponge_short_short_600ms.mp4	90.repeated_touch_with_sponge_short_short_600ms.mp4	517.2586633166154	517.8670070088915	0.6083436922760939				
438.279296875	0.2	897596	349	21	3	0	0	60	258	stimuli\Videos_short_600ms_horvertflip\80.stroke_with_sharp_stick_all_over_the_hand_short_horvertflip_short_600ms.mp4	80.stroke_with_sharp_stick_all_over_the_hand_short_horvertflip_short_600ms.mp4	518.0586367484561	518.6669895313828	0.6083527829266586				
439.0791015625	0.2	899234	350	21	3	0	0	61	53	stimuli\Videos_short_600ms\58.single_slap_with_pencil_short_short_600ms.mp4	58.single_slap_with_pencil_short_short_600ms.mp4	518.8586673634211	519.4669732268615	0.6083058634403642				
439.87939453125	0.2	900873	351	21	3	0	0	62	337	stimuli\Videos_short_600ms_vertflip\70.(long)stroke_with_finger_all_over_the_hand_short_vertflip_short_600ms.mp4	70.(long)stroke_with_finger_all_over_the_hand_short_vertflip_short_600ms.mp4	519.6586639617583	520.2669381545452	0.6082741927868938				
440.67919921875	0.2	902511	352	21	3	0	0	63	101	stimuli\Videos_short_600ms_horflip\2.single_touch_with_finger_short_horflip_short_600ms.mp4	2.single_touch_with_finger_short_horflip_short_600ms.mp4	520.4586379800928	521.066931233921	0.6082932538281511				
441.47900390625	0.2	904149	353	21	3	0	0	64	164	stimuli\Videos_short_600ms_horflip\77.tapping_with_all_fingers_short_horflip_short_600ms.mp4	77.tapping_with_all_fingers_short_horflip_short_600ms.mp4	521.258614930895	521.8669369229087	0.6083219920137708				
442.279296875	0.2	905788	354	21	3	0	0	65	247	stimuli\Videos_short_600ms_horvertflip\70.(long)stroke_with_finger_all_over_the_hand_short_horvertflip_short_600ms.mp4	70.(long)stroke_with_finger_all_over_the_hand_short_horvertflip_short_600ms.mp4	522.0585734071494	522.6669379199477	0.6083645127982891				
443.0791015625	0.2	907426	355	21	3	0	0	66	1	stimuli\Videos_short_600ms\10.single_touch_with_knife_short_short_600ms.mp4	10.single_touch_with_knife_short_short_600ms.mp4	522.858587893541	523.4669016746445	0.6083137811035613				
443.87890625	0.2	909064	356	21	3	0	0	67	261	stimuli\Videos_short_600ms_horvertflip\83.single_stroke_top_to_bottom_with_cotton_bud_short_horvertflip_short_600ms.mp4	83.single_stroke_top_to_bottom_with_cotton_bud_short_horvertflip_short_600ms.mp4	523.6585759877212	524.2669056041516	0.6083296164304102				
444.67919921875	0.2	910703	357	21	3	0	0	68	149	stimuli\Videos_short_600ms_horflip\63.stroke_top_to_bottom_with_screwdriver_short_horflip_short_600ms.mp4	63.stroke_top_to_bottom_with_screwdriver_short_horflip_short_600ms.mp4	524.4585629089145	525.0668916456043	0.6083287366898276				
445.47900390625	0.2	912341	358	21	3	0	0	69	213	stimuli\Videos_short_600ms_horvertflip\4.repeated_tap_with_finger_slow_short_horvertflip_short_600ms.mp4	4.repeated_tap_with_finger_slow_short_horvertflip_short_600ms.mp4	525.2585515895883	525.8668782735506	0.608326683962332				
446.27880859375	0.2	913979	359	21	3	0	0	70	74	stimuli\Videos_short_600ms\77.tapping_with_all_fingers_short_short_600ms.mp4	77.tapping_with_all_fingers_short_short_600ms.mp4	526.058537631041	526.6668634352629	0.6083258042219768				
447.0791015625	0.2	915618	360	21	3	0	0	71	148	stimuli\Videos_short_600ms_horflip\62.touch_top_to_bottom_with_scissors_short_horflip_short_600ms.mp4	62.touch_top_to_bottom_with_scissors_short_horflip_short_600ms.mp4	526.8585257252214	527.466852115937	0.608326390715547				
447.87890625	0.2	917256	361	21	3	0	0	72	41	stimuli\Videos_short_600ms\47.(long)scratching_with_finger_nails_short_short_600ms.mp4	47.(long)scratching_with_finger_nails_short_short_600ms.mp4	527.6585161653761	528.26683903713	0.6083228717538987				
448.6787109375	0.2	918894	362	21	3	0	1	73	363	stimuli\Targets_short_600ms\finger-tap_short_short_600ms.mp4	finger-tap_short_short_600ms.mp4	528.4585025000756	529.066827717804	0.6083252177284066				
449.47900390625	0.2	920533	363	21	3	0	0	74	66	stimuli\Videos_short_600ms\7.repeated_touch_with_hairbrush_short_short_600ms.mp4	7.repeated_touch_with_hairbrush_short_short_600ms.mp4	529.2584949929578	529.8668163984778	0.6083214055199733				
450.27880859375	0.2	922171	364	21	3	0	0	75	240	stimuli\Videos_short_600ms_horvertflip\64.repeated_touch_with_screwdriver_short_horvertflip_short_600ms.mp4	64.repeated_touch_with_screwdriver_short_horvertflip_short_600ms.mp4	530.0584781019427	530.6668009736968	0.608322871754126				
451.0791015625	0.2	923810	365	21	3	0	0	76	100	stimuli\Videos_short_600ms_horflip\19.single_touch_with_rolling_pin_short_horflip_short_600ms.mp4	19.single_touch_with_rolling_pin_short_horflip_short_600ms.mp4	530.8584714745652	531.4667887746302	0.6083173000649822				
451.87890625	0.2	925448	366	21	3	0	0	77	291	stimuli\Videos_short_600ms_vertflip\29.single_pinch_with_tweezers_short_vertflip_short_600ms.mp4	29.single_pinch_with_tweezers_short_vertflip_short_600ms.mp4	531.6584067843232	532.2667789215382	0.6083721372149284				
452.6787109375	0.2	927086	367	21	3	0	0	78	223	stimuli\Videos_short_600ms_horvertflip\49.repeated_slap_with_hand_short_horvertflip_short_600ms.mp4	49.repeated_slap_with_hand_short_horvertflip_short_600ms.mp4	532.4584151125321	533.0667640832505	0.6083489707184526				
453.47900390625	0.2	928725	368	21	3	0	0	79	358	stimuli\Videos_short_600ms_vertflip\9.single_touch_with_hammer_short_vertflip_short_600ms.mp4	9.single_touch_with_hammer_short_vertflip_short_600ms.mp4	533.258426079962	533.8667515909372	0.6083255109751917				
454.27880859375	0.2	930363	369	21	3	0	1	80	382	stimuli\Targets_short_600ms_vertflip\hand-pinch_short_horvertflip_short_600ms.mp4	hand-pinch_short_horvertflip_short_600ms.mp4	534.0584121214147	534.6667408581047	0.6083287366900549				
455.07861328125	0.2	932001	370	21	3	0	0	81	316	stimuli\Videos_short_600ms_vertflip\51.repeated_touch_with_hammer_short_vertflip_short_600ms.mp4	51.repeated_touch_with_hammer_short_vertflip_short_600ms.mp4	534.8584084265053	535.4667295387785	0.6083211122731882				
455.87890625	0.2	933640	371	21	3	0	1	82	375	stimuli\Targets_short_600ms_horvertflip\finger-tap_short_vertflip_short_600ms.mp4	finger-tap_short_vertflip_short_600ms.mp4	535.6584023856215	536.2666956394496	0.6082932538281511				
456.6787109375	0.2	935278	372	21	3	0	0	83	179	stimuli\Videos_short_600ms_horflip\90.repeated_touch_with_sponge_short_horflip_short_600ms.mp4	90.repeated_touch_with_sponge_short_horflip_short_600ms.mp4	536.4583808026575	537.0666769889538	0.6082961862962293				
457.478515625	0.2	936916	373	21	3	0	0	84	14	stimuli\Videos_short_600ms\22.single_touch_with_metal_chopstick_short_short_600ms.mp4	22.single_touch_with_metal_chopstick_short_short_600ms.mp4	537.2583662576167	537.8666712413167	0.608304983700009				
458.27880859375	0.2	938555	374	21	3	0	0	85	71	stimuli\Videos_short_600ms\74.fingers_walking_from_top_to_bottom_short_short_600ms.mp4	74.fingers_walking_from_top_to_bottom_short_short_600ms.mp4	538.05835317881	538.6666783965384	0.6083252177284066				
459.07861328125	0.2	940193	375	21	3	0	1	86	364	stimuli\Targets_short_600ms\hand-pinch_short_short_600ms.mp4	hand-pinch_short_short_600ms.mp4	538.8583406864966	539.4666876044876	0.6083469179909571				
