onset	duration	onsetsample	eventnumber	subjectnr	sequencenumber	blocksequencenumber	istarget	presentationnumber	stimnumber	stim	stimname	time_stimon	time_stimoff	stimdur	cresp	resp	rt	correct
48.51904296875	0.2	99367	0	19	0	0	0	0	14	stimuli\Videos_short_600ms\22.single_touch_with_metal_chopstick_short_short_600ms.mp4	22.single_touch_with_metal_chopstick_short_short_600ms.mp4	116.75779323053484	117.36603279603789	0.6082395655030268				
49.3193359375	0.2	101006	1	19	0	0	0	1	210	stimuli\Videos_short_600ms_horvertflip\37.single_stab_with_nail_file_short_horvertflip_short_600ms.mp4	37.single_stab_with_nail_file_short_horvertflip_short_600ms.mp4	117.55777164763458	118.1660220632375	0.6082504156029245				
50.119140625	0.2	102644	2	19	0	0	0	2	0	stimuli\Videos_short_600ms\1.repeated_touch_with_finger_fast_short_short_600ms.mp4	1.repeated_touch_with_finger_fast_short_short_600ms.mp4	118.35775534316052	118.96601191692844	0.6082565737679033				
50.91943359375	0.2	104283	3	19	0	0	0	3	36	stimuli\Videos_short_600ms\42.single_slap_with_plastic_whisk_short_short_600ms.mp4	42.single_slap_with_plastic_whisk_short_short_600ms.mp4	119.15774461035926	119.76599443947087	0.6082498291116281				
51.71923828125	0.2	105921	4	19	0	0	0	4	125	stimuli\Videos_short_600ms_horflip\41.injection_with_blunt_syringe_short_horflip_short_600ms.mp4	41.injection_with_blunt_syringe_short_horflip_short_600ms.mp4	119.95772566667256	120.56599543650646	0.6082697698338961				
52.51904296875	0.2	107559	5	19	0	0	0	5	230	stimuli\Videos_short_600ms_horvertflip\55.touch_top_to_bottom_with_nail_file_short_horvertflip_short_600ms.mp4	55.touch_top_to_bottom_with_nail_file_short_horvertflip_short_600ms.mp4	120.75769733911602	121.36596564271986	0.6082683036038361				
53.3193359375	0.2	109198	6	19	0	0	0	6	188	stimuli\Videos_short_600ms_horvertflip\17.repeated_touch_with_rolling_pin_short_horvertflip_short_600ms.mp4	17.repeated_touch_with_rolling_pin_short_horvertflip_short_600ms.mp4	121.55768660631476	122.16597455739613	0.6082879510813655				
54.119140625	0.2	110836	7	19	0	0	0	7	169	stimuli\Videos_short_600ms_horflip\81.single_stroke_top_to_bottom_with_cotton_pad_short_horflip_short_600ms.mp4	81.single_stroke_top_to_bottom_with_cotton_pad_short_horflip_short_600ms.mp4	122.35763951101852	122.96592775534646	0.6082882443279232				
54.9189453125	0.2	112474	8	19	0	0	0	8	277	stimuli\Videos_short_600ms_vertflip\16.repeated_touch_with_plastic_brush_short_vertflip_short_600ms.mp4	16.repeated_touch_with_plastic_brush_short_vertflip_short_600ms.mp4	123.15761910110176	123.76593256457907	0.608313463477316				
55.71923828125	0.2	114113	9	19	0	0	0	9	225	stimuli\Videos_short_600ms_horvertflip\50.single_(long)hard_push_with_thumb_short_horvertflip_short_600ms.mp4	50.single_(long)hard_push_with_thumb_short_horvertflip_short_600ms.mp4	123.9576244968266	124.56591743308944	0.608292936262842				
56.51904296875	0.2	115751	10	19	0	0	0	10	193	stimuli\Videos_short_600ms_horvertflip\21.repeated_touch_with_metal_chopstick_short_horvertflip_short_600ms.mp4	21.repeated_touch_with_metal_chopstick_short_horvertflip_short_600ms.mp4	124.75762080192816	125.36590992599304	0.6082891240648678				
57.31884765625	0.2	117389	11	19	0	0	0	11	253	stimuli\Videos_short_600ms_horvertflip\76.tickle_with_fingers_from_top_to_bottom_short_horvertflip_short_600ms.mp4	76.tickle_with_fingers_from_top_to_bottom_short_horvertflip_short_600ms.mp4	125.55759892578136	126.16588423765006	0.6082853118687126				
58.119140625	0.2	119028	12	19	0	0	0	12	268	stimuli\Videos_short_600ms_horvertflip\9.single_touch_with_hammer_short_horvertflip_short_600ms.mp4	9.single_touch_with_hammer_short_horvertflip_short_600ms.mp4	126.35761722432744	126.96587203861964	0.6082548142921951				
58.9189453125	0.2	120666	13	19	0	0	0	13	311	stimuli\Videos_short_600ms_vertflip\47.(long)scratching_with_finger_nails_short_vertflip_short_600ms.mp4	47.(long)scratching_with_finger_nails_short_vertflip_short_600ms.mp4	127.15759446844368	127.76583755289812	0.6082430844544433				
59.71875	0.2	122304	14	19	0	0	0	14	247	stimuli\Videos_short_600ms_horvertflip\70.(long)stroke_with_finger_all_over_the_hand_short_horvertflip_short_600ms.mp4	70.(long)stroke_with_finger_all_over_the_hand_short_horvertflip_short_600ms.mp4	127.95758285590456	128.56582212816193	0.6082392722573786				
60.51904296875	0.2	123943	15	19	0	0	0	15	228	stimuli\Videos_short_600ms_horvertflip\53.touch_top_to_bottom_with_knife_short_horvertflip_short_600ms.mp4	53.touch_top_to_bottom_with_knife_short_horvertflip_short_600ms.mp4	128.75756127300428	129.36580728991794	0.6082460169136539				
61.31884765625	0.2	125581	16	19	0	0	0	16	143	stimuli\Videos_short_600ms_horflip\58.single_slap_with_pencil_short_horflip_short_600ms.mp4	58.single_slap_with_pencil_short_horflip_short_600ms.mp4	129.55754350230018	130.16581063292142	0.6082671306212433				
62.11865234375	0.2	127219	17	19	0	0	0	17	69	stimuli\Videos_short_600ms\72.(short)stroke_with_finger_all_over_the_hand_short_short_600ms.mp4	72.(short)stroke_with_finger_all_over_the_hand_short_short_600ms.mp4	130.3575286640562	130.96580547179292	0.6082768077367291				
62.9189453125	0.2	128858	18	19	0	0	0	18	346	stimuli\Videos_short_600ms_vertflip\79.long_with_soft_brush_all_over_the_hand_short_vertflip_short_600ms.mp4	79.long_with_soft_brush_all_over_the_hand_short_vertflip_short_600ms.mp4	131.1575144123044	131.765783595647	0.6082691833425997				
63.71875	0.2	130496	19	19	0	0	0	19	81	stimuli\Videos_short_600ms\83.single_stroke_top_to_bottom_with_cotton_bud_short_short_600ms.mp4	83.single_stroke_top_to_bottom_with_cotton_bud_short_short_600ms.mp4	131.95750250651963	132.56576611818946	0.6082636116698268				
64.5185546875	0.2	132134	20	19	0	0	0	20	323	stimuli\Videos_short_600ms_vertflip\58.single_slap_with_pencil_short_vertflip_short_600ms.mp4	58.single_slap_with_pencil_short_vertflip_short_600ms.mp4	132.75748473581643	133.36575567863383	0.6082709428173985				
65.31884765625	0.2	133773	21	19	0	0	1	21	372	stimuli\Targets_short_600ms_horvertflip\brush-stroke_short_vertflip_short_600ms.mp4	brush-stroke_short_vertflip_short_600ms.mp4	133.5574690178346	134.1657200199288	0.6082510020942209				
66.11865234375	0.2	135411	22	19	0	0	0	22	203	stimuli\Videos_short_600ms_horvertflip\30.finger_pulling_back_another_finger_short_horvertflip_short_600ms.mp4	30.finger_pulling_back_another_finger_short_horvertflip_short_600ms.mp4	134.3574535930984	134.9656878801752	0.6082342870768116				
66.91845703125	0.2	137049	23	19	0	0	0	23	10	stimuli\Videos_short_600ms\19.single_touch_with_rolling_pin_short_short_600ms.mp4	19.single_touch_with_rolling_pin_short_short_600ms.mp4	135.15744198055927	135.7657055922291	0.6082636116698268				
67.71875	0.2	138688	24	19	0	0	0	24	130	stimuli\Videos_short_600ms_horflip\46.scratching_top_to_bottom_with_finger_nails_short_horflip_short_600ms.mp4	46.scratching_top_to_bottom_with_finger_nails_short_horflip_short_600ms.mp4	135.95741160028138	136.56569134047731	0.6082797401959397				
68.5185546875	0.2	140326	25	19	0	0	0	25	300	stimuli\Videos_short_600ms_vertflip\37.single_stab_with_nail_file_short_vertflip_short_600ms.mp4	37.single_stab_with_nail_file_short_vertflip_short_600ms.mp4	136.75736215901725	137.36569321725074	0.6083310582334889				
69.318359375	0.2	141964	26	19	0	0	0	26	160	stimuli\Videos_short_600ms_horflip\73.single_stroke_with_flat_hand_short_horflip_short_600ms.mp4	73.single_stroke_with_flat_hand_short_horflip_short_600ms.mp4	137.5573578776266	138.16568336418732	0.608325486560716				
70.11865234375	0.2	143603	27	19	0	0	0	27	119	stimuli\Videos_short_600ms_horflip\36.single_slap_with_full_hand_short_horflip_short_600ms.mp4	36.single_slap_with_full_hand_short_horflip_short_600ms.mp4	138.3573876127639	138.96567263138695	0.6082850186230644				
70.91845703125	0.2	145241	28	19	0	0	0	28	149	stimuli\Videos_short_600ms_horflip\63.stroke_top_to_bottom_with_screwdriver_short_horflip_short_600ms.mp4	63.stroke_top_to_bottom_with_screwdriver_short_horflip_short_600ms.mp4	139.15731793753093	139.76566013910997	0.6083422015790347				
71.71875	0.2	146880	29	19	0	0	0	29	326	stimuli\Videos_short_600ms_vertflip\60.single_push_with_tip_of_pencil_short_vertflip_short_600ms.mp4	60.single_push_with_tip_of_pencil_short_vertflip_short_600ms.mp4	139.9573429807333	140.56563474401264	0.6082917632793396				
72.5185546875	0.2	148518	30	19	0	0	0	30	180	stimuli\Videos_short_600ms_horvertflip\1.repeated_touch_with_finger_fast_short_horvertflip_short_600ms.mp4	1.repeated_touch_with_finger_fast_short_horvertflip_short_600ms.mp4	140.75731523966806	141.3656316356055	0.608316395937436				
73.318359375	0.2	150156	31	19	0	0	0	31	226	stimuli\Videos_short_600ms_horvertflip\51.repeated_touch_with_hammer_short_horvertflip_short_600ms.mp4	51.repeated_touch_with_hammer_short_horvertflip_short_600ms.mp4	141.55732591382002	142.16563703133033	0.6083111175103113				
74.11865234375	0.2	151795	32	19	0	0	0	32	242	stimuli\Videos_short_600ms_horvertflip\66.stroke_top_to_bottom_with_sponge_short_horvertflip_short_600ms.mp4	66.stroke_top_to_bottom_with_sponge_short_horvertflip_short_600ms.mp4	142.3573028646897	142.96555064107997	0.6082477763902716				
74.91845703125	0.2	153433	33	19	0	0	0	33	135	stimuli\Videos_short_600ms_horflip\50.single_(long)hard_push_with_thumb_short_horflip_short_600ms.mp4	50.single_(long)hard_push_with_thumb_short_horflip_short_600ms.mp4	143.15729682382425	143.7655806694629	0.6082838456386526				
75.71826171875	0.2	155071	34	19	0	0	0	34	1	stimuli\Videos_short_600ms\10.single_touch_with_knife_short_short_600ms.mp4	10.single_touch_with_knife_short_short_600ms.mp4	143.95727318820173	144.56557022990728	0.6082970417055549				
76.5185546875	0.2	156710	35	19	0	0	0	35	216	stimuli\Videos_short_600ms_horvertflip\42.single_slap_with_plastic_whisk_short_horvertflip_short_600ms.mp4	42.single_slap_with_plastic_whisk_short_horvertflip_short_600ms.mp4	144.75725483100632	145.36555803087683	0.6083031998705337				
77.318359375	0.2	158348	36	19	0	0	0	36	299	stimuli\Videos_short_600ms_vertflip\36.single_slap_with_full_hand_short_vertflip_short_600ms.mp4	36.single_slap_with_full_hand_short_vertflip_short_600ms.mp4	145.5572402860089	146.16556020089683	0.608319914887943				
78.1181640625	0.2	159986	37	19	0	0	0	37	350	stimuli\Videos_short_600ms_vertflip\82.repeated_touch_with_cotton_bud_short_vertflip_short_600ms.mp4	82.repeated_touch_with_cotton_bud_short_vertflip_short_600ms.mp4	146.3572272072397	146.96555357353918	0.6083263662994796				
78.9267578125	0.2	161642	38	19	0	0	0	38	235	stimuli\Videos_short_600ms_horvertflip\6.single_touch_with_flat_hand_short_horvertflip_short_600ms.mp4	6.single_touch_with_flat_hand_short_horvertflip_short_600ms.mp4	147.16556489283175	147.77384023433842	0.6082753415066691				
79.7265625	0.2	163280	39	19	0	0	0	39	165	stimuli\Videos_short_600ms_horflip\78.single_stroke_top_to_bottom_with_soft_brush_short_horflip_short_600ms.mp4	78.single_stroke_top_to_bottom_with_soft_brush_short_horflip_short_600ms.mp4	147.96552571517532	148.57384592330982	0.6083202081345007				
80.5263671875	0.2	164918	40	19	0	0	1	40	379	stimuli\Targets_short_600ms_vertflip\chopstick-silver-tap_short_horvertflip_short_600ms.mp4	chopstick-silver-tap_short_horvertflip_short_600ms.mp4	148.76551087693133	149.37381290381745	0.6083020268861219				
81.32666015625	0.2	166557	41	19	0	0	0	41	248	stimuli\Videos_short_600ms_horvertflip\71.single_stroke_with_finger_top_to_bottom_short_horvertflip_short_600ms.mp4	71.single_stroke_with_finger_top_to_bottom_short_horvertflip_short_600ms.mp4	149.56549457245728	150.1738080359355	0.6083134634782255				
82.12646484375	0.2	168195	42	19	0	0	0	42	131	stimuli\Videos_short_600ms_horflip\47.(long)scratching_with_finger_nails_short_horflip_short_600ms.mp4	47.(long)scratching_with_finger_nails_short_horflip_short_600ms.mp4	150.3654562745387	150.97380434103707	0.6083480664983654				
82.92626953125	0.2	169833	43	19	0	0	1	43	375	stimuli\Targets_short_600ms_horvertflip\finger-tap_short_vertflip_short_600ms.mp4	finger-tap_short_vertflip_short_600ms.mp4	151.16544260927913	151.7737971271872	0.6083545179080829				
83.7265625	0.2	171472	44	19	0	0	0	44	177	stimuli\Videos_short_600ms_horflip\89.single_touch_with_plastic_brush_short_horflip_short_600ms.mp4	89.single_touch_with_plastic_brush_short_horflip_short_600ms.mp4	151.96542601155943	152.5737758375326	0.6083498259731641				
84.5263671875	0.2	173110	45	19	0	0	0	45	302	stimuli\Videos_short_600ms_vertflip\39.single_stab_with_scissors_short_vertflip_short_600ms.mp4	39.single_stab_with_scissors_short_vertflip_short_600ms.mp4	152.76543521948133	153.3737706764041	0.6083354569227595				
85.326171875	0.2	174748	46	19	0	0	0	46	174	stimuli\Videos_short_600ms_horflip\86.touch_top_to_bottom_with_hair_brush_short_horflip_short_600ms.mp4	86.touch_top_to_bottom_with_hair_brush_short_horflip_short_600ms.mp4	153.5653995607763	154.17374352183106	0.608343961054743				
86.12646484375	0.2	176387	47	19	0	0	0	47	176	stimuli\Videos_short_600ms_horflip\88.repeated_stroke_with_plastic_brush_short_horflip_short_600ms.mp4	88.repeated_stroke_with_plastic_brush_short_horflip_short_600ms.mp4	154.36538677525368	154.97373044306187	0.6083436678081853				
86.92626953125	0.2	178025	48	19	0	0	0	48	134	stimuli\Videos_short_600ms_horflip\5.repeated_tap_with_finger_moving_from_top_to_bottom_short_horflip_short_600ms.mp4	5.repeated_tap_with_finger_moving_from_top_to_bottom_short_horflip_short_600ms.mp4	155.16601385235117	155.77371472508003	0.6077008727288558				
87.7265625	0.2	179664	49	19	0	0	0	49	287	stimuli\Videos_short_600ms_vertflip\25.single_touch_with_stanley_knife_short_vertflip_short_600ms.mp4	25.single_touch_with_stanley_knife_short_vertflip_short_600ms.mp4	155.96540431136054	156.5736984206069	0.6082941092463443				
88.5263671875	0.2	181302	50	19	0	0	0	50	167	stimuli\Videos_short_600ms_horflip\8.single_touch_with_hairbrush_short_horflip_short_600ms.mp4	8.single_touch_with_hairbrush_short_horflip_short_600ms.mp4	156.7653014993366	157.3736824093785	0.6083809100418875				
89.326171875	0.2	182940	51	19	0	0	0	51	155	stimuli\Videos_short_600ms_horflip\69.stroke_with_soft_sock_short_horflip_short_600ms.mp4	69.stroke_with_soft_sock_short_horflip_short_600ms.mp4	157.5653233168341	158.17364792365788	0.6083246068237713				
90.12646484375	0.2	184579	52	19	0	0	0	52	55	stimuli\Videos_short_600ms\6.single_touch_with_flat_hand_short_short_600ms.mp4	6.single_touch_with_flat_hand_short_short_600ms.mp4	158.36531053131148	158.97366094377685	0.60835041246537				
90.92626953125	0.2	186217	53	19	0	0	0	53	79	stimuli\Videos_short_600ms\81.single_stroke_top_to_bottom_with_cotton_pad_short_short_600ms.mp4	81.single_stroke_top_to_bottom_with_cotton_pad_short_short_600ms.mp4	159.16531446080717	159.77364375956495	0.6083292987577806				
91.72607421875	0.2	187855	54	19	0	0	0	54	60	stimuli\Videos_short_600ms\64.repeated_touch_with_screwdriver_short_short_600ms.mp4	64.repeated_touch_with_screwdriver_short_short_600ms.mp4	159.9652893589555	160.5736268685996	0.6083375096441159				
92.5263671875	0.2	189494	55	19	0	0	0	55	108	stimuli\Videos_short_600ms_horflip\26.single_touch_with_a_blunt_syringe_short_horflip_short_600ms.mp4	26.single_touch_with_a_blunt_syringe_short_horflip_short_600ms.mp4	160.76527246799014	161.37358475848396	0.6083122904938136				
93.326171875	0.2	191132	56	19	0	0	0	56	261	stimuli\Videos_short_600ms_horvertflip\83.single_stroke_top_to_bottom_with_cotton_bud_short_horvertflip_short_600ms.mp4	83.single_stroke_top_to_bottom_with_cotton_bud_short_horvertflip_short_600ms.mp4	161.56528842056832	162.1735913271932	0.6083029066248855				
94.1259765625	0.2	192770	57	19	0	0	0	57	95	stimuli\Videos_short_600ms_horflip\14.repeated_touch_with_pencil_short_horflip_short_600ms.mp4	14.repeated_touch_with_pencil_short_horflip_short_600ms.mp4	162.36525950651958	162.97355948068525	0.6082999741656749				
94.92626953125	0.2	194409	58	19	0	0	0	58	49	stimuli\Videos_short_600ms\54.repeated_touch_with_knife_short_short_600ms.mp4	54.repeated_touch_with_knife_short_short_600ms.mp4	163.1652423223086	163.77356634263924	0.6083240203306559				
95.72607421875	0.2	196047	59	19	0	0	0	59	196	stimuli\Videos_short_600ms_horvertflip\24.single_stroke_top_to_bottom_with_a_spoon_short_horvertflip_short_600ms.mp4	24.single_stroke_top_to_bottom_with_a_spoon_short_horvertflip_short_600ms.mp4	163.96522777731025	164.57354739895254	0.6083196216422948				
96.52587890625	0.2	197685	60	19	0	0	1	60	377	stimuli\Targets_short_600ms_horvertflip\hand-stroke_short_vertflip_short_600ms.mp4	hand-stroke_short_vertflip_short_600ms.mp4	164.7652343460186	165.37352610929793	0.6082917632793396				
97.326171875	0.2	199324	61	19	0	0	0	61	100	stimuli\Videos_short_600ms_horflip\19.single_touch_with_rolling_pin_short_horflip_short_600ms.mp4	19.single_touch_with_rolling_pin_short_horflip_short_600ms.mp4	165.56520191301934	166.17350159393845	0.6082996809191172				
98.1259765625	0.2	200962	62	19	0	0	0	62	207	stimuli\Videos_short_600ms_horvertflip\34.repeated_punch_with_hand_short_horvertflip_short_600ms.mp4	34.repeated_punch_with_hand_short_horvertflip_short_600ms.mp4	166.36518384906958	166.97351226809042	0.608328419020836				
98.92578125	0.2	202600	63	19	0	0	1	63	361	stimuli\Targets_short_600ms\chopstick-silver-tap_short_short_600ms.mp4	chopstick-silver-tap_short_short_600ms.mp4	167.16517663521972	167.7734886324679	0.6083119972481654				
99.72607421875	0.2	204239	64	19	0	0	0	64	317	stimuli\Videos_short_600ms_vertflip\52.touch_top_to_bottom_with_hammer_short_vertflip_short_600ms.mp4	52.touch_top_to_bottom_with_hammer_short_vertflip_short_600ms.mp4	167.96512866018566	168.5734737942239	0.6083451340382453				
100.52587890625	0.2	205877	65	19	0	0	0	65	52	stimuli\Videos_short_600ms\57.single_touch_with_nail_file_short_short_600ms.mp4	57.single_touch_with_nail_file_short_short_600ms.mp4	168.76513610863185	169.37346188843912	0.6083257798072736				
101.32568359375	0.2	207515	66	19	0	0	0	66	285	stimuli\Videos_short_600ms_vertflip\23.single_push_with_a_spoon_short_vertflip_short_600ms.mp4	23.single_push_with_a_spoon_short_vertflip_short_600ms.mp4	169.56512390960145	170.17341919183218	0.6082952822307561				
102.1259765625	0.2	209154	67	19	0	0	0	67	74	stimuli\Videos_short_600ms\77.tapping_with_all_fingers_short_short_600ms.mp4	77.tapping_with_all_fingers_short_short_600ms.mp4	170.36510965784964	170.9734295727376	0.608319914887943				
102.92578125	0.2	210792	68	19	0	0	0	68	356	stimuli\Videos_short_600ms_vertflip\88.repeated_stroke_with_plastic_brush_short_vertflip_short_600ms.mp4	88.repeated_stroke_with_plastic_brush_short_vertflip_short_600ms.mp4	171.16510097776973	171.7734141480014	0.6083131702316678				
103.7255859375	0.2	212430	69	19	0	0	0	69	53	stimuli\Videos_short_600ms\58.single_slap_with_pencil_short_short_600ms.mp4	58.single_slap_with_pencil_short_short_600ms.mp4	171.96505681493272	172.57339843001955	0.6083416150868288				
104.52587890625	0.2	214069	70	19	0	0	0	70	185	stimuli\Videos_short_600ms_horvertflip\14.repeated_touch_with_pencil_short_horvertflip_short_600ms.mp4	14.repeated_touch_with_pencil_short_horvertflip_short_600ms.mp4	172.765017050785	173.37338564449692	0.6083685937119299				
105.32568359375	0.2	215707	71	19	0	0	1	71	382	stimuli\Targets_short_600ms_vertflip\hand-pinch_short_horvertflip_short_600ms.mp4	hand-pinch_short_horvertflip_short_600ms.mp4	173.5650010395566	174.17336934002378	0.6083683004671911				
106.12548828125	0.2	217345	72	19	0	0	0	72	43	stimuli\Videos_short_600ms\49.repeated_slap_with_hand_short_short_600ms.mp4	49.repeated_slap_with_hand_short_short_600ms.mp4	174.365009074495	174.97335303554974	0.608343961054743				
106.92578125	0.2	218984	73	19	0	0	0	73	71	stimuli\Videos_short_600ms\74.fingers_walking_from_top_to_bottom_short_short_600ms.mp4	74.fingers_walking_from_top_to_bottom_short_short_600ms.mp4	175.1649954092345	175.77334494196202	0.6083495327275159				
107.7255859375	0.2	220622	74	19	0	0	0	74	245	stimuli\Videos_short_600ms_horvertflip\69.stroke_with_soft_sock_short_horvertflip_short_600ms.mp4	69.stroke_with_soft_sock_short_horvertflip_short_600ms.mp4	175.96498174397493	176.57332951722583	0.6083477732508982				
108.525390625	0.2	222260	75	19	0	0	0	75	262	stimuli\Videos_short_600ms_horvertflip\84.single_touch_with_cotton_bud_short_horvertflip_short_600ms.mp4	84.single_touch_with_cotton_bud_short_horvertflip_short_600ms.mp4	176.7650079601608	177.37326775963356	0.6082597994727621				
109.32568359375	0.2	223899	76	19	0	0	0	76	195	stimuli\Videos_short_600ms_horvertflip\23.single_push_with_a_spoon_short_horvertflip_short_600ms.mp4	23.single_push_with_a_spoon_short_horvertflip_short_600ms.mp4	177.56498432453827	178.1732983745087	0.6083140499704314				
110.12548828125	0.2	225537	77	19	0	0	0	77	139	stimuli\Videos_short_600ms_horflip\54.repeated_touch_with_knife_short_horflip_short_600ms.mp4	54.repeated_touch_with_knife_short_horflip_short_600ms.mp4	178.3649574632118	178.9732674077386	0.608309944526809				
110.92578125	0.2	227176	78	19	0	0	0	78	90	stimuli\Videos_short_600ms_horflip\1.repeated_touch_with_finger_fast_short_horflip_short_600ms.mp4	1.repeated_touch_with_finger_fast_short_horflip_short_600ms.mp4	179.16494174522995	179.77324142614907	0.6082996809191172				
111.7255859375	0.2	228814	79	19	0	0	0	79	319	stimuli\Videos_short_600ms_vertflip\54.repeated_touch_with_knife_short_vertflip_short_600ms.mp4	54.repeated_touch_with_knife_short_vertflip_short_600ms.mp4	179.96492456101805	180.57325356653016	0.6083290055121324				
112.525390625	0.2	230452	80	19	0	0	0	80	280	stimuli\Videos_short_600ms_vertflip\19.single_touch_with_rolling_pin_short_vertflip_short_600ms.mp4	19.single_touch_with_rolling_pin_short_vertflip_short_600ms.mp4	180.7649094295284	181.3732170280873	0.6083075985588948				
113.32568359375	0.2	232091	81	19	0	0	1	81	376	stimuli\Targets_short_600ms_horvertflip\hand-pinch_short_vertflip_short_600ms.mp4	hand-pinch_short_vertflip_short_600ms.mp4	181.56490954682613	182.17322770223927	0.6083181554131443				
114.12548828125	0.2	233729	82	19	0	0	0	82	218	stimuli\Videos_short_600ms_horvertflip\44.pushing_top_to_bottom_with_finger_short_horvertflip_short_600ms.mp4	44.pushing_top_to_bottom_with_finger_short_horvertflip_short_600ms.mp4	182.3648571731037	182.9732037733711	0.6083466002673958				
114.92529296875	0.2	235367	83	19	0	0	0	83	128	stimuli\Videos_short_600ms_horflip\44.pushing_top_to_bottom_with_finger_short_horflip_short_600ms.mp4	44.pushing_top_to_bottom_with_finger_short_horflip_short_600ms.mp4	183.16486667427125	183.7732003717183	0.6083336974470512				
115.7255859375	0.2	237006	84	19	0	0	0	84	352	stimuli\Videos_short_600ms_vertflip\84.single_touch_with_cotton_bud_short_vertflip_short_600ms.mp4	84.single_touch_with_cotton_bud_short_vertflip_short_600ms.mp4	183.96482808310705	184.57317526986665	0.6083471867596018				
116.525390625	0.2	238644	85	19	0	0	1	85	380	stimuli\Targets_short_600ms_vertflip\chopstickwood-tap_short_horvertflip_short_600ms.mp4	chopstickwood-tap_short_horvertflip_short_600ms.mp4	184.76483758427548	185.37315808565563	0.6083205013801489				
117.3251953125	0.2	240282	86	19	0	0	0	86	296	stimuli\Videos_short_600ms_vertflip\33.scratch_top_to_bottom_with_scissors_short_vertflip_short_600ms.mp4	33.scratch_top_to_bottom_with_scissors_short_vertflip_short_600ms.mp4	185.56481864058787	186.17314559337865	0.608326952790776				
118.12548828125	0.2	241921	87	19	0	0	0	87	114	stimuli\Videos_short_600ms_horflip\31.hand_grabbing_wrist_short_horflip_short_600ms.mp4	31.hand_grabbing_wrist_short_horflip_short_600ms.mp4	186.36480644155745	186.97312840916675	0.6083219676092995				
118.92529296875	0.2	243559	88	19	0	0	0	88	48	stimuli\Videos_short_600ms\53.touch_top_to_bottom_with_knife_short_short_600ms.mp4	53.touch_top_to_bottom_with_knife_short_short_600ms.mp4	187.16478515190283	187.7731126911849	0.6083275392820724				
119.72509765625	0.2	245197	89	19	0	0	0	89	126	stimuli\Videos_short_600ms_horflip\42.single_slap_with_plastic_whisk_short_horflip_short_600ms.mp4	42.single_slap_with_plastic_whisk_short_horflip_short_600ms.mp4	187.9647585838211	188.57309843943312	0.6083398556120301				
120.525390625	0.2	246836	90	19	0	0	0	90	171	stimuli\Videos_short_600ms_horflip\83.single_stroke_top_to_bottom_with_cotton_bud_short_horflip_short_600ms.mp4	83.single_stroke_top_to_bottom_with_cotton_bud_short_horflip_short_600ms.mp4	188.76475899436537	189.373084480927	0.6083254865616254				
121.3251953125	0.2	248474	91	19	0	0	0	91	249	stimuli\Videos_short_600ms_horvertflip\72.(short)stroke_with_finger_all_over_the_hand_short_horvertflip_short_600ms.mp4	72.(short)stroke_with_finger_all_over_the_hand_short_horvertflip_short_600ms.mp4	189.56472568162823	190.1730705224209	0.6083448407925971				
122.125	0.2	250112	92	19	0	0	0	92	298	stimuli\Videos_short_600ms_vertflip\35.single_punch_with_hand_short_vertflip_short_600ms.mp4	35.single_punch_with_hand_short_vertflip_short_600ms.mp4	190.36471230961345	190.97305685716037	0.6083445475469489				
122.92529296875	0.2	251751	93	19	0	0	0	93	290	stimuli\Videos_short_600ms_vertflip\28.single_injection_with_sharp_needle_short_vertflip_short_600ms.mp4	28.single_injection_with_sharp_needle_short_vertflip_short_600ms.mp4	191.16469453891025	191.7730320485543	0.6083375096441159				
123.72509765625	0.2	253389	94	19	0	0	0	94	295	stimuli\Videos_short_600ms_vertflip\32.single_(long)pinch_with_fingers_short_vertflip_short_600ms.mp4	32.single_(long)pinch_with_fingers_short_vertflip_short_600ms.mp4	191.9647116644728	192.57301603732685	0.608304372854036				
124.52490234375	0.2	255027	95	19	0	0	0	95	127	stimuli\Videos_short_600ms_horflip\43.touch_top_to_bottom_with_sharp_wooden_stick_short_horflip_short_600ms.mp4	43.touch_top_to_bottom_with_sharp_wooden_stick_short_horflip_short_600ms.mp4	192.76468363016193	193.37298565704805	0.6083020268861219				
125.3251953125	0.2	256666	96	19	0	0	0	96	17	stimuli\Videos_short_600ms\25.single_touch_with_stanley_knife_short_short_600ms.mp4	25.single_touch_with_stanley_knife_short_short_600ms.mp4	193.56469342457603	194.17297023231183	0.6082768077358196				
126.125	0.2	258304	97	19	0	0	0	97	220	stimuli\Videos_short_600ms_horvertflip\46.scratching_top_to_bottom_with_finger_nails_short_horvertflip_short_600ms.mp4	46.scratching_top_to_bottom_with_finger_nails_short_horvertflip_short_600ms.mp4	194.36465893885452	194.97295510082225	0.6082961619677008	8.0	8.0	2.9165841423746315	1.0
160.11572265625	0.2	327917	98	19	1	0	1	0	373	stimuli\Targets_short_600ms_horvertflip\chopstick-silver-tap_short_vertflip_short_600ms.mp4	chopstick-silver-tap_short_vertflip_short_600ms.mp4	228.35570027568065	228.96400728774825	0.6083070120675984				
160.91552734375	0.2	329555	99	19	1	0	0	1	233	stimuli\Videos_short_600ms_horvertflip\58.single_slap_with_pencil_short_horvertflip_short_600ms.mp4	58.single_slap_with_pencil_short_horvertflip_short_600ms.mp4	229.1556420370389	229.76399303599555	0.6083509989566664				
161.71533203125	0.2	331193	100	19	1	0	0	2	270	stimuli\Videos_short_600ms_vertflip\1.repeated_touch_with_finger_fast_short_vertflip_short_600ms.mp4	1.repeated_touch_with_finger_fast_short_vertflip_short_600ms.mp4	229.95563775564824	230.5640339144784	0.6083961588301463				
162.515625	0.2	332832	101	19	1	0	1	3	360	stimuli\Targets_short_600ms\brush-stroke_short_short_600ms.mp4	brush-stroke_short_short_600ms.mp4	230.75562174441984	231.3639633595076	0.6083416150877383				
163.3154296875	0.2	334470	102	19	1	0	0	4	93	stimuli\Videos_short_600ms_horflip\12.repeated_touch_with_nail_file_short_horflip_short_600ms.mp4	12.repeated_touch_with_nail_file_short_horflip_short_600ms.mp4	231.55561453057	232.16394940100145	0.6083348704314631				
164.115234375	0.2	336108	103	19	1	0	0	5	260	stimuli\Videos_short_600ms_horvertflip\82.repeated_touch_with_cotton_bud_short_horvertflip_short_600ms.mp4	82.repeated_touch_with_cotton_bud_short_horvertflip_short_600ms.mp4	232.3556037977696	232.9639072908858	0.6083034931161819				
164.91552734375	0.2	337747	104	19	1	0	0	6	288	stimuli\Videos_short_600ms_vertflip\26.single_touch_with_a_blunt_syringe_short_vertflip_short_600ms.mp4	26.single_touch_with_a_blunt_syringe_short_vertflip_short_600ms.mp4	233.15560977998663	233.7639003702816	0.6082905902949278				
165.71533203125	0.2	339385	105	19	1	0	0	7	264	stimuli\Videos_short_600ms_horvertflip\86.touch_top_to_bottom_with_hair_brush_short_horvertflip_short_600ms.mp4	86.touch_top_to_bottom_with_hair_brush_short_horvertflip_short_600ms.mp4	233.95558731734764	234.56390488626857	0.6083175689209384				
166.515625	0.2	341024	106	19	1	0	0	8	219	stimuli\Videos_short_600ms_horvertflip\45.scratching_with_finger_nails_short_horvertflip_short_600ms.mp4	45.scratching_with_finger_nails_short_horvertflip_short_600ms.mp4	234.7555707196279	235.3638701073014	0.608299387673469				
167.3154296875	0.2	342662	107	19	1	0	0	9	151	stimuli\Videos_short_600ms_horflip\65.stroke_top_to_bottom_with_stanley_knife_short_horflip_short_600ms.mp4	65.stroke_top_to_bottom_with_stanley_knife_short_horflip_short_600ms.mp4	235.555557347614	236.16387726250196	0.608319914887943				
168.115234375	0.2	344300	108	19	1	0	0	10	107	stimuli\Videos_short_600ms_horflip\25.single_touch_with_stanley_knife_short_horflip_short_600ms.mp4	25.single_touch_with_stanley_knife_short_horflip_short_600ms.mp4	236.35554309586132	236.96384043081343	0.6082973349521126				
168.91552734375	0.2	345939	109	19	1	0	0	11	179	stimuli\Videos_short_600ms_horflip\90.repeated_touch_with_sponge_short_horflip_short_600ms.mp4	90.repeated_touch_with_sponge_short_horflip_short_600ms.mp4	237.15552708463383	237.76384846575183	0.608321381118003				
169.71533203125	0.2	347577	110	19	1	0	0	12	182	stimuli\Videos_short_600ms_horvertflip\11.single_touch_with_lighter_short_horvertflip_short_600ms.mp4	11.single_touch_with_lighter_short_horvertflip_short_600ms.mp4	237.9555125396355	238.5638295220651	0.6083169824296419				
170.51513671875	0.2	349215	111	19	1	0	0	13	273	stimuli\Videos_short_600ms_vertflip\12.repeated_touch_with_nail_file_short_vertflip_short_600ms.mp4	12.repeated_touch_with_nail_file_short_vertflip_short_600ms.mp4	238.75550151358857	239.3638252406745	0.6083237270859172				
171.3154296875	0.2	350854	112	19	1	0	0	14	239	stimuli\Videos_short_600ms_horvertflip\63.stroke_top_to_bottom_with_screwdriver_short_horvertflip_short_600ms.mp4	63.stroke_top_to_bottom_with_screwdriver_short_horvertflip_short_600ms.mp4	239.55574619799336	240.16379808610145	0.6080518881080934				
172.115234375	0.2	352492	113	19	1	0	1	15	368	stimuli\Targets_short_600ms_horflip\chopstickwood-tap_short_horflip_short_600ms.mp4	chopstickwood-tap_short_horflip_short_600ms.mp4	240.3554683181492	240.96378383434876	0.6083155161995819				
172.9150390625	0.2	354130	114	19	1	0	0	16	75	stimuli\Videos_short_600ms\78.single_stroke_top_to_bottom_with_soft_brush_short_short_600ms.mp4	78.single_stroke_top_to_bottom_with_soft_brush_short_short_600ms.mp4	241.15545494613525	241.76376782312127	0.6083128769860195				
173.71533203125	0.2	355769	115	19	1	0	0	17	137	stimuli\Videos_short_600ms_horflip\52.touch_top_to_bottom_with_hammer_short_horflip_short_600ms.mp4	52.touch_top_to_bottom_with_hammer_short_horflip_short_600ms.mp4	241.95542896454572	242.56375621058217	0.6083272460364242				
174.51513671875	0.2	357407	116	19	1	0	0	18	172	stimuli\Videos_short_600ms_horflip\84.single_touch_with_cotton_bud_short_horflip_short_600ms.mp4	84.single_touch_with_cotton_bud_short_horflip_short_600ms.mp4	242.75540386269404	243.3637393196168	0.6083354569227595				
175.31494140625	0.2	359045	117	19	1	0	0	19	291	stimuli\Videos_short_600ms_vertflip\29.single_pinch_with_tweezers_short_vertflip_short_600ms.mp4	29.single_pinch_with_tweezers_short_vertflip_short_600ms.mp4	243.5553972353364	244.16372712058543	0.608329885249077				
176.115234375	0.2	360684	118	19	1	0	0	20	104	stimuli\Videos_short_600ms_horflip\22.single_touch_with_metal_chopstick_short_horflip_short_600ms.mp4	22.single_touch_with_metal_chopstick_short_horflip_short_600ms.mp4	244.3553686145333	244.96372019998216	0.6083515854488724				
176.9150390625	0.2	362322	119	19	1	0	0	21	15	stimuli\Videos_short_600ms\23.single_push_with_a_spoon_short_short_600ms.mp4	23.single_push_with_a_spoon_short_short_600ms.mp4	245.1553549492728	245.76370477524597	0.6083498259731641				
177.71484375	0.2	363960	120	19	1	0	0	22	313	stimuli\Videos_short_600ms_vertflip\49.repeated_slap_with_hand_short_vertflip_short_600ms.mp4	49.repeated_slap_with_hand_short_vertflip_short_600ms.mp4	245.9553401110288	246.56365943942544	0.6083193283966466				
178.51513671875	0.2	365599	121	19	1	0	0	23	271	stimuli\Videos_short_600ms_vertflip\10.single_touch_with_knife_short_vertflip_short_600ms.mp4	10.single_touch_with_knife_short_vertflip_short_600ms.mp4	246.75534697298372	247.3636677676095	0.6083207946257971				
179.31494140625	0.2	367237	122	19	1	0	0	24	208	stimuli\Videos_short_600ms_horvertflip\35.single_punch_with_hand_short_horvertflip_short_600ms.mp4	35.single_punch_with_hand_short_horvertflip_short_600ms.mp4	247.5553400523795	248.1636086492299	0.6082685968503938				
180.11474609375	0.2	368875	123	19	1	0	0	25	173	stimuli\Videos_short_600ms_horflip\85.touch_top_to_bottom_with_fabric_short_horflip_short_600ms.mp4	85.touch_top_to_bottom_with_fabric_short_horflip_short_600ms.mp4	248.3553216951841	248.9636155111848	0.6082938160006961				
180.9150390625	0.2	370514	124	19	1	0	0	26	282	stimuli\Videos_short_600ms_vertflip\20.single_touch_with_screwdriver_short_vertflip_short_600ms.mp4	20.single_touch_with_screwdriver_short_vertflip_short_600ms.mp4	249.1553050974644	249.7636006729408	0.6082955754764043				
181.71484375	0.2	372152	125	19	1	0	0	27	105	stimuli\Videos_short_600ms_horflip\23.single_push_with_a_spoon_short_horflip_short_600ms.mp4	23.single_push_with_a_spoon_short_horflip_short_600ms.mp4	249.95528967272912	250.56360577542	0.6083161026908783				
182.5146484375	0.2	373790	126	19	1	0	0	28	252	stimuli\Videos_short_600ms_horvertflip\75.(long)stroke_with_fingers_all_over_the_hand_short_horvertflip_short_600ms.mp4	75.(long)stroke_with_fingers_all_over_the_hand_short_horvertflip_short_600ms.mp4	250.75527219527157	251.36359269665172	0.6083205013801489				
183.31494140625	0.2	375429	127	19	1	0	0	29	325	stimuli\Videos_short_600ms_vertflip\6.single_touch_with_flat_hand_short_vertflip_short_600ms.mp4	6.single_touch_with_flat_hand_short_vertflip_short_600ms.mp4	251.55527113958576	252.16358196385045	0.6083108242646631				
184.11474609375	0.2	377067	128	19	1	0	0	30	152	stimuli\Videos_short_600ms_horflip\66.stroke_top_to_bottom_with_sponge_short_horflip_short_600ms.mp4	66.stroke_top_to_bottom_with_sponge_short_horflip_short_600ms.mp4	252.35524281202925	252.96356653911425	0.6083237270850077				
184.91455078125	0.2	378705	129	19	1	0	0	31	20	stimuli\Videos_short_600ms\28.single_injection_with_sharp_needle_short_short_600ms.mp4	28.single_injection_with_sharp_needle_short_short_600ms.mp4	253.1552276805387	253.7635464224431	0.6083187419044407				
185.71484375	0.2	380344	130	19	1	0	0	32	227	stimuli\Videos_short_600ms_horvertflip\52.touch_top_to_bottom_with_hammer_short_horvertflip_short_600ms.mp4	52.touch_top_to_bottom_with_hammer_short_horvertflip_short_600ms.mp4	253.9552190004597	254.56353891534764	0.608319914887943				
186.5146484375	0.2	381982	131	19	1	0	0	33	315	stimuli\Videos_short_600ms_vertflip\50.single_(long)hard_push_with_thumb_short_vertflip_short_600ms.mp4	50.single_(long)hard_push_with_thumb_short_vertflip_short_600ms.mp4	254.7551801160489	255.363515279726	0.6083351636771113				
187.31494140625	0.2	383621	132	19	1	0	0	34	278	stimuli\Videos_short_600ms_vertflip\17.repeated_touch_with_rolling_pin_short_vertflip_short_600ms.mp4	17.repeated_touch_with_rolling_pin_short_vertflip_short_600ms.mp4	255.5551846320368	256.1635010279733	0.6083163959365265				
188.11474609375	0.2	385259	133	19	1	0	0	35	340	stimuli\Videos_short_600ms_vertflip\73.single_stroke_with_flat_hand_short_vertflip_short_600ms.mp4	73.single_stroke_with_flat_hand_short_vertflip_short_600ms.mp4	256.3551686208084	256.9634853099915	0.6083166891830842				
188.91455078125	0.2	386897	134	19	1	0	0	36	158	stimuli\Videos_short_600ms_horflip\71.single_stroke_with_finger_top_to_bottom_short_horflip_short_600ms.mp4	71.single_stroke_with_finger_top_to_bottom_short_horflip_short_600ms.mp4	257.1551496771217	257.7634745771902	0.60832490006851				
189.71484375	0.2	388536	135	19	1	0	0	37	13	stimuli\Videos_short_600ms\21.repeated_touch_with_metal_chopstick_short_short_600ms.mp4	21.repeated_touch_with_metal_chopstick_short_short_600ms.mp4	257.9551371848447	258.563435986026	0.6082988011812631				
190.5146484375	0.2	390174	136	19	1	0	0	38	338	stimuli\Videos_short_600ms_vertflip\71.single_stroke_with_finger_top_to_bottom_short_vertflip_short_600ms.mp4	71.single_stroke_with_finger_top_to_bottom_short_vertflip_short_600ms.mp4	258.755080412433	259.3634475399158	0.6083671274827793				
191.314453125	0.2	391812	137	19	1	0	0	39	140	stimuli\Videos_short_600ms_horflip\55.touch_top_to_bottom_with_nail_file_short_horflip_short_600ms.mp4	55.touch_top_to_bottom_with_nail_file_short_horflip_short_600ms.mp4	259.55509196632283	260.1634303557039	0.6083383893810606				
192.11474609375	0.2	393451	138	19	1	0	0	40	132	stimuli\Videos_short_600ms_horflip\48.single_slap_with_hand_short_horflip_short_600ms.mp4	48.single_slap_with_hand_short_horflip_short_600ms.mp4	260.3550712631595	260.9634184499191	0.6083471867596018				
192.91455078125	0.2	395089	139	19	1	0	0	41	5	stimuli\Videos_short_600ms\14.repeated_touch_with_pencil_short_short_600ms.mp4	14.repeated_touch_with_pencil_short_short_600ms.mp4	261.155034431471	261.763404491413	0.6083700599419899				
193.71435546875	0.2	396727	140	19	1	0	0	42	342	stimuli\Videos_short_600ms_vertflip\75.(long)stroke_with_fingers_all_over_the_hand_short_vertflip_short_600ms.mp4	75.(long)stroke_with_fingers_all_over_the_hand_short_vertflip_short_600ms.mp4	261.95505302326274	262.5633770435943	0.6083240203315654				
194.5146484375	0.2	398366	141	19	1	0	0	43	162	stimuli\Videos_short_600ms_horflip\75.(long)stroke_with_fingers_all_over_the_hand_short_horflip_short_600ms.mp4	75.(long)stroke_with_fingers_all_over_the_hand_short_horflip_short_600ms.mp4	262.7550402377401	263.36332584285447	0.6082856051143608				
195.314453125	0.2	400004	142	19	1	0	0	44	297	stimuli\Videos_short_600ms_vertflip\34.repeated_punch_with_hand_short_vertflip_short_600ms.mp4	34.repeated_punch_with_hand_short_vertflip_short_600ms.mp4	263.55504563346494	264.1633110046105	0.608265371145535				
196.1142578125	0.2	401642	143	19	1	0	0	45	96	stimuli\Videos_short_600ms_horflip\15.single_stroke_top_to_bottom_with_a_plastic_whisk_short_horflip_short_600ms.mp4	15.single_stroke_top_to_bottom_with_a_plastic_whisk_short_horflip_short_600ms.mp4	264.35502727627045	264.96329587312084	0.6082685968503938				
196.91455078125	0.2	403281	144	19	1	0	0	46	8	stimuli\Videos_short_600ms\17.repeated_touch_with_rolling_pin_short_short_600ms.mp4	17.repeated_touch_with_rolling_pin_short_short_600ms.mp4	265.155007452845	265.7632921782215	0.6082847253765067				
197.71435546875	0.2	404919	145	19	1	0	0	47	351	stimuli\Videos_short_600ms_vertflip\83.single_stroke_top_to_bottom_with_cotton_bud_short_vertflip_short_600ms.mp4	83.single_stroke_top_to_bottom_with_cotton_bud_short_vertflip_short_600ms.mp4	265.9549890956496	266.5632955212259	0.608306425576302				
198.51416015625	0.2	406557	146	19	1	0	0	48	87	stimuli\Videos_short_600ms\89.single_touch_with_plastic_brush_short_short_600ms.mp4	89.single_touch_with_plastic_brush_short_short_600ms.mp4	266.75497513714345	267.3632812694732	0.6083061323297443				
199.314453125	0.2	408196	147	19	1	0	0	49	301	stimuli\Videos_short_600ms_vertflip\38.double_slap_with_pencil_short_vertflip_short_600ms.mp4	38.double_slap_with_pencil_short_vertflip_short_600ms.mp4	267.5549644043431	268.16328959765815	0.6083251933150677				
200.1142578125	0.2	409834	148	19	1	0	0	50	7	stimuli\Videos_short_600ms\16.repeated_touch_with_plastic_brush_short_short_600ms.mp4	16.repeated_touch_with_plastic_brush_short_short_600ms.mp4	268.3549463403933	268.9632630295764	0.6083166891830842				
200.9140625	0.2	411472	149	19	1	0	0	51	39	stimuli\Videos_short_600ms\45.scratching_with_finger_nails_short_short_600ms.mp4	45.scratching_with_finger_nails_short_short_600ms.mp4	269.15493032916584	269.76325405625084	0.6083237270850077				
201.71435546875	0.2	413111	150	19	1	0	0	52	62	stimuli\Videos_short_600ms\66.stroke_top_to_bottom_with_sponge_short_short_600ms.mp4	66.stroke_top_to_bottom_with_sponge_short_short_600ms.mp4	269.9549374843664	270.5632315936127	0.6082941092463443				
202.51416015625	0.2	414749	151	19	1	0	0	53	56	stimuli\Videos_short_600ms\60.single_push_with_tip_of_pencil_short_short_600ms.mp4	60.single_push_with_tip_of_pencil_short_short_600ms.mp4	270.7549050513662	271.3632164621231	0.608311410756869				
203.31396484375	0.2	416387	152	19	1	0	0	54	163	stimuli\Videos_short_600ms_horflip\76.tickle_with_fingers_from_top_to_bottom_short_horflip_short_600ms.mp4	76.tickle_with_fingers_from_top_to_bottom_short_horflip_short_600ms.mp4	271.554887280663	272.1632010373869	0.6083137567238737				
204.1142578125	0.2	418026	153	19	1	0	0	55	113	stimuli\Videos_short_600ms_horflip\30.finger_pulling_back_another_finger_short_horflip_short_600ms.mp4	30.finger_pulling_back_another_finger_short_horflip_short_600ms.mp4	272.3548566071386	272.96319089107783	0.6083342839392571				
204.9140625	0.2	419664	154	19	1	0	0	56	332	stimuli\Videos_short_600ms_vertflip\66.stroke_top_to_bottom_with_sponge_short_vertflip_short_600ms.mp4	66.stroke_top_to_bottom_with_sponge_short_vertflip_short_600ms.mp4	273.1548218281714	273.76317546634164	0.6083536381702288				
205.7138671875	0.2	421302	155	19	1	0	0	57	63	stimuli\Videos_short_600ms\67.single_touch_with_sponge_short_short_600ms.mp4	67.single_touch_with_sponge_short_short_600ms.mp4	273.9548275171428	274.5631700119675	0.6083424948246829				
206.51416015625	0.2	422941	156	19	1	0	0	58	213	stimuli\Videos_short_600ms_horvertflip\4.repeated_tap_with_finger_slow_short_horvertflip_short_600ms.mp4	4.repeated_tap_with_finger_slow_short_horvertflip_short_600ms.mp4	274.7547798353544	275.3631252626383	0.6083454272838935				
207.31396484375	0.2	424579	157	19	1	0	0	59	34	stimuli\Videos_short_600ms\40.repeated_push_with_finger_short_short_600ms.mp4	40.repeated_push_with_finger_short_short_600ms.mp4	275.5547875770462	276.1631115973778	0.6083240203315654				
208.1142578125	0.2	426218	158	19	1	0	0	60	192	stimuli\Videos_short_600ms_horvertflip\20.single_touch_with_screwdriver_short_horvertflip_short_600ms.mp4	20.single_touch_with_screwdriver_short_horvertflip_short_600ms.mp4	276.35478036319637	276.9631155268735	0.6083351636771113				
208.9140625	0.2	427856	159	19	1	0	0	61	99	stimuli\Videos_short_600ms_horflip\18.single_stroke_from_top_to_bottom_with_rolling_pin_short_horflip_short_600ms.mp4	18.single_stroke_from_top_to_bottom_with_rolling_pin_short_horflip_short_600ms.mp4	277.1548493932887	277.76310039538384	0.6082510020951304				
209.7138671875	0.2	429494	160	19	1	0	0	62	257	stimuli\Videos_short_600ms_horvertflip\8.single_touch_with_hairbrush_short_horvertflip_short_600ms.mp4	8.single_touch_with_hairbrush_short_horvertflip_short_600ms.mp4	277.95477678559655	278.5630708948429	0.6082941092463443				
210.51416015625	0.2	431133	161	19	1	0	0	63	32	stimuli\Videos_short_600ms\39.single_stab_with_scissors_short_short_600ms.mp4	39.single_stab_with_scissors_short_short_600ms.mp4	278.7547557891876	279.3630273184972	0.6082715293096044				
211.31396484375	0.2	432771	162	19	1	0	0	64	175	stimuli\Videos_short_600ms_horflip\87.single_stroke_top_to_bottom_with_plastic_brush_short_horflip_short_600ms.mp4	87.single_stroke_top_to_bottom_with_plastic_brush_short_horflip_short_600ms.mp4	279.55473889822224	280.1630341804521	0.6082952822298466				
212.11376953125	0.2	434409	163	19	1	0	0	65	101	stimuli\Videos_short_600ms_horflip\2.single_touch_with_finger_short_horflip_short_600ms.mp4	2.single_touch_with_finger_short_horflip_short_600ms.mp4	280.35472054102684	280.96300409341984	0.6082835523930044				
212.9140625	0.2	436048	164	19	1	0	0	66	22	stimuli\Videos_short_600ms\3.single_push_with_finger_short_short_600ms.mp4	3.single_push_with_finger_short_short_600ms.mp4	281.154704823045	281.7630071431777	0.6083023201326796				
213.7138671875	0.2	437686	165	19	1	0	0	67	23	stimuli\Videos_short_600ms\30.finger_pulling_back_another_finger_short_short_600ms.mp4	30.finger_pulling_back_another_finger_short_short_600ms.mp4	281.95469027804666	282.5629899589658	0.6082996809191172				
214.513671875	0.2	439324	166	19	1	0	0	68	66	stimuli\Videos_short_600ms\7.repeated_touch_with_hairbrush_short_short_600ms.mp4	7.repeated_touch_with_hairbrush_short_short_600ms.mp4	282.75467661278617	283.362998873642	0.6083222608558572				
215.31396484375	0.2	440963	167	19	1	0	0	69	244	stimuli\Videos_short_600ms_horvertflip\68.stroke_top_to_bottom_with_shawl_short_horvertflip_short_600ms.mp4	68.stroke_top_to_bottom_with_shawl_short_horvertflip_short_600ms.mp4	283.55466324077224	284.1629769974961	0.6083137567238737				
216.11376953125	0.2	442601	168	19	1	0	0	70	281	stimuli\Videos_short_600ms_vertflip\2.single_touch_with_finger_short_vertflip_short_600ms.mp4	2.single_touch_with_finger_short_vertflip_short_600ms.mp4	284.3546451768225	284.9629665579405	0.608321381118003				
216.91357421875	0.2	444239	169	19	1	0	0	71	234	stimuli\Videos_short_600ms_horvertflip\59.single_push_with_long_side_pencil_short_horvertflip_short_600ms.mp4	59.single_push_with_long_side_pencil_short_horvertflip_short_600ms.mp4	285.15463180480856	285.76294790749944	0.6083161026908783				
217.7138671875	0.2	445878	170	19	1	0	0	72	41	stimuli\Videos_short_600ms\47.(long)scratching_with_finger_nails_short_short_600ms.mp4	47.(long)scratching_with_finger_nails_short_short_600ms.mp4	285.9546169665646	286.5629327760098	0.6083158094452301				
218.513671875	0.2	447516	171	19	1	0	0	73	103	stimuli\Videos_short_600ms_horflip\21.repeated_touch_with_metal_chopstick_short_horflip_short_600ms.mp4	21.repeated_touch_with_metal_chopstick_short_horflip_short_600ms.mp4	286.7546044742876	287.3629311338327	0.6083266595451278				
219.3134765625	0.2	449154	172	19	1	0	1	74	374	stimuli\Targets_short_600ms_horvertflip\chopstickwood-tap_short_vertflip_short_600ms.mp4	chopstickwood-tap_short_vertflip_short_600ms.mp4	287.55456412364765	288.16291248339166	0.6083483597440136				
220.11376953125	0.2	450793	173	19	1	0	0	75	106	stimuli\Videos_short_600ms_horflip\24.single_stroke_top_to_bottom_with_a_spoon_short_horflip_short_600ms.mp4	24.single_stroke_top_to_bottom_with_a_spoon_short_horflip_short_600ms.mp4	288.3545363825824	288.9628967654089	0.6083603828265041				
220.91357421875	0.2	452431	174	19	1	0	0	76	353	stimuli\Videos_short_600ms_vertflip\85.touch_top_to_bottom_with_fabric_short_vertflip_short_600ms.mp4	85.touch_top_to_bottom_with_fabric_short_vertflip_short_600ms.mp4	289.15451362669864	289.76288779208426	0.6083741653856123				
221.71337890625	0.2	454069	175	19	1	0	0	77	349	stimuli\Videos_short_600ms_vertflip\81.single_stroke_top_to_bottom_with_cotton_pad_short_vertflip_short_600ms.mp4	81.single_stroke_top_to_bottom_with_cotton_pad_short_vertflip_short_600ms.mp4	289.95450611960223	290.56286151724817	0.608355397645937				
222.513671875	0.2	455708	176	19	1	0	0	78	256	stimuli\Videos_short_600ms_horvertflip\79.long_with_soft_brush_all_over_the_hand_short_horvertflip_short_600ms.mp4	79.long_with_soft_brush_all_over_the_hand_short_horvertflip_short_600ms.mp4	290.7544818974884	291.36284931821774	0.608367420729337				
223.3134765625	0.2	457346	177	19	1	0	0	79	27	stimuli\Videos_short_600ms\34.repeated_punch_with_hand_short_short_600ms.mp4	34.repeated_punch_with_hand_short_short_600ms.mp4	291.5544805485579	292.1630846187527	0.608604070194815				
224.11328125	0.2	458984	178	19	1	0	0	80	305	stimuli\Videos_short_600ms_vertflip\41.injection_with_blunt_syringe_short_vertflip_short_600ms.mp4	41.injection_with_blunt_syringe_short_vertflip_short_600ms.mp4	292.3544835983148	292.96282345392683	0.6083398556120301				
224.91357421875	0.2	460623	179	19	1	0	0	81	141	stimuli\Videos_short_600ms_horflip\56.repeated_touch_with_nail_file_short_horflip_short_600ms.mp4	56.repeated_touch_with_nail_file_short_horflip_short_600ms.mp4	293.1544963251881	293.76280157778	0.6083052525918902				
225.71337890625	0.2	462261	180	19	1	0	0	82	329	stimuli\Videos_short_600ms_vertflip\63.stroke_top_to_bottom_with_screwdriver_short_vertflip_short_600ms.mp4	63.stroke_top_to_bottom_with_screwdriver_short_vertflip_short_600ms.mp4	293.95447708825577	294.56276327986143	0.6082861916056572				
226.51318359375	0.2	463899	181	19	1	0	0	83	205	stimuli\Videos_short_600ms_horvertflip\32.single_(long)pinch_with_fingers_short_horvertflip_short_600ms.mp4	32.single_(long)pinch_with_fingers_short_horvertflip_short_600ms.mp4	294.75445052017403	295.3627481483718	0.6082976281977608				
227.3134765625	0.2	465538	182	19	1	0	0	84	68	stimuli\Videos_short_600ms\71.single_stroke_with_finger_top_to_bottom_short_short_600ms.mp4	71.single_stroke_with_finger_top_to_bottom_short_short_600ms.mp4	295.5544348021922	296.1627344831113	0.6082996809191172				
228.11328125	0.2	467176	183	19	1	0	0	85	267	stimuli\Videos_short_600ms_horvertflip\89.single_touch_with_plastic_brush_short_horvertflip_short_600ms.mp4	89.single_touch_with_plastic_brush_short_horvertflip_short_600ms.mp4	296.35438536092806	296.96272375031003	0.60833838938197				
228.9130859375	0.2	468814	184	19	1	0	0	86	240	stimuli\Videos_short_600ms_horvertflip\64.repeated_touch_with_screwdriver_short_horvertflip_short_600ms.mp4	64.repeated_touch_with_screwdriver_short_horvertflip_short_600ms.mp4	297.1543884106859	297.7627276798057	0.6083392691198242				
229.71337890625	0.2	470453	185	19	1	0	0	87	122	stimuli\Videos_short_600ms_horflip\39.single_stab_with_scissors_short_horflip_short_600ms.mp4	39.single_stab_with_scissors_short_horflip_short_600ms.mp4	297.9543911671981	298.56272046595586	0.6083292987577806				
230.51318359375	0.2	472091	186	19	1	0	0	88	118	stimuli\Videos_short_600ms_horflip\35.single_punch_with_hand_short_horflip_short_600ms.mp4	35.single_punch_with_hand_short_horflip_short_600ms.mp4	298.75437544921624	299.3627000560391	0.6083246068228618				
231.3134765625	0.2	473730	187	19	1	0	0	89	144	stimuli\Videos_short_600ms_horflip\59.single_push_with_long_side_pencil_short_horflip_short_600ms.mp4	59.single_push_with_long_side_pencil_short_horflip_short_600ms.mp4	299.5543597312344	300.1626834583194	0.6083237270850077				
232.11328125	0.2	475368	188	19	1	0	0	90	320	stimuli\Videos_short_600ms_vertflip\55.touch_top_to_bottom_with_nail_file_short_vertflip_short_600ms.mp4	55.touch_top_to_bottom_with_nail_file_short_vertflip_short_600ms.mp4	300.3543407875468	300.9626656876162	0.6083249000694195				
232.9130859375	0.2	477006	189	19	1	0	0	91	238	stimuli\Videos_short_600ms_horvertflip\62.touch_top_to_bottom_with_scissors_short_horvertflip_short_600ms.mp4	62.touch_top_to_bottom_with_scissors_short_horvertflip_short_600ms.mp4	301.15433298720563	301.76264879665086	0.6083158094452301				
233.71337890625	0.2	478645	190	19	1	0	0	92	51	stimuli\Videos_short_600ms\56.repeated_touch_with_nail_file_short_short_600ms.mp4	56.repeated_touch_with_nail_file_short_short_600ms.mp4	301.9542961555162	302.5626339584069	0.6083378028906736				
234.51318359375	0.2	480283	191	19	1	0	0	93	3	stimuli\Videos_short_600ms\12.repeated_touch_with_nail_file_short_short_600ms.mp4	12.repeated_touch_with_nail_file_short_short_600ms.mp4	302.7543024309798	303.36262351885125	0.6083210878714453	4.0	4.0	1.7818892486357072	1.0
269.4453125	0.2	551824	192	19	2	0	0	0	316	stimuli\Videos_short_600ms_vertflip\51.repeated_touch_with_hammer_short_vertflip_short_600ms.mp4	51.repeated_touch_with_hammer_short_vertflip_short_600ms.mp4	337.6876878056901	338.2953012911321	0.6076134854420161				
270.2451171875	0.2	553462	193	19	2	0	1	1	365	stimuli\Targets_short_600ms\hand-stroke_short_short_600ms.mp4	hand-stroke_short_short_600ms.mp4	338.48696595150795	339.09529290429873	0.608326952790776				
271.04541015625	0.2	555101	194	19	2	0	0	2	28	stimuli\Videos_short_600ms\35.single_punch_with_hand_short_short_600ms.mp4	35.single_punch_with_hand_short_short_600ms.mp4	339.2869053668992	339.89527190788976	0.6083665409905734				
271.84521484375	0.2	556739	195	19	2	0	1	3	381	stimuli\Targets_short_600ms_vertflip\finger-tap_short_horvertflip_short_600ms.mp4	finger-tap_short_horvertflip_short_600ms.mp4	340.0869002057707	340.6951808257045	0.6082806199337938				
272.64501953125	0.2	558377	196	19	2	0	0	4	276	stimuli\Videos_short_600ms_vertflip\15.single_stroke_top_to_bottom_with_a_plastic_whisk_short_vertflip_short_600ms.mp4	15.single_stroke_top_to_bottom_with_a_plastic_whisk_short_vertflip_short_600ms.mp4	340.88687539716466	341.49524135166394	0.608365954499277				
273.4453125	0.2	560016	197	19	2	0	0	5	111	stimuli\Videos_short_600ms_horflip\29.single_pinch_with_tweezers_short_horflip_short_600ms.mp4	29.single_pinch_with_tweezers_short_horflip_short_600ms.mp4	341.6868872443001	342.29522768640345	0.6083404421033265				
274.2451171875	0.2	561654	198	19	2	0	0	6	304	stimuli\Videos_short_600ms_vertflip\40.repeated_push_with_finger_short_vertflip_short_600ms.mp4	40.repeated_push_with_finger_short_vertflip_short_600ms.mp4	342.4868858953696	343.0952107954381	0.60832490006851				
275.044921875	0.2	563292	199	19	2	0	0	7	83	stimuli\Videos_short_600ms\85.touch_top_to_bottom_with_fabric_short_short_600ms.mp4	85.touch_top_to_bottom_with_fabric_short_short_600ms.mp4	343.28686841791205	343.89518862604564	0.6083202081335912				
275.84521484375	0.2	564931	200	19	2	0	0	8	190	stimuli\Videos_short_600ms_horvertflip\19.single_touch_with_rolling_pin_short_horvertflip_short_600ms.mp4	19.single_touch_with_rolling_pin_short_horvertflip_short_600ms.mp4	344.0868761596039	344.6951602984891	0.6082841388852103				
276.64501953125	0.2	566569	201	19	2	0	0	9	232	stimuli\Videos_short_600ms_horvertflip\57.single_touch_with_nail_file_short_horvertflip_short_600ms.mp4	57.single_touch_with_nail_file_short_horvertflip_short_600ms.mp4	344.886807950601	345.4951413548024	0.608333404201403				
277.44482421875	0.2	568207	202	19	2	0	0	10	25	stimuli\Videos_short_600ms\32.single_(long)pinch_with_fingers_short_short_600ms.mp4	32.single_(long)pinch_with_fingers_short_short_600ms.mp4	345.68682888836065	346.2951042298673	0.6082753415066691				
278.2451171875	0.2	569846	203	19	2	0	0	11	4	stimuli\Videos_short_600ms\13.single_touch_with_pen_short_short_600ms.mp4	13.single_touch_with_pen_short_short_600ms.mp4	346.48681463660796	347.0950902713612	0.6082756347532268				
279.044921875	0.2	571484	204	19	2	0	0	12	289	stimuli\Videos_short_600ms_vertflip\27.single_push_with_a_plastic_whisk_short_vertflip_short_600ms.mp4	27.single_push_with_a_plastic_whisk_short_vertflip_short_600ms.mp4	347.2867977456426	347.8951185402684	0.6083207946257971				
279.84521484375	0.2	573123	205	19	2	0	0	13	98	stimuli\Videos_short_600ms_horflip\17.repeated_touch_with_rolling_pin_short_horflip_short_600ms.mp4	17.repeated_touch_with_rolling_pin_short_horflip_short_600ms.mp4	348.0867843736278	348.6950869870061	0.6083026133783278				
280.64501953125	0.2	574761	206	19	2	0	0	14	237	stimuli\Videos_short_600ms_horvertflip\61.single_hit_with_rolling_pin_short_horvertflip_short_600ms.mp4	61.single_hit_with_rolling_pin_short_horvertflip_short_600ms.mp4	348.8867677759081	349.4950979544046	0.6083301784965442				
281.44482421875	0.2	576399	207	19	2	0	0	15	110	stimuli\Videos_short_600ms_horflip\28.single_injection_with_sharp_needle_short_horflip_short_600ms.mp4	28.single_injection_with_sharp_needle_short_horflip_short_600ms.mp4	349.6867347564166	350.2950754917656	0.6083407353489747				
282.2451171875	0.2	578038	208	19	2	0	0	16	184	stimuli\Videos_short_600ms_horvertflip\13.single_touch_with_pen_short_horvertflip_short_600ms.mp4	13.single_touch_with_pen_short_horvertflip_short_600ms.mp4	350.4867419116172	351.0950198923374	0.6082779807202314				
283.044921875	0.2	579676	209	19	2	0	0	17	124	stimuli\Videos_short_600ms_horflip\40.repeated_push_with_finger_short_horflip_short_600ms.mp4	40.repeated_push_with_finger_short_horflip_short_600ms.mp4	351.286724140914	351.89504522878633	0.6083210878723548				
283.8447265625	0.2	581314	210	19	2	0	0	18	46	stimuli\Videos_short_600ms\51.repeated_touch_with_hammer_short_short_600ms.mp4	51.repeated_touch_with_hammer_short_short_600ms.mp4	352.0867151675884	352.69502921755793	0.6083140499695219				
284.64501953125	0.2	582953	211	19	2	0	0	19	236	stimuli\Videos_short_600ms_horvertflip\60.single_push_with_tip_of_pencil_short_horvertflip_short_600ms.mp4	60.single_push_with_tip_of_pencil_short_horvertflip_short_600ms.mp4	352.8866938779338	353.49501496580615	0.6083210878723548				
285.44482421875	0.2	584591	212	19	2	0	0	20	191	stimuli\Videos_short_600ms_horvertflip\2.single_touch_with_finger_short_horvertflip_short_600ms.mp4	2.single_touch_with_finger_short_horvertflip_short_600ms.mp4	353.6866784531976	354.2950186020553	0.6083401488576783				
286.24462890625	0.2	586229	213	19	2	0	1	21	366	stimuli\Targets_short_600ms_horflip\brush-stroke_short_horflip_short_600ms.mp4	brush-stroke_short_horflip_short_600ms.mp4	354.4866618554788	355.09498587580947	0.6083240203306559				
287.044921875	0.2	587868	214	19	2	0	0	22	65	stimuli\Videos_short_600ms\69.stroke_with_soft_sock_short_short_600ms.mp4	69.stroke_with_soft_sock_short_short_600ms.mp4	355.28664085906985	355.8949704510742	0.6083295920043383				
287.8447265625	0.2	589506	215	19	2	0	0	23	321	stimuli\Videos_short_600ms_vertflip\56.repeated_touch_with_nail_file_short_vertflip_short_600ms.mp4	56.repeated_touch_with_nail_file_short_vertflip_short_600ms.mp4	356.08660989229975	356.6949556128293	0.6083457205295417				
288.64453125	0.2	591144	216	19	2	0	0	24	199	stimuli\Videos_short_600ms_horvertflip\27.single_push_with_a_plastic_whisk_short_horvertflip_short_600ms.mp4	27.single_push_with_a_plastic_whisk_short_horvertflip_short_600ms.mp4	356.8866009189742	357.4949396016018	0.6083386826276183				
289.44482421875	0.2	592783	217	19	2	0	0	25	221	stimuli\Videos_short_600ms_horvertflip\47.(long)scratching_with_finger_nails_short_horvertflip_short_600ms.mp4	47.(long)scratching_with_finger_nails_short_horvertflip_short_600ms.mp4	357.6866071944369	358.2949309215219	0.6083237270850077				
290.24462890625	0.2	594421	218	19	2	0	1	26	369	stimuli\Targets_short_600ms_horflip\finger-tap_short_horflip_short_600ms.mp4	finger-tap_short_horflip_short_600ms.mp4	358.4865885439958	359.0949058196711	0.6083172756752901				
291.04443359375	0.2	596059	219	19	2	0	0	27	38	stimuli\Videos_short_600ms\44.pushing_top_to_bottom_with_finger_short_short_600ms.mp4	44.pushing_top_to_bottom_with_finger_short_short_600ms.mp4	359.28658690181874	359.8949115086416	0.6083246068228618				
291.8447265625	0.2	597698	220	19	2	0	0	28	254	stimuli\Videos_short_600ms_horvertflip\77.tapping_with_all_fingers_short_horvertflip_short_600ms.mp4	77.tapping_with_all_fingers_short_horvertflip_short_600ms.mp4	360.08655652153993	360.6948347955067	0.6082782739667891				
292.64453125	0.2	599336	221	19	2	0	1	29	363	stimuli\Targets_short_600ms\finger-tap_short_short_600ms.mp4	finger-tap_short_short_600ms.mp4	360.88654344277165	361.4948410709694	0.6082976281977608				
293.4443359375	0.2	600974	222	19	2	0	0	30	303	stimuli\Videos_short_600ms_vertflip\4.repeated_tap_with_finger_slow_short_vertflip_short_600ms.mp4	4.repeated_tap_with_finger_slow_short_vertflip_short_600ms.mp4	361.6865253788219	362.29483444361085	0.6083090647889549				
294.24462890625	0.2	602613	223	19	2	0	0	31	154	stimuli\Videos_short_600ms_horflip\68.stroke_top_to_bottom_with_shawl_short_horflip_short_600ms.mp4	68.stroke_top_to_bottom_with_shawl_short_horflip_short_600ms.mp4	362.4865152325128	363.094833387926	0.6083181554131443				
295.04443359375	0.2	604251	224	19	2	0	0	32	284	stimuli\Videos_short_600ms_vertflip\22.single_touch_with_metal_chopstick_short_vertflip_short_600ms.mp4	22.single_touch_with_metal_chopstick_short_vertflip_short_600ms.mp4	363.2865068456794	363.89480124817146	0.6082944024919925				
295.84423828125	0.2	605889	225	19	2	0	0	33	77	stimuli\Videos_short_600ms\8.single_touch_with_hairbrush_short_short_600ms.mp4	8.single_touch_with_hairbrush_short_short_600ms.mp4	364.08648233032	364.69481221557	0.6083298852499865				
296.64453125	0.2	607528	226	19	2	0	0	34	142	stimuli\Videos_short_600ms_horflip\57.single_touch_with_nail_file_short_horflip_short_600ms.mp4	57.single_touch_with_nail_file_short_horflip_short_600ms.mp4	364.88646719882945	365.4947894596853	0.6083222608558572				
297.4443359375	0.2	609166	227	19	2	0	0	35	255	stimuli\Videos_short_600ms_horvertflip\78.single_stroke_top_to_bottom_with_soft_brush_short_horvertflip_short_600ms.mp4	78.single_stroke_top_to_bottom_with_soft_brush_short_horvertflip_short_600ms.mp4	365.68645353356897	366.29478576478687	0.6083322312179007				
298.244140625	0.2	610804	228	19	2	0	0	36	164	stimuli\Videos_short_600ms_horflip\77.tapping_with_all_fingers_short_horflip_short_600ms.mp4	77.tapping_with_all_fingers_short_horflip_short_600ms.mp4	366.4864369358502	367.0947574372303	0.6083205013801489				
299.04443359375	0.2	612443	229	19	2	0	0	37	204	stimuli\Videos_short_600ms_horvertflip\31.hand_grabbing_wrist_short_horvertflip_short_600ms.mp4	31.hand_grabbing_wrist_short_horvertflip_short_600ms.mp4	367.2864220976053	367.89474259898543	0.6083205013801489				
299.84423828125	0.2	614081	230	19	2	0	0	38	348	stimuli\Videos_short_600ms_vertflip\80.stroke_with_sharp_stick_all_over_the_hand_short_vertflip_short_600ms.mp4	80.stroke_with_sharp_stick_all_over_the_hand_short_vertflip_short_600ms.mp4	368.08640637962344	368.69472893372586	0.6083225541024149				
300.64453125	0.2	615720	231	19	2	0	0	39	6	stimuli\Videos_short_600ms\15.single_stroke_top_to_bottom_with_a_plastic_whisk_short_short_600ms.mp4	15.single_stroke_top_to_bottom_with_a_plastic_whisk_short_short_600ms.mp4	368.8864199862346	369.49471350898966	0.6082935227550479				
301.4443359375	0.2	617358	232	19	2	0	0	40	91	stimuli\Videos_short_600ms_horflip\10.single_touch_with_knife_short_horflip_short_600ms.mp4	10.single_touch_with_knife_short_horflip_short_600ms.mp4	369.6863896059567	370.29469691127	0.6083073053132466				
302.244140625	0.2	618996	233	19	2	0	0	41	31	stimuli\Videos_short_600ms\38.double_slap_with_pencil_short_short_600ms.mp4	38.double_slap_with_pencil_short_short_600ms.mp4	370.48633869846344	371.09468295276383	0.6083442543003912				
303.04443359375	0.2	620635	234	19	2	0	0	42	266	stimuli\Videos_short_600ms_horvertflip\88.repeated_stroke_with_plastic_brush_short_horvertflip_short_600ms.mp4	88.repeated_stroke_with_plastic_brush_short_horvertflip_short_600ms.mp4	371.28632855215346	371.89466694153543	0.60833838938197				
303.8525390625	0.2	622290	235	19	2	0	0	43	307	stimuli\Videos_short_600ms_vertflip\43.touch_top_to_bottom_with_sharp_wooden_stick_short_vertflip_short_600ms.mp4	43.touch_top_to_bottom_with_sharp_wooden_stick_short_vertflip_short_600ms.mp4	372.09468471223954	372.7030465612952	0.6083618490556546				
304.65234375	0.2	623928	236	19	2	0	0	44	343	stimuli\Videos_short_600ms_vertflip\76.tickle_with_fingers_from_top_to_bottom_short_vertflip_short_600ms.mp4	76.tickle_with_fingers_from_top_to_bottom_short_vertflip_short_600ms.mp4	372.8946505197637	373.5029692616681	0.6083187419044407				
305.45263671875	0.2	625567	237	19	2	0	0	45	222	stimuli\Videos_short_600ms_horvertflip\48.single_slap_with_hand_short_horvertflip_short_600ms.mp4	48.single_slap_with_hand_short_horvertflip_short_600ms.mp4	373.6946353882741	374.3029514909649	0.6083161026908783				
306.25244140625	0.2	627205	238	19	2	0	0	46	243	stimuli\Videos_short_600ms_horvertflip\67.single_touch_with_sponge_short_horvertflip_short_600ms.mp4	67.single_touch_with_sponge_short_horvertflip_short_600ms.mp4	374.49460236878167	375.10293899868793	0.6083366299062618				
307.05224609375	0.2	628843	239	19	2	0	0	47	70	stimuli\Videos_short_600ms\73.single_stroke_with_flat_hand_short_short_600ms.mp4	73.single_stroke_with_flat_hand_short_short_600ms.mp4	375.29458166561926	375.9029244536905	0.6083427880712406				
307.8525390625	0.2	630482	240	19	2	0	0	48	269	stimuli\Videos_short_600ms_horvertflip\90.repeated_touch_with_sponge_short_horvertflip_short_600ms.mp4	90.repeated_touch_with_sponge_short_horvertflip_short_600ms.mp4	376.0945650678996	376.7029096154456	0.6083445475460394				
308.65234375	0.2	632120	241	19	2	0	0	49	89	stimuli\Videos_short_600ms\90.repeated_touch_with_sponge_short_short_600ms.mp4	90.repeated_touch_with_sponge_short_short_600ms.mp4	376.8945514026391	377.5028906717589	0.6083392691198242				
309.4521484375	0.2	633758	242	19	2	0	0	50	322	stimuli\Videos_short_600ms_vertflip\57.single_touch_with_nail_file_short_vertflip_short_600ms.mp4	57.single_touch_with_nail_file_short_vertflip_short_600ms.mp4	377.6945623700367	378.3028764200071	0.6083140499704314				
310.25244140625	0.2	635397	243	19	2	0	0	51	355	stimuli\Videos_short_600ms_vertflip\87.single_stroke_top_to_bottom_with_plastic_brush_short_vertflip_short_600ms.mp4	87.single_stroke_top_to_bottom_with_plastic_brush_short_vertflip_short_600ms.mp4	378.4945463588092	379.1028665669437	0.6083202081345007				
311.05224609375	0.2	637035	244	19	2	0	0	52	33	stimuli\Videos_short_600ms\4.repeated_tap_with_finger_slow_short_short_600ms.mp4	4.repeated_tap_with_finger_slow_short_short_600ms.mp4	379.294520083974	379.90282621630377	0.6083061323297443				
311.85205078125	0.2	638673	245	19	2	0	0	53	61	stimuli\Videos_short_600ms\65.stroke_top_to_bottom_with_stanley_knife_short_short_600ms.mp4	65.stroke_top_to_bottom_with_stanley_knife_short_short_600ms.mp4	380.09451785530473	380.7028321985208	0.6083143432160796				
312.65234375	0.2	640312	246	19	2	0	0	54	78	stimuli\Videos_short_600ms\80.stroke_with_sharp_stick_all_over_the_hand_short_short_600ms.mp4	80.stroke_with_sharp_stick_all_over_the_hand_short_short_600ms.mp4	380.894497445388	381.5028208792274	0.6083234338393595				
313.4521484375	0.2	641950	247	19	2	0	0	55	214	stimuli\Videos_short_600ms_horvertflip\40.repeated_push_with_finger_short_horvertflip_short_600ms.mp4	40.repeated_push_with_finger_short_horvertflip_short_600ms.mp4	381.6944814341605	382.30278199481745	0.6083005606569714				
314.251953125	0.2	643588	248	19	2	0	0	56	263	stimuli\Videos_short_600ms_horvertflip\85.touch_top_to_bottom_with_fabric_short_horvertflip_short_600ms.mp4	85.touch_top_to_bottom_with_fabric_short_horvertflip_short_600ms.mp4	382.4944665959165	383.1027674498191	0.6083008539026196				
315.05224609375	0.2	645227	249	19	2	0	0	57	347	stimuli\Videos_short_600ms_vertflip\8.single_touch_with_hairbrush_short_vertflip_short_600ms.mp4	8.single_touch_with_hairbrush_short_vertflip_short_600ms.mp4	383.2944558631152	383.90278076318464	0.6083249000694195				
315.85205078125	0.2	646865	250	19	2	0	0	58	18	stimuli\Videos_short_600ms\26.single_touch_with_a_blunt_syringe_short_short_600ms.mp4	26.single_touch_with_a_blunt_syringe_short_short_600ms.mp4	384.0944248963451	384.7027615262514	0.6083366299062618				
316.65185546875	0.2	648503	251	19	2	0	0	59	121	stimuli\Videos_short_600ms_horflip\38.double_slap_with_pencil_short_horflip_short_600ms.mp4	38.double_slap_with_pencil_short_horflip_short_600ms.mp4	384.894423254168	385.50274404879383	0.6083207946257971				
317.4521484375	0.2	650142	252	19	2	0	0	60	283	stimuli\Videos_short_600ms_vertflip\21.repeated_touch_with_metal_chopstick_short_vertflip_short_600ms.mp4	21.repeated_touch_with_metal_chopstick_short_vertflip_short_600ms.mp4	385.6944072429396	386.3027168942208	0.6083096512811608				
318.251953125	0.2	651780	253	19	2	0	0	61	294	stimuli\Videos_short_600ms_vertflip\31.hand_grabbing_wrist_short_vertflip_short_600ms.mp4	31.hand_grabbing_wrist_short_vertflip_short_600ms.mp4	386.4943924046957	387.1027340197825	0.6083416150868288				
319.05224609375	0.2	653419	254	19	2	0	0	62	145	stimuli\Videos_short_600ms_horflip\6.single_touch_with_flat_hand_short_horflip_short_600ms.mp4	6.single_touch_with_flat_hand_short_horflip_short_600ms.mp4	387.29437932592737	387.90272416672	0.6083448407925971				
319.85205078125	0.2	655057	255	19	2	0	0	63	76	stimuli\Videos_short_600ms\79.long_with_soft_brush_all_over_the_hand_short_short_600ms.mp4	79.long_with_soft_brush_all_over_the_hand_short_short_600ms.mp4	388.0943659539126	388.7026800038821	0.6083140499695219				
320.65185546875	0.2	656695	256	19	2	0	0	64	324	stimuli\Videos_short_600ms_vertflip\59.single_push_with_long_side_pencil_short_vertflip_short_600ms.mp4	59.single_push_with_long_side_pencil_short_vertflip_short_600ms.mp4	388.8943473034715	389.5026660453759	0.6083187419044407				
321.4521484375	0.2	658334	257	19	2	0	1	65	367	stimuli\Targets_short_600ms_horflip\chopstick-silver-tap_short_horflip_short_600ms.mp4	chopstick-silver-tap_short_horflip_short_600ms.mp4	389.6943456612944	390.3026509138863	0.6083052525918902				
322.251953125	0.2	659972	258	19	2	0	0	66	156	stimuli\Videos_short_600ms_horflip\7.repeated_touch_with_hairbrush_short_horflip_short_600ms.mp4	7.repeated_touch_with_hairbrush_short_horflip_short_600ms.mp4	390.49429446055456	391.10263754187145	0.6083430813168889				
323.0517578125	0.2	661610	259	19	2	0	0	67	80	stimuli\Videos_short_600ms\82.repeated_touch_with_cotton_bud_short_short_600ms.mp4	82.repeated_touch_with_cotton_bud_short_short_600ms.mp4	391.2942790358193	391.9026194779226	0.6083404421033265				
323.85205078125	0.2	663249	260	19	2	0	0	68	292	stimuli\Videos_short_600ms_vertflip\3.single_push_with_finger_short_vertflip_short_600ms.mp4	3.single_push_with_finger_short_vertflip_short_600ms.mp4	392.09426742328014	392.7026028802029	0.6083354569227595				
324.65185546875	0.2	664887	261	19	2	0	0	69	344	stimuli\Videos_short_600ms_vertflip\77.tapping_with_all_fingers_short_vertflip_short_600ms.mp4	77.tapping_with_all_fingers_short_vertflip_short_600ms.mp4	392.8942572769711	393.5025898014346	0.6083325244635489				
325.45166015625	0.2	666525	262	19	2	0	0	70	157	stimuli\Videos_short_600ms_horflip\70.(long)stroke_with_finger_all_over_the_hand_short_horflip_short_600ms.mp4	70.(long)stroke_with_finger_all_over_the_hand_short_horflip_short_600ms.mp4	393.69424390495624	394.30257906863335	0.6083351636771113				
326.251953125	0.2	668164	263	19	2	0	0	71	117	stimuli\Videos_short_600ms_horflip\34.repeated_punch_with_hand_short_horflip_short_600ms.mp4	34.repeated_punch_with_hand_short_horflip_short_600ms.mp4	394.4942352248772	395.1025706818	0.6083354569227595				
327.0517578125	0.2	669802	264	19	2	0	1	72	370	stimuli\Targets_short_600ms_horflip\hand-pinch_short_horflip_short_600ms.mp4	hand-pinch_short_horflip_short_600ms.mp4	395.294236808405	395.90250276604183	0.6082659576368314				
327.8515625	0.2	671440	265	19	2	0	0	73	92	stimuli\Videos_short_600ms_horflip\11.single_touch_with_lighter_short_horflip_short_600ms.mp4	11.single_touch_with_lighter_short_horflip_short_600ms.mp4	396.0942137592747	396.70251256045594	0.6082988011812631				
328.65185546875	0.2	673079	266	19	2	0	0	74	146	stimuli\Videos_short_600ms_horflip\60.single_push_with_tip_of_pencil_short_horflip_short_600ms.mp4	60.single_push_with_tip_of_pencil_short_horflip_short_600ms.mp4	396.8941977480472	397.5024962559828	0.6082985079356149				
329.45166015625	0.2	674717	267	19	2	0	0	75	161	stimuli\Videos_short_600ms_horflip\74.fingers_walking_from_top_to_bottom_short_horflip_short_600ms.mp4	74.fingers_walking_from_top_to_bottom_short_horflip_short_600ms.mp4	397.69418672200027	398.3024893353786	0.6083026133783278				
330.25146484375	0.2	676355	268	19	2	0	0	76	231	stimuli\Videos_short_600ms_horvertflip\56.repeated_touch_with_nail_file_short_horvertflip_short_600ms.mp4	56.repeated_touch_with_nail_file_short_horvertflip_short_600ms.mp4	398.4941651391	399.102476549856	0.6083114107559595				
331.0517578125	0.2	677994	269	19	2	0	0	77	306	stimuli\Videos_short_600ms_vertflip\42.single_slap_with_plastic_whisk_short_vertflip_short_600ms.mp4	42.single_slap_with_plastic_whisk_short_vertflip_short_600ms.mp4	399.2941529400686	399.9024678697761	0.608314929707376				
331.8515625	0.2	679632	270	19	2	0	0	78	187	stimuli\Videos_short_600ms_horvertflip\16.repeated_touch_with_plastic_brush_short_horvertflip_short_600ms.mp4	16.repeated_touch_with_plastic_brush_short_horvertflip_short_600ms.mp4	400.0941360491033	400.7024574302214	0.608321381118003				
332.6513671875	0.2	681270	271	19	2	0	1	79	364	stimuli\Targets_short_600ms\hand-pinch_short_short_600ms.mp4	hand-pinch_short_short_600ms.mp4	400.8941065485624	401.5024572542734	0.6083507057110182				
333.45166015625	0.2	682909	272	19	2	0	0	80	241	stimuli\Videos_short_600ms_horvertflip\65.stroke_top_to_bottom_with_stanley_knife_short_horvertflip_short_600ms.mp4	65.stroke_top_to_bottom_with_stanley_knife_short_horvertflip_short_600ms.mp4	401.6941060793697	402.30242775373335	0.6083216743636513				
334.25146484375	0.2	684547	273	19	2	0	0	81	309	stimuli\Videos_short_600ms_vertflip\45.scratching_with_finger_nails_short_vertflip_short_600ms.mp4	45.scratching_with_finger_nails_short_vertflip_short_600ms.mp4	402.4940947600762	403.1023856436177	0.6082908835414855				
335.05126953125	0.2	686185	274	19	2	0	0	82	293	stimuli\Videos_short_600ms_vertflip\30.finger_pulling_back_another_finger_short_vertflip_short_600ms.mp4	30.finger_pulling_back_another_finger_short_vertflip_short_600ms.mp4	403.29407376366817	403.90239338531046	0.6083196216422948				
335.8515625	0.2	687824	275	19	2	0	0	83	94	stimuli\Videos_short_600ms_horflip\13.single_touch_with_pen_short_horflip_short_600ms.mp4	13.single_touch_with_pen_short_horflip_short_600ms.mp4	404.09405892542327	404.7023782538199	0.6083193283966466				
336.6513671875	0.2	689462	276	19	2	0	0	84	21	stimuli\Videos_short_600ms\29.single_pinch_with_tweezers_short_short_600ms.mp4	29.single_pinch_with_tweezers_short_short_600ms.mp4	404.8940420344579	405.50236400206813	0.608321967610209				
337.451171875	0.2	691100	277	19	2	0	0	85	286	stimuli\Videos_short_600ms_vertflip\24.single_stroke_top_to_bottom_with_a_spoon_short_vertflip_short_600ms.mp4	24.single_stroke_top_to_bottom_with_a_spoon_short_vertflip_short_600ms.mp4	405.6940107744422	406.30234799083973	0.6083372163975582				
338.25146484375	0.2	692739	278	19	2	0	0	86	335	stimuli\Videos_short_600ms_vertflip\69.stroke_with_soft_sock_short_vertflip_short_600ms.mp4	69.stroke_with_soft_sock_short_vertflip_short_600ms.mp4	406.49399740242734	407.1023340323336	0.6083366299062618				
339.05126953125	0.2	694377	279	19	2	0	0	87	275	stimuli\Videos_short_600ms_vertflip\14.repeated_touch_with_pencil_short_vertflip_short_600ms.mp4	14.repeated_touch_with_pencil_short_vertflip_short_600ms.mp4	407.2939591045088	407.90231831435176	0.6083592098430017				
339.8515625	0.2	696016	280	19	2	0	0	88	336	stimuli\Videos_short_600ms_vertflip\7.repeated_touch_with_hairbrush_short_vertflip_short_600ms.mp4	7.repeated_touch_with_hairbrush_short_vertflip_short_600ms.mp4	408.0939683124316	408.7023008368942	0.6083325244626394				
340.6513671875	0.2	697654	281	19	2	0	0	89	246	stimuli\Videos_short_600ms_horvertflip\7.repeated_touch_with_hairbrush_short_horvertflip_short_600ms.mp4	7.repeated_touch_with_hairbrush_short_horvertflip_short_600ms.mp4	408.8939710689429	409.5022924500609	0.608321381118003				
341.451171875	0.2	699292	282	19	2	0	0	90	189	stimuli\Videos_short_600ms_horvertflip\18.single_stroke_from_top_to_bottom_with_rolling_pin_short_horvertflip_short_600ms.mp4	18.single_stroke_from_top_to_bottom_with_rolling_pin_short_horvertflip_short_600ms.mp4	409.6939477265669	410.30224946020735	0.6083017336404737				
342.25146484375	0.2	700931	283	19	2	0	0	91	136	stimuli\Videos_short_600ms_horflip\51.repeated_touch_with_hammer_short_horflip_short_600ms.mp4	51.repeated_touch_with_hammer_short_horflip_short_600ms.mp4	410.49394021947137	411.1022366746847	0.608296455213349				
343.05126953125	0.2	702569	284	19	2	0	0	92	229	stimuli\Videos_short_600ms_horvertflip\54.repeated_touch_with_knife_short_horvertflip_short_600ms.mp4	54.repeated_touch_with_knife_short_horvertflip_short_600ms.mp4	411.2939265542109	411.90223004732707	0.6083034931161819				
343.85107421875	0.2	704207	285	19	2	0	0	93	200	stimuli\Videos_short_600ms_horvertflip\28.single_injection_with_sharp_needle_short_horvertflip_short_600ms.mp4	28.single_injection_with_sharp_needle_short_horvertflip_short_600ms.mp4	412.09395042442975	412.7022078779346	0.608257453504848				
344.6513671875	0.2	705846	286	19	2	0	0	94	45	stimuli\Videos_short_600ms\50.single_(long)hard_push_with_thumb_short_short_600ms.mp4	50.single_(long)hard_push_with_thumb_short_short_600ms.mp4	412.8938939452628	413.50221737910306	0.608323433840269				
345.451171875	0.2	707484	287	19	2	0	0	95	29	stimuli\Videos_short_600ms\36.single_slap_with_full_hand_short_short_600ms.mp4	36.single_slap_with_full_hand_short_short_600ms.mp4	413.6938785205275	414.3021787879379	0.6083002674104137				
346.2509765625	0.2	709122	288	19	2	0	0	96	88	stimuli\Videos_short_600ms\9.single_touch_with_hammer_short_short_600ms.mp4	9.single_touch_with_hammer_short_short_600ms.mp4	414.4938636822835	415.1021897553365	0.6083260730529219				
347.05126953125	0.2	710761	289	19	2	0	0	97	197	stimuli\Videos_short_600ms_horvertflip\25.single_touch_with_stanley_knife_short_horvertflip_short_600ms.mp4	25.single_touch_with_stanley_knife_short_horvertflip_short_600ms.mp4	415.29384884403953	415.9021684656818	0.6083196216422948	8.0	8.0	1.769256507200225	1.0
381.68310546875	0.2	781687	290	19	3	0	0	0	12	stimuli\Videos_short_600ms\20.single_touch_with_screwdriver_short_short_600ms.mp4	20.single_touch_with_screwdriver_short_short_600ms.mp4	449.92654394715464	450.53484919974653	0.6083052525918902				
382.4833984375	0.2	783326	291	19	3	0	0	1	16	stimuli\Videos_short_600ms\24.single_stroke_top_to_bottom_with_a_spoon_short_short_600ms.mp4	24.single_stroke_top_to_bottom_with_a_spoon_short_short_600ms.mp4	450.7265121006467	451.33481324779495	0.6083011471482678				
383.283203125	0.2	784964	292	19	3	0	0	2	250	stimuli\Videos_short_600ms_horvertflip\73.single_stroke_with_flat_hand_short_horvertflip_short_600ms.mp4	73.single_stroke_with_flat_hand_short_horvertflip_short_600ms.mp4	451.5264960894192	452.1348262679148	0.6083301784956348				
384.0830078125	0.2	786602	293	19	3	0	0	3	24	stimuli\Videos_short_600ms\31.hand_grabbing_wrist_short_short_600ms.mp4	31.hand_grabbing_wrist_short_short_600ms.mp4	452.3264827174043	452.9348008728175	0.6083181554131443				
384.88330078125	0.2	788241	294	19	3	0	0	4	150	stimuli\Videos_short_600ms_horflip\64.repeated_touch_with_screwdriver_short_horflip_short_600ms.mp4	64.repeated_touch_with_screwdriver_short_horflip_short_600ms.mp4	453.12646611968466	453.7347836886056	0.6083175689209384				
385.68310546875	0.2	789879	295	19	3	0	0	5	72	stimuli\Videos_short_600ms\75.(long)stroke_with_fingers_all_over_the_hand_short_short_600ms.mp4	75.(long)stroke_with_fingers_all_over_the_hand_short_short_600ms.mp4	453.92644834898147	454.5347711963286	0.6083228473471536				
386.48291015625	0.2	791517	296	19	3	0	1	6	371	stimuli\Targets_short_600ms_horflip\hand-stroke_short_horflip_short_600ms.mp4	hand-stroke_short_horflip_short_600ms.mp4	454.72648893421774	455.3347554783468	0.6082665441290374				
387.283203125	0.2	793156	297	19	3	0	0	7	42	stimuli\Videos_short_600ms\48.single_slap_with_hand_short_short_600ms.mp4	48.single_slap_with_hand_short_short_600ms.mp4	455.526382016752	456.13473858738143	0.6083565706294394				
388.0830078125	0.2	794794	298	19	3	0	0	8	358	stimuli\Videos_short_600ms_vertflip\9.single_touch_with_hammer_short_vertflip_short_600ms.mp4	9.single_touch_with_hammer_short_vertflip_short_600ms.mp4	456.3263812543128	456.9347234558918	0.6083422015790347				
388.8828125	0.2	796432	299	19	3	0	0	9	354	stimuli\Videos_short_600ms_vertflip\86.touch_top_to_bottom_with_hair_brush_short_vertflip_short_600ms.mp4	86.touch_top_to_bottom_with_hair_brush_short_vertflip_short_600ms.mp4	457.126364656593	457.7347086176478	0.608343961054743				
389.68310546875	0.2	798071	300	19	3	0	1	10	383	stimuli\Targets_short_600ms_vertflip\hand-stroke_short_horvertflip_short_600ms.mp4	hand-stroke_short_horvertflip_short_600ms.mp4	457.9263603752024	458.534695245633	0.6083348704305536				
390.48291015625	0.2	799709	301	19	3	0	0	11	54	stimuli\Videos_short_600ms\59.single_push_with_long_side_pencil_short_short_600ms.mp4	59.single_push_with_long_side_pencil_short_short_600ms.mp4	458.7263414315148	459.33468246011034	0.6083410285955324				
391.28271484375	0.2	801347	302	19	3	0	0	12	206	stimuli\Videos_short_600ms_horvertflip\33.scratch_top_to_bottom_with_scissors_short_horvertflip_short_600ms.mp4	33.scratch_top_to_bottom_with_scissors_short_horvertflip_short_600ms.mp4	459.52633128520574	460.1346602907179	0.6083290055121324				
392.0830078125	0.2	802986	303	19	3	0	1	13	378	stimuli\Targets_short_600ms_vertflip\brush-stroke_short_horvertflip_short_600ms.mp4	brush-stroke_short_horvertflip_short_600ms.mp4	460.32633638768493	460.9346023453227	0.6082659576377409				
392.8828125	0.2	804624	304	19	3	0	0	14	314	stimuli\Videos_short_600ms_vertflip\5.repeated_tap_with_finger_moving_from_top_to_bottom_short_vertflip_short_600ms.mp4	5.repeated_tap_with_finger_moving_from_top_to_bottom_short_vertflip_short_600ms.mp4	461.1263104060954	461.73459777068547	0.608287364590069				
393.68310546875	0.2	806263	305	19	3	0	0	15	168	stimuli\Videos_short_600ms_horflip\80.stroke_with_sharp_stick_all_over_the_hand_short_horflip_short_600ms.mp4	80.stroke_with_sharp_stick_all_over_the_hand_short_horflip_short_600ms.mp4	461.9262993800485	462.5345735485717	0.6082741685231667				
394.48291015625	0.2	807901	306	19	3	0	0	16	202	stimuli\Videos_short_600ms_horvertflip\3.single_push_with_finger_short_horvertflip_short_600ms.mp4	3.single_push_with_finger_short_horvertflip_short_600ms.mp4	462.7262821958375	463.334590087642	0.608307891804543				
395.28271484375	0.2	809539	307	19	3	0	0	17	215	stimuli\Videos_short_600ms_horvertflip\41.injection_with_blunt_syringe_short_horvertflip_short_600ms.mp4	41.injection_with_blunt_syringe_short_horvertflip_short_600ms.mp4	463.5262828996274	464.1345946036299	0.6083117040025172				
396.0830078125	0.2	811178	308	19	3	0	0	18	159	stimuli\Videos_short_600ms_horflip\72.(short)stroke_with_finger_all_over_the_hand_short_horflip_short_600ms.mp4	72.(short)stroke_with_finger_all_over_the_hand_short_horflip_short_600ms.mp4	464.32625222610295	464.9345709680074	0.6083187419044407				
396.8828125	0.2	812816	309	19	3	0	0	19	334	stimuli\Videos_short_600ms_vertflip\68.stroke_top_to_bottom_with_shawl_short_vertflip_short_600ms.mp4	68.stroke_top_to_bottom_with_shawl_short_vertflip_short_600ms.mp4	465.126238854089	465.7345435201887	0.6083046660996843				
397.6826171875	0.2	814454	310	19	3	0	0	20	274	stimuli\Videos_short_600ms_vertflip\13.single_touch_with_pen_short_vertflip_short_600ms.mp4	13.single_touch_with_pen_short_vertflip_short_600ms.mp4	465.9262243090907	466.5345433442408	0.6083190351500889				
398.48291015625	0.2	816093	311	19	3	0	0	21	84	stimuli\Videos_short_600ms\86.touch_top_to_bottom_with_hair_brush_short_short_600ms.mp4	86.touch_top_to_bottom_with_hair_brush_short_short_600ms.mp4	466.7262036059283	467.33454082232583	0.6083372163975582				
399.28271484375	0.2	817731	312	19	3	0	0	22	181	stimuli\Videos_short_600ms_horvertflip\10.single_touch_with_knife_short_horvertflip_short_600ms.mp4	10.single_touch_with_knife_short_horvertflip_short_600ms.mp4	467.526192873127	468.13451454749065	0.6083216743636513				
400.08251953125	0.2	819369	313	19	3	0	0	23	357	stimuli\Videos_short_600ms_vertflip\89.single_touch_with_plastic_brush_short_vertflip_short_600ms.mp4	89.single_touch_with_plastic_brush_short_vertflip_short_600ms.mp4	468.32617363619374	468.9344961902953	0.6083225541015054				
400.8828125	0.2	821008	314	19	3	0	0	24	11	stimuli\Videos_short_600ms\2.single_touch_with_finger_short_short_600ms.mp4	2.single_touch_with_finger_short_short_600ms.mp4	469.1261614371633	469.7344810588056	0.6083196216422948				
401.6826171875	0.2	822646	315	19	3	0	0	25	178	stimuli\Videos_short_600ms_horflip\9.single_touch_with_hammer_short_horflip_short_600ms.mp4	9.single_touch_with_hammer_short_horflip_short_600ms.mp4	469.92614278672227	470.5344688597743	0.6083260730520124				
402.482421875	0.2	824284	316	19	3	0	0	26	265	stimuli\Videos_short_600ms_horvertflip\87.single_stroke_top_to_bottom_with_plastic_brush_short_horvertflip_short_600ms.mp4	87.single_stroke_top_to_bottom_with_plastic_brush_short_horvertflip_short_600ms.mp4	470.7261256025104	471.3344516755633	0.6083260730529219				
403.28271484375	0.2	825923	317	19	3	0	0	27	217	stimuli\Videos_short_600ms_horvertflip\43.touch_top_to_bottom_with_sharp_wooden_stick_short_horvertflip_short_600ms.mp4	43.touch_top_to_bottom_with_sharp_wooden_stick_short_horvertflip_short_600ms.mp4	471.5260691233443	472.13443419810574	0.6083650747614229				
404.08251953125	0.2	827561	318	19	3	0	0	28	40	stimuli\Videos_short_600ms\46.scratching_top_to_bottom_with_finger_nails_short_short_600ms.mp4	46.scratching_top_to_bottom_with_finger_nails_short_short_600ms.mp4	472.32607921100407	472.93441935986175	0.6083401488576783				
404.88232421875	0.2	829199	319	19	3	0	1	29	362	stimuli\Targets_short_600ms\chopstickwood-tap_short_short_600ms.mp4	chopstickwood-tap_short_short_600ms.mp4	473.1260614403009	473.73440510810906	0.6083436678081853				
405.6826171875	0.2	830838	320	19	3	0	0	30	112	stimuli\Videos_short_600ms_horflip\3.single_push_with_finger_short_horflip_short_600ms.mp4	3.single_push_with_finger_short_horflip_short_600ms.mp4	473.9261064242264	474.5343914428495	0.6082850186230644				
406.482421875	0.2	832476	321	19	3	0	0	31	198	stimuli\Videos_short_600ms_horvertflip\26.single_touch_with_a_blunt_syringe_short_horvertflip_short_600ms.mp4	26.single_touch_with_a_blunt_syringe_short_horvertflip_short_600ms.mp4	474.7260408544362	475.3343487462416	0.6083078918054525				
407.2822265625	0.2	834114	322	19	3	0	0	32	186	stimuli\Videos_short_600ms_horvertflip\15.single_stroke_top_to_bottom_with_a_plastic_whisk_short_horvertflip_short_600ms.mp4	15.single_stroke_top_to_bottom_with_a_plastic_whisk_short_horvertflip_short_600ms.mp4	475.52604918262114	476.1343400661617	0.608290883540576				
408.08251953125	0.2	835753	323	19	3	0	0	33	86	stimuli\Videos_short_600ms\88.repeated_stroke_with_plastic_brush_short_short_600ms.mp4	88.repeated_stroke_with_plastic_brush_short_short_600ms.mp4	476.32602232129375	476.93431848326145	0.6082961619677008				
408.88232421875	0.2	837391	324	19	3	0	0	34	120	stimuli\Videos_short_600ms_horflip\37.single_stab_with_nail_file_short_horflip_short_600ms.mp4	37.single_stab_with_nail_file_short_horflip_short_600ms.mp4	477.12600631006626	477.7342837042943	0.6082773942280255				
409.68212890625	0.2	839029	325	19	3	0	0	35	272	stimuli\Videos_short_600ms_vertflip\11.single_touch_with_lighter_short_vertflip_short_600ms.mp4	11.single_touch_with_lighter_short_vertflip_short_600ms.mp4	477.9259920583136	478.5343143191694	0.6083222608558572				
410.482421875	0.2	840668	326	19	3	0	1	36	363	stimuli\Targets_short_600ms\finger-tap_short_short_600ms.mp4	finger-tap_short_short_600ms.mp4	478.7259760470861	479.3342871645964	0.6083111175103113				
411.2822265625	0.2	842306	327	19	3	0	0	37	359	stimuli\Videos_short_600ms_vertflip\90.repeated_touch_with_sponge_short_vertflip_short_600ms.mp4	90.repeated_touch_with_sponge_short_vertflip_short_600ms.mp4	479.5259600358577	480.134295786027	0.6083357501693172				
412.08203125	0.2	843944	328	19	3	0	0	38	147	stimuli\Videos_short_600ms_horflip\61.single_hit_with_rolling_pin_short_horflip_short_600ms.mp4	61.single_hit_with_rolling_pin_short_horflip_short_600ms.mp4	480.3259487165651	480.93427830856945	0.6083295920043383				
412.88232421875	0.2	845583	329	19	3	0	0	39	341	stimuli\Videos_short_600ms_vertflip\74.fingers_walking_from_top_to_bottom_short_vertflip_short_600ms.mp4	74.fingers_walking_from_top_to_bottom_short_vertflip_short_600ms.mp4	481.1259291863862	481.7342523269799	0.6083231405937113				
413.68212890625	0.2	847221	330	19	3	0	0	40	67	stimuli\Videos_short_600ms\70.(long)stroke_with_finger_all_over_the_hand_short_short_600ms.mp4	70.(long)stroke_with_finger_all_over_the_hand_short_short_600ms.mp4	481.9259166941092	482.5342536172621	0.6083369231528195				
414.48193359375	0.2	848859	331	19	3	0	0	41	211	stimuli\Videos_short_600ms_horvertflip\38.double_slap_with_pencil_short_horvertflip_short_600ms.mp4	38.double_slap_with_pencil_short_horvertflip_short_600ms.mp4	482.7259018558652	483.3342214775075	0.6083196216422948				
415.2822265625	0.2	850498	332	19	3	0	0	42	102	stimuli\Videos_short_600ms_horflip\20.single_touch_with_screwdriver_short_horflip_short_600ms.mp4	20.single_touch_with_screwdriver_short_horflip_short_600ms.mp4	483.5258870176213	484.13420663926354	0.6083196216422948				
416.08203125	0.2	852136	333	19	3	0	0	43	109	stimuli\Videos_short_600ms_horflip\27.single_push_with_a_plastic_whisk_short_horflip_short_600ms.mp4	27.single_push_with_a_plastic_whisk_short_horflip_short_600ms.mp4	484.32586866042584	484.93419004154384	0.608321381118003				
416.88232421875	0.2	853775	334	19	3	0	0	44	183	stimuli\Videos_short_600ms_horvertflip\12.repeated_touch_with_nail_file_short_horvertflip_short_600ms.mp4	12.repeated_touch_with_nail_file_short_horvertflip_short_600ms.mp4	485.12586408578954	485.7341784290056	0.6083143432160796				
417.68212890625	0.2	855413	335	19	3	0	0	45	328	stimuli\Videos_short_600ms_vertflip\62.touch_top_to_bottom_with_scissors_short_vertflip_short_600ms.mp4	62.touch_top_to_bottom_with_scissors_short_vertflip_short_600ms.mp4	485.9258263743632	486.5341612447937	0.6083348704305536				
418.48193359375	0.2	857051	336	19	3	0	1	46	366	stimuli\Targets_short_600ms_horflip\brush-stroke_short_horflip_short_600ms.mp4	brush-stroke_short_horflip_short_600ms.mp4	486.7258505378277	487.3341443538284	0.6082938160006961				
419.2822265625	0.2	858690	337	19	3	0	0	47	85	stimuli\Videos_short_600ms\87.single_stroke_top_to_bottom_with_plastic_brush_short_short_600ms.mp4	87.single_stroke_top_to_bottom_with_plastic_brush_short_short_600ms.mp4	487.5257659070521	488.1341289290922	0.6083630220400664				
420.08203125	0.2	860328	338	19	3	0	0	48	201	stimuli\Videos_short_600ms_horvertflip\29.single_pinch_with_tweezers_short_horvertflip_short_600ms.mp4	29.single_pinch_with_tweezers_short_horvertflip_short_600ms.mp4	488.3257780474332	488.9341152638317	0.6083372163984677				
420.8818359375	0.2	861966	339	19	3	0	0	49	331	stimuli\Videos_short_600ms_vertflip\65.stroke_top_to_bottom_with_stanley_knife_short_vertflip_short_600ms.mp4	65.stroke_top_to_bottom_with_stanley_knife_short_vertflip_short_600ms.mp4	489.1257808039454	489.7340916282101	0.6083108242646631				
421.68212890625	0.2	863605	340	19	3	0	0	50	310	stimuli\Videos_short_600ms_vertflip\46.scratching_top_to_bottom_with_finger_nails_short_vertflip_short_600ms.mp4	46.scratching_top_to_bottom_with_finger_nails_short_vertflip_short_600ms.mp4	489.9257466114695	490.53407033855547	0.6083237270859172				
422.490234375	0.2	865260	341	19	3	0	0	51	123	stimuli\Videos_short_600ms_horflip\4.repeated_tap_with_finger_slow_short_horflip_short_600ms.mp4	4.repeated_tap_with_finger_slow_short_horflip_short_600ms.mp4	490.73403356551535	491.3424001065068	0.6083665409914829				
423.2900390625	0.2	866898	342	19	3	0	0	52	330	stimuli\Videos_short_600ms_vertflip\64.repeated_touch_with_screwdriver_short_vertflip_short_600ms.mp4	64.repeated_touch_with_screwdriver_short_vertflip_short_600ms.mp4	491.5340310436004	492.14239729134624	0.6083662477458347				
424.09033203125	0.2	868537	343	19	3	0	0	53	64	stimuli\Videos_short_600ms\68.stroke_top_to_bottom_with_shawl_short_short_600ms.mp4	68.stroke_top_to_bottom_with_shawl_short_short_600ms.mp4	492.3340068214866	492.942378054413	0.6083712329264017				
424.89013671875	0.2	870175	344	19	3	0	0	54	9	stimuli\Videos_short_600ms\18.single_stroke_from_top_to_bottom_with_rolling_pin_short_short_600ms.mp4	18.single_stroke_from_top_to_bottom_with_rolling_pin_short_short_600ms.mp4	493.1339949157018	493.7423579377419	0.6083630220400664				
425.68994140625	0.2	871813	345	19	3	0	0	55	138	stimuli\Videos_short_600ms_horflip\53.touch_top_to_bottom_with_knife_short_horflip_short_600ms.mp4	53.touch_top_to_bottom_with_knife_short_horflip_short_600ms.mp4	493.9340029506402	494.5423178803476	0.608314929707376				
426.490234375	0.2	873452	346	19	3	0	0	56	133	stimuli\Videos_short_600ms_horflip\49.repeated_slap_with_hand_short_horflip_short_600ms.mp4	49.repeated_slap_with_hand_short_horflip_short_600ms.mp4	494.733974329838	495.3423294342374	0.6083551043993793				
427.2900390625	0.2	875090	347	19	3	0	0	57	345	stimuli\Videos_short_600ms_vertflip\78.single_stroke_top_to_bottom_with_soft_brush_short_vertflip_short_600ms.mp4	78.single_stroke_top_to_bottom_with_soft_brush_short_vertflip_short_600ms.mp4	495.53398705671134	496.1422908430732	0.6083037863618301				
428.08984375	0.2	876728	348	19	3	0	0	58	26	stimuli\Videos_short_600ms\33.scratch_top_to_bottom_with_scissors_short_short_600ms.mp4	33.scratch_top_to_bottom_with_scissors_short_short_600ms.mp4	496.333981015845	496.94229008063394	0.6083090647889549				
428.89013671875	0.2	878367	349	19	3	0	0	59	37	stimuli\Videos_short_600ms\43.touch_top_to_bottom_with_sharp_wooden_stick_short_short_600ms.mp4	43.touch_top_to_bottom_with_sharp_wooden_stick_short_short_600ms.mp4	497.13396353838743	497.7422767086191	0.6083131702316678				
429.68994140625	0.2	880005	350	19	3	0	0	60	35	stimuli\Videos_short_600ms\41.injection_with_blunt_syringe_short_short_600ms.mp4	41.injection_with_blunt_syringe_short_short_600ms.mp4	497.9339484068978	498.5422565919489	0.6083081850511007				
430.48974609375	0.2	881643	351	19	3	0	0	61	318	stimuli\Videos_short_600ms_vertflip\53.touch_top_to_bottom_with_knife_short_vertflip_short_600ms.mp4	53.touch_top_to_bottom_with_knife_short_vertflip_short_600ms.mp4	498.73392799698104	499.3422303171128	0.6083023201317701				
431.2900390625	0.2	883282	352	19	3	0	0	62	116	stimuli\Videos_short_600ms_horflip\33.scratch_top_to_bottom_with_scissors_short_horflip_short_600ms.mp4	33.scratch_top_to_bottom_with_scissors_short_horflip_short_600ms.mp4	499.5339128654905	500.14224480346184	0.608331937971343				
432.08984375	0.2	884920	353	19	3	0	0	63	339	stimuli\Videos_short_600ms_vertflip\72.(short)stroke_with_finger_all_over_the_hand_short_vertflip_short_600ms.mp4	72.(short)stroke_with_finger_all_over_the_hand_short_vertflip_short_600ms.mp4	500.3339035989193	500.9422243935451	0.6083207946257971				
432.89013671875	0.2	886559	354	19	3	0	0	64	59	stimuli\Videos_short_600ms\63.stroke_top_to_bottom_with_screwdriver_short_short_600ms.mp4	63.stroke_top_to_bottom_with_screwdriver_short_short_600ms.mp4	501.1338814295268	501.7422075025798	0.6083260730529219				
433.68994140625	0.2	888197	355	19	3	0	0	65	50	stimuli\Videos_short_600ms\55.touch_top_to_bottom_with_nail_file_short_short_600ms.mp4	55.touch_top_to_bottom_with_nail_file_short_short_600ms.mp4	501.93386688452847	502.54218855889303	0.6083216743645607				
434.48974609375	0.2	889835	356	19	3	0	0	66	148	stimuli\Videos_short_600ms_horflip\62.touch_top_to_bottom_with_scissors_short_horflip_short_600ms.mp4	62.touch_top_to_bottom_with_scissors_short_horflip_short_600ms.mp4	502.7338555652359	503.3421716679268	0.6083161026908783				
435.29833984375	0.2	891491	357	19	3	0	0	67	166	stimuli\Videos_short_600ms_horflip\79.long_with_soft_brush_all_over_the_hand_short_horflip_short_600ms.mp4	79.long_with_soft_brush_all_over_the_hand_short_horflip_short_600ms.mp4	503.54216861816894	504.150479149188	0.6083105310190149				
436.09814453125	0.2	893129	358	19	3	0	0	68	258	stimuli\Videos_short_600ms_horvertflip\80.stroke_with_sharp_stick_all_over_the_hand_short_horvertflip_short_600ms.mp4	80.stroke_with_sharp_stick_all_over_the_hand_short_horvertflip_short_600ms.mp4	504.34215671238417	504.9504798529779	0.6083231405937113				
436.89794921875	0.2	894767	359	19	3	0	0	69	209	stimuli\Videos_short_600ms_horvertflip\36.single_slap_with_full_hand_short_horvertflip_short_600ms.mp4	36.single_slap_with_full_hand_short_horvertflip_short_600ms.mp4	505.1421380619431	505.75047967703085	0.6083416150877383				
437.6982421875	0.2	896406	360	19	3	0	1	70	378	stimuli\Targets_short_600ms_vertflip\brush-stroke_short_horvertflip_short_600ms.mp4	brush-stroke_short_horvertflip_short_600ms.mp4	505.94212381019133	506.5504448980637	0.6083210878723548				
438.498046875	0.2	898044	361	19	3	0	0	71	44	stimuli\Videos_short_600ms\5.repeated_tap_with_finger_moving_from_top_to_bottom_short_short_600ms.mp4	5.repeated_tap_with_finger_moving_from_top_to_bottom_short_short_600ms.mp4	506.74210897194735	507.350430646311	0.6083216743636513				
439.2978515625	0.2	899682	362	19	3	0	0	72	279	stimuli\Videos_short_600ms_vertflip\18.single_stroke_from_top_to_bottom_with_rolling_pin_short_vertflip_short_600ms.mp4	18.single_stroke_from_top_to_bottom_with_rolling_pin_short_vertflip_short_600ms.mp4	507.5420932539655	508.1504175675427	0.6083243135772136				
440.09814453125	0.2	901321	363	19	3	0	0	73	308	stimuli\Videos_short_600ms_vertflip\44.pushing_top_to_bottom_with_finger_short_vertflip_short_600ms.mp4	44.pushing_top_to_bottom_with_finger_short_vertflip_short_600ms.mp4	508.3420942510011	508.950400969823	0.6083067188219502				
440.89794921875	0.2	902959	364	19	3	0	0	74	312	stimuli\Videos_short_600ms_vertflip\48.single_slap_with_hand_short_vertflip_short_600ms.mp4	48.single_slap_with_hand_short_vertflip_short_600ms.mp4	509.14206152475526	509.7503843721033	0.6083228473480631				
441.69775390625	0.2	904597	365	19	3	0	1	75	362	stimuli\Targets_short_600ms\chopstickwood-tap_short_short_600ms.mp4	chopstickwood-tap_short_short_600ms.mp4	509.9420446337899	510.5503677743836	0.6083231405937113				
442.498046875	0.2	906236	366	19	3	0	0	76	333	stimuli\Videos_short_600ms_vertflip\67.single_touch_with_sponge_short_vertflip_short_600ms.mp4	67.single_touch_with_sponge_short_vertflip_short_600ms.mp4	510.7420130805276	511.35035586859885	0.6083427880712406				
443.2978515625	0.2	907874	367	19	3	0	0	77	223	stimuli\Videos_short_600ms_horvertflip\49.repeated_slap_with_hand_short_horvertflip_short_600ms.mp4	49.repeated_slap_with_hand_short_horvertflip_short_600ms.mp4	511.5420049869399	512.1503392708792	0.6083342839392571				
444.09765625	0.2	909512	368	19	3	0	0	78	212	stimuli\Videos_short_600ms_horvertflip\39.single_stab_with_scissors_short_horvertflip_short_600ms.mp4	39.single_stab_with_scissors_short_horvertflip_short_600ms.mp4	512.341957598398	512.9503212069294	0.6083636085313628				
444.89794921875	0.2	911151	369	19	3	0	0	79	327	stimuli\Videos_short_600ms_vertflip\61.single_hit_with_rolling_pin_short_vertflip_short_600ms.mp4	61.single_hit_with_rolling_pin_short_vertflip_short_600ms.mp4	513.1419627008772	513.7503084214077	0.6083457205304512				
445.69775390625	0.2	912789	370	19	3	0	0	80	58	stimuli\Videos_short_600ms\62.touch_top_to_bottom_with_scissors_short_short_600ms.mp4	62.touch_top_to_bottom_with_scissors_short_short_600ms.mp4	513.9427818540589	514.5502927034249	0.6075108493660082				
446.49755859375	0.2	914427	371	19	3	0	1	81	369	stimuli\Targets_short_600ms_horflip\finger-tap_short_horflip_short_600ms.mp4	finger-tap_short_horflip_short_600ms.mp4	514.7424245045686	515.350279331411	0.6078548268424129				
447.2978515625	0.2	916066	372	19	3	0	0	82	19	stimuli\Videos_short_600ms\27.single_push_with_a_plastic_whisk_short_short_600ms.mp4	27.single_push_with_a_plastic_whisk_short_short_600ms.mp4	515.5421032243266	516.1502422064759	0.6081389821492849				
448.09765625	0.2	917704	373	19	3	0	0	83	170	stimuli\Videos_short_600ms_horflip\82.repeated_touch_with_cotton_bud_short_horflip_short_600ms.mp4	82.repeated_touch_with_cotton_bud_short_horflip_short_600ms.mp4	516.3419335522312	516.9502009760981	0.6082674238668915				
448.8974609375	0.2	919342	374	19	3	0	0	84	97	stimuli\Videos_short_600ms_horflip\16.repeated_touch_with_plastic_brush_short_horflip_short_600ms.mp4	16.repeated_touch_with_plastic_brush_short_horflip_short_600ms.mp4	517.1419140220523	517.7502274855306	0.6083134634782255				
449.69775390625	0.2	920981	375	19	3	0	0	85	251	stimuli\Videos_short_600ms_horvertflip\74.fingers_walking_from_top_to_bottom_short_horvertflip_short_600ms.mp4	74.fingers_walking_from_top_to_bottom_short_horvertflip_short_600ms.mp4	517.9418956648569	518.5501959322683	0.6083002674113231				
