onset	duration	onsetsample	eventnumber	subjectnr	sequencenumber	blocksequencenumber	istarget	presentationnumber	stimnumber	stim	stimname	time_stimon	time_stimoff	stimdur	cresp	resp	rt	correct
42.0380859375	0.2	86094	0	29	0	0	0	0	55	stimuli\Videos_short_600ms\6.single_touch_with_flat_hand_short_short_600ms.mp4	6.single_touch_with_flat_hand_short_short_600ms.mp4	57.73642245367227	58.344673186716136	0.6082507330438602				
42.837890625	0.2	87732	1	29	0	0	0	1	352	stimuli\Videos_short_600ms_vertflip\84.single_touch_with_cotton_bud_short_vertflip_short_600ms.mp4	84.single_touch_with_cotton_bud_short_vertflip_short_600ms.mp4	58.53641875876292	59.14465952141563	0.6082407626527129				
43.63818359375	0.2	89371	2	29	0	0	0	2	41	stimuli\Videos_short_600ms\47.(long)scratching_with_finger_nails_short_short_600ms.mp4	47.(long)scratching_with_finger_nails_short_short_600ms.mp4	59.336511835294	59.94466257118256	0.6081507358885574				
44.43798828125	0.2	91009	3	29	0	0	0	3	282	stimuli\Videos_short_600ms_vertflip\20.single_touch_with_screwdriver_short_vertflip_short_600ms.mp4	20.single_touch_with_screwdriver_short_vertflip_short_600ms.mp4	60.13637999153707	60.744657996532624	0.6082780049955545				
45.23779296875	0.2	92647	4	29	0	0	0	4	265	stimuli\Videos_short_600ms_horvertflip\87.single_stroke_top_to_bottom_with_plastic_brush_short_horvertflip_short_600ms.mp4	87.single_stroke_top_to_bottom_with_plastic_brush_short_horvertflip_short_600ms.mp4	60.93637072493857	61.54464843668666	0.6082777117480873				
46.0380859375	0.2	94286	5	29	0	0	0	5	119	stimuli\Videos_short_600ms_horflip\36.single_slap_with_full_hand_short_horflip_short_600ms.mp4	36.single_slap_with_full_hand_short_horflip_short_600ms.mp4	61.73633594586954	62.344640636321856	0.6083046904523144				
46.837890625	0.2	95924	6	29	0	0	0	6	64	stimuli\Videos_short_600ms\68.stroke_top_to_bottom_with_shawl_short_short_600ms.mp4	68.stroke_top_to_bottom_with_shawl_short_short_600ms.mp4	62.536322867062154	63.14461846686481	0.6082955998026591				
47.6376953125	0.2	97562	7	29	0	0	0	7	11	stimuli\Videos_short_600ms\2.single_touch_with_finger_short_short_600ms.mp4	2.single_touch_with_finger_short_short_600ms.mp4	63.336336473713345	63.944603042084054	0.6082665683707091				
48.43798828125	0.2	99201	8	29	0	0	0	8	9	stimuli\Videos_short_600ms\18.single_stroke_from_top_to_bottom_with_rolling_pin_short_short_600ms.mp4	18.single_stroke_from_top_to_bottom_with_rolling_pin_short_short_600ms.mp4	64.13632046243856	64.74459436197867	0.6082738995401087				
49.23779296875	0.2	100839	9	29	0	0	0	9	83	stimuli\Videos_short_600ms\85.touch_top_to_bottom_with_fabric_short_short_600ms.mp4	85.touch_top_to_bottom_with_fabric_short_short_600ms.mp4	64.93628714960323	65.54458274940589	0.6082955998026591				
50.03759765625	0.2	102477	10	29	0	0	0	10	120	stimuli\Videos_short_600ms_horflip\37.single_stab_with_nail_file_short_horflip_short_600ms.mp4	37.single_stab_with_nail_file_short_horflip_short_600ms.mp4	65.73655998641698	66.34456996384597	0.608009977428992				
50.837890625	0.2	104116	11	29	0	0	0	11	150	stimuli\Videos_short_600ms_horflip\64.repeated_touch_with_screwdriver_short_horflip_short_600ms.mp4	64.repeated_touch_with_screwdriver_short_horflip_short_600ms.mp4	66.53626363121111	67.14455923101286	0.6082955998017496				
51.6376953125	0.2	105754	12	29	0	0	0	12	116	stimuli\Videos_short_600ms_horflip\33.scratch_top_to_bottom_with_scissors_short_horflip_short_600ms.mp4	33.scratch_top_to_bottom_with_scissors_short_horflip_short_600ms.mp4	67.3362294386352	67.94454439272613	0.608314954090929				
52.4375	0.2	107392	13	29	0	0	0	13	135	stimuli\Videos_short_600ms_horflip\50.single_(long)hard_push_with_thumb_short_horflip_short_600ms.mp4	50.single_(long)hard_push_with_thumb_short_horflip_short_600ms.mp4	68.13623952632497	68.74454861547929	0.6083090891543179				
53.23779296875	0.2	109031	14	29	0	0	0	14	213	stimuli\Videos_short_600ms_horvertflip\4.repeated_tap_with_finger_slow_short_horvertflip_short_600ms.mp4	4.repeated_tap_with_finger_slow_short_horvertflip_short_600ms.mp4	68.93622644751758	69.54452908524308	0.608302637725501				
54.03759765625	0.2	110669	15	29	0	0	1	15	381	stimuli\Targets_short_600ms_vertflip\finger-tap_short_horvertflip_short_600ms.mp4	finger-tap_short_horvertflip_short_600ms.mp4	69.736810712423	70.34451541994258	0.6077047075195878				
54.83740234375	0.2	112307	16	29	0	0	0	16	355	stimuli\Videos_short_600ms_vertflip\87.single_stroke_top_to_bottom_with_plastic_brush_short_vertflip_short_600ms.mp4	87.single_stroke_top_to_bottom_with_plastic_brush_short_vertflip_short_600ms.mp4	70.53619207899374	71.14451700347581	0.6083249244820763				
55.6376953125	0.2	113946	17	29	0	0	1	17	374	stimuli\Targets_short_600ms_horvertflip\chopstickwood-tap_short_vertflip_short_600ms.mp4	chopstickwood-tap_short_vertflip_short_600ms.mp4	71.33620070044981	71.94447284050875	0.6082721400589435				
56.4375	0.2	115584	18	29	0	0	0	18	329	stimuli\Videos_short_600ms_vertflip\63.stroke_top_to_bottom_with_screwdriver_short_vertflip_short_600ms.mp4	63.stroke_top_to_bottom_with_screwdriver_short_vertflip_short_600ms.mp4	72.13623659385667	72.74445389676657	0.6082173029099067				
57.2373046875	0.2	117222	19	29	0	0	0	19	78	stimuli\Videos_short_600ms\80.stroke_with_sharp_stick_all_over_the_hand_short_short_600ms.mp4	80.stroke_with_sharp_stick_all_over_the_hand_short_short_600ms.mp4	72.93637131143169	73.54449184290115	0.6081205314694671				
58.03759765625	0.2	118861	20	29	0	0	0	20	263	stimuli\Videos_short_600ms_horvertflip\85.touch_top_to_bottom_with_fabric_short_horvertflip_short_600ms.mp4	85.touch_top_to_bottom_with_fabric_short_horvertflip_short_600ms.mp4	73.73618433727825	74.34447436539176	0.6082900281135153				
58.83740234375	0.2	120499	21	29	0	0	0	21	248	stimuli\Videos_short_600ms_horvertflip\71.single_stroke_with_finger_top_to_bottom_short_horvertflip_short_600ms.mp4	71.single_stroke_with_finger_top_to_bottom_short_horvertflip_short_600ms.mp4	74.5361401743121	75.14447418944383	0.6083340151317316				
59.63720703125	0.2	122137	22	29	0	0	0	22	158	stimuli\Videos_short_600ms_horflip\71.single_stroke_with_finger_top_to_bottom_short_horflip_short_600ms.mp4	71.single_stroke_with_finger_top_to_bottom_short_horflip_short_600ms.mp4	75.33615466070387	75.9444540727145	0.6082994120106378				
60.4375	0.2	123776	23	29	0	0	0	23	331	stimuli\Videos_short_600ms_vertflip\65.stroke_top_to_bottom_with_stanley_knife_short_vertflip_short_600ms.mp4	65.stroke_top_to_bottom_with_stanley_knife_short_vertflip_short_600ms.mp4	76.13619671229299	76.74446240092311	0.6082656886301265				
61.2373046875	0.2	125414	24	29	0	0	0	24	159	stimuli\Videos_short_600ms_horflip\72.(short)stroke_with_finger_all_over_the_hand_short_horflip_short_600ms.mp4	72.(short)stroke_with_finger_all_over_the_hand_short_horflip_short_600ms.mp4	76.93617161036764	77.54446222497518	0.6082906146075402				
62.037109375	0.2	127052	25	29	0	0	0	25	157	stimuli\Videos_short_600ms_horflip\70.(long)stroke_with_finger_all_over_the_hand_short_horflip_short_600ms.mp4	70.(long)stroke_with_finger_all_over_the_hand_short_horflip_short_600ms.mp4	77.73611542428262	78.34444093525781	0.6083255109751917				
62.83740234375	0.2	128691	26	29	0	0	0	26	129	stimuli\Videos_short_600ms_horflip\45.scratching_with_finger_nails_short_horflip_short_600ms.mp4	45.scratching_with_finger_nails_short_horflip_short_600ms.mp4	78.53611964703668	79.14442639021763	0.6083067431809468				
63.63720703125	0.2	130329	27	29	0	0	0	27	259	stimuli\Videos_short_600ms_horvertflip\81.single_stroke_top_to_bottom_with_cotton_pad_short_horvertflip_short_600ms.mp4	81.single_stroke_top_to_bottom_with_cotton_pad_short_horvertflip_short_600ms.mp4	79.33609073290336	79.94441331141024	0.6083225785068862				
64.4375	0.2	131968	28	29	0	0	0	28	194	stimuli\Videos_short_600ms_horvertflip\22.single_touch_with_metal_chopstick_short_horvertflip_short_600ms.mp4	22.single_touch_with_metal_chopstick_short_horvertflip_short_600ms.mp4	80.13607560136916	80.74440345831863	0.6083278569494723				
65.2373046875	0.2	133606	29	29	0	0	0	29	240	stimuli\Videos_short_600ms_horvertflip\64.repeated_touch_with_screwdriver_short_horvertflip_short_600ms.mp4	64.repeated_touch_with_screwdriver_short_horvertflip_short_600ms.mp4	80.93616281296454	81.54438979301813	0.6082269800535869				
66.037109375	0.2	135244	30	29	0	0	0	30	170	stimuli\Videos_short_600ms_horflip\82.repeated_touch_with_cotton_bud_short_horflip_short_600ms.mp4	82.repeated_touch_with_cotton_bud_short_horflip_short_600ms.mp4	81.73604739102757	82.34437730070476	0.6083299096771952				
66.83740234375	0.2	136883	31	29	0	0	0	31	44	stimuli\Videos_short_600ms\5.repeated_tap_with_finger_moving_from_top_to_bottom_short_short_600ms.mp4	5.repeated_tap_with_finger_moving_from_top_to_bottom_short_short_600ms.mp4	82.53641348032033	83.14433196475056	0.607918484430229				
67.63720703125	0.2	138521	32	29	0	0	1	32	370	stimuli\Targets_short_600ms_horflip\hand-pinch_short_horflip_short_600ms.mp4	hand-pinch_short_horflip_short_600ms.mp4	83.33602445912857	83.94435642153348	0.6083319624049182				
68.43701171875	0.2	140159	33	29	0	0	0	33	108	stimuli\Videos_short_600ms_horflip\26.single_touch_with_a_blunt_syringe_short_horflip_short_600ms.mp4	26.single_touch_with_a_blunt_syringe_short_horflip_short_600ms.mp4	84.13607296214741	84.74434246298551	0.6082695008381052				
69.2373046875	0.2	141798	34	29	0	0	0	34	330	stimuli\Videos_short_600ms_vertflip\64.repeated_touch_with_screwdriver_short_vertflip_short_600ms.mp4	64.repeated_touch_with_screwdriver_short_vertflip_short_600ms.mp4	84.93601413684155	85.54433143690676	0.6083173000652096				
70.037109375	0.2	143436	35	29	0	0	0	35	295	stimuli\Videos_short_600ms_vertflip\32.single_(long)pinch_with_fingers_short_vertflip_short_600ms.mp4	32.single_(long)pinch_with_fingers_short_vertflip_short_600ms.mp4	85.7359758388111	86.3443248095291	0.6083489707179979				
70.8369140625	0.2	145074	36	29	0	0	0	36	244	stimuli\Videos_short_600ms_horvertflip\68.stroke_top_to_bottom_with_shawl_short_horvertflip_short_600ms.mp4	68.stroke_top_to_bottom_with_shawl_short_horvertflip_short_600ms.mp4	86.53596393299085	87.14431231721574	0.6083483842248825				
71.63720703125	0.2	146713	37	29	0	0	0	37	111	stimuli\Videos_short_600ms_horflip\29.single_pinch_with_tweezers_short_horflip_short_600ms.mp4	29.single_pinch_with_tweezers_short_horflip_short_600ms.mp4	87.33597900587574	87.94424879996131	0.6082697940855724				
72.43701171875	0.2	148351	38	29	0	0	0	38	209	stimuli\Videos_short_600ms_horvertflip\36.single_slap_with_full_hand_short_horvertflip_short_600ms.mp4	36.single_slap_with_full_hand_short_horvertflip_short_600ms.mp4	88.13596006213356	88.74423748063509	0.6082774185015296				
73.23681640625	0.2	149989	39	29	0	0	0	39	350	stimuli\Videos_short_600ms_vertflip\82.repeated_touch_with_cotton_bud_short_vertflip_short_600ms.mp4	82.repeated_touch_with_cotton_bud_short_vertflip_short_600ms.mp4	88.93594581033904	89.54422528156829	0.6082794712292525				
74.037109375	0.2	151628	40	29	0	0	0	40	312	stimuli\Videos_short_600ms_vertflip\48.single_slap_with_hand_short_vertflip_short_600ms.mp4	48.single_slap_with_hand_short_vertflip_short_600ms.mp4	89.73593449101281	90.34423712873922	0.6083026377264105				
74.8369140625	0.2	153266	41	29	0	0	0	41	275	stimuli\Videos_short_600ms_vertflip\14.repeated_touch_with_pencil_short_vertflip_short_600ms.mp4	14.repeated_touch_with_pencil_short_vertflip_short_600ms.mp4	90.53592141220632	91.14423226084182	0.6083108486354831				
75.63671875	0.2	154904	42	29	0	0	0	42	149	stimuli\Videos_short_600ms_horflip\63.stroke_top_to_bottom_with_screwdriver_short_horflip_short_600ms.mp4	63.stroke_top_to_bottom_with_screwdriver_short_horflip_short_600ms.mp4	91.33588780612445	91.94423794982958	0.6083501437051382				
76.43701171875	0.2	156543	43	29	0	0	0	43	290	stimuli\Videos_short_600ms_vertflip\28.single_injection_with_sharp_needle_short_vertflip_short_600ms.mp4	28.single_injection_with_sharp_needle_short_vertflip_short_600ms.mp4	92.1358958410865	92.74423308193307	0.6083372408465948				
77.23681640625	0.2	158181	44	29	0	0	0	44	62	stimuli\Videos_short_600ms\66.stroke_top_to_bottom_with_sponge_short_short_600ms.mp4	66.stroke_top_to_bottom_with_sponge_short_short_600ms.mp4	92.93588481500684	93.54420885974832	0.6083240447414937				
78.03662109375	0.2	159819	45	29	0	0	0	45	359	stimuli\Videos_short_600ms_vertflip\90.repeated_touch_with_sponge_short_vertflip_short_600ms.mp4	90.repeated_touch_with_sponge_short_vertflip_short_600ms.mp4	93.73587378892807	94.3442092702935	0.6083354813654296				
78.8369140625	0.2	161458	46	29	0	0	0	46	333	stimuli\Videos_short_600ms_vertflip\67.single_touch_with_sponge_short_vertflip_short_600ms.mp4	67.single_touch_with_sponge_short_vertflip_short_600ms.mp4	94.53586158986128	95.14418475486218	0.6083231650009111				
79.63671875	0.2	163096	47	29	0	0	1	47	380	stimuli\Targets_short_600ms_vertflip\chopstickwood-tap_short_horvertflip_short_600ms.mp4	chopstickwood-tap_short_horvertflip_short_600ms.mp4	95.3358520300162	95.94417372878252	0.6083216987663036				
80.4365234375	0.2	164734	48	29	0	0	0	48	206	stimuli\Videos_short_600ms_horvertflip\33.scratch_top_to_bottom_with_scissors_short_horvertflip_short_600ms.mp4	33.scratch_top_to_bottom_with_scissors_short_horvertflip_short_600ms.mp4	96.135836311988	96.74416123646915	0.6083249244811668				
81.23681640625	0.2	166373	49	29	0	0	0	49	332	stimuli\Videos_short_600ms_vertflip\66.stroke_top_to_bottom_with_sponge_short_vertflip_short_600ms.mp4	66.stroke_top_to_bottom_with_sponge_short_vertflip_short_600ms.mp4	96.9358408279886	97.54414903740326	0.6083082094146448				
82.03662109375	0.2	168011	50	29	0	0	0	50	93	stimuli\Videos_short_600ms_horflip\12.repeated_touch_with_nail_file_short_horflip_short_600ms.mp4	12.repeated_touch_with_nail_file_short_horflip_short_600ms.mp4	97.735779363461	98.3441380113236	0.6083586478625875				
82.83642578125	0.2	169649	51	29	0	0	0	51	280	stimuli\Videos_short_600ms_vertflip\19.single_touch_with_rolling_pin_short_vertflip_short_600ms.mp4	19.single_touch_with_rolling_pin_short_vertflip_short_600ms.mp4	98.53576041971884	99.14412551901025	0.6083650992914045				
83.63671875	0.2	171288	52	29	0	0	0	52	40	stimuli\Videos_short_600ms\46.scratching_top_to_bottom_with_finger_nails_short_short_600ms.mp4	46.scratching_top_to_bottom_with_finger_nails_short_short_600ms.mp4	99.33574792740546	99.94411331994434	0.6083653925388717				
84.4365234375	0.2	172926	53	29	0	0	0	53	97	stimuli\Videos_short_600ms_horflip\16.repeated_touch_with_plastic_brush_short_horflip_short_600ms.mp4	16.repeated_touch_with_plastic_brush_short_horflip_short_600ms.mp4	100.13575566912004	100.74408528555068	0.6083296164306375				
85.23681640625	0.2	174565	54	29	0	0	0	54	192	stimuli\Videos_short_600ms_horvertflip\20.single_touch_with_screwdriver_short_horvertflip_short_600ms.mp4	20.single_touch_with_screwdriver_short_horvertflip_short_600ms.mp4	100.93574786875617	101.54409332051272	0.608345451756577				
86.03662109375	0.2	176203	55	29	0	0	0	55	286	stimuli\Videos_short_600ms_vertflip\24.single_stroke_top_to_bottom_with_a_spoon_short_vertflip_short_600ms.mp4	24.single_stroke_top_to_bottom_with_a_spoon_short_vertflip_short_600ms.mp4	101.73572951150707	102.34408024170624	0.6083507301991631				
86.83642578125	0.2	177841	56	29	0	0	0	56	208	stimuli\Videos_short_600ms_horvertflip\35.single_punch_with_hand_short_horvertflip_short_600ms.mp4	35.single_punch_with_hand_short_horvertflip_short_600ms.mp4	102.53572435036313	103.14404956809176	0.608325217728634				
87.63671875	0.2	179480	57	29	0	0	0	57	225	stimuli\Videos_short_600ms_horvertflip\50.single_(long)hard_push_with_thumb_short_horvertflip_short_600ms.mp4	50.single_(long)hard_push_with_thumb_short_horvertflip_short_600ms.mp4	103.33574734091144	103.94402915811496	0.6082818172035331				
88.4365234375	0.2	181118	58	29	0	0	0	58	346	stimuli\Videos_short_600ms_vertflip\79.long_with_soft_brush_all_over_the_hand_short_vertflip_short_600ms.mp4	79.long_with_soft_brush_all_over_the_hand_short_vertflip_short_600ms.mp4	104.13568998183928	104.74401989151649	0.6083299096771952				
89.236328125	0.2	182756	59	29	0	0	0	59	267	stimuli\Videos_short_600ms_horvertflip\89.single_touch_with_plastic_brush_short_horvertflip_short_600ms.mp4	89.single_touch_with_plastic_brush_short_horvertflip_short_600ms.mp4	104.9359534347559	105.54400651946251	0.6080530847066257				
90.03662109375	0.2	184395	60	29	0	0	0	60	42	stimuli\Videos_short_600ms\48.single_slap_with_hand_short_short_600ms.mp4	48.single_slap_with_hand_short_short_600ms.mp4	105.73572481955853	106.3439990123452	0.6082741927866664				
90.83642578125	0.2	186033	61	29	0	0	0	61	69	stimuli\Videos_short_600ms\72.(short)stroke_with_finger_all_over_the_hand_short_short_600ms.mp4	72.(short)stroke_with_finger_all_over_the_hand_short_short_600ms.mp4	106.53566012931606	107.1439897457467	0.6083296164306375				
91.63623046875	0.2	187671	62	29	0	0	1	62	379	stimuli\Targets_short_600ms_vertflip\chopstick-silver-tap_short_horvertflip_short_600ms.mp4	chopstick-silver-tap_short_horvertflip_short_600ms.mp4	107.33567256298012	107.94401214980098	0.6083395868208754				
92.4365234375	0.2	189310	63	29	0	0	0	63	356	stimuli\Videos_short_600ms_vertflip\88.repeated_stroke_with_plastic_brush_short_vertflip_short_600ms.mp4	88.repeated_stroke_with_plastic_brush_short_vertflip_short_600ms.mp4	108.13565772469246	108.7439814761874	0.608323751494936				
93.236328125	0.2	190948	64	29	0	0	0	64	91	stimuli\Videos_short_600ms_horflip\10.single_touch_with_knife_short_horflip_short_600ms.mp4	10.single_touch_with_knife_short_horflip_short_600ms.mp4	108.93562558484427	109.54397484880974	0.6083492639654651				
94.0361328125	0.2	192586	65	29	0	0	0	65	281	stimuli\Videos_short_600ms_vertflip\2.single_touch_with_finger_short_vertflip_short_600ms.mp4	2.single_touch_with_finger_short_vertflip_short_600ms.mp4	109.73563274006574	110.34395561182008	0.6083228717543534				
94.83642578125	0.2	194225	66	29	0	0	0	66	12	stimuli\Videos_short_600ms\20.single_touch_with_screwdriver_short_short_600ms.mp4	20.single_touch_with_screwdriver_short_short_600ms.mp4	110.53561995450582	111.143949277689	0.6083293231831703				
95.63623046875	0.2	195863	67	29	0	0	0	67	127	stimuli\Videos_short_600ms_horflip\43.touch_top_to_bottom_with_sharp_wooden_stick_short_horflip_short_600ms.mp4	43.touch_top_to_bottom_with_sharp_wooden_stick_short_horflip_short_600ms.mp4	111.33560804868648	111.9439347326488	0.608326683962332				
96.43603515625	0.2	197501	68	29	0	0	0	68	237	stimuli\Videos_short_600ms_horvertflip\61.single_hit_with_rolling_pin_short_horvertflip_short_600ms.mp4	61.single_hit_with_rolling_pin_short_horvertflip_short_600ms.mp4	112.13571666729696	112.7439234133226	0.608206746025644				
97.236328125	0.2	199140	69	29	0	0	0	69	326	stimuli\Videos_short_600ms_vertflip\60.single_push_with_tip_of_pencil_short_vertflip_short_600ms.mp4	60.single_push_with_tip_of_pencil_short_vertflip_short_600ms.mp4	112.93557338691517	113.54391443997064	0.6083410530554829				
98.0361328125	0.2	200778	70	29	0	0	0	70	217	stimuli\Videos_short_600ms_horvertflip\43.touch_top_to_bottom_with_sharp_wooden_stick_short_horvertflip_short_600ms.mp4	43.touch_top_to_bottom_with_sharp_wooden_stick_short_horvertflip_short_600ms.mp4	113.7355315699233	114.34389872194242	0.6083671520191274				
98.8359375	0.2	202416	71	29	0	0	0	71	171	stimuli\Videos_short_600ms_horflip\83.single_stroke_top_to_bottom_with_cotton_bud_short_horflip_short_600ms.mp4	83.single_stroke_top_to_bottom_with_cotton_bud_short_horflip_short_600ms.mp4	114.5356407750278	115.14389062833106	0.6082498533032776				
99.63623046875	0.2	204055	72	29	0	0	0	72	138	stimuli\Videos_short_600ms_horflip\53.touch_top_to_bottom_with_knife_short_horflip_short_600ms.mp4	53.touch_top_to_bottom_with_knife_short_horflip_short_600ms.mp4	115.33551802192142	115.9438737373166	0.6083557153951915				
100.43603515625	0.2	205693	73	29	0	0	0	73	65	stimuli\Videos_short_600ms\69.stroke_with_soft_sock_short_short_600ms.mp4	69.stroke_with_soft_sock_short_short_600ms.mp4	116.13588264498048	116.7438644707172	0.6079818257367151				
101.23583984375	0.2	207331	74	29	0	0	0	74	88	stimuli\Videos_short_600ms\9.single_touch_with_hammer_short_short_600ms.mp4	9.single_touch_with_hammer_short_short_600ms.mp4	116.93548570612528	117.54384816619586	0.6083624600705662				
102.0361328125	0.2	208970	75	29	0	0	0	75	306	stimuli\Videos_short_600ms_vertflip\42.single_slap_with_plastic_whisk_short_vertflip_short_600ms.mp4	42.single_slap_with_plastic_whisk_short_vertflip_short_600ms.mp4	117.735520426545	118.3438224777774	0.6083020512323856				
102.8359375	0.2	210608	76	29	0	0	0	76	72	stimuli\Videos_short_600ms\75.(long)stroke_with_fingers_all_over_the_hand_short_short_600ms.mp4	75.(long)stroke_with_fingers_all_over_the_hand_short_short_600ms.mp4	118.53551086669997	119.14381174494429	0.6083008782443358				
103.6357421875	0.2	212246	77	29	0	0	0	77	57	stimuli\Videos_short_600ms\61.single_hit_with_rolling_pin_short_short_600ms.mp4	61.single_hit_with_rolling_pin_short_short_600ms.mp4	119.3354910432172	119.94377110093956	0.6082800577223679				
104.43603515625	0.2	213885	78	29	0	0	0	78	126	stimuli\Videos_short_600ms_horflip\42.single_slap_with_plastic_whisk_short_horflip_short_600ms.mp4	42.single_slap_with_plastic_whisk_short_horflip_short_600ms.mp4	120.1354750319424	120.74377884265505	0.6083038107126413				
105.23583984375	0.2	215523	79	29	0	0	0	79	112	stimuli\Videos_short_600ms_horflip\3.single_push_with_finger_short_horflip_short_600ms.mp4	3.single_push_with_finger_short_horflip_short_600ms.mp4	120.93553409184553	121.54377866670713	0.608244574861601				
106.0361328125	0.2	217162	80	29	0	0	0	80	230	stimuli\Videos_short_600ms_horvertflip\55.touch_top_to_bottom_with_nail_file_short_horvertflip_short_600ms.mp4	55.touch_top_to_bottom_with_nail_file_short_horvertflip_short_600ms.mp4	121.735431572768	122.34376001621058	0.6083284434425877				
106.8359375	0.2	218800	81	29	0	0	0	81	278	stimuli\Videos_short_600ms_vertflip\17.repeated_touch_with_rolling_pin_short_vertflip_short_600ms.mp4	17.repeated_touch_with_rolling_pin_short_vertflip_short_600ms.mp4	122.53544048747062	123.14377010390037	0.608329616429728				
107.6357421875	0.2	220438	82	29	0	0	0	82	123	stimuli\Videos_short_600ms_horflip\4.repeated_tap_with_finger_slow_short_horflip_short_600ms.mp4	4.repeated_tap_with_finger_slow_short_horflip_short_600ms.mp4	123.33542799515726	123.94376758197814	0.6083395868208754				
108.43603515625	0.2	222077	83	29	0	0	0	83	316	stimuli\Videos_short_600ms_vertflip\51.repeated_touch_with_hammer_short_vertflip_short_600ms.mp4	51.repeated_touch_with_hammer_short_vertflip_short_600ms.mp4	124.1354081716736	124.74374570576764	0.608337534094062				
109.23583984375	0.2	223715	84	29	0	0	0	84	221	stimuli\Videos_short_600ms_horvertflip\47.(long)scratching_with_finger_nails_short_horvertflip_short_600ms.mp4	47.(long)scratching_with_finger_nails_short_horvertflip_short_600ms.mp4	124.93547866820244	125.54369069266976	0.6082120244673206				
110.03564453125	0.2	225353	85	29	0	0	0	85	52	stimuli\Videos_short_600ms\57.single_touch_with_nail_file_short_short_600ms.mp4	57.single_touch_with_nail_file_short_short_600ms.mp4	125.73539433042517	126.34371808192007	0.608323751494936				
110.8359375	0.2	226992	86	29	0	0	0	86	340	stimuli\Videos_short_600ms_vertflip\73.single_stroke_with_flat_hand_short_vertflip_short_600ms.mp4	73.single_stroke_with_flat_hand_short_vertflip_short_600ms.mp4	126.53538858278807	127.14370705584042	0.6083184730523499				
111.6357421875	0.2	228630	87	29	0	0	0	87	323	stimuli\Videos_short_600ms_vertflip\58.single_slap_with_pencil_short_vertflip_short_600ms.mp4	58.single_slap_with_pencil_short_vertflip_short_600ms.mp4	127.33537345125389	127.9436972027488	0.608323751494936				
112.435546875	0.2	230268	88	29	0	0	0	88	271	stimuli\Videos_short_600ms_vertflip\10.single_touch_with_knife_short_vertflip_short_600ms.mp4	10.single_touch_with_knife_short_vertflip_short_600ms.mp4	128.1353891106328	128.7436835374483	0.6082944268155188				
113.23583984375	0.2	231907	89	29	0	0	0	89	353	stimuli\Videos_short_600ms_vertflip\85.touch_top_to_bottom_with_fabric_short_vertflip_short_600ms.mp4	85.touch_top_to_bottom_with_fabric_short_vertflip_short_600ms.mp4	128.93560271159458	129.54367045864092	0.6080677470463343				
114.03564453125	0.2	233545	90	29	0	0	0	90	56	stimuli\Videos_short_600ms\60.single_push_with_tip_of_pencil_short_short_600ms.mp4	60.single_push_with_tip_of_pencil_short_short_600ms.mp4	129.73531662002642	130.34365943256216	0.6083428125357386				
114.83544921875	0.2	235183	91	29	0	0	0	91	172	stimuli\Videos_short_600ms_horflip\84.single_touch_with_cotton_bud_short_horflip_short_600ms.mp4	84.single_touch_with_cotton_bud_short_horflip_short_600ms.mp4	130.53532201576672	131.14364664700133	0.6083246312346091				
115.6357421875	0.2	236822	92	29	0	0	0	92	338	stimuli\Videos_short_600ms_vertflip\71.single_stroke_with_finger_top_to_bottom_short_vertflip_short_600ms.mp4	71.single_stroke_with_finger_top_to_bottom_short_vertflip_short_600ms.mp4	131.3352799055274	131.9436362074157	0.6083563018883069				
116.435546875	0.2	238460	93	29	0	0	0	93	318	stimuli\Videos_short_600ms_vertflip\53.touch_top_to_bottom_with_knife_short_vertflip_short_600ms.mp4	53.touch_top_to_bottom_with_knife_short_vertflip_short_600ms.mp4	132.13530612179056	132.74360318782783	0.6082970660372666				
117.2353515625	0.2	240098	94	29	0	0	0	94	287	stimuli\Videos_short_600ms_vertflip\25.single_touch_with_stanley_knife_short_vertflip_short_600ms.mp4	25.single_touch_with_stanley_knife_short_vertflip_short_600ms.mp4	132.93529304298409	133.5435675290173	0.6082744860332241	5.0	5.0	4.5123100603887	1.0
153.72607421875	0.2	314831	95	29	1	0	0	0	39	stimuli\Videos_short_600ms\45.scratching_with_finger_nails_short_short_600ms.mp4	45.scratching_with_finger_nails_short_short_600ms.mp4	169.42638787107808	170.03473127010784	0.6083433990297635				
154.52587890625	0.2	316469	96	29	1	0	1	1	373	stimuli\Targets_short_600ms_horvertflip\chopstick-silver-tap_short_vertflip_short_600ms.mp4	chopstick-silver-tap_short_vertflip_short_600ms.mp4	170.22635250551502	170.83471819130136	0.6083656857863389				
155.326171875	0.2	318108	97	29	1	0	0	2	210	stimuli\Videos_short_600ms_horvertflip\37.single_stab_with_nail_file_short_horvertflip_short_600ms.mp4	37.single_stab_with_nail_file_short_horvertflip_short_600ms.mp4	171.02642300204388	171.63467666755514	0.6082536655112563				
156.1259765625	0.2	319746	98	29	1	0	0	3	337	stimuli\Videos_short_600ms_vertflip\70.(long)stroke_with_finger_all_over_the_hand_short_vertflip_short_600ms.mp4	70.(long)stroke_with_finger_all_over_the_hand_short_vertflip_short_600ms.mp4	171.82634716842404	172.43469819186976	0.6083510234457208				
156.92578125	0.2	321384	99	29	1	0	0	4	70	stimuli\Videos_short_600ms\73.single_stroke_with_flat_hand_short_short_600ms.mp4	73.single_stroke_with_flat_hand_short_short_600ms.mp4	172.62639567144288	173.23469273747924	0.6082970660363571				
157.72607421875	0.2	323023	100	29	1	0	0	5	291	stimuli\Videos_short_600ms_vertflip\29.single_pinch_with_tweezers_short_vertflip_short_600ms.mp4	29.single_pinch_with_tweezers_short_vertflip_short_600ms.mp4	173.42634417730642	174.03466880854103	0.6083246312346091				
158.52587890625	0.2	324661	101	29	1	0	0	6	349	stimuli\Videos_short_600ms_vertflip\81.single_stroke_top_to_bottom_with_cotton_pad_short_vertflip_short_600ms.mp4	81.single_stroke_top_to_bottom_with_cotton_pad_short_vertflip_short_600ms.mp4	174.22677771336112	174.83465954194253	0.6078818285814123				
159.32568359375	0.2	326299	102	29	1	0	0	7	29	stimuli\Videos_short_600ms\36.single_slap_with_full_hand_short_short_600ms.mp4	36.single_slap_with_full_hand_short_short_600ms.mp4	175.0263250576163	175.63456024857987	0.608235190963569				
160.1259765625	0.2	327938	103	29	1	0	1	8	375	stimuli\Targets_short_600ms_horvertflip\finger-tap_short_vertflip_short_600ms.mp4	finger-tap_short_vertflip_short_600ms.mp4	175.82631168556236	176.43461139081955	0.6082997052571955				
160.92578125	0.2	329576	104	29	1	0	0	9	73	stimuli\Videos_short_600ms\76.tickle_with_fingers_from_top_to_bottom_short_short_600ms.mp4	76.tickle_with_fingers_from_top_to_bottom_short_short_600ms.mp4	176.6262757335062	177.23460359045566	0.6083278569494723				
161.7255859375	0.2	331214	105	29	1	0	0	10	269	stimuli\Videos_short_600ms_horvertflip\90.repeated_touch_with_sponge_short_horvertflip_short_600ms.mp4	90.repeated_touch_with_sponge_short_horvertflip_short_600ms.mp4	177.42633420691618	178.03459579009086	0.6082615831746807				
162.52587890625	0.2	332853	106	29	1	0	1	11	364	stimuli\Targets_short_600ms\hand-pinch_short_short_600ms.mp4	hand-pinch_short_short_600ms.mp4	178.22625895978945	178.83457977881608	0.6083208190266305				
163.32568359375	0.2	334491	107	29	1	0	0	12	190	stimuli\Videos_short_600ms_horvertflip\19.single_touch_with_rolling_pin_short_horvertflip_short_600ms.mp4	19.single_touch_with_rolling_pin_short_horvertflip_short_600ms.mp4	179.02626582176435	179.63459338546727	0.6083275637029146				
164.12548828125	0.2	336129	108	29	1	0	0	13	327	stimuli\Videos_short_600ms_vertflip\61.single_hit_with_rolling_pin_short_vertflip_short_600ms.mp4	61.single_hit_with_rolling_pin_short_vertflip_short_600ms.mp4	179.82624922399555	180.43458441211533	0.6083351881197814				
164.92578125	0.2	337768	109	29	1	0	0	14	60	stimuli\Videos_short_600ms\64.repeated_touch_with_screwdriver_short_short_600ms.mp4	64.repeated_touch_with_screwdriver_short_short_600ms.mp4	180.62627661324584	181.23456341564545	0.6082868023995616				
165.7255859375	0.2	339406	110	29	1	0	0	15	215	stimuli\Videos_short_600ms_horvertflip\41.injection_with_blunt_syringe_short_horvertflip_short_600ms.mp4	41.injection_with_blunt_syringe_short_horvertflip_short_600ms.mp4	181.426357666659	182.0345509233321	0.6081932566730757				
166.525390625	0.2	341044	111	29	1	0	0	16	89	stimuli\Videos_short_600ms\90.repeated_touch_with_sponge_short_short_600ms.mp4	90.repeated_touch_with_sponge_short_short_600ms.mp4	182.2262821262857	182.83453931075837	0.6082571844726772				
167.32568359375	0.2	342683	112	29	1	0	0	17	121	stimuli\Videos_short_600ms_horflip\38.double_slap_with_pencil_short_horflip_short_600ms.mp4	38.double_slap_with_pencil_short_horflip_short_600ms.mp4	183.0261933898073	183.63453033740737	0.6083369476000371				
168.12548828125	0.2	344321	113	29	1	0	0	18	307	stimuli\Videos_short_600ms_vertflip\43.touch_top_to_bottom_with_sharp_wooden_stick_short_vertflip_short_600ms.mp4	43.touch_top_to_bottom_with_sharp_wooden_stick_short_vertflip_short_600ms.mp4	183.8261899881445	184.43451901808112	0.6083290299366126				
168.92529296875	0.2	345959	114	29	1	0	0	19	27	stimuli\Videos_short_600ms\34.repeated_punch_with_hand_short_short_600ms.mp4	34.repeated_punch_with_hand_short_short_600ms.mp4	184.62616723219344	185.23450154057264	0.6083343083791988				
169.7255859375	0.2	347598	115	29	1	0	0	20	100	stimuli\Videos_short_600ms_horflip\19.single_touch_with_rolling_pin_short_horflip_short_600ms.mp4	19.single_touch_with_rolling_pin_short_horflip_short_600ms.mp4	185.42620048637943	186.03449139423356	0.6082909078540979				
170.525390625	0.2	349236	116	29	1	0	0	21	174	stimuli\Videos_short_600ms_horflip\86.touch_top_to_bottom_with_hair_brush_short_horflip_short_600ms.mp4	86.touch_top_to_bottom_with_hair_brush_short_horflip_short_600ms.mp4	186.2261129228873	186.83447919516675	0.6083662722794543				
171.32568359375	0.2	350875	117	29	1	0	0	22	182	stimuli\Videos_short_600ms_horvertflip\11.single_touch_with_lighter_short_horvertflip_short_600ms.mp4	11.single_touch_with_lighter_short_horvertflip_short_600ms.mp4	187.0260992575877	187.6344643568791	0.6083650992914045				
172.12548828125	0.2	352513	118	29	1	0	0	23	34	stimuli\Videos_short_600ms\40.repeated_push_with_finger_short_short_600ms.mp4	40.repeated_push_with_finger_short_short_600ms.mp4	187.8261075857963	188.4344545037875	0.6083469179911845				
172.92529296875	0.2	354151	119	29	1	0	0	24	322	stimuli\Videos_short_600ms_vertflip\57.single_touch_with_nail_file_short_vertflip_short_600ms.mp4	57.single_touch_with_nail_file_short_vertflip_short_600ms.mp4	188.62618101479256	189.23444406420097	0.6082630494083787				
173.7255859375	0.2	355790	120	29	1	0	0	25	179	stimuli\Videos_short_600ms_horflip\90.repeated_touch_with_sponge_short_horflip_short_600ms.mp4	90.repeated_touch_with_sponge_short_horflip_short_600ms.mp4	189.42612776117497	190.03440517967647	0.6082774185015296				
174.525390625	0.2	357428	121	29	1	0	0	26	114	stimuli\Videos_short_600ms_horflip\31.hand_grabbing_wrist_short_horflip_short_600ms.mp4	31.hand_grabbing_wrist_short_horflip_short_600ms.mp4	190.22610441873076	190.8343950333383	0.6082906146075402				
175.3251953125	0.2	359066	122	29	1	0	0	27	2	stimuli\Videos_short_600ms\11.single_touch_with_lighter_short_short_600ms.mp4	11.single_touch_with_lighter_short_short_600ms.mp4	191.02605468407543	191.634319492965	0.6082648088895439				
176.12548828125	0.2	360705	123	29	1	0	0	28	7	stimuli\Videos_short_600ms\16.repeated_touch_with_plastic_brush_short_short_600ms.mp4	16.repeated_touch_with_plastic_brush_short_short_600ms.mp4	191.82608060709117	192.4343712216987	0.6082906146075402				
176.92529296875	0.2	362343	124	29	1	0	0	29	272	stimuli\Videos_short_600ms_vertflip\11.single_touch_with_lighter_short_vertflip_short_600ms.mp4	11.single_touch_with_lighter_short_vertflip_short_600ms.mp4	192.6260836568581	193.2343678200359	0.6082841631778138				
177.72509765625	0.2	363981	125	29	1	0	0	30	43	stimuli\Videos_short_600ms\49.repeated_slap_with_hand_short_short_600ms.mp4	49.repeated_slap_with_hand_short_short_600ms.mp4	193.42605093051588	194.03435444798197	0.6083035174660836				
178.525390625	0.2	365620	126	29	1	0	1	31	371	stimuli\Targets_short_600ms_horflip\hand-stroke_short_horflip_short_600ms.mp4	hand-stroke_short_horflip_short_600ms.mp4	194.22603315976085	194.8343677613866	0.6083346016257565				
179.3251953125	0.2	367258	127	29	1	0	0	32	5	stimuli\Videos_short_600ms\14.repeated_touch_with_pencil_short_short_600ms.mp4	14.repeated_touch_with_pencil_short_short_600ms.mp4	195.02605615030916	195.6343540960861	0.6082979457769397				
180.125	0.2	368896	128	29	1	0	0	33	253	stimuli\Videos_short_600ms_horvertflip\76.tickle_with_fingers_from_top_to_bottom_short_horvertflip_short_600ms.mp4	76.tickle_with_fingers_from_top_to_bottom_short_horvertflip_short_600ms.mp4	195.82602723617583	196.43433544559048	0.6083082094146448				
180.92529296875	0.2	370535	129	29	1	0	0	34	305	stimuli\Videos_short_600ms_vertflip\41.injection_with_blunt_syringe_short_vertflip_short_600ms.mp4	41.injection_with_blunt_syringe_short_vertflip_short_600ms.mp4	196.62599773554848	197.23432266003056	0.6083249244820763				
181.72509765625	0.2	372173	130	29	1	0	0	35	45	stimuli\Videos_short_600ms\50.single_(long)hard_push_with_thumb_short_short_600ms.mp4	50.single_(long)hard_push_with_thumb_short_short_600ms.mp4	197.42598876219657	198.03431104745687	0.6083222852603285				
182.52490234375	0.2	373811	131	29	1	0	0	36	249	stimuli\Videos_short_600ms_horvertflip\72.(short)stroke_with_finger_all_over_the_hand_short_horvertflip_short_600ms.mp4	72.(short)stroke_with_finger_all_over_the_hand_short_horvertflip_short_600ms.mp4	198.2259730441683	198.83429826189695	0.608325217728634				
183.3251953125	0.2	375450	132	29	1	0	0	37	115	stimuli\Videos_short_600ms_horflip\32.single_(long)pinch_with_fingers_short_horflip_short_600ms.mp4	32.single_(long)pinch_with_fingers_short_horflip_short_600ms.mp4	199.02595673964697	199.63428401010333	0.6083272704563569				
184.125	0.2	377088	133	29	1	0	0	38	324	stimuli\Videos_short_600ms_vertflip\59.single_push_with_long_side_pencil_short_vertflip_short_600ms.mp4	59.single_push_with_long_side_pencil_short_vertflip_short_600ms.mp4	199.8259289985008	200.43427532999792	0.6083463314971596				
184.9248046875	0.2	378726	134	29	1	0	0	39	241	stimuli\Videos_short_600ms_horvertflip\65.stroke_top_to_bottom_with_stanley_knife_short_horvertflip_short_600ms.mp4	65.stroke_top_to_bottom_with_stanley_knife_short_horvertflip_short_600ms.mp4	200.6260159168496	201.234266356646	0.608250439796393				
185.72509765625	0.2	380365	135	29	1	0	0	40	309	stimuli\Videos_short_600ms_vertflip\45.scratching_with_finger_nails_short_vertflip_short_600ms.mp4	45.scratching_with_finger_nails_short_vertflip_short_600ms.mp4	201.42588436633923	202.0342526913455	0.6083683250062677				
186.52490234375	0.2	382003	136	29	1	0	0	41	191	stimuli\Videos_short_600ms_horvertflip\2.single_touch_with_finger_short_horvertflip_short_600ms.mp4	2.single_touch_with_finger_short_horvertflip_short_600ms.mp4	202.22595281014037	202.83424166526677	0.608288855126375				
187.32470703125	0.2	383641	137	29	1	0	0	42	261	stimuli\Videos_short_600ms_horvertflip\83.single_stroke_top_to_bottom_with_cotton_bud_short_horvertflip_short_600ms.mp4	83.single_stroke_top_to_bottom_with_cotton_bud_short_horvertflip_short_600ms.mp4	203.02588489418395	203.63417785476489	0.6082929605809113				
188.125	0.2	385280	138	29	1	0	0	43	162	stimuli\Videos_short_600ms_horflip\75.(long)stroke_with_fingers_all_over_the_hand_short_horflip_short_600ms.mp4	75.(long)stroke_with_fingers_all_over_the_hand_short_horflip_short_600ms.mp4	203.8258729883637	204.43421638739343	0.6083433990297635				
188.9248046875	0.2	386918	139	29	1	0	0	44	118	stimuli\Videos_short_600ms_horflip\35.single_punch_with_hand_short_horflip_short_600ms.mp4	35.single_punch_with_hand_short_horflip_short_600ms.mp4	204.62598717866425	205.2341948044295	0.6082076257653171				
189.724609375	0.2	388556	140	29	1	0	0	45	147	stimuli\Videos_short_600ms_horflip\61.single_hit_with_rolling_pin_short_horflip_short_600ms.mp4	61.single_hit_with_rolling_pin_short_horflip_short_600ms.mp4	205.42591662348605	206.03417527419333	0.6082586507072847				
190.52490234375	0.2	390195	141	29	1	0	0	46	335	stimuli\Videos_short_600ms_vertflip\69.stroke_with_soft_sock_short_vertflip_short_600ms.mp4	69.stroke_with_soft_sock_short_vertflip_short_600ms.mp4	206.2258871228596	206.83415427772343	0.6082671548638245				
191.32470703125	0.2	391833	142	29	1	0	0	47	145	stimuli\Videos_short_600ms_horflip\6.single_touch_with_flat_hand_short_horflip_short_600ms.mp4	6.single_touch_with_flat_hand_short_horflip_short_600ms.mp4	207.0259095269139	207.63408900098784	0.6081794740739497				
192.125	0.2	393472	143	29	1	0	0	48	358	stimuli\Videos_short_600ms_vertflip\9.single_touch_with_hammer_short_vertflip_short_600ms.mp4	9.single_touch_with_hammer_short_vertflip_short_600ms.mp4	207.82580876731663	208.43413574452552	0.6083269772088897				
192.9248046875	0.2	395110	144	29	1	0	0	49	48	stimuli\Videos_short_600ms\53.touch_top_to_bottom_with_knife_short_short_600ms.mp4	53.touch_top_to_bottom_with_knife_short_short_600ms.mp4	208.62581914825296	209.23412794416163	0.6083087959086697				
193.724609375	0.2	396748	145	29	1	0	0	50	226	stimuli\Videos_short_600ms_horvertflip\51.repeated_touch_with_hammer_short_horvertflip_short_600ms.mp4	51.repeated_touch_with_hammer_short_horvertflip_short_600ms.mp4	209.42580929516137	210.03412806146025	0.6083187662989076				
194.52490234375	0.2	398387	146	29	1	0	0	51	195	stimuli\Videos_short_600ms_horvertflip\23.single_push_with_a_spoon_short_horvertflip_short_600ms.mp4	23.single_push_with_a_spoon_short_horvertflip_short_600ms.mp4	210.22579328388656	210.83413199096685	0.6083387070802928				
195.32470703125	0.2	400025	147	29	1	0	0	52	222	stimuli\Videos_short_600ms_horvertflip\48.single_slap_with_hand_short_horvertflip_short_600ms.mp4	48.single_slap_with_hand_short_horvertflip_short_600ms.mp4	211.02578343079404	211.6341092350158	0.6083258042217494				
196.12451171875	0.2	401663	148	29	1	0	0	53	169	stimuli\Videos_short_600ms_horflip\81.single_stroke_top_to_bottom_with_cotton_pad_short_horflip_short_600ms.mp4	81.single_stroke_top_to_bottom_with_cotton_pad_short_horflip_short_600ms.mp4	211.82580114290067	212.43410612660043	0.6083049836997816				
196.9248046875	0.2	403302	149	29	1	0	0	54	122	stimuli\Videos_short_600ms_horflip\39.single_stab_with_scissors_short_horflip_short_600ms.mp4	39.single_stab_with_scissors_short_horflip_short_600ms.mp4	212.62581416305784	213.2340824909088	0.6082683278509649				
197.724609375	0.2	404940	150	29	1	0	0	55	227	stimuli\Videos_short_600ms_horvertflip\52.touch_top_to_bottom_with_hammer_short_horvertflip_short_600ms.mp4	52.touch_top_to_bottom_with_hammer_short_horvertflip_short_600ms.mp4	213.4257963923019	214.03406999859544	0.608273606293551				
198.5244140625	0.2	406578	151	29	1	0	0	56	294	stimuli\Videos_short_600ms_vertflip\31.hand_grabbing_wrist_short_vertflip_short_600ms.mp4	31.hand_grabbing_wrist_short_vertflip_short_600ms.mp4	214.22572143842265	214.83405926576324	0.6083378273406197				
199.32470703125	0.2	408217	152	29	1	0	0	57	46	stimuli\Videos_short_600ms\51.repeated_touch_with_hammer_short_short_600ms.mp4	51.repeated_touch_with_hammer_short_short_600ms.mp4	215.02572654091637	215.63405205189156	0.6083255109751917				
200.12451171875	0.2	409855	153	29	1	0	0	58	99	stimuli\Videos_short_600ms_horflip\18.single_stroke_from_top_to_bottom_with_rolling_pin_short_horflip_short_600ms.mp4	18.single_stroke_from_top_to_bottom_with_rolling_pin_short_horflip_short_600ms.mp4	215.82571023639505	216.4340351608771	0.6083249244820763				
200.92431640625	0.2	411493	154	29	1	0	0	59	4	stimuli\Videos_short_600ms\13.single_touch_with_pen_short_short_600ms.mp4	13.single_touch_with_pen_short_short_600ms.mp4	216.62584495397095	217.23397838829808	0.608133434327101				
201.724609375	0.2	413132	155	29	1	0	0	60	256	stimuli\Videos_short_600ms_horvertflip\79.long_with_soft_brush_all_over_the_hand_short_horvertflip_short_600ms.mp4	79.long_with_soft_brush_all_over_the_hand_short_horvertflip_short_600ms.mp4	217.42567616111864	218.03400958975635	0.6083334286377067				
202.5244140625	0.2	414770	156	29	1	0	0	61	21	stimuli\Videos_short_600ms\29.single_pinch_with_tweezers_short_short_600ms.mp4	29.single_pinch_with_tweezers_short_short_600ms.mp4	218.225631118411	218.83399680419643	0.6083656857854294				
203.32421875	0.2	416408	157	29	1	0	0	62	17	stimuli\Videos_short_600ms\25.single_touch_with_stanley_knife_short_short_600ms.mp4	25.single_touch_with_stanley_knife_short_short_600ms.mp4	219.02565381571276	219.6339318207083	0.6082780049955545				
204.12451171875	0.2	418047	158	29	1	0	0	63	266	stimuli\Videos_short_600ms_horvertflip\88.repeated_stroke_with_plastic_brush_short_horvertflip_short_600ms.mp4	88.repeated_stroke_with_plastic_brush_short_horvertflip_short_600ms.mp4	219.8256351652171	220.43397387229743	0.6083387070802928				
204.92431640625	0.2	419685	159	29	1	0	1	64	360	stimuli\Targets_short_600ms\brush-stroke_short_short_600ms.mp4	brush-stroke_short_short_600ms.mp4	220.6256091835512	221.23397252336235	0.6083633398111488				
205.72412109375	0.2	421323	160	29	1	0	0	65	245	stimuli\Videos_short_600ms_horvertflip\69.stroke_with_soft_sock_short_horvertflip_short_600ms.mp4	69.stroke_with_soft_sock_short_horvertflip_short_600ms.mp4	221.42560343591413	222.0339063668862	0.6083029309720587				
206.5244140625	0.2	422962	161	29	1	0	0	66	342	stimuli\Videos_short_600ms_vertflip\75.(long)stroke_with_fingers_all_over_the_hand_short_vertflip_short_600ms.mp4	75.(long)stroke_with_fingers_all_over_the_hand_short_vertflip_short_600ms.mp4	222.22561440334448	222.83391381535512	0.6082994120106378				
207.32421875	0.2	424600	162	29	1	0	0	67	178	stimuli\Videos_short_600ms_horflip\9.single_touch_with_hammer_short_horflip_short_600ms.mp4	9.single_touch_with_hammer_short_horflip_short_600ms.mp4	223.02558050401512	223.63390132304175	0.6083208190266305				
208.1240234375	0.2	426238	163	29	1	0	0	68	292	stimuli\Videos_short_600ms_vertflip\3.single_push_with_finger_short_vertflip_short_600ms.mp4	3.single_push_with_finger_short_vertflip_short_600ms.mp4	223.82560789326544	224.4339199148881	0.6083120216226234				
208.92431640625	0.2	427877	164	29	1	0	0	69	224	stimuli\Videos_short_600ms_horvertflip\5.repeated_tap_with_finger_moving_from_top_to_bottom_short_horvertflip_short_600ms.mp4	5.repeated_tap_with_finger_moving_from_top_to_bottom_short_horvertflip_short_600ms.mp4	224.6255754601707	225.23388924127357	0.6083137811028791				
209.72412109375	0.2	429515	165	29	1	0	0	70	75	stimuli\Videos_short_600ms\78.single_stroke_top_to_bottom_with_soft_brush_short_short_600ms.mp4	78.single_stroke_top_to_bottom_with_soft_brush_short_short_600ms.mp4	225.4255955182507	226.0339025546782	0.6083070364275045				
210.52392578125	0.2	431153	166	29	1	0	0	71	262	stimuli\Videos_short_600ms_horvertflip\84.single_touch_with_cotton_bud_short_horvertflip_short_600ms.mp4	84.single_touch_with_cotton_bud_short_horvertflip_short_600ms.mp4	226.22555428775195	226.83381293845923	0.6082586507072847				
211.32421875	0.2	432792	167	29	1	0	0	72	273	stimuli\Videos_short_600ms_vertflip\12.repeated_touch_with_nail_file_short_vertflip_short_600ms.mp4	12.repeated_touch_with_nail_file_short_vertflip_short_600ms.mp4	227.0262904544943	227.6338740510901	0.6075835965957594				
212.13232421875	0.2	434447	168	29	1	0	0	73	216	stimuli\Videos_short_600ms_horvertflip\42.single_slap_with_plastic_whisk_short_horvertflip_short_600ms.mp4	42.single_slap_with_plastic_whisk_short_horvertflip_short_600ms.mp4	227.83387686625977	228.44214255488987	0.6082656886301265				
212.9326171875	0.2	436086	169	29	1	0	0	74	351	stimuli\Videos_short_600ms_vertflip\83.single_stroke_top_to_bottom_with_cotton_bud_short_vertflip_short_600ms.mp4	83.single_stroke_top_to_bottom_with_cotton_bud_short_vertflip_short_600ms.mp4	228.6339297679806	229.24215909400849	0.6082293260278675				
213.732421875	0.2	437724	170	29	1	0	1	75	378	stimuli\Targets_short_600ms_vertflip\brush-stroke_short_horvertflip_short_600ms.mp4	brush-stroke_short_horvertflip_short_600ms.mp4	229.4338932294304	230.04214630844857	0.6082530790181409				
214.5322265625	0.2	439362	171	29	1	0	0	76	63	stimuli\Videos_short_600ms\67.single_touch_with_sponge_short_short_600ms.mp4	67.single_touch_with_sponge_short_short_600ms.mp4	230.2338235539928	230.8421519974363	0.6083284434434972				
215.33251953125	0.2	441001	172	29	1	0	0	77	200	stimuli\Videos_short_600ms_horvertflip\28.single_injection_with_sharp_needle_short_horvertflip_short_600ms.mp4	28.single_injection_with_sharp_needle_short_horvertflip_short_600ms.mp4	231.03381751310917	231.64215064850123	0.6083331353920585				
216.13232421875	0.2	442639	173	29	1	0	0	78	67	stimuli\Videos_short_600ms\70.(long)stroke_with_finger_all_over_the_hand_short_short_600ms.mp4	70.(long)stroke_with_finger_all_over_the_hand_short_short_600ms.mp4	231.83380560728983	232.44212877228983	0.6083231650000016				
216.93212890625	0.2	444277	174	29	1	0	0	79	242	stimuli\Videos_short_600ms_horvertflip\66.stroke_top_to_bottom_with_sponge_short_horvertflip_short_600ms.mp4	66.stroke_top_to_bottom_with_sponge_short_horvertflip_short_600ms.mp4	232.63381188277071	233.24211774621108	0.6083058634403642				
217.732421875	0.2	445916	175	29	1	0	0	80	59	stimuli\Videos_short_600ms\63.stroke_top_to_bottom_with_screwdriver_short_short_600ms.mp4	63.stroke_top_to_bottom_with_screwdriver_short_short_600ms.mp4	233.43377798344136	234.04210349441655	0.6083255109751917				
218.5322265625	0.2	447554	176	29	1	0	0	81	205	stimuli\Videos_short_600ms_horvertflip\32.single_(long)pinch_with_fingers_short_horvertflip_short_600ms.mp4	32.single_(long)pinch_with_fingers_short_horvertflip_short_600ms.mp4	234.23376431814089	234.84209012236352	0.6083258042226589				
219.33203125	0.2	449192	177	29	1	0	0	82	87	stimuli\Videos_short_600ms\89.single_touch_with_plastic_brush_short_short_600ms.mp4	89.single_touch_with_plastic_brush_short_short_600ms.mp4	235.03375417180268	235.642076457063	0.6083222852603285				
220.13232421875	0.2	450831	178	29	1	0	0	83	283	stimuli\Videos_short_600ms_vertflip\21.repeated_touch_with_metal_chopstick_short_vertflip_short_600ms.mp4	21.repeated_touch_with_metal_chopstick_short_vertflip_short_600ms.mp4	235.83375692832217	236.44206689721796	0.60830996889581				
220.93212890625	0.2	452469	179	29	1	0	0	84	19	stimuli\Videos_short_600ms\27.single_push_with_a_plastic_whisk_short_short_600ms.mp4	27.single_push_with_a_plastic_whisk_short_short_600ms.mp4	236.6336538227506	237.2420174558083	0.6083636330577065				
221.73193359375	0.2	454107	180	29	1	0	0	85	132	stimuli\Videos_short_600ms_horflip\48.single_slap_with_hand_short_horflip_short_600ms.mp4	48.single_slap_with_hand_short_horflip_short_600ms.mp4	237.43369763382088	238.04204337882493	0.6083457450040441				
222.5322265625	0.2	455746	181	29	1	0	1	86	369	stimuli\Targets_short_600ms_horflip\finger-tap_short_horflip_short_600ms.mp4	finger-tap_short_horflip_short_600ms.mp4	238.23368631449463	238.84203000677095	0.6083436922763212				
223.33203125	0.2	457384	182	29	1	0	0	87	141	stimuli\Videos_short_600ms_horflip\56.repeated_touch_with_nail_file_short_horflip_short_600ms.mp4	56.repeated_touch_with_nail_file_short_horflip_short_600ms.mp4	239.0337752855712	239.64201898069223	0.6082436951210184				
224.1318359375	0.2	459022	183	29	1	0	0	88	285	stimuli\Videos_short_600ms_vertflip\23.single_push_with_a_spoon_short_vertflip_short_600ms.mp4	23.single_push_with_a_spoon_short_vertflip_short_600ms.mp4	239.83364901350345	240.44200942084623	0.6083604073428432				
224.93212890625	0.2	460661	184	29	1	0	0	89	343	stimuli\Videos_short_600ms_vertflip\76.tickle_with_fingers_from_top_to_bottom_short_vertflip_short_600ms.mp4	76.tickle_with_fingers_from_top_to_bottom_short_vertflip_short_600ms.mp4	240.63368725288456	241.2419954622992	0.6083082094146448				
225.73193359375	0.2	462299	185	29	1	0	0	90	201	stimuli\Videos_short_600ms_horvertflip\29.single_pinch_with_tweezers_short_horvertflip_short_600ms.mp4	29.single_pinch_with_tweezers_short_horvertflip_short_600ms.mp4	241.4336533535561	242.04197211985505	0.6083187662989076				
226.53173828125	0.2	463937	186	29	1	0	0	91	160	stimuli\Videos_short_600ms_horflip\73.single_stroke_with_flat_hand_short_horflip_short_600ms.mp4	73.single_stroke_with_flat_hand_short_horflip_short_600ms.mp4	242.23374027190496	242.84192561091368	0.6081853390087417				
227.33203125	0.2	465576	187	29	1	0	0	92	20	stimuli\Videos_short_600ms\28.single_injection_with_sharp_needle_short_short_600ms.mp4	28.single_injection_with_sharp_needle_short_short_600ms.mp4	243.0336415650345	243.6419137050943	0.608272140059853				
228.1318359375	0.2	467214	188	29	1	0	0	93	68	stimuli\Videos_short_600ms\71.single_stroke_with_finger_top_to_bottom_short_short_600ms.mp4	71.single_stroke_with_finger_top_to_bottom_short_short_600ms.mp4	243.83362027531803	244.44192877797923	0.6083085026612025				
228.93212890625	0.2	468853	189	29	1	0	0	94	277	stimuli\Videos_short_600ms_vertflip\16.repeated_touch_with_plastic_brush_short_vertflip_short_600ms.mp4	16.repeated_touch_with_plastic_brush_short_vertflip_short_600ms.mp4	244.6339400316183	245.2419159924193	0.6079759608010136				
229.73193359375	0.2	470491	190	29	1	0	0	95	279	stimuli\Videos_short_600ms_vertflip\18.single_stroke_from_top_to_bottom_with_rolling_pin_short_vertflip_short_600ms.mp4	18.single_stroke_from_top_to_bottom_with_rolling_pin_short_vertflip_short_600ms.mp4	245.43357447016933	246.04191171101593	0.6083372408465948				
230.53173828125	0.2	472129	191	29	1	0	0	96	231	stimuli\Videos_short_600ms_horvertflip\56.repeated_touch_with_nail_file_short_horvertflip_short_600ms.mp4	56.repeated_touch_with_nail_file_short_horvertflip_short_600ms.mp4	246.23388572231215	246.8419215054591	0.6080357831469883	7.0	6.0	1.853293322740683	0.0
264.40576171875	0.2	541503	192	29	2	0	0	0	136	stimuli\Videos_short_600ms_horflip\51.repeated_touch_with_hammer_short_horflip_short_600ms.mp4	51.repeated_touch_with_hammer_short_horflip_short_600ms.mp4	280.10811627939074	280.7164030817894	0.6082868023986521				
265.20556640625	0.2	543141	193	29	2	0	0	1	24	stimuli\Videos_short_600ms\31.hand_grabbing_wrist_short_short_600ms.mp4	31.hand_grabbing_wrist_short_short_600ms.mp4	280.9080615595394	281.51638736376117	0.6083258042217494				
266.005859375	0.2	544780	194	29	2	0	0	2	166	stimuli\Videos_short_600ms_horflip\79.long_with_soft_brush_all_over_the_hand_short_horflip_short_600ms.mp4	79.long_with_soft_brush_all_over_the_hand_short_horflip_short_600ms.mp4	281.70808220411345	282.3163763376824	0.6082941335689611				
266.8056640625	0.2	546418	195	29	2	0	0	3	140	stimuli\Videos_short_600ms_horflip\55.touch_top_to_bottom_with_nail_file_short_horflip_short_600ms.mp4	55.touch_top_to_bottom_with_nail_file_short_horflip_short_600ms.mp4	282.5080653130981	283.11636472510963	0.6082994120115472				
267.60546875	0.2	548056	196	29	2	0	0	4	109	stimuli\Videos_short_600ms_horflip\27.single_push_with_a_plastic_whisk_short_horflip_short_600ms.mp4	27.single_push_with_a_plastic_whisk_short_horflip_short_600ms.mp4	283.3080006228565	283.91635018006855	0.6083495572120228				
268.40576171875	0.2	549695	197	29	2	0	0	5	107	stimuli\Videos_short_600ms_horflip\25.single_touch_with_stanley_knife_short_horflip_short_600ms.mp4	25.single_touch_with_stanley_knife_short_horflip_short_600ms.mp4	284.10800660509085	284.71634003372947	0.6083334286386162				
269.20556640625	0.2	551333	198	29	2	0	0	6	214	stimuli\Videos_short_600ms_horvertflip\40.repeated_push_with_finger_short_horvertflip_short_600ms.mp4	40.repeated_push_with_finger_short_horvertflip_short_600ms.mp4	284.90797974368525	285.5163207967398	0.6083410530545734				
270.00537109375	0.2	552971	199	29	2	0	0	7	173	stimuli\Videos_short_600ms_horflip\85.touch_top_to_bottom_with_fabric_short_horflip_short_600ms.mp4	85.touch_top_to_bottom_with_fabric_short_horflip_short_600ms.mp4	285.7080171033258	286.31631563559677	0.6082985322709646				
270.8056640625	0.2	554610	200	29	2	0	1	8	362	stimuli\Targets_short_600ms\chopstickwood-tap_short_short_600ms.mp4	chopstickwood-tap_short_short_600ms.mp4	286.5079541725645	287.1162981580874	0.6083439855228789				
271.60546875	0.2	556248	201	29	2	0	0	9	313	stimuli\Videos_short_600ms_vertflip\49.repeated_slap_with_hand_short_vertflip_short_600ms.mp4	49.repeated_slap_with_hand_short_vertflip_short_600ms.mp4	287.307975110386	287.9162865455146	0.6083114351285985				
272.4052734375	0.2	557886	202	29	2	0	0	10	102	stimuli\Videos_short_600ms_horflip\20.single_touch_with_screwdriver_short_horflip_short_600ms.mp4	20.single_touch_with_screwdriver_short_horflip_short_600ms.mp4	288.10801188353344	288.71625030021187	0.6082384166784323				
273.20556640625	0.2	559525	203	29	2	0	0	11	82	stimuli\Videos_short_600ms\84.single_touch_with_cotton_bud_short_short_600ms.mp4	84.single_touch_with_cotton_bud_short_short_600ms.mp4	288.907926372769	289.51623810114506	0.6083117283760657				
274.00537109375	0.2	561163	204	29	2	0	0	12	186	stimuli\Videos_short_600ms_horvertflip\15.single_stroke_top_to_bottom_with_a_plastic_whisk_short_horvertflip_short_600ms.mp4	15.single_stroke_top_to_bottom_with_a_plastic_whisk_short_horvertflip_short_600ms.mp4	289.7079259035745	290.3162261953257	0.6083002917512204				
274.80517578125	0.2	562801	205	29	2	0	0	13	184	stimuli\Videos_short_600ms_horvertflip\13.single_touch_with_pen_short_horvertflip_short_600ms.mp4	13.single_touch_with_pen_short_horvertflip_short_600ms.mp4	290.5080087164679	291.1162236734026	0.6082149569347166				
275.60546875	0.2	564440	206	29	2	0	0	14	13	stimuli\Videos_short_600ms\21.repeated_touch_with_metal_chopstick_short_short_600ms.mp4	21.repeated_touch_with_metal_chopstick_short_short_600ms.mp4	291.3079006257012	291.916235227327	0.6083346016257565				
276.4052734375	0.2	566078	207	29	2	0	1	15	365	stimuli\Targets_short_600ms\hand-stroke_short_short_600ms.mp4	hand-stroke_short_short_600ms.mp4	292.1079162850792	292.71622097553245	0.6083046904532239				
277.20556640625	0.2	567717	208	29	2	0	0	16	302	stimuli\Videos_short_600ms_vertflip\39.single_stab_with_scissors_short_vertflip_short_600ms.mp4	39.single_stab_with_scissors_short_vertflip_short_600ms.mp4	292.90786185847537	293.5162052575042	0.608343399028854				
278.00537109375	0.2	569355	209	29	2	0	1	17	363	stimuli\Targets_short_600ms\finger-tap_short_short_600ms.mp4	finger-tap_short_short_600ms.mp4	293.7078634420077	294.31620390856915	0.608340466561458				
278.80517578125	0.2	570993	210	29	2	0	0	18	319	stimuli\Videos_short_600ms_vertflip\54.repeated_touch_with_knife_short_vertflip_short_600ms.mp4	54.repeated_touch_with_knife_short_vertflip_short_600ms.mp4	294.5078333548872	295.1161782201507	0.6083448652634615				
279.60546875	0.2	572632	211	29	2	0	0	19	22	stimuli\Videos_short_600ms\3.single_push_with_finger_short_short_600ms.mp4	3.single_push_with_finger_short_short_600ms.mp4	295.30782232880756	295.91616543459077	0.6083431057832058				
280.4052734375	0.2	574270	212	29	2	0	0	20	1	stimuli\Videos_short_600ms\10.single_touch_with_knife_short_short_600ms.mp4	10.single_touch_with_knife_short_short_600ms.mp4	296.1078069040268	296.7161552882517	0.6083483842248825				
281.205078125	0.2	575908	213	29	2	0	0	21	110	stimuli\Videos_short_600ms_horflip\28.single_injection_with_sharp_needle_short_horflip_short_600ms.mp4	28.single_injection_with_sharp_needle_short_horflip_short_600ms.mp4	296.90780086314317	297.5161413297046	0.608340466561458				
282.00537109375	0.2	577547	214	29	2	0	0	22	85	stimuli\Videos_short_600ms\87.single_stroke_top_to_bottom_with_plastic_brush_short_short_600ms.mp4	87.single_stroke_top_to_bottom_with_plastic_brush_short_short_600ms.mp4	297.7077816261535	298.3161294238844	0.6083477977308576				
282.80517578125	0.2	579185	215	29	2	0	0	23	3	stimuli\Videos_short_600ms\12.repeated_touch_with_nail_file_short_short_600ms.mp4	12.repeated_touch_with_nail_file_short_short_600ms.mp4	298.5077952328047	299.1161157585839	0.6083205257791633				
283.60498046875	0.2	580823	216	29	2	0	0	24	117	stimuli\Videos_short_600ms_horflip\34.repeated_punch_with_hand_short_horflip_short_600ms.mp4	34.repeated_punch_with_hand_short_horflip_short_600ms.mp4	299.3077601604882	299.9161056122457	0.6083454517574864				
284.4052734375	0.2	582462	217	29	2	0	0	25	61	stimuli\Videos_short_600ms\65.stroke_top_to_bottom_with_stanley_knife_short_short_600ms.mp4	65.stroke_top_to_bottom_with_stanley_knife_short_short_600ms.mp4	300.10774678843427	300.7160954659066	0.6083486774723497				
285.205078125	0.2	584100	218	29	2	0	0	26	128	stimuli\Videos_short_600ms_horflip\44.pushing_top_to_bottom_with_finger_short_horflip_short_600ms.mp4	44.pushing_top_to_bottom_with_finger_short_horflip_short_600ms.mp4	300.9077158215732	301.51608238709923	0.608366565526012				
286.0048828125	0.2	585738	219	29	2	0	0	27	152	stimuli\Videos_short_600ms_horflip\66.stroke_top_to_bottom_with_sponge_short_horflip_short_600ms.mp4	66.stroke_top_to_bottom_with_sponge_short_horflip_short_600ms.mp4	301.70773060121155	302.3160786921899	0.6083480909783248				
286.80517578125	0.2	587377	220	29	2	0	0	28	301	stimuli\Videos_short_600ms_vertflip\38.double_slap_with_pencil_short_vertflip_short_600ms.mp4	38.double_slap_with_pencil_short_vertflip_short_600ms.mp4	302.50772719954875	303.11606385390223	0.6083366543534794				
287.60498046875	0.2	589015	221	29	2	0	0	29	260	stimuli\Videos_short_600ms_horvertflip\82.repeated_touch_with_cotton_bud_short_horvertflip_short_600ms.mp4	82.repeated_touch_with_cotton_bud_short_horvertflip_short_600ms.mp4	303.3076962326877	303.9160202774292	0.6083240447414937				
288.40478515625	0.2	590653	222	29	2	0	0	30	54	stimuli\Videos_short_600ms\59.single_push_with_long_side_pencil_short_short_600ms.mp4	59.single_push_with_long_side_pencil_short_short_600ms.mp4	304.10770514739033	304.716004559401	0.6082994120106378				
289.205078125	0.2	592292	223	29	2	0	0	31	153	stimuli\Videos_short_600ms_horflip\67.single_touch_with_sponge_short_horflip_short_600ms.mp4	67.single_touch_with_sponge_short_horflip_short_600ms.mp4	304.90769148208983	305.5160011577382	0.6083096756483428				
290.0048828125	0.2	593930	224	29	2	0	0	32	47	stimuli\Videos_short_600ms\52.touch_top_to_bottom_with_hammer_short_short_600ms.mp4	52.touch_top_to_bottom_with_hammer_short_short_600ms.mp4	305.7077206308213	306.31601124542794	0.6082906146066307				
290.8046875	0.2	595568	225	29	2	0	0	33	234	stimuli\Videos_short_600ms_horvertflip\59.single_push_with_long_side_pencil_short_horvertflip_short_600ms.mp4	59.single_push_with_long_side_pencil_short_horvertflip_short_600ms.mp4	306.5076606325274	307.11597470687775	0.6083140743503463				
291.60498046875	0.2	597207	226	29	2	0	0	34	325	stimuli\Videos_short_600ms_vertflip\6.single_touch_with_flat_hand_short_vertflip_short_600ms.mp4	6.single_touch_with_flat_hand_short_vertflip_short_600ms.mp4	307.3076372900832	307.9159938852181	0.6083565951348646				
292.40478515625	0.2	598845	227	29	2	0	0	35	233	stimuli\Videos_short_600ms_horvertflip\58.single_slap_with_pencil_short_horvertflip_short_600ms.mp4	58.single_slap_with_pencil_short_horvertflip_short_600ms.mp4	308.1076441520581	308.71597024952644	0.6083260974683071				
293.20458984375	0.2	600483	228	29	2	0	0	36	148	stimuli\Videos_short_600ms_horflip\62.touch_top_to_bottom_with_scissors_short_horflip_short_600ms.mp4	62.touch_top_to_bottom_with_scissors_short_horflip_short_600ms.mp4	308.9076240353279	309.51596684786364	0.6083428125357386				
294.0048828125	0.2	602122	229	29	2	0	0	37	31	stimuli\Videos_short_600ms\38.double_slap_with_pencil_short_short_600ms.mp4	38.double_slap_with_pencil_short_short_600ms.mp4	309.70762620535425	310.3159540623037	0.6083278569494723				
294.8046875	0.2	603760	230	29	2	0	0	38	334	stimuli\Videos_short_600ms_vertflip\68.stroke_top_to_bottom_with_shawl_short_vertflip_short_600ms.mp4	68.stroke_top_to_bottom_with_shawl_short_vertflip_short_600ms.mp4	310.5075923060258	311.1159333590804	0.6083410530545734				
295.6044921875	0.2	605398	231	29	2	0	0	39	228	stimuli\Videos_short_600ms_horvertflip\53.touch_top_to_bottom_with_knife_short_horvertflip_short_600ms.mp4	53.touch_top_to_bottom_with_knife_short_horvertflip_short_600ms.mp4	311.30759887475324	311.91592145326103	0.6083225785077957				
296.40478515625	0.2	607037	232	29	2	0	0	40	229	stimuli\Videos_short_600ms_horvertflip\54.repeated_touch_with_knife_short_horvertflip_short_600ms.mp4	54.repeated_touch_with_knife_short_horvertflip_short_600ms.mp4	312.1075693741268	312.7158705456177	0.6083011714908935				
297.20458984375	0.2	608675	233	29	2	0	0	41	289	stimuli\Videos_short_600ms_vertflip\27.single_push_with_a_plastic_whisk_short_vertflip_short_600ms.mp4	27.single_push_with_a_plastic_whisk_short_vertflip_short_600ms.mp4	312.90756333324225	313.51589705512833	0.6083337218860834				
298.0048828125	0.2	610314	234	29	2	0	0	42	142	stimuli\Videos_short_600ms_horflip\57.single_touch_with_nail_file_short_horflip_short_600ms.mp4	57.single_touch_with_nail_file_short_horflip_short_600ms.mp4	313.7076634476971	314.3158842695675	0.6082208218704181				
298.8046875	0.2	611952	235	29	2	0	0	43	38	stimuli\Videos_short_600ms\44.pushing_top_to_bottom_with_finger_short_short_600ms.mp4	44.pushing_top_to_bottom_with_finger_short_short_600ms.mp4	314.5075858545961	315.1158744164759	0.6082885618798173				
299.6044921875	0.2	613590	236	29	2	0	0	44	198	stimuli\Videos_short_600ms_horvertflip\26.single_touch_with_a_blunt_syringe_short_horvertflip_short_600ms.mp4	26.single_touch_with_a_blunt_syringe_short_horvertflip_short_600ms.mp4	315.30755254176074	315.91586251065564	0.6083099688949005				
300.40478515625	0.2	615229	237	29	2	0	0	45	328	stimuli\Videos_short_600ms_vertflip\62.touch_top_to_bottom_with_scissors_short_vertflip_short_600ms.mp4	62.touch_top_to_bottom_with_scissors_short_vertflip_short_600ms.mp4	316.10750485983226	316.7158514845769	0.6083466247446268				
301.20458984375	0.2	616867	238	29	2	0	1	46	361	stimuli\Targets_short_600ms\chopstick-silver-tap_short_short_600ms.mp4	chopstick-silver-tap_short_short_600ms.mp4	316.9074914877792	317.5158340070684	0.6083425192891809				
302.00439453125	0.2	618505	239	29	2	0	0	47	96	stimuli\Videos_short_600ms_horflip\15.single_stroke_top_to_bottom_with_a_plastic_whisk_short_horflip_short_600ms.mp4	15.single_stroke_top_to_bottom_with_a_plastic_whisk_short_horflip_short_600ms.mp4	317.70766725990507	318.3158047996876	0.6081375397825468				
302.8046875	0.2	620144	240	29	2	0	0	48	77	stimuli\Videos_short_600ms\8.single_touch_with_hairbrush_short_short_600ms.mp4	8.single_touch_with_hairbrush_short_short_600ms.mp4	318.50746533016536	319.1157870289326	0.6083216987672131				
303.6044921875	0.2	621782	241	29	2	0	0	49	98	stimuli\Videos_short_600ms_horflip\17.repeated_touch_with_rolling_pin_short_horflip_short_600ms.mp4	17.repeated_touch_with_rolling_pin_short_horflip_short_600ms.mp4	319.30747541785513	319.91577952181433	0.608304103959199				
304.404296875	0.2	623420	242	29	2	0	0	50	106	stimuli\Videos_short_600ms_horflip\24.single_stroke_top_to_bottom_with_a_spoon_short_horflip_short_600ms.mp4	24.single_stroke_top_to_bottom_with_a_spoon_short_horflip_short_600ms.mp4	320.1074611660606	320.71574650222556	0.6082853361649541				
305.20458984375	0.2	625059	243	29	2	0	0	51	183	stimuli\Videos_short_600ms_horvertflip\12.repeated_touch_with_nail_file_short_horvertflip_short_600ms.mp4	12.repeated_touch_with_nail_file_short_horvertflip_short_600ms.mp4	320.90748620933664	321.5157680265402	0.6082818172035331				
306.00439453125	0.2	626697	244	29	2	0	0	52	254	stimuli\Videos_short_600ms_horvertflip\77.tapping_with_all_fingers_short_horvertflip_short_600ms.mp4	77.tapping_with_all_fingers_short_horvertflip_short_600ms.mp4	321.7074520167607	322.31574351110885	0.6082914943481228				
306.80419921875	0.2	628335	245	29	2	0	0	53	35	stimuli\Videos_short_600ms\41.injection_with_blunt_syringe_short_short_600ms.mp4	41.injection_with_blunt_syringe_short_short_600ms.mp4	322.5074122524966	323.1157626894483	0.6083504369516959				
307.6044921875	0.2	629974	246	29	2	0	0	54	105	stimuli\Videos_short_600ms_horflip\23.single_push_with_a_spoon_short_horflip_short_600ms.mp4	23.single_push_with_a_spoon_short_horflip_short_600ms.mp4	323.3074123697952	323.9157457984338	0.6083334286386162				
308.404296875	0.2	631612	247	29	2	0	1	55	366	stimuli\Targets_short_600ms_horflip\brush-stroke_short_horflip_short_600ms.mp4	brush-stroke_short_horflip_short_600ms.mp4	324.107354424229	324.71572597495015	0.6083715507211309				
309.2041015625	0.2	633250	248	29	2	0	0	56	197	stimuli\Videos_short_600ms_horvertflip\25.single_touch_with_stanley_knife_short_horvertflip_short_600ms.mp4	25.single_touch_with_stanley_knife_short_horvertflip_short_600ms.mp4	324.9074313721867	325.5157126028971	0.6082812307104177				
310.00439453125	0.2	634889	249	29	2	0	0	57	25	stimuli\Videos_short_600ms\32.single_(long)pinch_with_fingers_short_short_600ms.mp4	32.single_(long)pinch_with_fingers_short_short_600ms.mp4	325.7074487910468	326.31570245655803	0.6082536655112563				
310.80419921875	0.2	636527	250	29	2	0	1	58	382	stimuli\Targets_short_600ms_vertflip\hand-pinch_short_horvertflip_short_600ms.mp4	hand-pinch_short_horvertflip_short_600ms.mp4	326.507403161846	327.1156911372318	0.6082879753857924				
311.60400390625	0.2	638165	251	29	2	0	0	59	347	stimuli\Videos_short_600ms_vertflip\8.single_touch_with_hairbrush_short_vertflip_short_600ms.mp4	8.single_touch_with_hairbrush_short_vertflip_short_600ms.mp4	327.3073543069304	327.9156765921907	0.6083222852603285				
312.404296875	0.2	639804	252	29	2	0	0	60	6	stimuli\Videos_short_600ms\15.single_stroke_top_to_bottom_with_a_plastic_whisk_short_short_600ms.mp4	15.single_stroke_top_to_bottom_with_a_plastic_whisk_short_short_600ms.mp4	328.1073183548742	328.7156661526051	0.6083477977308576				
313.2041015625	0.2	641442	253	29	2	0	0	61	238	stimuli\Videos_short_600ms_horvertflip\62.touch_top_to_bottom_with_scissors_short_horvertflip_short_600ms.mp4	62.touch_top_to_bottom_with_scissors_short_horvertflip_short_600ms.mp4	328.90728621502603	329.5156536602917	0.6083674452656851				
314.00390625	0.2	643080	254	29	2	0	0	62	354	stimuli\Videos_short_600ms_vertflip\86.touch_top_to_bottom_with_hair_brush_short_vertflip_short_600ms.mp4	86.touch_top_to_bottom_with_hair_brush_short_vertflip_short_600ms.mp4	329.7072719632315	330.3156402882387	0.6083683250071772				
314.80419921875	0.2	644719	255	29	2	0	0	63	299	stimuli\Videos_short_600ms_vertflip\36.single_slap_with_full_hand_short_vertflip_short_600ms.mp4	36.single_slap_with_full_hand_short_vertflip_short_600ms.mp4	330.5072747197519	331.1156324878739	0.6083577681220049				
315.60400390625	0.2	646357	256	29	2	0	1	64	377	stimuli\Targets_short_600ms_horvertflip\hand-stroke_short_vertflip_short_600ms.mp4	hand-stroke_short_vertflip_short_600ms.mp4	331.30740621161203	331.91561618335254	0.6082099717405072				
316.40380859375	0.2	647995	257	29	2	0	0	65	155	stimuli\Videos_short_600ms_horflip\69.stroke_with_soft_sock_short_horflip_short_600ms.mp4	69.stroke_with_soft_sock_short_horflip_short_600ms.mp4	332.1072664501917	332.71558785571233	0.6083214055206554				
317.2041015625	0.2	649634	258	29	2	0	0	66	167	stimuli\Videos_short_600ms_horflip\8.single_touch_with_hairbrush_short_horflip_short_600ms.mp4	8.single_touch_with_hairbrush_short_horflip_short_600ms.mp4	332.9073307885383	333.5156023421041	0.6082715535658281				
318.00390625	0.2	651272	259	29	2	0	0	67	348	stimuli\Videos_short_600ms_vertflip\80.stroke_with_sharp_stick_all_over_the_hand_short_vertflip_short_600ms.mp4	80.stroke_with_sharp_stick_all_over_the_hand_short_vertflip_short_600ms.mp4	333.7073086190803	334.31553442614677	0.6082258070664466				
318.80419921875	0.2	652911	260	29	2	0	0	68	207	stimuli\Videos_short_600ms_horvertflip\34.repeated_punch_with_hand_short_horvertflip_short_600ms.mp4	34.repeated_punch_with_hand_short_horvertflip_short_600ms.mp4	334.50723601117534	335.1155198811066	0.608283869931256				
319.60400390625	0.2	654549	261	29	2	0	0	69	71	stimuli\Videos_short_600ms\74.fingers_walking_from_top_to_bottom_short_short_600ms.mp4	74.fingers_walking_from_top_to_bottom_short_short_600ms.mp4	335.3072293837977	335.91552996879545	0.6083005849977781				
320.40380859375	0.2	656187	262	29	2	0	0	70	250	stimuli\Videos_short_600ms_horvertflip\73.single_stroke_with_flat_hand_short_horvertflip_short_600ms.mp4	73.single_stroke_with_flat_hand_short_horvertflip_short_600ms.mp4	336.1071992966772	336.7155286198604	0.6083293231831703				
321.2041015625	0.2	657826	263	29	2	0	0	71	86	stimuli\Videos_short_600ms\88.repeated_stroke_with_plastic_brush_short_short_600ms.mp4	88.repeated_stroke_with_plastic_brush_short_short_600ms.mp4	336.907187977351	337.51553284261445	0.6083448652634615				
322.00390625	0.2	659464	264	29	2	0	0	72	274	stimuli\Videos_short_600ms_vertflip\13.single_touch_with_pen_short_vertflip_short_600ms.mp4	13.single_touch_with_pen_short_vertflip_short_600ms.mp4	337.70719161361103	338.31551829757336	0.608326683962332				
322.8037109375	0.2	661102	265	29	2	0	1	73	368	stimuli\Targets_short_600ms_horflip\chopstickwood-tap_short_horflip_short_600ms.mp4	chopstickwood-tap_short_horflip_short_600ms.mp4	338.5071797077917	339.1155169486383	0.6083372408465948				
323.60400390625	0.2	662741	266	29	2	0	0	74	130	stimuli\Videos_short_600ms_horflip\46.scratching_top_to_bottom_with_finger_nails_short_horflip_short_600ms.mp4	46.scratching_top_to_bottom_with_finger_nails_short_horflip_short_600ms.mp4	339.3072754235436	339.91549389944066	0.608218475897047				
324.40380859375	0.2	664379	267	29	2	0	0	75	317	stimuli\Videos_short_600ms_vertflip\52.touch_top_to_bottom_with_hammer_short_vertflip_short_600ms.mp4	52.touch_top_to_bottom_with_hammer_short_vertflip_short_600ms.mp4	340.1072119062892	340.71548697881644	0.608275072527249				
325.20361328125	0.2	666017	268	29	2	0	0	76	23	stimuli\Videos_short_600ms\30.finger_pulling_back_another_finger_short_short_600ms.mp4	30.finger_pulling_back_another_finger_short_short_600ms.mp4	340.90717272851816	341.5154706742951	0.6082979457769397				
326.00390625	0.2	667656	269	29	2	0	0	77	30	stimuli\Videos_short_600ms\37.single_stab_with_nail_file_short_short_600ms.mp4	37.single_stab_with_nail_file_short_short_600ms.mp4	341.70713325749966	342.3154570089946	0.608323751494936				
326.8037109375	0.2	669294	270	29	2	0	0	78	16	stimuli\Videos_short_600ms\24.single_stroke_top_to_bottom_with_a_spoon_short_short_600ms.mp4	24.single_stroke_top_to_bottom_with_a_spoon_short_short_600ms.mp4	342.5071105015486	343.11544803564266	0.608337534094062				
327.603515625	0.2	670932	271	29	2	0	0	79	239	stimuli\Videos_short_600ms_horvertflip\63.stroke_top_to_bottom_with_screwdriver_short_horvertflip_short_600ms.mp4	63.stroke_top_to_bottom_with_screwdriver_short_horvertflip_short_600ms.mp4	343.30709507676784	343.9154317311213	0.6083366543534794				
328.40380859375	0.2	672571	272	29	2	0	1	80	367	stimuli\Targets_short_600ms_horflip\chopstick-silver-tap_short_horflip_short_600ms.mp4	chopstick-silver-tap_short_horflip_short_600ms.mp4	344.107155309659	344.71541865231393	0.6082633426549364				
329.20361328125	0.2	674209	273	29	2	0	0	81	296	stimuli\Videos_short_600ms_vertflip\33.scratch_top_to_bottom_with_scissors_short_vertflip_short_600ms.mp4	33.scratch_top_to_bottom_with_scissors_short_vertflip_short_600ms.mp4	344.9070560162954	345.51540645324803	0.6083504369526054				
330.00341796875	0.2	675847	274	29	2	0	0	82	14	stimuli\Videos_short_600ms\22.single_touch_with_metal_chopstick_short_short_600ms.mp4	22.single_touch_with_metal_chopstick_short_short_600ms.mp4	345.70702827514924	346.3153974798961	0.6083692047468503				
330.8037109375	0.2	677486	275	29	2	0	0	83	49	stimuli\Videos_short_600ms\54.repeated_touch_with_knife_short_short_600ms.mp4	54.repeated_touch_with_knife_short_short_600ms.mp4	346.5070427615401	347.11538322810156	0.608340466561458				
331.603515625	0.2	679124	276	29	2	0	0	84	26	stimuli\Videos_short_600ms\33.scratch_top_to_bottom_with_scissors_short_short_600ms.mp4	33.scratch_top_to_bottom_with_scissors_short_short_600ms.mp4	347.30704727754073	347.9153745479971	0.6083272704563569				
332.4033203125	0.2	680762	277	29	2	0	0	85	193	stimuli\Videos_short_600ms_horvertflip\21.repeated_touch_with_metal_chopstick_short_horvertflip_short_600ms.mp4	21.repeated_touch_with_metal_chopstick_short_horvertflip_short_600ms.mp4	348.10702833379855	348.71533771620034	0.6083093824017851				
333.20361328125	0.2	682401	278	29	2	0	0	86	33	stimuli\Videos_short_600ms\4.repeated_tap_with_finger_slow_short_short_600ms.mp4	4.repeated_tap_with_finger_slow_short_short_600ms.mp4	348.9069997129118	349.51530029790956	0.6083005849977781				
334.00341796875	0.2	684039	279	29	2	0	0	87	175	stimuli\Videos_short_600ms_horflip\87.single_stroke_top_to_bottom_with_plastic_brush_short_horflip_short_600ms.mp4	87.single_stroke_top_to_bottom_with_plastic_brush_short_horflip_short_600ms.mp4	349.7070139060561	350.3153185965093	0.6083046904532239				
334.80322265625	0.2	685677	280	29	2	0	0	88	246	stimuli\Videos_short_600ms_horvertflip\7.repeated_touch_with_hairbrush_short_horvertflip_short_600ms.mp4	7.repeated_touch_with_hairbrush_short_horvertflip_short_600ms.mp4	350.50715859402226	351.1153005325068	0.6081419384845503				
335.603515625	0.2	687316	281	29	2	0	0	89	188	stimuli\Videos_short_600ms_horvertflip\17.repeated_touch_with_rolling_pin_short_horvertflip_short_600ms.mp4	17.repeated_touch_with_rolling_pin_short_horvertflip_short_600ms.mp4	351.3070525559833	351.91528804019345	0.6082354842101267				
336.4033203125	0.2	688954	282	29	2	0	0	90	36	stimuli\Videos_short_600ms\42.single_slap_with_plastic_whisk_short_short_600ms.mp4	42.single_slap_with_plastic_whisk_short_short_600ms.mp4	352.1069374272929	352.71528405203753	0.6083466247446268				
337.203125	0.2	690592	283	29	2	0	0	91	177	stimuli\Videos_short_600ms_horflip\89.single_touch_with_plastic_brush_short_horflip_short_600ms.mp4	89.single_touch_with_plastic_brush_short_horflip_short_600ms.mp4	352.9069636435561	353.51527889089357	0.6083152473374867				
338.00341796875	0.2	692231	284	29	2	0	0	92	196	stimuli\Videos_short_600ms_horvertflip\24.single_stroke_top_to_bottom_with_a_spoon_short_horvertflip_short_600ms.mp4	24.single_stroke_top_to_bottom_with_a_spoon_short_horvertflip_short_600ms.mp4	353.7069247590316	354.3152813541674	0.6083565951357741				
338.80322265625	0.2	693869	285	29	2	0	0	93	125	stimuli\Videos_short_600ms_horflip\41.injection_with_blunt_syringe_short_horflip_short_600ms.mp4	41.injection_with_blunt_syringe_short_horflip_short_600ms.mp4	354.50691373295285	355.11526211717774	0.6083483842248825				
339.603515625	0.2	695508	286	29	2	0	0	94	310	stimuli\Videos_short_600ms_vertflip\46.scratching_top_to_bottom_with_finger_nails_short_vertflip_short_600ms.mp4	46.scratching_top_to_bottom_with_finger_nails_short_vertflip_short_600ms.mp4	355.3069232341486	355.9152458126564	0.6083225785077957				
340.4033203125	0.2	697146	287	29	2	0	0	95	276	stimuli\Videos_short_600ms_vertflip\15.single_stroke_top_to_bottom_with_a_plastic_whisk_short_vertflip_short_600ms.mp4	15.single_stroke_top_to_bottom_with_a_plastic_whisk_short_vertflip_short_600ms.mp4	356.1069145540441	356.715236546057	0.6083219920128613				
341.203125	0.2	698784	288	29	2	0	0	96	137	stimuli\Videos_short_600ms_horflip\52.touch_top_to_bottom_with_hammer_short_horflip_short_600ms.mp4	52.touch_top_to_bottom_with_hammer_short_horflip_short_600ms.mp4	356.90695660563324	357.5152228807574	0.6082662751241514				
342.00341796875	0.2	700423	289	29	2	0	0	97	311	stimuli\Videos_short_600ms_vertflip\47.(long)scratching_with_finger_nails_short_vertflip_short_600ms.mp4	47.(long)scratching_with_finger_nails_short_vertflip_short_600ms.mp4	357.7068904491571	358.3151731461012	0.6082826969441157				
342.80322265625	0.2	702061	290	29	2	0	0	98	92	stimuli\Videos_short_600ms_horflip\11.single_touch_with_lighter_short_horflip_short_600ms.mp4	11.single_touch_with_lighter_short_horflip_short_600ms.mp4	358.5069198911351	359.1151976028832	0.6082777117480873	9.0	7.0	3.427235940795981	0.0
378.58544921875	0.2	775343	291	29	3	0	1	0	372	stimuli\Targets_short_600ms_horvertflip\brush-stroke_short_vertflip_short_600ms.mp4	brush-stroke_short_vertflip_short_600ms.mp4	394.2896336966369	394.8979809078746	0.6083472112377422				
379.38525390625	0.2	776981	292	29	3	0	0	1	58	stimuli\Videos_short_600ms\62.touch_top_to_bottom_with_scissors_short_short_600ms.mp4	62.touch_top_to_bottom_with_scissors_short_short_600ms.mp4	395.0896663643298	395.69796782906815	0.6083014647383607				
380.18505859375	0.2	778619	293	29	3	0	0	2	66	stimuli\Videos_short_600ms\7.repeated_touch_with_hairbrush_short_short_600ms.mp4	7.repeated_touch_with_hairbrush_short_short_600ms.mp4	395.8896307055202	396.4979559232479	0.6083252177277245				
380.9853515625	0.2	780258	294	29	3	0	0	3	300	stimuli\Videos_short_600ms_vertflip\37.single_stab_with_nail_file_short_vertflip_short_600ms.mp4	37.single_stab_with_nail_file_short_vertflip_short_600ms.mp4	396.6895970994374	397.2979457769088	0.6083486774714402				
381.78515625	0.2	781896	295	29	3	0	1	4	376	stimuli\Targets_short_600ms_horvertflip\hand-pinch_short_vertflip_short_600ms.mp4	hand-pinch_short_vertflip_short_600ms.mp4	397.48957932868234	398.0979335778429	0.608354249160584				
382.58544921875	0.2	783535	296	29	3	0	0	5	37	stimuli\Videos_short_600ms\43.touch_top_to_bottom_with_sharp_wooden_stick_short_short_600ms.mp4	43.touch_top_to_bottom_with_sharp_wooden_stick_short_short_600ms.mp4	398.2896040787109	398.8979043704622	0.6083002917512204				
383.38525390625	0.2	785173	297	29	3	0	0	6	202	stimuli\Videos_short_600ms_horvertflip\3.single_push_with_finger_short_horvertflip_short_600ms.mp4	3.single_push_with_finger_short_horvertflip_short_600ms.mp4	399.08958513496873	399.69789569035765	0.6083105553889254				
384.18505859375	0.2	786811	298	29	3	0	0	7	243	stimuli\Videos_short_600ms_horvertflip\67.single_touch_with_sponge_short_horvertflip_short_600ms.mp4	67.single_touch_with_sponge_short_horvertflip_short_600ms.mp4	399.8895685371999	400.4978518206371	0.6082832834372311				
384.9853515625	0.2	788450	299	29	3	0	0	8	297	stimuli\Videos_short_600ms_vertflip\34.repeated_punch_with_hand_short_vertflip_short_600ms.mp4	34.repeated_punch_with_hand_short_vertflip_short_600ms.mp4	400.6895636693034	401.2978378620901	0.6082741927866664				
385.78515625	0.2	790088	300	29	3	0	0	9	303	stimuli\Videos_short_600ms_vertflip\4.repeated_tap_with_finger_slow_short_vertflip_short_600ms.mp4	4.repeated_tap_with_finger_slow_short_vertflip_short_600ms.mp4	401.4895236117918	402.09784589705214	0.6083222852603285				
386.5849609375	0.2	791726	301	29	3	0	0	10	219	stimuli\Videos_short_600ms_horvertflip\45.scratching_with_finger_nails_short_horvertflip_short_600ms.mp4	45.scratching_with_finger_nails_short_horvertflip_short_600ms.mp4	402.2895111194785	402.89784308188337	0.6083319624049182				
387.38525390625	0.2	793365	302	29	3	0	0	11	345	stimuli\Videos_short_600ms_vertflip\78.single_stroke_top_to_bottom_with_soft_brush_short_vertflip_short_600ms.mp4	78.single_stroke_top_to_bottom_with_soft_brush_short_vertflip_short_600ms.mp4	403.089498040672	403.6978311760631	0.608333135391149				
388.18505859375	0.2	795003	303	29	3	0	0	12	32	stimuli\Videos_short_600ms\39.single_stab_with_scissors_short_short_600ms.mp4	39.single_stab_with_scissors_short_short_600ms.mp4	403.8894650210832	404.4978266014132	0.6083615803299836				
388.98486328125	0.2	796641	304	29	3	0	0	13	74	stimuli\Videos_short_600ms\77.tapping_with_all_fingers_short_short_600ms.mp4	77.tapping_with_all_fingers_short_short_600ms.mp4	404.6894947563078	405.2978255457256	0.6083307894177779				
389.78515625	0.2	798280	305	29	3	0	0	14	268	stimuli\Videos_short_600ms_horvertflip\9.single_touch_with_hammer_short_horvertflip_short_600ms.mp4	9.single_touch_with_hammer_short_horvertflip_short_600ms.mp4	405.4894837302282	406.09780982769735	0.6083260974692166				
390.5849609375	0.2	799918	306	29	3	0	0	15	308	stimuli\Videos_short_600ms_vertflip\44.pushing_top_to_bottom_with_finger_short_vertflip_short_600ms.mp4	44.pushing_top_to_bottom_with_finger_short_vertflip_short_600ms.mp4	406.289469771681	406.8978023205791	0.6083325488980336				
391.384765625	0.2	801556	307	29	3	0	0	16	53	stimuli\Videos_short_600ms\58.single_slap_with_pencil_short_short_600ms.mp4	58.single_slap_with_pencil_short_short_600ms.mp4	407.0894634375509	407.6977839633301	0.6083205257791633				
392.18505859375	0.2	803195	308	29	3	0	0	17	251	stimuli\Videos_short_600ms_horvertflip\74.fingers_walking_from_top_to_bottom_short_horvertflip_short_600ms.mp4	74.fingers_walking_from_top_to_bottom_short_horvertflip_short_600ms.mp4	407.8894450803018	408.49777176426414	0.608326683962332				
392.98486328125	0.2	804833	309	29	3	0	0	18	151	stimuli\Videos_short_600ms_horflip\65.stroke_top_to_bottom_with_stanley_knife_short_horflip_short_600ms.mp4	65.stroke_top_to_bottom_with_stanley_knife_short_horflip_short_600ms.mp4	408.68944813006783	409.2977586854568	0.6083105553889254				
393.78466796875	0.2	806471	310	29	3	0	0	19	357	stimuli\Videos_short_600ms_vertflip\89.single_touch_with_plastic_brush_short_vertflip_short_600ms.mp4	89.single_touch_with_plastic_brush_short_vertflip_short_600ms.mp4	409.48940044814026	410.0977467796374	0.6083463314971596				
394.5849609375	0.2	808110	311	29	3	0	0	20	84	stimuli\Videos_short_600ms\86.touch_top_to_bottom_with_hair_brush_short_short_600ms.mp4	86.touch_top_to_bottom_with_hair_brush_short_short_600ms.mp4	410.2893932342686	410.8977369265449	0.6083436922763212				
395.384765625	0.2	809748	312	29	3	0	0	21	336	stimuli\Videos_short_600ms_vertflip\7.repeated_touch_with_hairbrush_short_vertflip_short_600ms.mp4	7.repeated_touch_with_hairbrush_short_vertflip_short_600ms.mp4	411.0893608011738	411.69772296799783	0.6083621668240085				
396.1845703125	0.2	811386	313	29	3	0	0	22	187	stimuli\Videos_short_600ms_horvertflip\16.repeated_touch_with_plastic_brush_short_horvertflip_short_600ms.mp4	16.repeated_touch_with_plastic_brush_short_horvertflip_short_600ms.mp4	411.8893415641842	412.49771076893103	0.6083692047468503				
396.98486328125	0.2	813025	314	29	3	0	0	23	8	stimuli\Videos_short_600ms\17.repeated_touch_with_rolling_pin_short_short_600ms.mp4	17.repeated_touch_with_rolling_pin_short_short_600ms.mp4	412.68940384980306	413.2976997428523	0.6082958930492168				
397.78466796875	0.2	814663	315	29	3	0	0	24	51	stimuli\Videos_short_600ms\56.repeated_touch_with_nail_file_short_short_600ms.mp4	56.repeated_touch_with_nail_file_short_short_600ms.mp4	413.48934238527545	414.0976658435229	0.6083234582474688				
398.58447265625	0.2	816301	316	29	3	0	0	25	189	stimuli\Videos_short_600ms_horvertflip\18.single_stroke_from_top_to_bottom_with_rolling_pin_short_horvertflip_short_600ms.mp4	18.single_stroke_from_top_to_bottom_with_rolling_pin_short_horvertflip_short_600ms.mp4	414.2895507077956	414.89764250107874	0.6080917932831653				
399.384765625	0.2	817940	317	29	3	0	0	26	232	stimuli\Videos_short_600ms_horvertflip\57.single_touch_with_nail_file_short_horvertflip_short_600ms.mp4	57.single_touch_with_nail_file_short_horvertflip_short_600ms.mp4	415.08939657728206	415.6976209181148	0.6082243408327486				
400.1845703125	0.2	819578	318	29	3	0	0	27	304	stimuli\Videos_short_600ms_vertflip\40.repeated_push_with_finger_short_vertflip_short_600ms.mp4	40.repeated_push_with_finger_short_vertflip_short_600ms.mp4	415.8893298343128	416.49760461359347	0.6082747792806913				
400.984375	0.2	821216	319	29	3	0	1	28	383	stimuli\Targets_short_600ms_vertflip\hand-stroke_short_horvertflip_short_600ms.mp4	hand-stroke_short_horvertflip_short_600ms.mp4	416.6893358165471	417.29757569946014	0.6082398829130398				
401.78466796875	0.2	822855	320	29	3	0	0	29	0	stimuli\Videos_short_600ms\1.repeated_touch_with_finger_fast_short_short_600ms.mp4	1.repeated_touch_with_finger_fast_short_short_600ms.mp4	417.4892986915038	418.0976095401393	0.6083108486354831				
402.58447265625	0.2	824493	321	29	3	0	0	30	90	stimuli\Videos_short_600ms_horflip\1.repeated_touch_with_finger_fast_short_horflip_short_600ms.mp4	1.repeated_touch_with_finger_fast_short_horflip_short_600ms.mp4	418.2892627394476	418.8975949950982	0.6083322556505664				
403.384765625	0.2	826132	322	29	3	0	0	31	341	stimuli\Videos_short_600ms_vertflip\74.fingers_walking_from_top_to_bottom_short_vertflip_short_600ms.mp4	74.fingers_walking_from_top_to_bottom_short_vertflip_short_600ms.mp4	419.0892713609028	419.6976127072048	0.6083413463020406				
404.1845703125	0.2	827770	323	29	3	0	0	32	113	stimuli\Videos_short_600ms_horflip\30.finger_pulling_back_another_finger_short_horflip_short_600ms.mp4	30.finger_pulling_back_another_finger_short_horflip_short_600ms.mp4	419.8892582820963	420.4975946432023	0.6083363611060122				
404.984375	0.2	829408	324	29	3	0	0	33	124	stimuli\Videos_short_600ms_horflip\40.repeated_push_with_finger_short_horflip_short_600ms.mp4	40.repeated_push_with_finger_short_horflip_short_600ms.mp4	420.6892466695235	421.2975721804987	0.6083255109751917				
405.78466796875	0.2	831047	325	29	3	0	0	34	156	stimuli\Videos_short_600ms_horflip\7.repeated_touch_with_hairbrush_short_horflip_short_600ms.mp4	7.repeated_touch_with_hairbrush_short_horflip_short_600ms.mp4	421.4892409218865	422.0975608611725	0.6083199392860479				
406.58447265625	0.2	832685	326	29	3	0	0	35	181	stimuli\Videos_short_600ms_horvertflip\10.single_touch_with_knife_short_horvertflip_short_600ms.mp4	10.single_touch_with_knife_short_horvertflip_short_600ms.mp4	422.2892225646374	422.8975501283394	0.6083275637020051				
407.38427734375	0.2	834323	327	29	3	0	0	36	146	stimuli\Videos_short_600ms_horflip\60.single_push_with_tip_of_pencil_short_horflip_short_600ms.mp4	60.single_push_with_tip_of_pencil_short_horflip_short_600ms.mp4	423.0892109520637	423.6975388090132	0.6083278569494723				
408.1845703125	0.2	835962	328	29	3	0	0	37	199	stimuli\Videos_short_600ms_horvertflip\27.single_push_with_a_plastic_whisk_short_horvertflip_short_600ms.mp4	27.single_push_with_a_plastic_whisk_short_horvertflip_short_600ms.mp4	423.8892618010577	424.4975271964404	0.6082653953826593				
408.984375	0.2	837600	329	29	3	0	0	38	139	stimuli\Videos_short_600ms_horflip\54.repeated_touch_with_knife_short_horflip_short_600ms.mp4	54.repeated_touch_with_knife_short_horflip_short_600ms.mp4	424.689165733409	425.29751089191905	0.6083451585100192				
409.7841796875	0.2	839238	330	29	3	0	0	39	76	stimuli\Videos_short_600ms\79.long_with_soft_brush_all_over_the_hand_short_short_600ms.mp4	79.long_with_soft_brush_all_over_the_hand_short_short_600ms.mp4	425.4891306610926	426.0974983996057	0.6083677385131523				
410.58447265625	0.2	840877	331	29	3	0	0	40	18	stimuli\Videos_short_600ms\26.single_touch_with_a_blunt_syringe_short_short_600ms.mp4	26.single_touch_with_a_blunt_syringe_short_short_600ms.mp4	426.2891386960546	426.89748561404576	0.6083469179911845				
411.38427734375	0.2	842515	332	29	3	0	0	41	133	stimuli\Videos_short_600ms_horflip\49.repeated_slap_with_hand_short_horflip_short_600ms.mp4	49.repeated_slap_with_hand_short_horflip_short_600ms.mp4	427.0891426255621	427.69747282848584	0.608330202923753				
412.18408203125	0.2	844153	333	29	3	0	0	42	28	stimuli\Videos_short_600ms\35.single_punch_with_hand_short_short_600ms.mp4	35.single_punch_with_hand_short_short_600ms.mp4	427.8891263210407	428.4974615091596	0.6083351881188719				
412.984375	0.2	845792	334	29	3	0	0	43	94	stimuli\Videos_short_600ms_horflip\13.single_touch_with_pen_short_horflip_short_600ms.mp4	13.single_touch_with_pen_short_horflip_short_600ms.mp4	428.6891733578259	429.29744608437886	0.6082727265529684				
413.7841796875	0.2	847430	335	29	3	0	0	44	344	stimuli\Videos_short_600ms_vertflip\77.tapping_with_all_fingers_short_vertflip_short_600ms.mp4	77.tapping_with_all_fingers_short_vertflip_short_600ms.mp4	429.48909664446546	430.0974344718052	0.6083378273397102				
414.583984375	0.2	849068	336	29	3	0	0	45	264	stimuli\Videos_short_600ms_horvertflip\86.touch_top_to_bottom_with_hair_brush_short_horvertflip_short_600ms.mp4	86.touch_top_to_bottom_with_hair_brush_short_horvertflip_short_600ms.mp4	430.2891055591672	430.8973797519547	0.6082741927875759				
415.38427734375	0.2	850707	337	29	3	0	0	46	257	stimuli\Videos_short_600ms_horvertflip\8.single_touch_with_hairbrush_short_horvertflip_short_600ms.mp4	8.single_touch_with_hairbrush_short_horvertflip_short_600ms.mp4	431.089086028931	431.6973781097722	0.6082920808412382				
416.18408203125	0.2	852345	338	29	3	0	0	47	185	stimuli\Videos_short_600ms_horvertflip\14.repeated_touch_with_pencil_short_horvertflip_short_600ms.mp4	14.repeated_touch_with_pencil_short_horvertflip_short_600ms.mp4	431.8891471415627	432.4973553538211	0.6082082122584325				
416.98388671875	0.2	853983	339	29	3	0	0	48	218	stimuli\Videos_short_600ms_horvertflip\44.pushing_top_to_bottom_with_finger_short_horvertflip_short_600ms.mp4	44.pushing_top_to_bottom_with_finger_short_horvertflip_short_600ms.mp4	432.6890402237823	433.2973695469664	0.6083293231840798				
417.7841796875	0.2	855622	340	29	3	0	0	49	203	stimuli\Videos_short_600ms_horvertflip\30.finger_pulling_back_another_finger_short_horvertflip_short_600ms.mp4	30.finger_pulling_back_another_finger_short_horvertflip_short_600ms.mp4	433.4890520709532	434.09735529517184	0.6083032242186164				
418.583984375	0.2	857260	341	29	3	0	0	50	134	stimuli\Videos_short_600ms_horflip\5.repeated_tap_with_finger_moving_from_top_to_bottom_short_horflip_short_600ms.mp4	5.repeated_tap_with_finger_moving_from_top_to_bottom_short_horflip_short_600ms.mp4	434.2890386988993	434.8973744735122	0.6083357746128968				
419.3837890625	0.2	858898	342	29	3	0	0	51	288	stimuli\Videos_short_600ms_vertflip\26.single_touch_with_a_blunt_syringe_short_vertflip_short_600ms.mp4	26.single_touch_with_a_blunt_syringe_short_vertflip_short_600ms.mp4	435.0890394026919	435.6973619811988	0.6083225785068862				
420.18408203125	0.2	860537	343	29	3	0	0	52	320	stimuli\Videos_short_600ms_vertflip\55.touch_top_to_bottom_with_nail_file_short_vertflip_short_600ms.mp4	55.touch_top_to_bottom_with_nail_file_short_vertflip_short_600ms.mp4	435.8890169399874	436.49733834550807	0.6083214055206554				
420.98388671875	0.2	862175	344	29	3	0	0	53	50	stimuli\Videos_short_600ms\55.touch_top_to_bottom_with_nail_file_short_short_600ms.mp4	55.touch_top_to_bottom_with_nail_file_short_short_600ms.mp4	436.6890226289752	437.29732907890866	0.6083064499334796				
421.78369140625	0.2	863813	345	29	3	0	0	54	204	stimuli\Videos_short_600ms_horvertflip\31.hand_grabbing_wrist_short_horvertflip_short_600ms.mp4	31.hand_grabbing_wrist_short_horvertflip_short_600ms.mp4	437.488986676919	438.09731394737446	0.6083272704554474				
422.583984375	0.2	865452	346	29	3	0	0	55	255	stimuli\Videos_short_600ms_horvertflip\78.single_stroke_top_to_bottom_with_soft_brush_short_horvertflip_short_600ms.mp4	78.single_stroke_top_to_bottom_with_soft_brush_short_horvertflip_short_600ms.mp4	438.2889794630473	438.8973023348017	0.6083228717543534				
423.3837890625	0.2	867090	347	29	3	0	0	56	144	stimuli\Videos_short_600ms_horflip\59.single_push_with_long_side_pencil_short_horflip_short_600ms.mp4	59.single_push_with_long_side_pencil_short_horflip_short_600ms.mp4	439.0889663842409	439.6972872032675	0.6083208190266305				
424.18408203125	0.2	868729	348	29	3	0	0	57	220	stimuli\Videos_short_600ms_horvertflip\46.scratching_top_to_bottom_with_finger_nails_short_horvertflip_short_600ms.mp4	46.scratching_top_to_bottom_with_finger_nails_short_horvertflip_short_600ms.mp4	439.8889890815426	440.49727529744814	0.6082862159055367				
424.98388671875	0.2	870367	349	29	3	0	0	58	104	stimuli\Videos_short_600ms_horflip\22.single_touch_with_metal_chopstick_short_horflip_short_600ms.mp4	22.single_touch_with_metal_chopstick_short_horflip_short_600ms.mp4	440.6890328926129	441.29726515110906	0.608232258496173				
425.78369140625	0.2	872005	350	29	3	0	0	59	161	stimuli\Videos_short_600ms_horflip\74.fingers_walking_from_top_to_bottom_short_horflip_short_600ms.mp4	74.fingers_walking_from_top_to_bottom_short_horflip_short_600ms.mp4	441.4888916649588	442.0972538317829	0.6083621668240085				
426.583984375	0.2	873644	351	29	3	0	0	60	79	stimuli\Videos_short_600ms\81.single_stroke_top_to_bottom_with_cotton_pad_short_short_600ms.mp4	81.single_stroke_top_to_bottom_with_cotton_pad_short_short_600ms.mp4	442.288888263296	442.8972389934952	0.6083507301991631				
427.3837890625	0.2	875282	352	29	3	0	0	61	10	stimuli\Videos_short_600ms\19.single_touch_with_rolling_pin_short_short_600ms.mp4	19.single_touch_with_rolling_pin_short_short_600ms.mp4	443.08886638708555	443.6972273809224	0.6083609938368681				
428.18359375	0.2	876920	353	29	3	0	0	62	223	stimuli\Videos_short_600ms_horvertflip\49.repeated_slap_with_hand_short_horvertflip_short_600ms.mp4	49.repeated_slap_with_hand_short_horvertflip_short_600ms.mp4	443.88887412880104	444.4972163548427	0.6083422260417137				
428.98388671875	0.2	878559	354	29	3	0	0	63	80	stimuli\Videos_short_600ms\82.repeated_touch_with_cotton_bud_short_short_600ms.mp4	82.repeated_touch_with_cotton_bud_short_short_600ms.mp4	444.6888622229808	445.2971760040846	0.6083137811037886				
429.78369140625	0.2	880197	355	29	3	0	0	64	315	stimuli\Videos_short_600ms_vertflip\50.single_(long)hard_push_with_thumb_short_vertflip_short_600ms.mp4	50.single_(long)hard_push_with_thumb_short_vertflip_short_600ms.mp4	445.48887143093	446.0971972351517	0.6083258042217494				
430.58349609375	0.2	881835	356	29	3	0	0	65	284	stimuli\Videos_short_600ms_vertflip\22.single_touch_with_metal_chopstick_short_vertflip_short_600ms.mp4	22.single_touch_with_metal_chopstick_short_vertflip_short_600ms.mp4	446.28891758797454	446.8971404625736	0.6082228745990506				
431.3837890625	0.2	883474	357	29	3	0	0	66	339	stimuli\Videos_short_600ms_vertflip\72.(short)stroke_with_finger_all_over_the_hand_short_vertflip_short_600ms.mp4	72.(short)stroke_with_finger_all_over_the_hand_short_vertflip_short_600ms.mp4	447.0888397016279	447.69712034584336	0.6082806442154833				
432.18359375	0.2	885112	358	29	3	0	0	67	212	stimuli\Videos_short_600ms_horvertflip\39.single_stab_with_scissors_short_horvertflip_short_600ms.mp4	39.single_stab_with_scissors_short_horvertflip_short_600ms.mp4	447.8888266228205	448.49713395249455	0.6083073296740622				
432.9833984375	0.2	886750	359	29	3	0	1	68	369	stimuli\Targets_short_600ms_horflip\finger-tap_short_horflip_short_600ms.mp4	finger-tap_short_horflip_short_600ms.mp4	448.6887977086872	449.2971311373258	0.6083334286386162				
433.78369140625	0.2	888389	360	29	3	0	0	69	176	stimuli\Videos_short_600ms_horflip\88.repeated_stroke_with_plastic_brush_short_horflip_short_600ms.mp4	88.repeated_stroke_with_plastic_brush_short_horflip_short_600ms.mp4	449.48880603689577	450.0971165922847	0.6083105553889254				
434.58349609375	0.2	890027	361	29	3	0	0	70	258	stimuli\Videos_short_600ms_horvertflip\80.stroke_with_sharp_stick_all_over_the_hand_short_horvertflip_short_600ms.mp4	80.stroke_with_sharp_stick_all_over_the_hand_short_horvertflip_short_600ms.mp4	450.28879266484273	450.8971243340002	0.608331669157451				
435.38330078125	0.2	891665	362	29	3	0	0	71	270	stimuli\Videos_short_600ms_vertflip\1.repeated_touch_with_finger_fast_short_vertflip_short_600ms.mp4	1.repeated_touch_with_finger_fast_short_vertflip_short_600ms.mp4	451.0887763603205	451.6971042172699	0.6083278569494723				
436.18359375	0.2	893304	363	29	3	0	0	72	163	stimuli\Videos_short_600ms_horflip\76.tickle_with_fingers_from_top_to_bottom_short_horflip_short_600ms.mp4	76.tickle_with_fingers_from_top_to_bottom_short_horflip_short_600ms.mp4	451.88876943969626	452.49709876288034	0.6083293231840798				
436.9833984375	0.2	894942	364	29	3	0	0	73	81	stimuli\Videos_short_600ms\83.single_stroke_top_to_bottom_with_cotton_bud_short_short_600ms.mp4	83.single_stroke_top_to_bottom_with_cotton_bud_short_short_600ms.mp4	452.6887460972521	453.297077473163	0.6083313759108933				
437.783203125	0.2	896580	365	29	3	0	0	74	164	stimuli\Videos_short_600ms_horflip\77.tapping_with_all_fingers_short_horflip_short_600ms.mp4	77.tapping_with_all_fingers_short_horflip_short_600ms.mp4	453.48873859013383	454.0970611686416	0.6083225785077957				
438.58349609375	0.2	898219	366	29	3	0	0	75	236	stimuli\Videos_short_600ms_horvertflip\60.single_push_with_tip_of_pencil_short_horvertflip_short_600ms.mp4	60.single_push_with_tip_of_pencil_short_horvertflip_short_600ms.mp4	454.2887252180808	454.8970530750302	0.6083278569494723				
439.38330078125	0.2	899857	367	29	3	0	0	76	252	stimuli\Videos_short_600ms_horvertflip\75.(long)stroke_with_fingers_all_over_the_hand_short_horvertflip_short_600ms.mp4	75.(long)stroke_with_fingers_all_over_the_hand_short_horvertflip_short_600ms.mp4	455.0887268016131	455.69703647726146	0.6083096756483428				
440.18310546875	0.2	901495	368	29	3	0	0	77	314	stimuli\Videos_short_600ms_vertflip\5.repeated_tap_with_finger_moving_from_top_to_bottom_short_vertflip_short_600ms.mp4	5.repeated_tap_with_finger_moving_from_top_to_bottom_short_vertflip_short_600ms.mp4	455.8886785331915	456.4970283836501	0.6083498504585805				
440.9833984375	0.2	903134	369	29	3	0	0	78	95	stimuli\Videos_short_600ms_horflip\14.repeated_touch_with_pencil_short_horflip_short_600ms.mp4	14.repeated_touch_with_pencil_short_horflip_short_600ms.mp4	456.688673078801	457.2969953640614	0.6083222852603285				
441.783203125	0.2	904772	370	29	3	0	0	79	168	stimuli\Videos_short_600ms_horflip\80.stroke_with_sharp_stick_all_over_the_hand_short_horflip_short_600ms.mp4	80.stroke_with_sharp_stick_all_over_the_hand_short_horflip_short_600ms.mp4	457.48863566051114	458.09700281253026	0.6083671520191274				
442.5830078125	0.2	906410	371	29	3	0	1	80	362	stimuli\Targets_short_600ms\chopstickwood-tap_short_short_600ms.mp4	chopstickwood-tap_short_short_600ms.mp4	458.2886222884572	458.8969897337238	0.6083674452665946				
443.38330078125	0.2	908049	372	29	3	0	0	81	235	stimuli\Videos_short_600ms_horvertflip\6.single_touch_with_flat_hand_short_horvertflip_short_600ms.mp4	6.single_touch_with_flat_hand_short_horvertflip_short_600ms.mp4	459.0886813483603	459.696986332061	0.6083049837006911				
444.18310546875	0.2	909687	373	29	3	0	0	82	165	stimuli\Videos_short_600ms_horflip\78.single_stroke_top_to_bottom_with_soft_brush_short_horflip_short_600ms.mp4	78.single_stroke_top_to_bottom_with_soft_brush_short_horflip_short_600ms.mp4	459.8886685628004	460.4969624031228	0.6082938403224034				
444.9833984375	0.2	911326	374	29	3	0	0	83	143	stimuli\Videos_short_600ms_horflip\58.single_slap_with_pencil_short_horflip_short_600ms.mp4	58.single_slap_with_pencil_short_horflip_short_600ms.mp4	460.68863906217393	461.2969097359992	0.6082706738252455				
445.783203125	0.2	912964	375	29	3	0	0	84	103	stimuli\Videos_short_600ms_horflip\21.repeated_touch_with_metal_chopstick_short_horflip_short_600ms.mp4	21.repeated_touch_with_metal_chopstick_short_horflip_short_600ms.mp4	461.48862569012	462.0968981234264	0.6082724333064107				
