onset	duration	onsetsample	eventnumber	subjectnr	sequencenumber	blocksequencenumber	istarget	presentationnumber	stimnumber	stim	stimname	time_stimon	time_stimoff	stimdur	cresp	resp	rt	correct
34.369140625	0.2	70388	0	48	0	0	0	0	67	stimuli\Videos_short_600ms\70.(long)stroke_with_finger_all_over_the_hand_short_short_600ms.mp4	70.(long)stroke_with_finger_all_over_the_hand_short_short_600ms.mp4	136.96175049910016	137.5700587894462	0.6083082903460308				
35.16943359375	0.2	72027	1	48	0	0	0	1	313	stimuli\Videos_short_600ms_vertflip\49.repeated_slap_with_hand_short_vertflip_short_600ms.mp4	49.repeated_slap_with_hand_short_vertflip_short_600ms.mp4	137.76177548344276	138.37004770484418	0.6082722214014211				
35.96923828125	0.2	73665	2	48	0	0	0	2	221	stimuli\Videos_short_600ms_horvertflip\47.(long)scratching_with_finger_nails_short_horvertflip_short_600ms.mp4	47.(long)scratching_with_finger_nails_short_horvertflip_short_600ms.mp4	138.5617051636655	139.17003427429518	0.6083291106297111				
36.76904296875	0.2	75303	3	48	0	0	0	3	338	stimuli\Videos_short_600ms_vertflip\71.single_stroke_with_finger_top_to_bottom_short_vertflip_short_600ms.mp4	71.single_stroke_with_finger_top_to_bottom_short_vertflip_short_600ms.mp4	139.361684108786	139.97000940725047	0.6083252984644787				
37.5693359375	0.2	76942	4	48	0	0	0	4	57	stimuli\Videos_short_600ms\61.single_hit_with_rolling_pin_short_short_600ms.mp4	61.single_hit_with_rolling_pin_short_short_600ms.mp4	140.1616671593183	140.7699810212871	0.6083138619687816				
38.369140625	0.2	78580	5	48	0	0	0	5	23	stimuli\Videos_short_600ms\30.finger_pulling_back_another_finger_short_short_600ms.mp4	30.finger_pulling_back_another_finger_short_short_600ms.mp4	140.96164258551653	141.56995791370355	0.6083153281870182				
39.1689453125	0.2	80218	6	48	0	0	0	6	296	stimuli\Videos_short_600ms_vertflip\33.scratch_top_to_bottom_with_scissors_short_vertflip_short_600ms.mp4	33.scratch_top_to_bottom_with_scissors_short_vertflip_short_600ms.mp4	141.76162006442246	142.36993597909532	0.6083159146728576				
39.96923828125	0.2	81857	7	48	0	0	0	7	19	stimuli\Videos_short_600ms\27.single_push_with_a_plastic_whisk_short_short_600ms.mp4	27.single_push_with_a_plastic_whisk_short_short_600ms.mp4	142.5615981298106	143.16991551070168	0.6083173808910942				
40.77734375	0.2	83512	8	48	0	0	0	8	56	stimuli\Videos_short_600ms\60.single_push_with_tip_of_pencil_short_short_600ms.mp4	60.single_push_with_tip_of_pencil_short_short_600ms.mp4	143.36992718178954	143.97823664510724	0.6083094633177097				
41.5771484375	0.2	85150	9	48	0	0	0	9	7	stimuli\Videos_short_600ms\16.repeated_touch_with_plastic_brush_short_short_600ms.mp4	16.repeated_touch_with_plastic_brush_short_short_600ms.mp4	144.1698897052811	144.77820943211918	0.60831972683809				
42.37744140625	0.2	86789	10	48	0	0	0	10	191	stimuli\Videos_short_600ms_horvertflip\2.single_touch_with_finger_short_horvertflip_short_600ms.mp4	2.single_touch_with_finger_short_horvertflip_short_600ms.mp4	144.96986923688746	145.57822855158884	0.6083593147013744				
43.17724609375	0.2	88427	11	48	0	0	0	11	194	stimuli\Videos_short_600ms_horvertflip\22.single_touch_with_metal_chopstick_short_horvertflip_short_600ms.mp4	22.single_touch_with_metal_chopstick_short_horvertflip_short_600ms.mp4	145.7698062481977	146.378163510195	0.6083572619972983				
43.97705078125	0.2	90065	12	48	0	0	0	12	21	stimuli\Videos_short_600ms\29.single_pinch_with_tweezers_short_short_600ms.mp4	29.single_pinch_with_tweezers_short_short_600ms.mp4	146.56989955826066	147.1781427485621	0.6082431903014367				
44.77734375	0.2	91704	13	48	0	0	0	13	117	stimuli\Videos_short_600ms_horflip\34.repeated_punch_with_hand_short_horflip_short_600ms.mp4	34.repeated_punch_with_hand_short_horflip_short_600ms.mp4	147.36980577900977	147.97812198692554	0.6083162079157773				
45.5771484375	0.2	93342	14	48	0	0	0	14	131	stimuli\Videos_short_600ms_horflip\47.(long)scratching_with_finger_nails_short_horflip_short_600ms.mp4	47.(long)scratching_with_finger_nails_short_horflip_short_600ms.mp4	148.1697853106161	148.7781021050214	0.6083167944052548				
46.376953125	0.2	94980	15	48	0	0	0	15	262	stimuli\Videos_short_600ms_horvertflip\84.single_touch_with_cotton_bud_short_horvertflip_short_600ms.mp4	84.single_touch_with_cotton_bud_short_horvertflip_short_600ms.mp4	148.969760736818	149.57807929068076	0.6083185538627731				
47.17724609375	0.2	96619	16	48	0	0	0	16	82	stimuli\Videos_short_600ms\84.single_touch_with_cotton_bud_short_short_600ms.mp4	84.single_touch_with_cotton_bud_short_short_600ms.mp4	149.7697385089632	150.37805794255837	0.6083194335951703				
47.97705078125	0.2	98257	17	48	0	0	0	17	277	stimuli\Videos_short_600ms_vertflip\16.repeated_touch_with_plastic_brush_short_vertflip_short_600ms.mp4	16.repeated_touch_with_plastic_brush_short_vertflip_short_600ms.mp4	150.569974921822	151.17803835389714	0.6080634320751415				
48.77685546875	0.2	99895	18	48	0	0	0	18	188	stimuli\Videos_short_600ms_horvertflip\17.repeated_touch_with_rolling_pin_short_horvertflip_short_600ms.mp4	17.repeated_touch_with_rolling_pin_short_horvertflip_short_600ms.mp4	151.36969493298966	151.9780155395565	0.6083206065668492				
49.5771484375	0.2	101534	19	48	0	0	1	19	362	stimuli\Targets_short_600ms\chopstickwood-tap_short_short_600ms.mp4	chopstickwood-tap_short_short_600ms.mp4	152.16968003622242	152.77799536440943	0.6083153281870182				
50.376953125	0.2	103172	20	48	0	0	0	20	271	stimuli\Videos_short_600ms_vertflip\10.single_touch_with_knife_short_vertflip_short_600ms.mp4	10.single_touch_with_knife_short_vertflip_short_600ms.mp4	152.96967393676096	153.57797430952996	0.6083003727690084				
51.17724609375	0.2	104811	21	48	0	0	0	21	234	stimuli\Videos_short_600ms_horvertflip\59.single_push_with_long_side_pencil_short_horvertflip_short_600ms.mp4	59.single_push_with_long_side_pencil_short_horvertflip_short_600ms.mp4	153.76964437782226	154.37792832895866	0.6082839511364				
51.97705078125	0.2	106449	22	48	0	0	0	22	349	stimuli\Videos_short_600ms_vertflip\81.single_stroke_top_to_bottom_with_cotton_pad_short_vertflip_short_600ms.mp4	81.single_stroke_top_to_bottom_with_cotton_pad_short_vertflip_short_600ms.mp4	154.56961687158764	155.17791049975858	0.6082936281709408				
52.77685546875	0.2	108087	23	48	0	0	0	23	187	stimuli\Videos_short_600ms_horvertflip\16.repeated_touch_with_plastic_brush_short_horvertflip_short_600ms.mp4	16.repeated_touch_with_plastic_brush_short_horvertflip_short_600ms.mp4	155.36961135860838	155.9778844597422	0.6082731011338183				
53.5771484375	0.2	109726	24	48	0	0	0	24	145	stimuli\Videos_short_600ms_horflip\6.single_touch_with_flat_hand_short_horflip_short_600ms.mp4	6.single_touch_with_flat_hand_short_horflip_short_600ms.mp4	156.16957270912462	156.77786369810565	0.6082909889810253				
54.376953125	0.2	111364	25	48	0	0	0	25	91	stimuli\Videos_short_600ms_horflip\10.single_touch_with_knife_short_horflip_short_600ms.mp4	10.single_touch_with_knife_short_horflip_short_600ms.mp4	156.96955165424515	157.57786786216457	0.6083162079194153				
55.1767578125	0.2	113002	26	48	0	0	0	26	257	stimuli\Videos_short_600ms_horvertflip\8.single_touch_with_hairbrush_short_horvertflip_short_600ms.mp4	8.single_touch_with_hairbrush_short_horvertflip_short_600ms.mp4	157.76950391421633	158.37784798025675	0.6083440660404449				
55.97705078125	0.2	114641	27	48	0	0	0	27	266	stimuli\Videos_short_600ms_horvertflip\88.repeated_stroke_with_plastic_brush_short_horvertflip_short_600ms.mp4	88.repeated_stroke_with_plastic_brush_short_horvertflip_short_600ms.mp4	158.56950983773277	159.1778333767361	0.6083235390033224				
56.77685546875	0.2	116279	28	48	0	0	0	28	307	stimuli\Videos_short_600ms_vertflip\43.touch_top_to_bottom_with_sharp_wooden_stick_short_vertflip_short_600ms.mp4	43.touch_top_to_bottom_with_sharp_wooden_stick_short_vertflip_short_600ms.mp4	159.3695052044859	159.9778088029343	0.6083035984484013				
57.57666015625	0.2	117917	29	48	0	0	0	29	172	stimuli\Videos_short_600ms_horflip\84.single_touch_with_cotton_bud_short_horflip_short_600ms.mp4	84.single_touch_with_cotton_bud_short_horflip_short_600ms.mp4	160.1694650887839	160.77778422913616	0.6083191403522505				
58.376953125	0.2	119556	30	48	0	0	0	30	339	stimuli\Videos_short_600ms_vertflip\72.(short)stroke_with_finger_all_over_the_hand_short_vertflip_short_600ms.mp4	72.(short)stroke_with_finger_all_over_the_hand_short_vertflip_short_600ms.mp4	160.9694516582349	161.57776552020368	0.6083138619687816				
59.1767578125	0.2	121194	31	48	0	0	0	31	129	stimuli\Videos_short_600ms_horflip\45.scratching_with_finger_nails_short_horflip_short_600ms.mp4	45.scratching_with_finger_nails_short_horflip_short_600ms.mp4	161.7694303101125	162.3777394801873	0.60830917007479				
59.9765625	0.2	122832	32	48	0	0	0	32	65	stimuli\Videos_short_600ms\69.stroke_with_soft_sock_short_short_600ms.mp4	69.stroke_with_soft_sock_short_short_600ms.mp4	162.5694030971208	163.17771871855075	0.6083156214299379				
60.77685546875	0.2	124471	33	48	0	0	1	33	379	stimuli\Targets_short_600ms_vertflip\chopstick-silver-tap_short_horvertflip_short_600ms.mp4	chopstick-silver-tap_short_horvertflip_short_600ms.mp4	163.36938409494542	163.97769825016076	0.6083141552153393				
61.57666015625	0.2	126109	34	48	0	0	0	34	342	stimuli\Videos_short_600ms_vertflip\75.(long)stroke_with_fingers_all_over_the_hand_short_vertflip_short_600ms.mp4	75.(long)stroke_with_fingers_all_over_the_hand_short_vertflip_short_600ms.mp4	164.16936128060843	164.77767807501004	0.6083167944016168				
62.37646484375	0.2	127747	35	48	0	0	0	35	214	stimuli\Videos_short_600ms_horvertflip\40.repeated_push_with_finger_short_horvertflip_short_600ms.mp4	40.repeated_push_with_finger_short_horvertflip_short_600ms.mp4	164.96934521086587	165.57765526067303	0.6083100498071872				
63.1767578125	0.2	129386	36	48	0	0	0	36	175	stimuli\Videos_short_600ms_horflip\87.single_stroke_top_to_bottom_with_plastic_brush_short_horflip_short_600ms.mp4	87.single_stroke_top_to_bottom_with_plastic_brush_short_horflip_short_600ms.mp4	165.76932474247587	166.37763391255066	0.60830917007479				
63.9765625	0.2	131024	37	48	0	0	0	37	124	stimuli\Videos_short_600ms_horflip\40.repeated_push_with_finger_short_horflip_short_600ms.mp4	40.repeated_push_with_finger_short_horflip_short_600ms.mp4	166.569300461917	167.17761491037527	0.608314448458259				
64.7763671875	0.2	132662	38	48	0	0	1	38	380	stimuli\Targets_short_600ms_vertflip\chopstickwood-tap_short_horvertflip_short_600ms.mp4	chopstickwood-tap_short_horvertflip_short_600ms.mp4	167.3692729556824	167.97759414873872	0.6083211930563266				
65.57666015625	0.2	134301	39	48	0	0	0	39	324	stimuli\Videos_short_600ms_vertflip\59.single_push_with_long_side_pencil_short_vertflip_short_600ms.mp4	59.single_push_with_long_side_pencil_short_vertflip_short_600ms.mp4	168.1692853305576	168.77757162764465	0.6082862970870337				
66.37646484375	0.2	135939	40	48	0	0	0	40	334	stimuli\Videos_short_600ms_vertflip\68.stroke_top_to_bottom_with_shawl_short_vertflip_short_600ms.mp4	68.stroke_top_to_bottom_with_shawl_short_vertflip_short_600ms.mp4	168.9692393499863	169.5775543849304	0.6083150349440984				
67.17626953125	0.2	137577	41	48	0	0	1	41	367	stimuli\Targets_short_600ms_horflip\chopstick-silver-tap_short_horflip_short_600ms.mp4	chopstick-silver-tap_short_horflip_short_600ms.mp4	169.769386910084	170.37753303680802	0.6081461267240229				
67.9765625	0.2	139216	42	48	0	0	0	42	340	stimuli\Videos_short_600ms_vertflip\73.single_stroke_with_flat_hand_short_vertflip_short_600ms.mp4	73.single_stroke_with_flat_hand_short_vertflip_short_600ms.mp4	170.56920163888208	171.17751198192855	0.6083103430464689				
68.7763671875	0.2	140854	43	48	0	0	0	43	166	stimuli\Videos_short_600ms_horflip\79.long_with_soft_brush_all_over_the_hand_short_horflip_short_600ms.mp4	79.long_with_soft_brush_all_over_the_hand_short_horflip_short_600ms.mp4	171.3691770650803	171.97748740812676	0.6083103430464689				
69.576171875	0.2	142492	44	48	0	0	0	44	171	stimuli\Videos_short_600ms_horflip\83.single_stroke_top_to_bottom_with_cotton_bud_short_horflip_short_600ms.mp4	83.single_stroke_top_to_bottom_with_cotton_bud_short_horflip_short_600ms.mp4	172.1691627547989	172.77747251136316	0.6083097565642674				
70.37646484375	0.2	144131	45	48	0	0	0	45	179	stimuli\Videos_short_600ms_horflip\90.repeated_touch_with_sponge_short_horflip_short_600ms.mp4	90.repeated_touch_with_sponge_short_horflip_short_600ms.mp4	172.96912821072328	173.57744060647747	0.6083123957541829				
71.17626953125	0.2	145769	46	48	0	0	0	46	308	stimuli\Videos_short_600ms_vertflip\44.pushing_top_to_bottom_with_finger_short_vertflip_short_600ms.mp4	44.pushing_top_to_bottom_with_finger_short_vertflip_short_600ms.mp4	173.7691056896292	174.37742658943898	0.6083208998097689				
71.9765625	0.2	147408	47	48	0	0	0	47	276	stimuli\Videos_short_600ms_vertflip\15.single_stroke_top_to_bottom_with_a_plastic_whisk_short_vertflip_short_600ms.mp4	15.single_stroke_top_to_bottom_with_a_plastic_whisk_short_vertflip_short_600ms.mp4	174.5691066280051	175.1774143318653	0.6083077038601914				
72.7763671875	0.2	149046	48	48	0	0	0	48	241	stimuli\Videos_short_600ms_horvertflip\65.stroke_top_to_bottom_with_stanley_knife_short_horvertflip_short_600ms.mp4	65.stroke_top_to_bottom_with_stanley_knife_short_horvertflip_short_600ms.mp4	175.36906797852134	175.97738096076137	0.6083129822400224				
73.576171875	0.2	150684	49	48	0	0	0	49	120	stimuli\Videos_short_600ms_horflip\37.single_stab_with_nail_file_short_horflip_short_600ms.mp4	37.single_stab_with_nail_file_short_horflip_short_600ms.mp4	176.16958326588792	176.77736694372288	0.6077836778349592				
74.37646484375	0.2	152323	50	48	0	0	1	50	378	stimuli\Targets_short_600ms_vertflip\brush-stroke_short_horvertflip_short_600ms.mp4	brush-stroke_short_horvertflip_short_600ms.mp4	176.96916369317842	177.57734500911465	0.6081813159362355				
75.17626953125	0.2	153961	51	48	0	0	0	51	258	stimuli\Videos_short_600ms_horvertflip\80.stroke_with_sharp_stick_all_over_the_hand_short_horvertflip_short_600ms.mp4	80.stroke_with_sharp_stick_all_over_the_hand_short_horvertflip_short_600ms.mp4	177.76900100172134	178.37731867585535	0.6083176741340139				
75.97607421875	0.2	155599	52	48	0	0	0	52	304	stimuli\Videos_short_600ms_vertflip\40.repeated_push_with_finger_short_vertflip_short_600ms.mp4	40.repeated_push_with_finger_short_vertflip_short_600ms.mp4	178.56898170630302	179.17729820746172	0.6083165011586971				
76.7763671875	0.2	157238	53	48	0	0	1	53	366	stimuli\Targets_short_600ms_horflip\brush-stroke_short_horflip_short_600ms.mp4	brush-stroke_short_horflip_short_600ms.mp4	179.36896094466647	179.97727597961057	0.6083150349440984				
77.576171875	0.2	158876	54	48	0	0	0	54	314	stimuli\Videos_short_600ms_vertflip\5.repeated_tap_with_finger_moving_from_top_to_bottom_short_vertflip_short_600ms.mp4	5.repeated_tap_with_finger_moving_from_top_to_bottom_short_vertflip_short_600ms.mp4	180.16894399519515	180.7772560977064	0.6083121025112632				
78.3759765625	0.2	160514	55	48	0	0	1	55	370	stimuli\Targets_short_600ms_horflip\hand-pinch_short_horflip_short_600ms.mp4	hand-pinch_short_horflip_short_600ms.mp4	180.96893349708265	181.57723299012287	0.6082994930402492				
79.17626953125	0.2	162153	56	48	0	0	0	56	132	stimuli\Videos_short_600ms_horflip\48.single_slap_with_hand_short_horflip_short_600ms.mp4	48.single_slap_with_hand_short_horflip_short_600ms.mp4	181.76887168136457	182.37721369470455	0.6083420133400068				
79.97607421875	0.2	163791	57	48	0	0	0	57	328	stimuli\Videos_short_600ms_vertflip\62.touch_top_to_bottom_with_scissors_short_vertflip_short_600ms.mp4	62.touch_top_to_bottom_with_scissors_short_vertflip_short_600ms.mp4	182.56891426031143	183.17719117360684	0.6082769132954127				
80.77587890625	0.2	165429	58	48	0	0	0	58	38	stimuli\Videos_short_600ms\44.pushing_top_to_bottom_with_finger_short_short_600ms.mp4	44.pushing_top_to_bottom_with_finger_short_short_600ms.mp4	183.36885420405815	183.9771712917027	0.6083170876445365				
81.576171875	0.2	167068	59	48	0	0	0	59	161	stimuli\Videos_short_600ms_horflip\74.fingers_walking_from_top_to_bottom_short_horflip_short_600ms.mp4	74.fingers_walking_from_top_to_bottom_short_horflip_short_600ms.mp4	184.168839014048	184.77715053006975	0.6083115160217858				
82.3759765625	0.2	168706	60	48	0	0	0	60	326	stimuli\Videos_short_600ms_vertflip\60.single_push_with_tip_of_pencil_short_vertflip_short_600ms.mp4	60.single_push_with_tip_of_pencil_short_vertflip_short_600ms.mp4	184.96882089160135	185.5771294751903	0.6083085835889506				
83.17578125	0.2	170344	61	48	0	0	0	61	109	stimuli\Videos_short_600ms_horflip\27.single_push_with_a_plastic_whisk_short_horflip_short_600ms.mp4	27.single_push_with_a_plastic_whisk_short_horflip_short_600ms.mp4	185.7688581921684	186.37708466759068	0.6082264754222706				
83.97607421875	0.2	171983	62	48	0	0	0	62	353	stimuli\Videos_short_600ms_vertflip\85.touch_top_to_bottom_with_fabric_short_vertflip_short_600ms.mp4	85.touch_top_to_bottom_with_fabric_short_vertflip_short_600ms.mp4	186.56876939805443	187.17708355326613	0.6083141552117013				
84.77587890625	0.2	173621	63	48	0	0	0	63	69	stimuli\Videos_short_600ms\72.(short)stroke_with_finger_all_over_the_hand_short_short_600ms.mp4	72.(short)stroke_with_finger_all_over_the_hand_short_short_600ms.mp4	187.3687545012872	187.9770402118884	0.6082857106011943				
85.57568359375	0.2	175259	64	48	0	0	0	64	94	stimuli\Videos_short_600ms_horflip\13.single_touch_with_pen_short_horflip_short_600ms.mp4	13.single_touch_with_pen_short_horflip_short_600ms.mp4	188.16872758154204	188.77704290972545	0.6083153281833802				
86.3759765625	0.2	176898	65	48	0	0	0	65	52	stimuli\Videos_short_600ms\57.single_touch_with_nail_file_short_short_600ms.mp4	57.single_touch_with_nail_file_short_short_600ms.mp4	188.96870594017673	189.5770256670112	0.608319726834452				
87.18408203125	0.2	178553	66	48	0	0	0	66	39	stimuli\Videos_short_600ms\45.scratching_with_finger_nails_short_short_600ms.mp4	45.scratching_with_finger_nails_short_short_600ms.mp4	189.77703557864152	190.38533507168177	0.6082994930402492				
87.984375	0.2	180192	67	48	0	0	0	67	252	stimuli\Videos_short_600ms_horvertflip\75.(long)stroke_with_fingers_all_over_the_hand_short_horvertflip_short_600ms.mp4	75.(long)stroke_with_fingers_all_over_the_hand_short_horvertflip_short_600ms.mp4	190.57699927510475	191.1852905573287	0.608291282223945				
88.7841796875	0.2	181830	68	48	0	0	0	68	126	stimuli\Videos_short_600ms_horflip\42.single_slap_with_plastic_whisk_short_horflip_short_600ms.mp4	42.single_slap_with_plastic_whisk_short_horflip_short_600ms.mp4	191.37698584455575	191.98526744974515	0.6082816051894042				
89.583984375	0.2	183468	69	48	0	0	0	69	206	stimuli\Videos_short_600ms_horvertflip\33.scratch_top_to_bottom_with_scissors_short_horvertflip_short_600ms.mp4	33.scratch_top_to_bottom_with_scissors_short_horvertflip_short_600ms.mp4	192.1769568721029	192.7852572448755	0.6083003727726464				
90.38427734375	0.2	185107	70	48	0	0	0	70	98	stimuli\Videos_short_600ms_horflip\17.repeated_touch_with_rolling_pin_short_horflip_short_600ms.mp4	17.repeated_touch_with_rolling_pin_short_horflip_short_600ms.mp4	192.9769352307376	193.58522797917976	0.6082927484421816				
91.18408203125	0.2	186745	71	48	0	0	0	71	238	stimuli\Videos_short_600ms_horvertflip\62.touch_top_to_bottom_with_scissors_short_horvertflip_short_600ms.mp4	62.touch_top_to_bottom_with_scissors_short_horvertflip_short_600ms.mp4	193.77691241639695	194.3852242256617	0.6083118092647055				
91.98388671875	0.2	188383	72	48	0	0	0	72	58	stimuli\Videos_short_600ms\62.touch_top_to_bottom_with_scissors_short_short_600ms.mp4	62.touch_top_to_bottom_with_scissors_short_short_600ms.mp4	194.57689224124988	195.18521284781673	0.6083206065668492				
92.7841796875	0.2	190022	73	48	0	0	0	73	291	stimuli\Videos_short_600ms_vertflip\29.single_pinch_with_tweezers_short_vertflip_short_600ms.mp4	29.single_pinch_with_tweezers_short_vertflip_short_600ms.mp4	195.37687059988457	195.98519824429604	0.6083276444114745				
93.583984375	0.2	191660	74	48	0	0	0	74	357	stimuli\Videos_short_600ms_vertflip\89.single_touch_with_plastic_brush_short_vertflip_short_600ms.mp4	89.single_touch_with_plastic_brush_short_vertflip_short_600ms.mp4	196.17684925176215	196.78516575292088	0.6083165011586971				
94.3837890625	0.2	193298	75	48	0	0	0	75	80	stimuli\Videos_short_600ms\82.repeated_touch_with_cotton_bud_short_short_600ms.mp4	82.repeated_touch_with_cotton_bud_short_short_600ms.mp4	196.9768314225621	197.58514616425964	0.6083147416975407				
95.18408203125	0.2	194937	76	48	0	0	0	76	139	stimuli\Videos_short_600ms_horflip\54.repeated_touch_with_knife_short_horflip_short_600ms.mp4	54.repeated_touch_with_knife_short_horflip_short_600ms.mp4	197.7768089014644	198.3851239364085	0.6083150349440984				
95.98388671875	0.2	196575	77	48	0	0	1	77	375	stimuli\Targets_short_600ms_horvertflip\finger-tap_short_vertflip_short_600ms.mp4	finger-tap_short_vertflip_short_600ms.mp4	198.57678931280316	199.1851025882861	0.6083132754829421				
96.78369140625	0.2	198213	78	48	0	0	0	78	176	stimuli\Videos_short_600ms_horflip\88.repeated_stroke_with_plastic_brush_short_horflip_short_600ms.mp4	88.repeated_stroke_with_plastic_brush_short_horflip_short_600ms.mp4	199.37676561873377	199.98508446583944	0.6083188471056928				
97.583984375	0.2	199852	79	48	0	0	0	79	125	stimuli\Videos_short_600ms_horflip\41.injection_with_blunt_syringe_short_horflip_short_600ms.mp4	41.injection_with_blunt_syringe_short_horflip_short_600ms.mp4	200.1767469098013	200.7850619447454	0.6083150349440984				
98.3837890625	0.2	201490	80	48	0	0	0	80	89	stimuli\Videos_short_600ms\90.repeated_touch_with_sponge_short_short_600ms.mp4	90.repeated_touch_with_sponge_short_short_600ms.mp4	200.97670268869115	201.58504206284124	0.6083393741500913				
99.18359375	0.2	203128	81	48	0	0	0	81	237	stimuli\Videos_short_600ms_horvertflip\61.single_hit_with_rolling_pin_short_horvertflip_short_600ms.mp4	61.single_hit_with_rolling_pin_short_horvertflip_short_600ms.mp4	201.7767065595035	202.38502012822937	0.6083135687258618				
99.98388671875	0.2	204767	82	48	0	0	0	82	164	stimuli\Videos_short_600ms_horflip\77.tapping_with_all_fingers_short_horflip_short_600ms.mp4	77.tapping_with_all_fingers_short_horflip_short_600ms.mp4	202.57667963975837	203.18499790037825	0.6083182606198534				
100.78369140625	0.2	206405	83	48	0	0	0	83	72	stimuli\Videos_short_600ms\75.(long)stroke_with_fingers_all_over_the_hand_short_short_600ms.mp4	75.(long)stroke_with_fingers_all_over_the_hand_short_short_600ms.mp4	203.37667676597263	203.98497713874167	0.6083003727690084				
101.58349609375	0.2	208043	84	48	0	0	1	84	376	stimuli\Targets_short_600ms_horvertflip\hand-pinch_short_vertflip_short_600ms.mp4	hand-pinch_short_vertflip_short_600ms.mp4	204.17663577053827	204.784960189274	0.6083244187357195				
102.3837890625	0.2	209682	85	48	0	0	0	85	305	stimuli\Videos_short_600ms_vertflip\41.injection_with_blunt_syringe_short_vertflip_short_600ms.mp4	41.injection_with_blunt_syringe_short_vertflip_short_600ms.mp4	204.97662263323215	205.58493268303937	0.6083100498071872				
103.18359375	0.2	211320	86	48	0	0	0	86	71	stimuli\Videos_short_600ms\74.fingers_walking_from_top_to_bottom_short_short_600ms.mp4	74.fingers_walking_from_top_to_bottom_short_short_600ms.mp4	205.7766021648422	206.3849110416741	0.6083088768318703				
103.9921875	0.2	212976	87	48	0	0	0	87	248	stimuli\Videos_short_600ms_horvertflip\71.single_stroke_with_finger_top_to_bottom_short_horvertflip_short_600ms.mp4	71.single_stroke_with_finger_top_to_bottom_short_horvertflip_short_600ms.mp4	206.5849268181701	207.1932283639144	0.6083015457443253				
104.7919921875	0.2	214614	88	48	0	0	0	88	200	stimuli\Videos_short_600ms_horvertflip\28.single_injection_with_sharp_needle_short_horvertflip_short_600ms.mp4	28.single_injection_with_sharp_needle_short_horvertflip_short_600ms.mp4	207.3848928605803	207.99320525633084	0.608312395750545				
105.591796875	0.2	216252	89	48	0	0	0	89	10	stimuli\Videos_short_600ms\19.single_touch_with_rolling_pin_short_short_600ms.mp4	19.single_touch_with_rolling_pin_short_short_600ms.mp4	208.1848703394826	208.79318508118376	0.6083147417011787				
106.39208984375	0.2	217891	90	48	0	0	0	90	60	stimuli\Videos_short_600ms\64.repeated_touch_with_screwdriver_short_short_600ms.mp4	64.repeated_touch_with_screwdriver_short_short_600ms.mp4	208.98484488595204	209.5931640263043	0.6083191403522505				
107.19189453125	0.2	219529	91	48	0	0	0	91	289	stimuli\Videos_short_600ms_vertflip\27.single_push_with_a_plastic_whisk_short_vertflip_short_600ms.mp4	27.single_push_with_a_plastic_whisk_short_vertflip_short_600ms.mp4	209.78486987029464	210.39314355791063	0.6082736876160197				
107.99169921875	0.2	221167	92	48	0	0	0	92	208	stimuli\Videos_short_600ms_horvertflip\35.single_punch_with_hand_short_horvertflip_short_600ms.mp4	35.single_punch_with_hand_short_horvertflip_short_600ms.mp4	210.5848092275519	211.1931283679005	0.6083191403486126				
108.7919921875	0.2	222806	93	48	0	0	0	93	133	stimuli\Videos_short_600ms_horflip\49.repeated_slap_with_hand_short_horflip_short_600ms.mp4	49.repeated_slap_with_hand_short_horflip_short_600ms.mp4	211.38478846591536	211.99310731302467	0.6083188471093308				
109.591796875	0.2	224444	94	48	0	0	0	94	103	stimuli\Videos_short_600ms_horflip\21.repeated_touch_with_metal_chopstick_short_horflip_short_600ms.mp4	21.repeated_touch_with_metal_chopstick_short_horflip_short_600ms.mp4	212.1847630123848	212.79307980679005	0.6083167944052548				
110.3916015625	0.2	226082	95	48	0	0	0	95	138	stimuli\Videos_short_600ms_horflip\53.touch_top_to_bottom_with_knife_short_horflip_short_600ms.mp4	53.touch_top_to_bottom_with_knife_short_horflip_short_600ms.mp4	212.98475251427223	213.59306549650864	0.6083129822363844				
111.19189453125	0.2	227721	96	48	0	0	0	96	44	stimuli\Videos_short_600ms\5.repeated_tap_with_finger_moving_from_top_to_bottom_short_short_600ms.mp4	5.repeated_tap_with_finger_moving_from_top_to_bottom_short_short_600ms.mp4	213.78472148911533	214.39303329838003	0.6083118092647055				
111.99169921875	0.2	229359	97	48	0	0	0	97	233	stimuli\Videos_short_600ms_horvertflip\58.single_slap_with_pencil_short_horvertflip_short_600ms.mp4	58.single_slap_with_pencil_short_horvertflip_short_600ms.mp4	214.5847010207217	215.1930184016128	0.6083173808910942				
112.79150390625	0.2	230997	98	48	0	0	0	98	48	stimuli\Videos_short_600ms\53.touch_top_to_bottom_with_knife_short_short_600ms.mp4	53.touch_top_to_bottom_with_knife_short_short_600ms.mp4	215.38467674016647	215.99299998592687	0.6083232457604026	9.0	9.0	5.092872542329133	1.0
152.95703125	0.2	313256	99	48	1	0	0	0	154	stimuli\Videos_short_600ms_horflip\68.stroke_top_to_bottom_with_shawl_short_horflip_short_600ms.mp4	68.stroke_top_to_bottom_with_shawl_short_horflip_short_600ms.mp4	255.55029359533	256.1586054045947	0.6083118092647055				
153.7568359375	0.2	314894	100	48	1	0	0	1	207	stimuli\Videos_short_600ms_horvertflip\34.repeated_punch_with_hand_short_horvertflip_short_600ms.mp4	34.repeated_punch_with_hand_short_horvertflip_short_600ms.mp4	256.3502675553136	256.95859256053154	0.608325005217921				
154.55712890625	0.2	316533	101	48	1	0	0	2	290	stimuli\Videos_short_600ms_vertflip\28.single_injection_with_sharp_needle_short_vertflip_short_600ms.mp4	28.single_injection_with_sharp_needle_short_vertflip_short_600ms.mp4	257.1502456207054	257.75858968674584	0.6083440660404449				
155.35693359375	0.2	318171	102	48	1	0	0	3	272	stimuli\Videos_short_600ms_vertflip\11.single_touch_with_lighter_short_vertflip_short_600ms.mp4	11.single_touch_with_lighter_short_vertflip_short_600ms.mp4	257.95023013744867	258.55854370617453	0.6083135687258618				
156.1650390625	0.2	319826	103	48	1	0	0	4	146	stimuli\Videos_short_600ms_horflip\60.single_push_with_tip_of_pencil_short_horflip_short_600ms.mp4	60.single_push_with_tip_of_pencil_short_horflip_short_600ms.mp4	258.7585588961847	259.36682906488204	0.6082701686973451				
156.96533203125	0.2	321465	104	48	1	0	0	5	168	stimuli\Videos_short_600ms_horflip\80.stroke_with_sharp_stick_all_over_the_hand_short_horflip_short_600ms.mp4	80.stroke_with_sharp_stick_all_over_the_hand_short_horflip_short_600ms.mp4	259.5585624737578	260.16683322894096	0.6082707551831845				
157.76513671875	0.2	323103	105	48	1	0	0	6	181	stimuli\Videos_short_600ms_horvertflip\10.single_touch_with_knife_short_horvertflip_short_600ms.mp4	10.single_touch_with_knife_short_horvertflip_short_600ms.mp4	260.3584956729028	260.96681188081857	0.6083162079157773				
158.56494140625	0.2	324741	106	48	1	0	0	7	249	stimuli\Videos_short_600ms_horvertflip\72.(short)stroke_with_finger_all_over_the_hand_short_horvertflip_short_600ms.mp4	72.(short)stroke_with_finger_all_over_the_hand_short_horvertflip_short_600ms.mp4	261.1584737382909	261.76679845026956	0.6083247119786392				
159.365234375	0.2	326380	107	48	1	0	0	8	244	stimuli\Videos_short_600ms_horvertflip\68.stroke_top_to_bottom_with_shawl_short_horvertflip_short_600ms.mp4	68.stroke_top_to_bottom_with_shawl_short_horvertflip_short_600ms.mp4	261.9587485660413	262.56677094403494	0.6080223779936205				
160.1650390625	0.2	328018	108	48	1	0	0	9	356	stimuli\Videos_short_600ms_vertflip\88.repeated_stroke_with_plastic_brush_short_vertflip_short_600ms.mp4	88.repeated_stroke_with_plastic_brush_short_vertflip_short_600ms.mp4	262.75849291641134	263.3667560472677	0.6082631308563577				
160.96533203125	0.2	329657	109	48	1	0	0	10	40	stimuli\Videos_short_600ms\46.scratching_top_to_bottom_with_finger_nails_short_short_600ms.mp4	46.scratching_top_to_bottom_with_finger_nails_short_short_600ms.mp4	263.55844341692136	264.16672824779016	0.6082848308687971				
161.76513671875	0.2	331295	110	48	1	0	0	11	15	stimuli\Videos_short_600ms\23.single_push_with_a_spoon_short_short_600ms.mp4	23.single_push_with_a_spoon_short_short_600ms.mp4	264.3584047674376	264.96670572669245	0.6083009592548478				
162.56494140625	0.2	332933	111	48	1	0	1	12	368	stimuli\Targets_short_600ms_horflip\chopstickwood-tap_short_horflip_short_600ms.mp4	chopstickwood-tap_short_horflip_short_600ms.mp4	265.1583740355236	265.7666870177636	0.6083129822400224				
163.365234375	0.2	334572	112	48	1	0	0	13	8	stimuli\Videos_short_600ms\17.repeated_touch_with_rolling_pin_short_short_600ms.mp4	17.repeated_touch_with_rolling_pin_short_short_600ms.mp4	265.9583538603765	266.5666647899088	0.6083109295323084				
164.1650390625	0.2	336210	113	48	1	0	0	14	220	stimuli\Videos_short_600ms_horvertflip\46.scratching_top_to_bottom_with_finger_nails_short_horvertflip_short_600ms.mp4	46.scratching_top_to_bottom_with_finger_nails_short_horvertflip_short_600ms.mp4	266.7583266473848	267.3666733526188	0.6083467052339984				
164.96484375	0.2	337848	114	48	1	0	0	15	51	stimuli\Videos_short_600ms\56.repeated_touch_with_nail_file_short_short_600ms.mp4	56.repeated_touch_with_nail_file_short_short_600ms.mp4	267.5582885843869	268.1666728247801	0.6083842403932067				
165.76513671875	0.2	339487	115	48	1	0	0	16	223	stimuli\Videos_short_600ms_horvertflip\49.repeated_slap_with_hand_short_horvertflip_short_600ms.mp4	49.repeated_slap_with_hand_short_horvertflip_short_600ms.mp4	268.35825961193405	268.96665176990064	0.6083921579665912				
166.56494140625	0.2	341125	116	48	1	0	0	17	173	stimuli\Videos_short_600ms_horflip\85.touch_top_to_bottom_with_fabric_short_horflip_short_600ms.mp4	85.touch_top_to_bottom_with_fabric_short_horflip_short_600ms.mp4	269.1582505800361	269.76663042177825	0.6083798417421349				
167.36474609375	0.2	342763	117	48	1	0	0	18	83	stimuli\Videos_short_600ms\85.touch_top_to_bottom_with_fabric_short_short_600ms.mp4	85.touch_top_to_bottom_with_fabric_short_short_600ms.mp4	269.9582186751504	270.56660760744126	0.6083889322908362				
168.1650390625	0.2	344402	118	48	1	0	0	19	192	stimuli\Videos_short_600ms_horvertflip\20.single_touch_with_screwdriver_short_horvertflip_short_600ms.mp4	20.single_touch_with_screwdriver_short_horvertflip_short_600ms.mp4	270.7582204932587	271.3665856728294	0.6083651795706828				
168.96484375	0.2	346040	119	48	1	0	0	20	312	stimuli\Videos_short_600ms_vertflip\48.single_slap_with_hand_short_vertflip_short_600ms.mp4	48.single_slap_with_hand_short_vertflip_short_600ms.mp4	271.558208235685	272.16652297738256	0.6083147416975407				
169.7646484375	0.2	347678	120	48	1	0	0	21	107	stimuli\Videos_short_600ms_horflip\25.single_touch_with_stanley_knife_short_horflip_short_600ms.mp4	25.single_touch_with_stanley_knife_short_horflip_short_600ms.mp4	272.3581912862137	272.96650133601725	0.6083100498035492				
170.56494140625	0.2	349317	121	48	1	0	0	22	30	stimuli\Videos_short_600ms\37.single_stab_with_nail_file_short_short_600ms.mp4	37.single_stab_with_nail_file_short_short_600ms.mp4	273.1581699380913	273.7664735365397	0.6083035984484013				
171.373046875	0.2	350972	122	48	1	0	0	23	344	stimuli\Videos_short_600ms_vertflip\77.tapping_with_all_fingers_short_vertflip_short_600ms.mp4	77.tapping_with_all_fingers_short_vertflip_short_600ms.mp4	273.9664869670887	274.5747876331043	0.6083006660155661				
172.1728515625	0.2	352610	123	48	1	0	0	24	96	stimuli\Videos_short_600ms_horflip\15.single_stroke_top_to_bottom_with_a_plastic_whisk_short_horflip_short_600ms.mp4	15.single_stroke_top_to_bottom_with_a_plastic_whisk_short_horflip_short_600ms.mp4	274.766452716256	275.3747662849819	0.6083135687258618				
172.97314453125	0.2	354249	124	48	1	0	0	25	211	stimuli\Videos_short_600ms_horvertflip\38.double_slap_with_pencil_short_horvertflip_short_600ms.mp4	38.double_slap_with_pencil_short_horvertflip_short_600ms.mp4	275.56642902218664	276.1747461098348	0.6083170876481745				
173.77294921875	0.2	355887	125	48	1	0	0	26	93	stimuli\Videos_short_600ms_horflip\12.repeated_touch_with_nail_file_short_horflip_short_600ms.mp4	12.repeated_touch_with_nail_file_short_horflip_short_600ms.mp4	276.3663933051357	276.9747259346841	0.6083326295483857				
174.57275390625	0.2	357525	126	48	1	0	0	27	247	stimuli\Videos_short_600ms_horvertflip\70.(long)stroke_with_finger_all_over_the_hand_short_horvertflip_short_600ms.mp4	70.(long)stroke_with_finger_all_over_the_hand_short_horvertflip_short_600ms.mp4	277.1663916043253	277.774708105484	0.6083165011586971				
175.373046875	0.2	359164	127	48	1	0	0	28	43	stimuli\Videos_short_600ms\49.repeated_slap_with_hand_short_short_600ms.mp4	49.repeated_slap_with_hand_short_short_600ms.mp4	277.96637025620294	278.57468206546764	0.6083118092647055				
176.1728515625	0.2	360802	128	48	1	0	0	29	298	stimuli\Videos_short_600ms_vertflip\35.single_punch_with_hand_short_vertflip_short_600ms.mp4	35.single_punch_with_hand_short_vertflip_short_600ms.mp4	278.7663579986256	279.37466423626756	0.6083062376419548				
176.9814453125	0.2	362458	129	48	1	0	0	30	299	stimuli\Videos_short_600ms_vertflip\36.single_slap_with_full_hand_short_vertflip_short_600ms.mp4	36.single_slap_with_full_hand_short_vertflip_short_600ms.mp4	279.57467766681657	280.1829759868815	0.6082983200649323				
177.78125	0.2	364096	130	48	1	0	0	31	50	stimuli\Videos_short_600ms\55.touch_top_to_bottom_with_nail_file_short_short_600ms.mp4	55.touch_top_to_bottom_with_nail_file_short_short_600ms.mp4	280.3746428294944	280.98294672118936	0.608303891694959				
178.5810546875	0.2	365734	131	48	1	0	0	32	282	stimuli\Videos_short_600ms_vertflip\20.single_touch_with_screwdriver_short_vertflip_short_600ms.mp4	20.single_touch_with_screwdriver_short_vertflip_short_600ms.mp4	281.1746106313658	281.7829189217118	0.6083082903460308				
179.38134765625	0.2	367373	132	48	1	0	0	33	343	stimuli\Videos_short_600ms_vertflip\76.tickle_with_fingers_from_top_to_bottom_short_vertflip_short_600ms.mp4	76.tickle_with_fingers_from_top_to_bottom_short_vertflip_short_600ms.mp4	281.9745974940597	282.58288731006905	0.6082898160093464				
180.18115234375	0.2	369011	133	48	1	0	0	34	26	stimuli\Videos_short_600ms\33.scratch_top_to_bottom_with_scissors_short_short_600ms.mp4	33.scratch_top_to_bottom_with_scissors_short_short_600ms.mp4	282.7745737999903	283.3828548186939	0.6082810187035648				
180.98095703125	0.2	370649	134	48	1	0	0	35	351	stimuli\Videos_short_600ms_vertflip\83.single_stroke_top_to_bottom_with_cotton_bud_short_vertflip_short_600ms.mp4	83.single_stroke_top_to_bottom_with_cotton_bud_short_vertflip_short_600ms.mp4	283.574559196466	284.18283171111034	0.6082725146443408				
181.78125	0.2	372288	135	48	1	0	0	36	256	stimuli\Videos_short_600ms_horvertflip\79.long_with_soft_brush_all_over_the_hand_short_horvertflip_short_600ms.mp4	79.long_with_soft_brush_all_over_the_hand_short_horvertflip_short_600ms.mp4	284.3745305172597	284.9828015656858	0.6082710484261042				
182.5810546875	0.2	373926	136	48	1	0	0	37	222	stimuli\Videos_short_600ms_horvertflip\48.single_slap_with_hand_short_horvertflip_short_600ms.mp4	48.single_slap_with_hand_short_horvertflip_short_600ms.mp4	285.174507996162	285.7827705405325	0.6082625443705183				
183.380859375	0.2	375564	137	48	1	0	0	38	225	stimuli\Videos_short_600ms_horvertflip\50.single_(long)hard_push_with_thumb_short_horvertflip_short_600ms.mp4	50.single_(long)hard_push_with_thumb_short_horvertflip_short_600ms.mp4	285.97448606155376	286.582742741055	0.6082566795012099				
184.18115234375	0.2	377203	138	48	1	0	0	39	231	stimuli\Videos_short_600ms_horvertflip\56.repeated_touch_with_nail_file_short_horvertflip_short_600ms.mp4	56.repeated_touch_with_nail_file_short_horvertflip_short_600ms.mp4	286.774478789117	287.38272021995726	0.6082414308402804				
184.98095703125	0.2	378841	139	48	1	0	0	40	74	stimuli\Videos_short_600ms\77.tapping_with_all_fingers_short_short_600ms.mp4	77.tapping_with_all_fingers_short_short_600ms.mp4	287.57444600450253	288.1826924204797	0.6082464159771916				
185.78076171875	0.2	380479	140	48	1	0	1	41	360	stimuli\Targets_short_600ms\brush-stroke_short_short_600ms.mp4	brush-stroke_short_short_600ms.mp4	288.3744243631336	288.98269453183093	0.6082701686973451				
186.5810546875	0.2	382118	141	48	1	0	0	42	198	stimuli\Videos_short_600ms_horvertflip\26.single_touch_with_a_blunt_syringe_short_horvertflip_short_600ms.mp4	26.single_touch_with_a_blunt_syringe_short_horvertflip_short_600ms.mp4	289.1744012555537	289.78266849181455	0.6082672362608719				
187.380859375	0.2	383756	142	48	1	0	0	43	325	stimuli\Videos_short_600ms_vertflip\6.single_touch_with_flat_hand_short_vertflip_short_600ms.mp4	6.single_touch_with_flat_hand_short_vertflip_short_600ms.mp4	289.97438078716004	290.58264802342455	0.6082672362645098				
188.1806640625	0.2	385394	143	48	1	0	0	44	84	stimuli\Videos_short_600ms\86.touch_top_to_bottom_with_hair_brush_short_short_600ms.mp4	86.touch_top_to_bottom_with_hair_brush_short_short_600ms.mp4	290.7743609052559	291.38262638205924	0.6082654768033535				
188.98095703125	0.2	387033	144	48	1	0	0	45	34	stimuli\Videos_short_600ms\40.repeated_push_with_finger_short_short_600ms.mp4	40.repeated_push_with_finger_short_short_600ms.mp4	291.57434014361934	292.1826044474474	0.6082643038280366				
189.78076171875	0.2	388671	145	48	1	0	0	46	75	stimuli\Videos_short_600ms\78.single_stroke_top_to_bottom_with_soft_brush_short_short_600ms.mp4	78.single_stroke_top_to_bottom_with_soft_brush_short_short_600ms.mp4	292.37431908873987	292.9825842723003	0.6082651835604338				
190.58056640625	0.2	390309	146	48	1	0	0	47	329	stimuli\Videos_short_600ms_vertflip\63.stroke_top_to_bottom_with_screwdriver_short_vertflip_short_600ms.mp4	63.stroke_top_to_bottom_with_screwdriver_short_vertflip_short_600ms.mp4	293.17429832710695	293.7825661498573	0.6082678227503493				
191.380859375	0.2	391948	147	48	1	0	0	48	254	stimuli\Videos_short_600ms_horvertflip\77.tapping_with_all_fingers_short_horvertflip_short_600ms.mp4	77.tapping_with_all_fingers_short_horvertflip_short_600ms.mp4	293.9742590911337	294.58254538822075	0.6082862970870337				
192.1806640625	0.2	393586	148	48	1	0	0	49	2	stimuli\Videos_short_600ms\11.single_touch_with_lighter_short_short_600ms.mp4	11.single_touch_with_lighter_short_short_600ms.mp4	294.7742312916562	295.3825252130737	0.6082939214174985				
192.98095703125	0.2	395225	149	48	1	0	0	50	251	stimuli\Videos_short_600ms_horvertflip\74.fingers_walking_from_top_to_bottom_short_horvertflip_short_600ms.mp4	74.fingers_walking_from_top_to_bottom_short_horvertflip_short_600ms.mp4	295.5742342827398	296.18250474468005	0.6082704619402648				
193.78076171875	0.2	396863	150	48	1	0	1	51	363	stimuli\Targets_short_600ms\finger-tap_short_short_600ms.mp4	finger-tap_short_short_600ms.mp4	296.3742094156951	296.9824801708819	0.6082707551868225				
194.58056640625	0.2	398501	151	48	1	0	0	52	113	stimuli\Videos_short_600ms_horflip\30.finger_pulling_back_another_finger_short_horflip_short_600ms.mp4	30.finger_pulling_back_another_finger_short_horflip_short_600ms.mp4	297.1741842554111	297.7824626349211	0.6082783795100113				
195.380859375	0.2	400140	152	48	1	0	0	53	68	stimuli\Videos_short_600ms\71.single_stroke_with_finger_top_to_bottom_short_short_600ms.mp4	71.single_stroke_with_finger_top_to_bottom_short_short_600ms.mp4	297.9741761032419	298.5824418732882	0.6082657700462732				
196.1806640625	0.2	401778	153	48	1	0	0	54	215	stimuli\Videos_short_600ms_horvertflip\41.injection_with_blunt_syringe_short_horvertflip_short_600ms.mp4	41.injection_with_blunt_syringe_short_horvertflip_short_600ms.mp4	298.77426472140723	299.38242375084155	0.6081590294343187				
196.98046875	0.2	403416	154	48	1	0	0	55	303	stimuli\Videos_short_600ms_vertflip\4.repeated_tap_with_finger_slow_short_vertflip_short_600ms.mp4	4.repeated_tap_with_finger_slow_short_vertflip_short_600ms.mp4	299.5741281286173	300.18239741758225	0.6082692889649479				
197.78076171875	0.2	405055	155	48	1	0	0	56	62	stimuli\Videos_short_600ms\66.stroke_top_to_bottom_with_sponge_short_short_600ms.mp4	66.stroke_top_to_bottom_with_sponge_short_short_600ms.mp4	300.3741114723889	300.98237372351286	0.6082622511239606				
198.58056640625	0.2	406693	156	48	1	0	0	57	22	stimuli\Videos_short_600ms\3.single_push_with_finger_short_short_600ms.mp4	3.single_push_with_finger_short_short_600ms.mp4	301.17410097427273	301.78235765377394	0.6082566795012099				
199.38037109375	0.2	408331	157	48	1	0	0	58	323	stimuli\Videos_short_600ms_vertflip\58.single_slap_with_pencil_short_vertflip_short_600ms.mp4	58.single_slap_with_pencil_short_vertflip_short_600ms.mp4	301.9740637910072	302.58233542591915	0.6082716349119437				
200.1806640625	0.2	409970	158	48	1	0	0	59	95	stimuli\Videos_short_600ms_horflip\14.repeated_touch_with_pencil_short_horflip_short_600ms.mp4	14.repeated_touch_with_pencil_short_horflip_short_600ms.mp4	302.7740433226136	303.38231847644784	0.6082751538342563				
200.98046875	0.2	411608	159	48	1	0	0	60	5	stimuli\Videos_short_600ms\14.repeated_touch_with_pencil_short_short_600ms.mp4	14.repeated_touch_with_pencil_short_short_600ms.mp4	303.5740254934135	304.18228891750914	0.6082634240956395				
201.7802734375	0.2	413246	160	48	1	0	0	61	197	stimuli\Videos_short_600ms_horvertflip\25.single_touch_with_stanley_knife_short_horvertflip_short_600ms.mp4	25.single_touch_with_stanley_knife_short_horvertflip_short_600ms.mp4	304.3740015061012	304.9822810585865	0.6082795524853282				
202.58056640625	0.2	414885	161	48	1	0	0	62	240	stimuli\Videos_short_600ms_horvertflip\64.repeated_touch_with_screwdriver_short_horvertflip_short_600ms.mp4	64.repeated_touch_with_screwdriver_short_horvertflip_short_600ms.mp4	305.1739822106829	305.7822456347785	0.6082634240956395				
203.38037109375	0.2	416523	162	48	1	0	0	63	55	stimuli\Videos_short_600ms\6.single_touch_with_flat_hand_short_short_600ms.mp4	6.single_touch_with_flat_hand_short_short_600ms.mp4	305.97395939634225	306.5822237001703	0.6082643038280366				
204.18017578125	0.2	418161	163	48	1	0	0	64	150	stimuli\Videos_short_600ms_horflip\64.repeated_touch_with_screwdriver_short_horflip_short_600ms.mp4	64.repeated_touch_with_screwdriver_short_horflip_short_600ms.mp4	306.7739386347057	307.3822032317803	0.6082645970745943				
204.98046875	0.2	419800	164	48	1	0	0	65	130	stimuli\Videos_short_600ms_horflip\46.scratching_top_to_bottom_with_finger_nails_short_horflip_short_600ms.mp4	46.scratching_top_to_bottom_with_finger_nails_short_horflip_short_600ms.mp4	307.5739193392874	308.182183936362	0.6082645970745943				
205.7802734375	0.2	421438	165	48	1	0	0	66	358	stimuli\Videos_short_600ms_vertflip\9.single_touch_with_hammer_short_vertflip_short_600ms.mp4	9.single_touch_with_hammer_short_vertflip_short_600ms.mp4	308.3739015100873	308.9821678666194	0.6082663565321127				
206.580078125	0.2	423076	166	48	1	0	0	67	41	stimuli\Videos_short_600ms\47.(long)scratching_with_finger_nails_short_short_600ms.mp4	47.(long)scratching_with_finger_nails_short_short_600ms.mp4	309.17452383130876	309.782190505015	0.6076666737062624				
207.38037109375	0.2	424715	167	48	1	0	0	68	217	stimuli\Videos_short_600ms_horvertflip\43.touch_top_to_bottom_with_sharp_wooden_stick_short_horvertflip_short_600ms.mp4	43.touch_top_to_bottom_with_sharp_wooden_stick_short_horvertflip_short_600ms.mp4	309.97386731790175	310.5821351406521	0.6082678227503493				
208.18017578125	0.2	426353	168	48	1	0	0	69	102	stimuli\Videos_short_600ms_horflip\20.single_touch_with_screwdriver_short_horflip_short_600ms.mp4	20.single_touch_with_screwdriver_short_horflip_short_600ms.mp4	310.7738298413933	311.38214546282325	0.6083156214299379				
208.97998046875	0.2	427991	169	48	1	0	0	70	180	stimuli\Videos_short_600ms_horvertflip\1.repeated_touch_with_finger_fast_short_horvertflip_short_600ms.mp4	1.repeated_touch_with_finger_fast_short_horvertflip_short_600ms.mp4	311.57384984059536	312.1821258741584	0.6082760335630155				
209.7802734375	0.2	429630	170	48	1	0	0	71	269	stimuli\Videos_short_600ms_horvertflip\90.repeated_touch_with_sponge_short_horvertflip_short_600ms.mp4	90.repeated_touch_with_sponge_short_horvertflip_short_600ms.mp4	312.37377101675884	312.9821068719866	0.6083358552277787				
210.580078125	0.2	431268	171	48	1	0	1	72	364	stimuli\Targets_short_600ms\hand-pinch_short_short_600ms.mp4	hand-pinch_short_short_600ms.mp4	313.17377107540597	313.782086403593	0.6083153281870182				
211.3798828125	0.2	432906	172	48	1	0	0	73	285	stimuli\Videos_short_600ms_vertflip\23.single_push_with_a_spoon_short_vertflip_short_600ms.mp4	23.single_push_with_a_spoon_short_vertflip_short_600ms.mp4	313.9737511935018	314.58205948384784	0.6083082903460308				
212.18017578125	0.2	434545	173	48	1	0	0	74	185	stimuli\Videos_short_600ms_horvertflip\14.repeated_touch_with_pencil_short_horvertflip_short_600ms.mp4	14.repeated_touch_with_pencil_short_horvertflip_short_600ms.mp4	314.7737365899775	315.3820457600523	0.60830917007479				
212.97998046875	0.2	436183	174	48	1	0	0	75	140	stimuli\Videos_short_600ms_horflip\55.touch_top_to_bottom_with_nail_file_short_horflip_short_600ms.mp4	55.touch_top_to_bottom_with_nail_file_short_horflip_short_600ms.mp4	315.5737126026652	316.18202881058096	0.6083162079157773				
213.7802734375	0.2	437822	175	48	1	0	0	76	144	stimuli\Videos_short_600ms_horflip\59.single_push_with_long_side_pencil_short_horflip_short_600ms.mp4	59.single_push_with_long_side_pencil_short_horflip_short_600ms.mp4	316.37368802886704	316.9820042367828	0.6083162079157773				
214.580078125	0.2	439460	176	48	1	0	0	77	186	stimuli\Videos_short_600ms_horvertflip\15.single_stroke_top_to_bottom_with_a_plastic_whisk_short_horvertflip_short_600ms.mp4	15.single_stroke_top_to_bottom_with_a_plastic_whisk_short_horvertflip_short_600ms.mp4	317.1736622820936	317.7819869940686	0.6083247119750013				
215.3798828125	0.2	441098	177	48	1	0	0	78	177	stimuli\Videos_short_600ms_horflip\89.single_touch_with_plastic_brush_short_horflip_short_600ms.mp4	89.single_touch_with_plastic_brush_short_horflip_short_600ms.mp4	317.97361512854695	318.58196271351335	0.6083475849663955				
216.18017578125	0.2	442737	178	48	1	0	0	79	49	stimuli\Videos_short_600ms\54.repeated_touch_with_knife_short_short_600ms.mp4	54.repeated_touch_with_knife_short_short_600ms.mp4	318.77359935205095	319.3819454707991	0.6083461187481589				
216.97998046875	0.2	444375	179	48	1	0	0	80	64	stimuli\Videos_short_600ms\68.stroke_top_to_bottom_with_shawl_short_short_600ms.mp4	68.stroke_top_to_bottom_with_shawl_short_short_600ms.mp4	319.57360204989163	320.1819159118604	0.6083138619687816				
217.77978515625	0.2	446013	180	48	1	0	0	81	242	stimuli\Videos_short_600ms_horvertflip\66.stroke_top_to_bottom_with_sponge_short_horvertflip_short_600ms.mp4	66.stroke_top_to_bottom_with_sponge_short_horvertflip_short_600ms.mp4	320.3735780625757	320.98190658671956	0.6083285241438716				
218.580078125	0.2	447652	181	48	1	0	0	82	61	stimuli\Videos_short_600ms\65.stroke_top_to_bottom_with_stanley_knife_short_short_600ms.mp4	65.stroke_top_to_bottom_with_stanley_knife_short_short_600ms.mp4	321.17355935364685	321.7818743885873	0.6083150349404605				
219.3798828125	0.2	449290	182	48	1	0	0	83	141	stimuli\Videos_short_600ms_horflip\56.repeated_touch_with_nail_file_short_horflip_short_600ms.mp4	56.repeated_touch_with_nail_file_short_horflip_short_600ms.mp4	321.97355677310406	322.581850401275	0.6082936281709408				
220.1796875	0.2	450928	183	48	1	0	0	84	284	stimuli\Videos_short_600ms_vertflip\22.single_touch_with_metal_chopstick_short_vertflip_short_600ms.mp4	22.single_touch_with_metal_chopstick_short_vertflip_short_600ms.mp4	322.7735137249656	323.381832278832	0.6083185538664111				
220.97998046875	0.2	452567	184	48	1	0	0	85	250	stimuli\Videos_short_600ms_horvertflip\73.single_stroke_with_flat_hand_short_horvertflip_short_600ms.mp4	73.single_stroke_with_flat_hand_short_horvertflip_short_600ms.mp4	323.5734932565756	324.1818126901708	0.6083194335951703				
221.77978515625	0.2	454205	185	48	1	0	0	86	350	stimuli\Videos_short_600ms_vertflip\82.repeated_touch_with_cotton_bud_short_vertflip_short_600ms.mp4	82.repeated_touch_with_cotton_bud_short_vertflip_short_600ms.mp4	324.37347102872445	324.9817913420484	0.6083203133239294				
222.57958984375	0.2	455843	186	48	1	0	0	87	196	stimuli\Videos_short_600ms_horvertflip\24.single_stroke_top_to_bottom_with_a_spoon_short_horvertflip_short_600ms.mp4	24.single_stroke_top_to_bottom_with_a_spoon_short_horvertflip_short_600ms.mp4	325.17346844818167	325.7817702871689	0.608301838987245				
223.3798828125	0.2	457482	187	48	1	0	1	88	383	stimuli\Targets_short_600ms_vertflip\hand-stroke_short_horvertflip_short_600ms.mp4	hand-stroke_short_horvertflip_short_600ms.mp4	325.97346557439596	326.58174688634244	0.6082813119464845				
224.1796875	0.2	459120	188	48	1	0	0	89	35	stimuli\Videos_short_600ms\41.injection_with_blunt_syringe_short_short_600ms.mp4	41.injection_with_blunt_syringe_short_short_600ms.mp4	326.77341402219827	327.3817270044383	0.6083129822400224				
224.9794921875	0.2	460758	189	48	1	0	0	90	280	stimuli\Videos_short_600ms_vertflip\19.single_touch_with_rolling_pin_short_vertflip_short_600ms.mp4	19.single_touch_with_rolling_pin_short_vertflip_short_600ms.mp4	327.5733850497454	328.18170624280174	0.6083211930563266				
225.77978515625	0.2	462397	190	48	1	0	0	91	337	stimuli\Videos_short_600ms_vertflip\70.(long)stroke_with_finger_all_over_the_hand_short_vertflip_short_600ms.mp4	70.(long)stroke_with_finger_all_over_the_hand_short_vertflip_short_600ms.mp4	328.37337103271057	328.9816863608976	0.6083153281870182				
226.57958984375	0.2	464035	191	48	1	0	0	92	111	stimuli\Videos_short_600ms_horflip\29.single_pinch_with_tweezers_short_horflip_short_600ms.mp4	29.single_pinch_with_tweezers_short_horflip_short_600ms.mp4	329.1733555494575	329.7816650127752	0.6083094633177097				
227.37939453125	0.2	465673	192	48	1	0	0	93	295	stimuli\Videos_short_600ms_vertflip\32.single_(long)pinch_with_fingers_short_vertflip_short_600ms.mp4	32.single_(long)pinch_with_fingers_short_vertflip_short_600ms.mp4	329.9733339080922	330.58164777006095	0.6083138619687816				
228.1796875	0.2	467312	193	48	1	0	0	94	9	stimuli\Videos_short_600ms\18.single_stroke_from_top_to_bottom_with_rolling_pin_short_short_600ms.mp4	18.single_stroke_from_top_to_bottom_with_rolling_pin_short_short_600ms.mp4	330.77330288293524	331.3816161584182	0.6083132754829421	5.0	5.0	2.318274696375738	1.0
264.39501953125	0.2	541481	194	48	2	0	0	0	143	stimuli\Videos_short_600ms_horflip\58.single_slap_with_pencil_short_horflip_short_600ms.mp4	58.single_slap_with_pencil_short_horflip_short_600ms.mp4	366.9899490812095	367.59732632364467	0.6073772424351773				
265.19482421875	0.2	543119	195	48	2	0	0	1	78	stimuli\Videos_short_600ms\80.stroke_with_sharp_stick_all_over_the_hand_short_short_600ms.mp4	80.stroke_with_sharp_stick_all_over_the_hand_short_short_600ms.mp4	367.78910049335536	368.3973102539021	0.6082097605467425				
265.9951171875	0.2	544758	196	48	2	0	1	2	381	stimuli\Targets_short_600ms_vertflip\finger-tap_short_horvertflip_short_600ms.mp4	finger-tap_short_horvertflip_short_600ms.mp4	368.5889712316457	369.1972842138857	0.6083129822400224				
266.794921875	0.2	546396	197	48	2	0	0	3	122	stimuli\Videos_short_600ms_horflip\39.single_stab_with_scissors_short_horflip_short_600ms.mp4	39.single_stab_with_scissors_short_horflip_short_600ms.mp4	369.3889528159598	369.99726667792856	0.6083138619687816				
267.5947265625	0.2	548034	198	48	2	0	0	4	36	stimuli\Videos_short_600ms\42.single_slap_with_plastic_whisk_short_short_600ms.mp4	42.single_slap_with_plastic_whisk_short_short_600ms.mp4	370.18893674622086	370.7972432771021	0.6083065308812365				
268.39501953125	0.2	549673	199	48	2	0	0	5	31	stimuli\Videos_short_600ms\38.double_slap_with_pencil_short_short_600ms.mp4	38.double_slap_with_pencil_short_short_600ms.mp4	370.98891393188023	371.59722838033485	0.608314448454621				
269.19482421875	0.2	551311	200	48	2	0	0	6	228	stimuli\Videos_short_600ms_horvertflip\53.touch_top_to_bottom_with_knife_short_horvertflip_short_600ms.mp4	53.touch_top_to_bottom_with_knife_short_horvertflip_short_600ms.mp4	371.7888829067233	372.3972011673432	0.6083182606198534				
269.99462890625	0.2	552949	201	48	2	0	0	7	169	stimuli\Videos_short_600ms_horflip\81.single_stroke_top_to_bottom_with_cotton_pad_short_horflip_short_600ms.mp4	81.single_stroke_top_to_bottom_with_cotton_pad_short_horflip_short_600ms.mp4	372.5888378058844	373.1971763003021	0.6083384944176942				
270.794921875	0.2	554588	202	48	2	0	0	8	218	stimuli\Videos_short_600ms_horvertflip\44.pushing_top_to_bottom_with_finger_short_horvertflip_short_600ms.mp4	44.pushing_top_to_bottom_with_finger_short_horvertflip_short_600ms.mp4	373.3888399172356	373.9971593508308	0.6083194335951703				
271.5947265625	0.2	556226	203	48	2	0	0	9	123	stimuli\Videos_short_600ms_horflip\4.repeated_tap_with_finger_slow_short_horflip_short_600ms.mp4	4.repeated_tap_with_finger_slow_short_horflip_short_600ms.mp4	374.1887924704497	374.7971403486554	0.6083478782056773				
272.39501953125	0.2	557865	204	48	2	0	0	10	147	stimuli\Videos_short_600ms_horflip\61.single_hit_with_rolling_pin_short_horflip_short_600ms.mp4	61.single_hit_with_rolling_pin_short_horflip_short_600ms.mp4	374.9887978074803	375.5971201735083	0.6083223660280055				
273.19482421875	0.2	559503	205	48	2	0	0	11	24	stimuli\Videos_short_600ms\31.hand_grabbing_wrist_short_short_600ms.mp4	31.hand_grabbing_wrist_short_short_600ms.mp4	375.78877733908666	376.3971014645758	0.6083241254891618				
273.99462890625	0.2	561141	206	48	2	0	0	12	92	stimuli\Videos_short_600ms_horflip\11.single_touch_with_lighter_short_horflip_short_600ms.mp4	11.single_touch_with_lighter_short_horflip_short_600ms.mp4	376.5887568706966	377.19707337185537	0.6083165011586971				
274.794921875	0.2	562780	207	48	2	0	0	13	6	stimuli\Videos_short_600ms\15.single_stroke_top_to_bottom_with_a_plastic_whisk_short_short_600ms.mp4	15.single_stroke_top_to_bottom_with_a_plastic_whisk_short_short_600ms.mp4	377.388734056356	377.99705173049006	0.6083176741340139				
275.5947265625	0.2	564418	208	48	2	0	0	14	260	stimuli\Videos_short_600ms_horvertflip\82.repeated_touch_with_cotton_bud_short_horvertflip_short_600ms.mp4	82.repeated_touch_with_cotton_bud_short_horvertflip_short_600ms.mp4	378.18871241499073	378.79702950263527	0.6083170876445365				
276.39453125	0.2	566056	209	48	2	0	0	15	3	stimuli\Videos_short_600ms\12.repeated_touch_with_nail_file_short_short_600ms.mp4	12.repeated_touch_with_nail_file_short_short_600ms.mp4	378.9886919465971	379.5970093274882	0.6083173808910942				
277.19482421875	0.2	567695	210	48	2	0	0	16	28	stimuli\Videos_short_600ms\35.single_punch_with_hand_short_short_600ms.mp4	35.single_punch_with_hand_short_short_600ms.mp4	379.7890069486966	380.39698709963704	0.6079801509404206				
277.99462890625	0.2	569333	211	48	2	0	0	17	106	stimuli\Videos_short_600ms_horflip\24.single_stroke_top_to_bottom_with_a_spoon_short_horflip_short_600ms.mp4	24.single_stroke_top_to_bottom_with_a_spoon_short_horflip_short_600ms.mp4	380.58869734227846	381.19696692448633	0.6082695822078676				
278.79443359375	0.2	570971	212	48	2	0	0	18	232	stimuli\Videos_short_600ms_horvertflip\57.single_touch_with_nail_file_short_horvertflip_short_600ms.mp4	57.single_touch_with_nail_file_short_horvertflip_short_600ms.mp4	381.3886249697971	381.9969446966352	0.60831972683809				
279.5947265625	0.2	572610	213	48	2	0	0	19	108	stimuli\Videos_short_600ms_horflip\26.single_touch_with_a_blunt_syringe_short_horflip_short_600ms.mp4	26.single_touch_with_a_blunt_syringe_short_horflip_short_600ms.mp4	382.188616524385	382.796927160678	0.6083106362930266				
280.39453125	0.2	574248	214	48	2	0	0	20	183	stimuli\Videos_short_600ms_horvertflip\12.repeated_touch_with_nail_file_short_horvertflip_short_600ms.mp4	12.repeated_touch_with_nail_file_short_horvertflip_short_600ms.mp4	382.9885981086991	383.5969028801228	0.6083047714237182				
281.1943359375	0.2	575886	215	48	2	0	0	21	77	stimuli\Videos_short_600ms\8.single_touch_with_hairbrush_short_short_600ms.mp4	8.single_touch_with_hairbrush_short_short_600ms.mp4	383.7885620984053	384.3968824117292	0.6083203133239294				
281.99462890625	0.2	577525	216	48	2	0	0	22	216	stimuli\Videos_short_600ms_horvertflip\42.single_slap_with_plastic_whisk_short_horvertflip_short_600ms.mp4	42.single_slap_with_plastic_whisk_short_horvertflip_short_600ms.mp4	384.58854778812383	385.1968598906351	0.6083121025112632				
282.79443359375	0.2	579163	217	48	2	0	0	23	90	stimuli\Videos_short_600ms_horflip\1.repeated_touch_with_finger_fast_short_horflip_short_600ms.mp4	1.repeated_touch_with_finger_fast_short_horflip_short_600ms.mp4	385.3885302521667	385.9968400087273	0.6083097565606295				
283.59423828125	0.2	580801	218	48	2	0	0	24	182	stimuli\Videos_short_600ms_horvertflip\11.single_touch_with_lighter_short_horvertflip_short_600ms.mp4	11.single_touch_with_lighter_short_horvertflip_short_600ms.mp4	386.188585147338	386.7968210065519	0.6082358592138917				
284.40283203125	0.2	582457	219	48	2	0	0	25	230	stimuli\Videos_short_600ms_horvertflip\55.touch_top_to_bottom_with_nail_file_short_horvertflip_short_600ms.mp4	55.touch_top_to_bottom_with_nail_file_short_horvertflip_short_600ms.mp4	386.9968282789923	387.60512982473665	0.6083015457443253				
285.20263671875	0.2	584095	220	48	2	0	0	26	210	stimuli\Videos_short_600ms_horvertflip\37.single_stab_with_nail_file_short_horvertflip_short_600ms.mp4	37.single_stab_with_nail_file_short_horvertflip_short_600ms.mp4	387.7967928551843	388.4051125820224	0.60831972683809				
286.00244140625	0.2	585733	221	48	2	0	0	27	11	stimuli\Videos_short_600ms\2.single_touch_with_finger_short_short_600ms.mp4	2.single_touch_with_finger_short_short_600ms.mp4	388.596746874613	389.20508683524895	0.6083399606359308				
286.802734375	0.2	587372	222	48	2	0	0	28	170	stimuli\Videos_short_600ms_horflip\82.repeated_touch_with_cotton_bud_short_horflip_short_600ms.mp4	82.repeated_touch_with_cotton_bud_short_horflip_short_600ms.mp4	389.3969152549944	390.0050657803695	0.6081505253750947				
287.6025390625	0.2	589010	223	48	2	0	0	29	25	stimuli\Videos_short_600ms\32.single_(long)pinch_with_fingers_short_short_600ms.mp4	32.single_(long)pinch_with_fingers_short_short_600ms.mp4	390.1967332094682	390.8050482444123	0.6083150349440984				
288.40283203125	0.2	590649	224	48	2	0	0	30	264	stimuli\Videos_short_600ms_horvertflip\86.touch_top_to_bottom_with_hair_brush_short_horvertflip_short_600ms.mp4	86.touch_top_to_bottom_with_hair_brush_short_horvertflip_short_600ms.mp4	390.9967092221559	391.60502396385345	0.6083147416975407				
289.20263671875	0.2	592287	225	48	2	0	0	31	293	stimuli\Videos_short_600ms_vertflip\30.finger_pulling_back_another_finger_short_vertflip_short_600ms.mp4	30.finger_pulling_back_another_finger_short_vertflip_short_600ms.mp4	391.79669637809275	392.4050014427594	0.6083050646666379				
290.00244140625	0.2	593925	226	48	2	0	0	32	4	stimuli\Videos_short_600ms\13.single_touch_with_pen_short_short_600ms.mp4	13.single_touch_with_pen_short_short_600ms.mp4	392.5966369083253	393.20497921490824	0.6083423065829265				
290.802734375	0.2	595564	227	48	2	0	0	33	193	stimuli\Videos_short_600ms_horvertflip\21.repeated_touch_with_metal_chopstick_short_horvertflip_short_600ms.mp4	21.repeated_touch_with_metal_chopstick_short_horvertflip_short_600ms.mp4	393.3971067429593	394.0049602127328	0.6078534697735449				
291.6025390625	0.2	597202	228	48	2	0	0	34	219	stimuli\Videos_short_600ms_horvertflip\45.scratching_with_finger_nails_short_horvertflip_short_600ms.mp4	45.scratching_with_finger_nails_short_horvertflip_short_600ms.mp4	394.19659450532345	394.8049423835328	0.6083478782093152				
292.40234375	0.2	598840	229	48	2	0	0	35	136	stimuli\Videos_short_600ms_horflip\51.repeated_touch_with_hammer_short_horflip_short_600ms.mp4	51.repeated_touch_with_hammer_short_horflip_short_600ms.mp4	394.9965992558682	395.6049183962168	0.6083191403486126				
293.20263671875	0.2	600479	230	48	2	0	0	36	347	stimuli\Videos_short_600ms_vertflip\8.single_touch_with_hairbrush_short_vertflip_short_600ms.mp4	8.single_touch_with_hairbrush_short_vertflip_short_600ms.mp4	395.7965770280134	396.40490525891073	0.6083282308973139				
294.00244140625	0.2	602117	231	48	2	0	0	37	239	stimuli\Videos_short_600ms_horvertflip\63.stroke_top_to_bottom_with_screwdriver_short_horvertflip_short_600ms.mp4	63.stroke_top_to_bottom_with_screwdriver_short_horvertflip_short_600ms.mp4	396.5965553866481	397.2048751134862	0.60831972683809				
294.80224609375	0.2	603755	232	48	2	0	0	38	29	stimuli\Videos_short_600ms\36.single_slap_with_full_hand_short_short_600ms.mp4	36.single_slap_with_full_hand_short_short_600ms.mp4	397.3965363844727	398.00486373564127	0.6083273511685547				
295.6025390625	0.2	605394	233	48	2	0	0	39	317	stimuli\Videos_short_600ms_vertflip\52.touch_top_to_bottom_with_hammer_short_vertflip_short_600ms.mp4	52.touch_top_to_bottom_with_hammer_short_vertflip_short_600ms.mp4	398.1965123971604	398.8048297780515	0.6083173808910942				
296.40234375	0.2	607032	234	48	2	0	0	40	79	stimuli\Videos_short_600ms\81.single_stroke_top_to_bottom_with_cotton_pad_short_short_600ms.mp4	81.single_stroke_top_to_bottom_with_cotton_pad_short_short_600ms.mp4	398.9965341558236	399.6048107758761	0.608276620052493				
297.2021484375	0.2	608670	235	48	2	0	0	41	348	stimuli\Videos_short_600ms_vertflip\80.stroke_with_sharp_stick_all_over_the_hand_short_vertflip_short_600ms.mp4	80.stroke_with_sharp_stick_all_over_the_hand_short_vertflip_short_600ms.mp4	399.7964702874051	400.404788254782	0.6083179673769337				
298.00244140625	0.2	610309	236	48	2	0	0	42	18	stimuli\Videos_short_600ms\26.single_touch_with_a_blunt_syringe_short_short_600ms.mp4	26.single_touch_with_a_blunt_syringe_short_short_600ms.mp4	400.5964474730645	401.2047674931455	0.6083200200810097				
298.80224609375	0.2	611947	237	48	2	0	0	43	246	stimuli\Videos_short_600ms_horvertflip\7.repeated_touch_with_hairbrush_short_horvertflip_short_600ms.mp4	7.repeated_touch_with_hairbrush_short_horvertflip_short_600ms.mp4	401.3964158614217	402.00474702475185	0.6083311633301491				
299.60205078125	0.2	613585	238	48	2	0	0	44	33	stimuli\Videos_short_600ms\4.repeated_tap_with_finger_slow_short_short_600ms.mp4	4.repeated_tap_with_finger_slow_short_short_600ms.mp4	402.196415333583	402.804725969876	0.6083106362930266				
300.40234375	0.2	615224	239	48	2	0	0	45	267	stimuli\Videos_short_600ms_horvertflip\89.single_touch_with_plastic_brush_short_horvertflip_short_600ms.mp4	89.single_touch_with_plastic_brush_short_horvertflip_short_600ms.mp4	402.9963857746443	403.6046835082234	0.6082977335790929				
301.2021484375	0.2	616862	240	48	2	0	0	46	301	stimuli\Videos_short_600ms_vertflip\38.double_slap_with_pencil_short_vertflip_short_600ms.mp4	38.double_slap_with_pencil_short_vertflip_short_600ms.mp4	403.7963726373382	404.4046829803883	0.6083103430501069				
302.001953125	0.2	618500	241	48	2	0	0	47	101	stimuli\Videos_short_600ms_horflip\2.single_touch_with_finger_short_horflip_short_600ms.mp4	2.single_touch_with_finger_short_horflip_short_600ms.mp4	404.5963401459667	405.2046598728048	0.60831972683809				
302.80224609375	0.2	620139	242	48	2	0	0	48	162	stimuli\Videos_short_600ms_horflip\75.(long)stroke_with_fingers_all_over_the_hand_short_horflip_short_600ms.mp4	75.(long)stroke_with_fingers_all_over_the_hand_short_horflip_short_600ms.mp4	405.3963246627136	406.0046461490128	0.6083214862992463				
303.60205078125	0.2	621777	243	48	2	0	1	49	365	stimuli\Targets_short_600ms\hand-stroke_short_short_600ms.mp4	hand-stroke_short_short_600ms.mp4	406.19632032270965	406.804619522507	0.6082991997973295				
304.40185546875	0.2	623415	244	48	2	0	0	50	297	stimuli\Videos_short_600ms_vertflip\34.repeated_punch_with_hand_short_vertflip_short_600ms.mp4	34.repeated_punch_with_hand_short_vertflip_short_600ms.mp4	406.99627786106066	407.6045978811417	0.6083200200810097				
305.2021484375	0.2	625054	245	48	2	0	0	51	157	stimuli\Videos_short_600ms_horflip\70.(long)stroke_with_finger_all_over_the_hand_short_horflip_short_600ms.mp4	70.(long)stroke_with_finger_all_over_the_hand_short_horflip_short_600ms.mp4	407.7962629642934	408.4045736005865	0.6083106362930266				
306.001953125	0.2	626692	246	48	2	0	0	52	20	stimuli\Videos_short_600ms\28.single_injection_with_sharp_needle_short_short_600ms.mp4	28.single_injection_with_sharp_needle_short_short_600ms.mp4	408.5962380972487	409.2045566511151	0.6083185538664111				
306.8017578125	0.2	628330	247	48	2	0	0	53	273	stimuli\Videos_short_600ms_vertflip\12.repeated_touch_with_nail_file_short_vertflip_short_600ms.mp4	12.repeated_touch_with_nail_file_short_vertflip_short_600ms.mp4	409.3969727307085	410.0045394084009	0.6075666776923754				
307.60205078125	0.2	629969	248	48	2	0	0	54	229	stimuli\Videos_short_600ms_horvertflip\54.repeated_touch_with_knife_short_horvertflip_short_600ms.mp4	54.repeated_touch_with_knife_short_horvertflip_short_600ms.mp4	410.1962235523752	410.8045177670356	0.6082942146604182				
308.40185546875	0.2	631607	249	48	2	0	0	55	54	stimuli\Videos_short_600ms\59.single_push_with_long_side_pencil_short_short_600ms.mp4	59.single_push_with_long_side_pencil_short_short_600ms.mp4	410.9961544055732	411.6044990581031	0.6083446525299223				
309.2021484375	0.2	633246	250	48	2	0	0	56	184	stimuli\Videos_short_600ms_horvertflip\13.single_touch_with_pen_short_horvertflip_short_600ms.mp4	13.single_touch_with_pen_short_horvertflip_short_600ms.mp4	411.7961711790995	412.4044686194357	0.6082974403361732				
310.001953125	0.2	634884	251	48	2	0	0	57	17	stimuli\Videos_short_600ms\25.single_touch_with_stanley_knife_short_short_600ms.mp4	25.single_touch_with_stanley_knife_short_short_600ms.mp4	412.5961310633975	413.2044525496931	0.6083214862956083				
310.8017578125	0.2	636522	252	48	2	0	0	58	302	stimuli\Videos_short_600ms_vertflip\39.single_stab_with_scissors_short_vertflip_short_600ms.mp4	39.single_stab_with_scissors_short_vertflip_short_600ms.mp4	413.39610795581393	414.004425336705	0.6083173808910942				
311.60205078125	0.2	638161	253	48	2	0	0	59	163	stimuli\Videos_short_600ms_horflip\76.tickle_with_fingers_from_top_to_bottom_short_horflip_short_600ms.mp4	76.tickle_with_fingers_from_top_to_bottom_short_horflip_short_600ms.mp4	414.19609012661385	414.80440398858264	0.6083138619687816				
312.40185546875	0.2	639799	254	48	2	0	0	60	253	stimuli\Videos_short_600ms_horvertflip\76.tickle_with_fingers_from_top_to_bottom_short_horvertflip_short_600ms.mp4	76.tickle_with_fingers_from_top_to_bottom_short_horvertflip_short_600ms.mp4	414.99606408659383	415.604383520189	0.6083194335951703				
313.20166015625	0.2	641437	255	48	2	0	0	61	137	stimuli\Videos_short_600ms_horflip\52.touch_top_to_bottom_with_hammer_short_horflip_short_600ms.mp4	52.touch_top_to_bottom_with_hammer_short_horflip_short_600ms.mp4	415.7961799764016	416.40436393152777	0.608183955126151				
314.001953125	0.2	643076	256	48	2	0	0	62	152	stimuli\Videos_short_600ms_horflip\66.stroke_top_to_bottom_with_sponge_short_horflip_short_600ms.mp4	66.stroke_top_to_bottom_with_sponge_short_horflip_short_600ms.mp4	416.5960228565673	417.2043393577296	0.608316501162335				
314.8017578125	0.2	644714	257	48	2	0	0	63	104	stimuli\Videos_short_600ms_horflip\22.single_touch_with_metal_chopstick_short_horflip_short_600ms.mp4	22.single_touch_with_metal_chopstick_short_horflip_short_600ms.mp4	417.3960085462895	418.0043218217688	0.6083132754793041				
315.6015625	0.2	646352	258	48	2	0	0	64	45	stimuli\Videos_short_600ms\50.single_(long)hard_push_with_thumb_short_short_600ms.mp4	50.single_(long)hard_push_with_thumb_short_short_600ms.mp4	418.19600068736327	418.80429900743184	0.6082983200685703				
316.40185546875	0.2	647991	259	48	2	0	0	65	59	stimuli\Videos_short_600ms\63.stroke_top_to_bottom_with_screwdriver_short_short_600ms.mp4	63.stroke_top_to_bottom_with_screwdriver_short_short_600ms.mp4	418.99596526355526	419.60427560660537	0.6083103430501069				
317.20166015625	0.2	649629	260	48	2	0	0	66	332	stimuli\Videos_short_600ms_vertflip\66.stroke_top_to_bottom_with_sponge_short_vertflip_short_600ms.mp4	66.stroke_top_to_bottom_with_sponge_short_vertflip_short_600ms.mp4	419.7959348248878	420.40425543145466	0.6083206065668492				
318.00146484375	0.2	651267	261	48	2	0	0	67	114	stimuli\Videos_short_600ms_horflip\31.hand_grabbing_wrist_short_horflip_short_600ms.mp4	31.hand_grabbing_wrist_short_horflip_short_600ms.mp4	420.5959237402858	421.2042305644136	0.6083068241277942				
318.8017578125	0.2	652906	262	48	2	0	0	68	190	stimuli\Videos_short_600ms_horvertflip\19.single_touch_with_rolling_pin_short_horvertflip_short_600ms.mp4	19.single_touch_with_rolling_pin_short_horvertflip_short_600ms.mp4	421.3959302502917	422.0041925014157	0.6082622511239606				
319.6015625	0.2	654544	263	48	2	0	0	69	199	stimuli\Videos_short_600ms_horvertflip\27.single_push_with_a_plastic_whisk_short_horvertflip_short_600ms.mp4	27.single_push_with_a_plastic_whisk_short_horvertflip_short_600ms.mp4	422.1958772318758	422.8041655816669	0.6082883497911098				
320.4013671875	0.2	656182	264	48	2	0	0	70	116	stimuli\Videos_short_600ms_horflip\33.scratch_top_to_bottom_with_scissors_short_horflip_short_600ms.mp4	33.scratch_top_to_bottom_with_scissors_short_horflip_short_600ms.mp4	422.9958614553798	423.60414482003034	0.6082833646505605				
321.20166015625	0.2	657821	265	48	2	0	0	71	281	stimuli\Videos_short_600ms_vertflip\2.single_touch_with_finger_short_vertflip_short_600ms.mp4	2.single_touch_with_finger_short_vertflip_short_600ms.mp4	423.7958623937593	424.4041234719116	0.6082610781522817				
322.00146484375	0.2	659459	266	48	2	0	1	72	372	stimuli\Targets_short_600ms_horvertflip\brush-stroke_short_vertflip_short_600ms.mp4	brush-stroke_short_vertflip_short_600ms.mp4	424.5958105483187	425.20412147785464	0.6083109295359463				
322.80126953125	0.2	661097	267	48	2	0	0	73	333	stimuli\Videos_short_600ms_vertflip\67.single_touch_with_sponge_short_vertflip_short_600ms.mp4	67.single_touch_with_sponge_short_vertflip_short_600ms.mp4	425.3957868542493	426.0041150851466	0.6083282308973139				
323.6015625	0.2	662736	268	48	2	0	0	74	245	stimuli\Videos_short_600ms_horvertflip\69.stroke_with_soft_sock_short_horvertflip_short_600ms.mp4	69.stroke_with_soft_sock_short_horvertflip_short_600ms.mp4	426.1957690250492	426.8040949099995	0.6083258849503181				
324.4013671875	0.2	664374	269	48	2	0	0	75	311	stimuli\Videos_short_600ms_vertflip\47.(long)scratching_with_finger_nails_short_vertflip_short_600ms.mp4	47.(long)scratching_with_finger_nails_short_vertflip_short_600ms.mp4	426.9957456242227	427.6040632983568	0.6083176741340139				
325.201171875	0.2	666012	270	48	2	0	0	76	121	stimuli\Videos_short_600ms_horflip\38.double_slap_with_pencil_short_horflip_short_600ms.mp4	38.double_slap_with_pencil_short_horflip_short_600ms.mp4	427.7958104896716	428.404040777259	0.608230287587503				
326.00146484375	0.2	667651	271	48	2	0	0	77	205	stimuli\Videos_short_600ms_horvertflip\32.single_(long)pinch_with_fingers_short_horvertflip_short_600ms.mp4	32.single_(long)pinch_with_fingers_short_horvertflip_short_600ms.mp4	428.59568152120846	429.204020602112	0.6083390809035336				
326.80126953125	0.2	669289	272	48	2	0	0	78	16	stimuli\Videos_short_600ms\24.single_stroke_top_to_bottom_with_a_spoon_short_short_600ms.mp4	24.single_stroke_top_to_bottom_with_a_spoon_short_short_600ms.mp4	429.3956818730985	430.004000133722	0.6083182606234914				
327.60107421875	0.2	670927	273	48	2	0	0	79	274	stimuli\Videos_short_600ms_vertflip\13.single_touch_with_pen_short_vertflip_short_600ms.mp4	13.single_touch_with_pen_short_vertflip_short_600ms.mp4	430.19567489390465	430.80397849235305	0.6083035984484013				
328.4013671875	0.2	672566	274	48	2	0	0	80	155	stimuli\Videos_short_600ms_horflip\69.stroke_with_soft_sock_short_horflip_short_600ms.mp4	69.stroke_with_soft_sock_short_horflip_short_600ms.mp4	430.9958104310208	431.60395479828367	0.6081443672628666				
329.201171875	0.2	674204	275	48	2	0	0	81	319	stimuli\Videos_short_600ms_vertflip\54.repeated_touch_with_knife_short_vertflip_short_600ms.mp4	54.repeated_touch_with_knife_short_vertflip_short_600ms.mp4	431.7955987679088	432.4039343298937	0.6083355619848589				
330.00146484375	0.2	675843	276	48	2	0	0	82	178	stimuli\Videos_short_600ms_horflip\9.single_touch_with_hammer_short_horflip_short_600ms.mp4	9.single_touch_with_hammer_short_horflip_short_600ms.mp4	432.5955964806126	433.2039147412325	0.6083182606198534				
330.80126953125	0.2	677481	277	48	2	0	0	83	331	stimuli\Videos_short_600ms_vertflip\65.stroke_top_to_bottom_with_stanley_knife_short_vertflip_short_600ms.mp4	65.stroke_top_to_bottom_with_stanley_knife_short_vertflip_short_600ms.mp4	433.39555401896	434.0038925133777	0.6083384944176942				
331.60107421875	0.2	679119	278	48	2	0	0	84	278	stimuli\Videos_short_600ms_vertflip\17.repeated_touch_with_rolling_pin_short_vertflip_short_600ms.mp4	17.repeated_touch_with_rolling_pin_short_vertflip_short_600ms.mp4	434.1955523181496	434.80387321795934	0.6083208998097689				
332.4013671875	0.2	680758	279	48	2	0	0	85	86	stimuli\Videos_short_600ms\88.repeated_stroke_with_plastic_brush_short_short_600ms.mp4	88.repeated_stroke_with_plastic_brush_short_short_600ms.mp4	434.9955289173231	435.6038498171365	0.6083208998134069				
333.201171875	0.2	682396	280	48	2	0	0	86	189	stimuli\Videos_short_600ms_horvertflip\18.single_stroke_from_top_to_bottom_with_rolling_pin_short_horvertflip_short_600ms.mp4	18.single_stroke_from_top_to_bottom_with_rolling_pin_short_horvertflip_short_600ms.mp4	435.7955398259801	436.4038261230635	0.6082862970833958				
334.0009765625	0.2	684034	281	48	2	0	0	87	327	stimuli\Videos_short_600ms_vertflip\61.single_hit_with_rolling_pin_short_vertflip_short_600ms.mp4	61.single_hit_with_rolling_pin_short_vertflip_short_600ms.mp4	436.5954909129723	437.2038068276488	0.6083159146764956				
334.80126953125	0.2	685673	282	48	2	0	0	88	310	stimuli\Videos_short_600ms_vertflip\46.scratching_top_to_bottom_with_finger_nails_short_vertflip_short_600ms.mp4	46.scratching_top_to_bottom_with_finger_nails_short_vertflip_short_600ms.mp4	437.39548979864776	438.0037922241245	0.6083024254767224				
335.60107421875	0.2	687311	283	48	2	0	0	89	263	stimuli\Videos_short_600ms_horvertflip\85.touch_top_to_bottom_with_fabric_short_horvertflip_short_600ms.mp4	85.touch_top_to_bottom_with_fabric_short_horvertflip_short_600ms.mp4	438.19544440456593	438.8037723422203	0.6083279376543942				
336.40087890625	0.2	688949	284	48	2	0	0	90	112	stimuli\Videos_short_600ms_horflip\3.single_push_with_finger_short_horflip_short_600ms.mp4	3.single_push_with_finger_short_horflip_short_600ms.mp4	438.9954321469886	439.60375099409794	0.6083188471093308				
337.201171875	0.2	690588	285	48	2	0	0	91	355	stimuli\Videos_short_600ms_vertflip\87.single_stroke_top_to_bottom_with_plastic_brush_short_vertflip_short_600ms.mp4	87.single_stroke_top_to_bottom_with_plastic_brush_short_vertflip_short_600ms.mp4	439.79540405426815	440.4037173297511	0.6083132754829421				
338.0009765625	0.2	692226	286	48	2	0	0	92	85	stimuli\Videos_short_600ms\87.single_stroke_top_to_bottom_with_plastic_brush_short_short_600ms.mp4	87.single_stroke_top_to_bottom_with_plastic_brush_short_short_600ms.mp4	440.5953991277784	441.2037006735227	0.6083015457443253	3.0	3.0	2.654229919276986	1.0
381.15771484375	0.2	780611	287	48	3	0	0	0	346	stimuli\Videos_short_600ms_vertflip\79.long_with_soft_brush_all_over_the_hand_short_vertflip_short_600ms.mp4	79.long_with_soft_brush_all_over_the_hand_short_vertflip_short_600ms.mp4	483.7525676395307	484.36087710284846	0.6083094633177097				
381.9580078125	0.2	782250	288	48	3	0	0	1	13	stimuli\Videos_short_600ms\21.repeated_touch_with_metal_chopstick_short_short_600ms.mp4	21.repeated_touch_with_metal_chopstick_short_short_600ms.mp4	484.5525348549163	485.1608557547297	0.6083208998134069				
382.7578125	0.2	783888	289	48	3	0	0	2	81	stimuli\Videos_short_600ms\83.single_stroke_top_to_bottom_with_cotton_bud_short_short_600ms.mp4	83.single_stroke_top_to_bottom_with_cotton_bud_short_short_600ms.mp4	485.35252465004305	485.9608349930931	0.6083103430501069				
383.5576171875	0.2	785526	290	48	3	0	0	3	354	stimuli\Videos_short_600ms_vertflip\86.touch_top_to_bottom_with_hair_brush_short_vertflip_short_600ms.mp4	86.touch_top_to_bottom_with_hair_brush_short_vertflip_short_600ms.mp4	486.15249479786144	486.76082068281175	0.6083258849503181				
384.35791015625	0.2	787165	291	48	3	0	0	4	322	stimuli\Videos_short_600ms_vertflip\57.single_touch_with_nail_file_short_vertflip_short_600ms.mp4	57.single_touch_with_nail_file_short_vertflip_short_600ms.mp4	486.9524787281225	487.56078965765846	0.6083109295359463				
385.15771484375	0.2	788803	292	48	3	0	0	5	110	stimuli\Videos_short_600ms_horflip\28.single_injection_with_sharp_needle_short_horflip_short_600ms.mp4	28.single_injection_with_sharp_needle_short_horflip_short_600ms.mp4	487.7524538610778	488.3608049649629	0.6083511038850702				
385.95751953125	0.2	790441	293	48	3	0	0	6	87	stimuli\Videos_short_600ms\89.single_touch_with_plastic_brush_short_short_600ms.mp4	89.single_touch_with_plastic_brush_short_short_600ms.mp4	488.55243632512065	489.1607217424789	0.6082854173582746				
386.7578125	0.2	792080	294	48	3	0	0	7	306	stimuli\Videos_short_600ms_vertflip\42.single_slap_with_plastic_whisk_short_vertflip_short_600ms.mp4	42.single_slap_with_plastic_whisk_short_vertflip_short_600ms.mp4	489.3524094053755	489.96072678626297	0.6083173808874562				
387.5576171875	0.2	793718	295	48	3	0	0	8	316	stimuli\Videos_short_600ms_vertflip\51.repeated_touch_with_hammer_short_vertflip_short_600ms.mp4	51.repeated_touch_with_hammer_short_vertflip_short_600ms.mp4	490.152386297792	490.7607022124648	0.6083159146728576				
388.357421875	0.2	795356	296	48	3	0	0	9	318	stimuli\Videos_short_600ms_vertflip\53.touch_top_to_bottom_with_knife_short_vertflip_short_600ms.mp4	53.touch_top_to_bottom_with_knife_short_vertflip_short_600ms.mp4	490.95238313076334	491.5606814508282	0.6082983200649323				
389.15771484375	0.2	796995	297	48	3	0	0	10	14	stimuli\Videos_short_600ms\22.single_touch_with_metal_chopstick_short_short_600ms.mp4	22.single_touch_with_metal_chopstick_short_short_600ms.mp4	491.75233480424504	492.3606668473076	0.6083320430625463				
389.95751953125	0.2	798633	298	48	3	0	0	11	243	stimuli\Videos_short_600ms_horvertflip\67.single_touch_with_sponge_short_horvertflip_short_600ms.mp4	67.single_touch_with_sponge_short_horvertflip_short_600ms.mp4	492.55232987775526	493.1606481383751	0.6083182606198534				
390.75732421875	0.2	800271	299	48	3	0	0	12	321	stimuli\Videos_short_600ms_vertflip\56.repeated_touch_with_nail_file_short_vertflip_short_600ms.mp4	56.repeated_touch_with_nail_file_short_vertflip_short_600ms.mp4	493.3523231918043	493.9606182861935	0.6082950943891774				
391.5576171875	0.2	801910	300	48	3	0	0	13	149	stimuli\Videos_short_600ms_horflip\63.stroke_top_to_bottom_with_screwdriver_short_horflip_short_600ms.mp4	63.stroke_top_to_bottom_with_screwdriver_short_horflip_short_600ms.mp4	494.152284249074	494.7605966448282	0.6083123957541829				
392.357421875	0.2	803548	301	48	3	0	0	14	259	stimuli\Videos_short_600ms_horvertflip\81.single_stroke_top_to_bottom_with_cotton_pad_short_horvertflip_short_600ms.mp4	81.single_stroke_top_to_bottom_with_cotton_pad_short_horvertflip_short_600ms.mp4	494.95226084824753	495.5605750034629	0.6083141552153393				
393.15771484375	0.2	805187	302	48	3	0	0	15	118	stimuli\Videos_short_600ms_horflip\35.single_punch_with_hand_short_horflip_short_600ms.mp4	35.single_punch_with_hand_short_horflip_short_600ms.mp4	495.7522368609352	496.3605545350693	0.6083176741340139				
393.95751953125	0.2	806825	303	48	3	0	0	16	148	stimuli\Videos_short_600ms_horflip\62.touch_top_to_bottom_with_scissors_short_horflip_short_600ms.mp4	62.touch_top_to_bottom_with_scissors_short_horflip_short_600ms.mp4	496.5522143398411	497.1605320139752	0.6083176741340139				
394.75732421875	0.2	808463	304	48	3	0	0	17	224	stimuli\Videos_short_600ms_horvertflip\5.repeated_tap_with_finger_moving_from_top_to_bottom_short_horvertflip_short_600ms.mp4	5.repeated_tap_with_finger_moving_from_top_to_bottom_short_horvertflip_short_600ms.mp4	497.3522182106535	497.9605106658528	0.6082924551992619				
395.5576171875	0.2	810102	305	48	3	0	0	18	158	stimuli\Videos_short_600ms_horflip\71.single_stroke_with_finger_top_to_bottom_short_horflip_short_600ms.mp4	71.single_stroke_with_finger_top_to_bottom_short_horflip_short_600ms.mp4	498.15219480982705	498.7604893177304	0.6082945079033379				
396.357421875	0.2	811740	306	48	3	0	0	19	46	stimuli\Videos_short_600ms\51.repeated_touch_with_hammer_short_short_600ms.mp4	51.repeated_touch_with_hammer_short_short_600ms.mp4	498.9521585062903	499.5604670898756	0.6083085835853126				
397.1572265625	0.2	813378	307	48	3	0	0	20	160	stimuli\Videos_short_600ms_horflip\73.single_stroke_with_flat_hand_short_horflip_short_600ms.mp4	73.single_stroke_with_flat_hand_short_horflip_short_600ms.mp4	499.75213100005567	500.3604457417532	0.6083147416975407				
397.95751953125	0.2	815017	308	48	3	0	0	21	88	stimuli\Videos_short_600ms\9.single_touch_with_hammer_short_short_600ms.mp4	9.single_touch_with_hammer_short_short_600ms.mp4	500.552121088429	501.16042556660614	0.6083044781771605				
398.75732421875	0.2	816655	309	48	3	0	0	22	270	stimuli\Videos_short_600ms_vertflip\1.repeated_touch_with_finger_fast_short_vertflip_short_600ms.mp4	1.repeated_touch_with_finger_fast_short_vertflip_short_600ms.mp4	501.3520874240822	501.9604039252408	0.6083165011586971				
399.55712890625	0.2	818293	310	48	3	0	0	23	255	stimuli\Videos_short_600ms_horvertflip\78.single_stroke_top_to_bottom_with_soft_brush_short_horvertflip_short_600ms.mp4	78.single_stroke_top_to_bottom_with_soft_brush_short_horvertflip_short_600ms.mp4	502.15206607595974	502.7603825771184	0.6083165011586971				
400.357421875	0.2	819932	311	48	3	0	0	24	203	stimuli\Videos_short_600ms_horvertflip\30.finger_pulling_back_another_finger_short_horvertflip_short_600ms.mp4	30.finger_pulling_back_another_finger_short_horvertflip_short_600ms.mp4	502.9520523521642	503.560361228996	0.6083088768318703				
401.1572265625	0.2	821570	312	48	3	0	0	25	151	stimuli\Videos_short_600ms_horflip\65.stroke_top_to_bottom_with_stanley_knife_short_horflip_short_600ms.mp4	65.stroke_top_to_bottom_with_stanley_knife_short_horflip_short_600ms.mp4	503.75208525408016	504.3603419335778	0.6082566794975719				
401.95703125	0.2	823208	313	48	3	0	0	26	352	stimuli\Videos_short_600ms_vertflip\84.single_touch_with_cotton_bud_short_vertflip_short_600ms.mp4	84.single_touch_with_cotton_bud_short_vertflip_short_600ms.mp4	504.5520029113213	505.1603144273431	0.6083115160217858				
402.75732421875	0.2	824847	314	48	3	0	0	27	119	stimuli\Videos_short_600ms_horflip\36.single_slap_with_full_hand_short_horflip_short_600ms.mp4	36.single_slap_with_full_hand_short_horflip_short_600ms.mp4	505.35198156319893	505.96030715490633	0.6083255917073984				
403.55712890625	0.2	826485	315	48	3	0	0	28	73	stimuli\Videos_short_600ms\76.tickle_with_fingers_from_top_to_bottom_short_short_600ms.mp4	76.tickle_with_fingers_from_top_to_bottom_short_short_600ms.mp4	506.15196109480894	506.760258828388	0.6082977335790929				
404.35693359375	0.2	828123	316	48	3	0	0	29	236	stimuli\Videos_short_600ms_horvertflip\60.single_push_with_tip_of_pencil_short_horvertflip_short_600ms.mp4	60.single_push_with_tip_of_pencil_short_horvertflip_short_600ms.mp4	506.95196907102945	507.5602588870388	0.6082898160093464				
405.1572265625	0.2	829762	317	48	3	0	0	30	341	stimuli\Videos_short_600ms_vertflip\74.fingers_walking_from_top_to_bottom_short_vertflip_short_600ms.mp4	74.fingers_walking_from_top_to_bottom_short_vertflip_short_600ms.mp4	507.7519049093644	508.36023196729	0.608327057925635				
405.95703125	0.2	831400	318	48	3	0	0	31	265	stimuli\Videos_short_600ms_horvertflip\87.single_stroke_top_to_bottom_with_plastic_brush_short_horvertflip_short_600ms.mp4	87.single_stroke_top_to_bottom_with_plastic_brush_short_horvertflip_short_600ms.mp4	508.5518973436847	509.16021208538587	0.6083147417011787				
406.7568359375	0.2	833038	319	48	3	0	0	32	142	stimuli\Videos_short_600ms_horflip\57.single_touch_with_nail_file_short_horflip_short_600ms.mp4	57.single_touch_with_nail_file_short_horflip_short_600ms.mp4	509.35187218339706	509.9601892710453	0.6083170876481745				
407.55712890625	0.2	834677	320	48	3	0	0	33	63	stimuli\Videos_short_600ms\67.single_touch_with_sponge_short_short_600ms.mp4	67.single_touch_with_sponge_short_short_600ms.mp4	510.1518511285212	510.7601699756269	0.6083188471056928				
408.35693359375	0.2	836315	321	48	3	0	0	34	32	stimuli\Videos_short_600ms\39.single_stab_with_scissors_short_short_600ms.mp4	39.single_stab_with_scissors_short_short_600ms.mp4	510.9518297803989	511.5601468680434	0.6083170876445365				
409.15673828125	0.2	837953	322	48	3	0	0	35	294	stimuli\Videos_short_600ms_vertflip\31.hand_grabbing_wrist_short_vertflip_short_600ms.mp4	31.hand_grabbing_wrist_short_vertflip_short_600ms.mp4	511.7518090187623	512.3601263996534	0.6083173808910942				
409.95703125	0.2	839592	323	48	3	0	0	36	135	stimuli\Videos_short_600ms_horflip\50.single_(long)hard_push_with_thumb_short_horflip_short_600ms.mp4	50.single_(long)hard_push_with_thumb_short_horflip_short_600ms.mp4	512.5518026260543	513.160102705584	0.6083000795297266				
410.7568359375	0.2	841230	324	48	3	0	0	37	226	stimuli\Videos_short_600ms_horvertflip\51.repeated_touch_with_hammer_short_horvertflip_short_600ms.mp4	51.repeated_touch_with_hammer_short_horvertflip_short_600ms.mp4	513.3517616306235	513.9600848763803	0.6083232457567647				
411.556640625	0.2	842868	325	48	3	0	0	38	283	stimuli\Videos_short_600ms_vertflip\21.repeated_touch_with_metal_chopstick_short_vertflip_short_600ms.mp4	21.repeated_touch_with_metal_chopstick_short_vertflip_short_600ms.mp4	514.1517464406134	514.760060889068	0.608314448454621				
412.35693359375	0.2	844507	326	48	3	0	0	39	53	stimuli\Videos_short_600ms\58.single_slap_with_pencil_short_short_600ms.mp4	58.single_slap_with_pencil_short_short_600ms.mp4	514.9517186411358	515.560038074731	0.6083194335951703				
413.1650390625	0.2	846162	327	48	3	0	0	40	320	stimuli\Videos_short_600ms_vertflip\55.touch_top_to_bottom_with_nail_file_short_vertflip_short_600ms.mp4	55.touch_top_to_bottom_with_nail_file_short_vertflip_short_600ms.mp4	515.7600330309433	516.3683504118308	0.6083173808874562				
413.96533203125	0.2	847801	328	48	3	0	0	41	287	stimuli\Videos_short_600ms_vertflip\25.single_touch_with_stanley_knife_short_vertflip_short_600ms.mp4	25.single_touch_with_stanley_knife_short_vertflip_short_600ms.mp4	516.5600307436434	517.1683296501978	0.6082989065544098				
414.76513671875	0.2	849439	329	48	3	0	0	42	201	stimuli\Videos_short_600ms_horvertflip\29.single_pinch_with_tweezers_short_horvertflip_short_600ms.mp4	29.single_pinch_with_tweezers_short_horvertflip_short_600ms.mp4	517.3599915076702	517.9683080088325	0.608316501162335				
415.56494140625	0.2	851077	330	48	3	0	0	43	235	stimuli\Videos_short_600ms_horvertflip\6.single_touch_with_flat_hand_short_horvertflip_short_600ms.mp4	6.single_touch_with_flat_hand_short_horvertflip_short_600ms.mp4	518.1599689865761	518.7682878336818	0.6083188471056928				
416.365234375	0.2	852716	331	48	3	0	0	44	115	stimuli\Videos_short_600ms_horflip\32.single_(long)pinch_with_fingers_short_horflip_short_600ms.mp4	32.single_(long)pinch_with_fingers_short_horflip_short_600ms.mp4	518.959934149254	519.5682658990736	0.6083317498196266				
417.1650390625	0.2	854354	332	48	3	0	0	45	286	stimuli\Videos_short_600ms_vertflip\24.single_stroke_top_to_bottom_with_a_spoon_short_vertflip_short_600ms.mp4	24.single_stroke_top_to_bottom_with_a_spoon_short_vertflip_short_600ms.mp4	519.7599336214189	520.3682439644654	0.6083103430464689				
417.96484375	0.2	855992	333	48	3	0	0	46	105	stimuli\Videos_short_600ms_horflip\23.single_push_with_a_spoon_short_horflip_short_600ms.mp4	23.single_push_with_a_spoon_short_horflip_short_600ms.mp4	520.5598841219253	521.1682290676981	0.608344945772842				
418.76513671875	0.2	857631	334	48	3	0	0	47	315	stimuli\Videos_short_600ms_vertflip\50.single_(long)hard_push_with_thumb_short_vertflip_short_600ms.mp4	50.single_(long)hard_push_with_thumb_short_vertflip_short_600ms.mp4	521.359864826507	521.9682062533575	0.6083414268505294				
419.56494140625	0.2	859269	335	48	3	0	0	48	275	stimuli\Videos_short_600ms_vertflip\14.repeated_touch_with_pencil_short_vertflip_short_600ms.mp4	14.repeated_touch_with_pencil_short_vertflip_short_600ms.mp4	522.1598619527213	522.7681790403694	0.6083170876481745				
420.36474609375	0.2	860907	336	48	3	0	0	49	202	stimuli\Videos_short_600ms_horvertflip\3.single_push_with_finger_short_horvertflip_short_600ms.mp4	3.single_push_with_finger_short_horvertflip_short_600ms.mp4	522.9598499883905	523.568140684125	0.6082906957344676				
421.1650390625	0.2	862546	337	48	3	0	0	50	209	stimuli\Videos_short_600ms_horvertflip\36.single_slap_with_full_hand_short_horvertflip_short_600ms.mp4	36.single_slap_with_full_hand_short_horvertflip_short_600ms.mp4	523.7598230686417	524.3681105387004	0.6082874700587126				
421.96484375	0.2	864184	338	48	3	0	0	51	268	stimuli\Videos_short_600ms_horvertflip\9.single_touch_with_hammer_short_horvertflip_short_600ms.mp4	9.single_touch_with_hammer_short_horvertflip_short_600ms.mp4	524.559767117793	525.1680897770675	0.6083226592745632				
422.7646484375	0.2	865822	339	48	3	0	0	52	279	stimuli\Videos_short_600ms_vertflip\18.single_stroke_from_top_to_bottom_with_rolling_pin_short_vertflip_short_600ms.mp4	18.single_stroke_from_top_to_bottom_with_rolling_pin_short_vertflip_short_600ms.mp4	525.3597835980763	525.9680681357022	0.6082845376258774				
423.56494140625	0.2	867461	340	48	3	0	0	53	42	stimuli\Videos_short_600ms\48.single_slap_with_hand_short_short_600ms.mp4	48.single_slap_with_hand_short_short_600ms.mp4	526.1597528661623	526.7680467875798	0.6082939214174985				
424.36474609375	0.2	869099	341	48	3	0	0	54	213	stimuli\Videos_short_600ms_horvertflip\4.repeated_tap_with_finger_slow_short_horvertflip_short_600ms.mp4	4.repeated_tap_with_finger_slow_short_horvertflip_short_600ms.mp4	526.9597341572298	527.568055936772	0.608321779542166				
425.16455078125	0.2	870737	342	48	3	0	0	55	261	stimuli\Videos_short_600ms_horvertflip\83.single_stroke_top_to_bottom_with_cotton_bud_short_horvertflip_short_600ms.mp4	83.single_stroke_top_to_bottom_with_cotton_bud_short_horvertflip_short_600ms.mp4	527.7597113428928	528.3680313629739	0.6083200200810097				
425.96484375	0.2	872376	343	48	3	0	0	56	47	stimuli\Videos_short_600ms\52.touch_top_to_bottom_with_hammer_short_short_600ms.mp4	52.touch_top_to_bottom_with_hammer_short_short_600ms.mp4	528.5596888217951	529.1680155864778	0.6083267646827153				
426.7646484375	0.2	874014	344	48	3	0	0	57	70	stimuli\Videos_short_600ms\73.single_stroke_with_flat_hand_short_short_600ms.mp4	73.single_stroke_with_flat_hand_short_short_600ms.mp4	529.3596671804298	529.9679874937538	0.6083203133239294				
427.564453125	0.2	875652	345	48	3	0	0	58	134	stimuli\Videos_short_600ms_horflip\5.repeated_tap_with_finger_moving_from_top_to_bottom_short_horflip_short_600ms.mp4	5.repeated_tap_with_finger_moving_from_top_to_bottom_short_horflip_short_600ms.mp4	530.1596467120398	530.767941806429	0.6082950943891774				
428.36474609375	0.2	877291	346	48	3	0	0	59	27	stimuli\Videos_short_600ms\34.repeated_punch_with_hand_short_short_600ms.mp4	34.repeated_punch_with_hand_short_short_600ms.mp4	530.9595989720074	531.5679436245373	0.6083446525299223				
429.16455078125	0.2	878929	347	48	3	0	0	60	128	stimuli\Videos_short_600ms_horflip\44.pushing_top_to_bottom_with_finger_short_horflip_short_600ms.mp4	44.pushing_top_to_bottom_with_finger_short_horflip_short_600ms.mp4	531.7596051887667	532.3679202237108	0.6083150349440984				
429.96435546875	0.2	880567	348	48	3	0	0	61	97	stimuli\Videos_short_600ms_horflip\16.repeated_touch_with_plastic_brush_short_horflip_short_600ms.mp4	16.repeated_touch_with_plastic_brush_short_horflip_short_600ms.mp4	532.5595812014544	533.1678988755884	0.6083176741340139				
430.7646484375	0.2	882206	349	48	3	0	0	62	0	stimuli\Videos_short_600ms\1.repeated_touch_with_finger_fast_short_short_600ms.mp4	1.repeated_touch_with_finger_fast_short_short_600ms.mp4	533.3595616127932	533.9678757680049	0.6083141552117013				
431.564453125	0.2	883844	350	48	3	0	0	63	159	stimuli\Videos_short_600ms_horflip\72.(short)stroke_with_finger_all_over_the_hand_short_horflip_short_600ms.mp4	72.(short)stroke_with_finger_all_over_the_hand_short_horflip_short_600ms.mp4	534.1595352795339	534.7678555928578	0.6083203133239294				
432.36474609375	0.2	885483	351	48	3	0	1	64	369	stimuli\Targets_short_600ms_horflip\finger-tap_short_horflip_short_600ms.mp4	finger-tap_short_horflip_short_600ms.mp4	534.9595253679036	535.5678339514925	0.6083085835889506				
433.16455078125	0.2	887121	352	48	3	0	0	65	66	stimuli\Videos_short_600ms\7.repeated_touch_with_hairbrush_short_short_600ms.mp4	7.repeated_touch_with_hairbrush_short_short_600ms.mp4	535.759492876532	536.3678134830989	0.6083206065668492				
433.96435546875	0.2	888759	353	48	3	0	0	66	335	stimuli\Videos_short_600ms_vertflip\69.stroke_with_soft_sock_short_vertflip_short_600ms.mp4	69.stroke_with_soft_sock_short_vertflip_short_600ms.mp4	536.5594700621914	537.1677915484906	0.6083214862992463				
434.7646484375	0.2	890398	354	48	3	0	0	67	153	stimuli\Videos_short_600ms_horflip\67.single_touch_with_sponge_short_horflip_short_600ms.mp4	67.single_touch_with_sponge_short_horflip_short_600ms.mp4	537.3594522329913	537.9677702003682	0.6083179673769337				
435.564453125	0.2	892036	355	48	3	0	0	68	227	stimuli\Videos_short_600ms_horvertflip\52.touch_top_to_bottom_with_hammer_short_horvertflip_short_600ms.mp4	52.touch_top_to_bottom_with_hammer_short_horvertflip_short_600ms.mp4	538.1594895335584	538.7677509049499	0.6082613713915634				
436.3642578125	0.2	893674	356	48	3	0	0	69	359	stimuli\Videos_short_600ms_vertflip\90.repeated_touch_with_sponge_short_vertflip_short_600ms.mp4	90.repeated_touch_with_sponge_short_vertflip_short_600ms.mp4	538.9594136421547	539.5677248649336	0.6083112227788661				
437.16455078125	0.2	895313	357	48	3	0	0	70	100	stimuli\Videos_short_600ms_horflip\19.single_touch_with_rolling_pin_short_horflip_short_600ms.mp4	19.single_touch_with_rolling_pin_short_horflip_short_600ms.mp4	539.7593975724158	540.3677114343845	0.6083138619687816				
437.96435546875	0.2	896951	358	48	3	0	0	71	204	stimuli\Videos_short_600ms_horvertflip\31.hand_grabbing_wrist_short_horvertflip_short_600ms.mp4	31.hand_grabbing_wrist_short_horvertflip_short_600ms.mp4	540.5593580431996	541.167683634907	0.6083255917073984				
438.76416015625	0.2	898589	359	48	3	0	0	72	127	stimuli\Videos_short_600ms_horflip\43.touch_top_to_bottom_with_sharp_wooden_stick_short_horflip_short_600ms.mp4	43.touch_top_to_bottom_with_sharp_wooden_stick_short_horflip_short_600ms.mp4	541.3593469585976	541.9676628732705	0.6083159146728576				
439.564453125	0.2	900228	360	48	3	0	0	73	300	stimuli\Videos_short_600ms_vertflip\37.single_stab_with_nail_file_short_vertflip_short_600ms.mp4	37.single_stab_with_nail_file_short_vertflip_short_600ms.mp4	542.15932179831	542.7676444575845	0.6083226592745632				
440.3642578125	0.2	901866	361	48	3	0	0	74	292	stimuli\Videos_short_600ms_vertflip\3.single_push_with_finger_short_vertflip_short_600ms.mp4	3.single_push_with_finger_short_vertflip_short_600ms.mp4	542.9593183380384	543.5676201770257	0.608301838987245				
441.1640625	0.2	903504	362	48	3	0	0	75	174	stimuli\Videos_short_600ms_horflip\86.touch_top_to_bottom_with_hair_brush_short_horflip_short_600ms.mp4	86.touch_top_to_bottom_with_hair_brush_short_horflip_short_600ms.mp4	543.7592811547693	544.3676093856666	0.6083282308973139				
441.96435546875	0.2	905143	363	48	3	0	0	76	12	stimuli\Videos_short_600ms\20.single_touch_with_screwdriver_short_short_600ms.mp4	20.single_touch_with_screwdriver_short_short_600ms.mp4	544.5592574606999	545.1675786537562	0.6083211930563266				
442.76416015625	0.2	906781	364	48	3	0	0	77	309	stimuli\Videos_short_600ms_vertflip\45.scratching_with_finger_nails_short_vertflip_short_600ms.mp4	45.scratching_with_finger_nails_short_vertflip_short_600ms.mp4	545.359241390961	545.9675546664439	0.6083132754829421				
443.56396484375	0.2	908419	365	48	3	0	0	78	288	stimuli\Videos_short_600ms_vertflip\26.single_touch_with_a_blunt_syringe_short_vertflip_short_600ms.mp4	26.single_touch_with_a_blunt_syringe_short_vertflip_short_600ms.mp4	546.1592153509446	546.7675321453462	0.6083167944016168				
444.3642578125	0.2	910058	366	48	3	0	0	79	195	stimuli\Videos_short_600ms_horvertflip\23.single_push_with_a_spoon_short_horvertflip_short_600ms.mp4	23.single_push_with_a_spoon_short_horvertflip_short_600ms.mp4	546.9591960555263	547.567509917495	0.6083138619687816				
445.1640625	0.2	911696	367	48	3	0	0	80	37	stimuli\Videos_short_600ms\43.touch_top_to_bottom_with_sharp_wooden_stick_short_short_600ms.mp4	43.touch_top_to_bottom_with_sharp_wooden_stick_short_short_600ms.mp4	547.7591667898305	548.3674891558585	0.6083223660280055				
445.9638671875	0.2	913334	368	48	3	0	1	81	373	stimuli\Targets_short_600ms_horvertflip\chopstick-silver-tap_short_vertflip_short_600ms.mp4	chopstick-silver-tap_short_vertflip_short_600ms.mp4	548.5591735930793	549.1674672212503	0.6082936281709408				
446.76416015625	0.2	914973	369	48	3	0	0	82	1	stimuli\Videos_short_600ms\10.single_touch_with_knife_short_short_600ms.mp4	10.single_touch_with_knife_short_short_600ms.mp4	549.3591117773612	549.9674482190749	0.6083364417136181				
447.56396484375	0.2	916611	370	48	3	0	0	83	345	stimuli\Videos_short_600ms_vertflip\78.single_stroke_top_to_bottom_with_soft_brush_short_vertflip_short_600ms.mp4	78.single_stroke_top_to_bottom_with_soft_brush_short_vertflip_short_600ms.mp4	550.1590869103165	550.7674277506849	0.6083408403683279				
448.36376953125	0.2	918249	371	48	3	0	0	84	165	stimuli\Videos_short_600ms_horflip\78.single_stroke_top_to_bottom_with_soft_brush_short_horflip_short_600ms.mp4	78.single_stroke_top_to_bottom_with_soft_brush_short_horflip_short_600ms.mp4	550.9590626297613	551.5674031768831	0.6083405471217702				
449.1640625	0.2	919888	372	48	3	0	0	85	336	stimuli\Videos_short_600ms_vertflip\7.repeated_touch_with_hairbrush_short_vertflip_short_600ms.mp4	7.repeated_touch_with_hairbrush_short_vertflip_short_600ms.mp4	551.7590483194836	552.3673824152465	0.6083340957629844				
449.9638671875	0.2	921526	373	48	3	0	0	86	99	stimuli\Videos_short_600ms_horflip\18.single_stroke_from_top_to_bottom_with_rolling_pin_short_horflip_short_600ms.mp4	18.single_stroke_from_top_to_bottom_with_rolling_pin_short_horflip_short_600ms.mp4	552.5590360619062	553.1673604806383	0.6083244187320815				
450.763671875	0.2	923164	374	48	3	0	0	87	167	stimuli\Videos_short_600ms_horflip\8.single_touch_with_hairbrush_short_horflip_short_600ms.mp4	8.single_touch_with_hairbrush_short_horflip_short_600ms.mp4	553.359027909737	553.9673397190054	0.6083118092683435				
