onset	duration	onsetsample	eventnumber	subjectnr	sequencenumber	blocksequencenumber	istarget	presentationnumber	stimnumber	stim	stimname	time_stimon	time_stimoff	stimdur	cresp	resp	rt	correct
25.9775390625	0.2	53202	0	65	0	0	0	0	65	stimuli\Videos_short_600ms\69.stroke_with_soft_sock_short_short_600ms.mp4	69.stroke_with_soft_sock_short_short_600ms.mp4	56.92761333408816	57.535649363351695	0.6080360292635305				
26.77734375	0.2	54840	1	65	0	0	0	1	40	stimuli\Videos_short_600ms\46.scratching_top_to_bottom_with_finger_nails_short_short_600ms.mp4	46.scratching_top_to_bottom_with_finger_nails_short_short_600ms.mp4	57.72751756024809	58.33563188594417	0.6081143256960786				
27.5771484375	0.2	56478	2	65	0	0	0	2	228	stimuli\Videos_short_600ms_horvertflip\53.touch_top_to_bottom_with_knife_short_horvertflip_short_600ms.mp4	53.touch_top_to_bottom_with_knife_short_horvertflip_short_600ms.mp4	58.52730126268398	59.13561030310848	0.6083090404245013				
28.37744140625	0.2	58117	3	65	0	0	0	3	112	stimuli\Videos_short_600ms_horflip\3.single_push_with_finger_short_horflip_short_600ms.mp4	3.single_push_with_finger_short_horflip_short_600ms.mp4	59.32726325812291	59.93556702013484	0.6083037620119285				
29.17724609375	0.2	59755	4	65	0	0	0	4	21	stimuli\Videos_short_600ms\29.single_pinch_with_tweezers_short_short_600ms.mp4	29.single_pinch_with_tweezers_short_short_600ms.mp4	60.1272742254896	60.73553663994608	0.6082624144564761				
29.97705078125	0.2	61393	5	65	0	0	1	5	361	stimuli\Targets_short_600ms\chopstick-silver-tap_short_short_600ms.mp4	chopstick-silver-tap_short_short_600ms.mp4	60.92731158491188	61.535565495261835	0.6082539103499585				
30.77734375	0.2	63032	6	65	0	0	0	6	343	stimuli\Videos_short_600ms_vertflip\76.tickle_with_fingers_from_top_to_bottom_short_vertflip_short_600ms.mp4	76.tickle_with_fingers_from_top_to_bottom_short_vertflip_short_600ms.mp4	61.72720173530797	62.33552602447526	0.6083242891672853				
31.5771484375	0.2	64670	7	65	0	0	0	7	300	stimuli\Videos_short_600ms_vertflip\37.single_stab_with_nail_file_short_vertflip_short_600ms.mp4	37.single_stab_with_nail_file_short_vertflip_short_600ms.mp4	62.52720713101735	63.13552057011657	0.60831343909922				
32.376953125	0.2	66308	8	65	0	0	0	8	335	stimuli\Videos_short_600ms_vertflip\69.stroke_with_soft_sock_short_vertflip_short_600ms.mp4	69.stroke_with_soft_sock_short_vertflip_short_600ms.mp4	63.32719317255214	63.93550367920034	0.6083105066481949				
33.17724609375	0.2	67947	9	65	0	0	0	9	301	stimuli\Videos_short_600ms_vertflip\38.double_slap_with_pencil_short_vertflip_short_600ms.mp4	38.double_slap_with_pencil_short_vertflip_short_600ms.mp4	64.1271504760698	64.73550321000766	0.6083527339378634				
33.97705078125	0.2	69585	10	65	0	0	0	10	274	stimuli\Videos_short_600ms_vertflip\13.single_touch_with_pen_short_vertflip_short_600ms.mp4	13.single_touch_with_pen_short_vertflip_short_600ms.mp4	64.9271546987984	65.53547810822965	0.6083234094312502				
34.77685546875	0.2	71223	11	65	0	0	0	11	216	stimuli\Videos_short_600ms_horvertflip\42.single_slap_with_plastic_whisk_short_horvertflip_short_600ms.mp4	42.single_slap_with_plastic_whisk_short_horvertflip_short_600ms.mp4	65.72713810112691	66.33547265387097	0.6083345527440542				
35.5771484375	0.2	72862	12	65	0	0	0	12	167	stimuli\Videos_short_600ms_horflip\8.single_touch_with_hairbrush_short_horflip_short_600ms.mp4	8.single_touch_with_hairbrush_short_horflip_short_600ms.mp4	66.52717487405971	67.13544403315245	0.6082691590927425				
36.376953125	0.2	74500	13	65	0	0	0	13	232	stimuli\Videos_short_600ms_horvertflip\57.single_touch_with_nail_file_short_horvertflip_short_600ms.mp4	57.single_touch_with_nail_file_short_horvertflip_short_600ms.mp4	67.327104612541	67.93542743548096	0.6083228229399538				
37.1767578125	0.2	76138	14	65	0	0	0	14	25	stimuli\Videos_short_600ms\32.single_(long)pinch_with_fingers_short_short_600ms.mp4	32.single_(long)pinch_with_fingers_short_short_600ms.mp4	68.12714314494224	68.73541142430076	0.6082682793585263				
37.97705078125	0.2	77777	15	65	0	0	0	15	93	stimuli\Videos_short_600ms_horflip\12.repeated_touch_with_nail_file_short_horflip_short_600ms.mp4	12.repeated_touch_with_nail_file_short_horflip_short_600ms.mp4	68.92706995097251	69.53539306715902	0.6083231161865115				
38.77685546875	0.2	79415	16	65	0	0	0	16	103	stimuli\Videos_short_600ms_horflip\21.repeated_touch_with_metal_chopstick_short_horflip_short_600ms.mp4	21.repeated_touch_with_metal_chopstick_short_horflip_short_600ms.mp4	69.72705481952835	70.33537705597882	0.6083222364504763				
39.57666015625	0.2	81053	17	65	0	0	0	17	73	stimuli\Videos_short_600ms\76.tickle_with_fingers_from_top_to_bottom_short_short_600ms.mp4	76.tickle_with_fingers_from_top_to_bottom_short_short_600ms.mp4	70.52707575722525	71.13535723261157	0.6082814753863204				
40.376953125	0.2	82692	18	65	0	0	0	18	99	stimuli\Videos_short_600ms_horflip\18.single_stroke_from_top_to_bottom_with_rolling_pin_short_horflip_short_600ms.mp4	18.single_stroke_from_top_to_bottom_with_rolling_pin_short_horflip_short_600ms.mp4	71.32699992405105	71.93534122143137	0.6083412973803206				
41.1767578125	0.2	84330	19	65	0	0	0	19	134	stimuli\Videos_short_600ms_horflip\5.repeated_tap_with_finger_moving_from_top_to_bottom_short_horflip_short_600ms.mp4	5.repeated_tap_with_finger_moving_from_top_to_bottom_short_horflip_short_600ms.mp4	72.12698332637956	72.73532169130885	0.6083383649292955				
41.9765625	0.2	85968	20	65	0	0	0	20	120	stimuli\Videos_short_600ms_horflip\37.single_stab_with_nail_file_short_horflip_short_600ms.mp4	37.single_stab_with_nail_file_short_horflip_short_600ms.mp4	72.92697054089513	73.53530802608839	0.6083374851932604				
42.77685546875	0.2	87607	21	65	0	0	1	21	378	stimuli\Targets_short_600ms_vertflip\brush-stroke_short_horvertflip_short_600ms.mp4	brush-stroke_short_horvertflip_short_600ms.mp4	73.72700408813034	74.33528057835065	0.6082764902203053				
43.57666015625	0.2	89245	22	65	0	0	0	22	303	stimuli\Videos_short_600ms_vertflip\4.repeated_tap_with_finger_slow_short_vertflip_short_600ms.mp4	4.repeated_tap_with_finger_slow_short_vertflip_short_600ms.mp4	74.527014175761	75.13524931842585	0.6082351426648529				
44.376953125	0.2	90884	23	65	0	0	0	23	78	stimuli\Videos_short_600ms\80.stroke_with_sharp_stick_all_over_the_hand_short_short_600ms.mp4	80.stroke_with_sharp_stick_all_over_the_hand_short_short_600ms.mp4	75.32693628986999	75.9352127800903	0.6082764902203053				
45.1767578125	0.2	92522	24	65	0	0	0	24	190	stimuli\Videos_short_600ms_horvertflip\19.single_touch_with_rolling_pin_short_horvertflip_short_600ms.mp4	19.single_touch_with_rolling_pin_short_horvertflip_short_600ms.mp4	76.12701470360116	76.73519442294855	0.6081797193473903				
45.9765625	0.2	94160	25	65	0	0	0	25	231	stimuli\Videos_short_600ms_horvertflip\56.repeated_touch_with_nail_file_short_horvertflip_short_600ms.mp4	56.repeated_touch_with_nail_file_short_horvertflip_short_600ms.mp4	76.92689928234176	77.53520802951971	0.6083087471779436				
46.77685546875	0.2	95799	26	65	0	0	1	26	364	stimuli\Targets_short_600ms\hand-pinch_short_short_600ms.mp4	hand-pinch_short_short_600ms.mp4	77.7273146346597	78.33520873330781	0.607894098648103				
47.57666015625	0.2	97437	27	65	0	0	0	27	115	stimuli\Videos_short_600ms_horflip\32.single_(long)pinch_with_fingers_short_horflip_short_600ms.mp4	32.single_(long)pinch_with_fingers_short_horflip_short_600ms.mp4	78.52684233414948	79.13517776662957	0.6083354324800894				
48.37646484375	0.2	99075	28	65	0	0	0	28	302	stimuli\Videos_short_600ms_vertflip\39.single_stab_with_scissors_short_vertflip_short_600ms.mp4	39.single_stab_with_scissors_short_vertflip_short_600ms.mp4	79.32684831634833	79.93519371916045	0.6083454028121196				
49.1767578125	0.2	100714	29	65	0	0	0	29	143	stimuli\Videos_short_600ms_horflip\58.single_slap_with_pencil_short_horflip_short_600ms.mp4	58.single_slap_with_pencil_short_horflip_short_600ms.mp4	80.1268320119234	80.73515395512914	0.6083219432057376				
49.9765625	0.2	102352	30	65	0	0	0	30	58	stimuli\Videos_short_600ms\62.touch_top_to_bottom_with_scissors_short_short_600ms.mp4	62.touch_top_to_bottom_with_scissors_short_short_600ms.mp4	80.92679254113682	81.53514879401519	0.6083562528783659				
50.7763671875	0.2	103990	31	65	0	0	0	31	318	stimuli\Videos_short_600ms_vertflip\53.touch_top_to_bottom_with_knife_short_vertflip_short_600ms.mp4	53.touch_top_to_bottom_with_knife_short_vertflip_short_600ms.mp4	81.7276225419846	82.33511929356246	0.6074967515778553				
51.57666015625	0.2	105629	32	65	0	0	1	32	370	stimuli\Targets_short_600ms_horflip\hand-pinch_short_horflip_short_600ms.mp4	hand-pinch_short_horflip_short_600ms.mp4	82.52718425790226	83.13510181615493	0.6079175582526659				
52.37646484375	0.2	107267	33	65	0	0	0	33	207	stimuli\Videos_short_600ms_horvertflip\34.repeated_punch_with_hand_short_horvertflip_short_600ms.mp4	34.repeated_punch_with_hand_short_horvertflip_short_600ms.mp4	83.32683922575234	83.93508287252371	0.6082436467713705				
53.17626953125	0.2	108905	34	65	0	0	0	34	15	stimuli\Videos_short_600ms\23.single_push_with_a_spoon_short_short_600ms.mp4	23.single_push_with_a_spoon_short_short_600ms.mp4	84.12721997515109	84.73506715458825	0.607847179437158				
53.98486328125	0.2	110561	35	65	0	0	0	35	338	stimuli\Videos_short_600ms_vertflip\71.single_stroke_with_finger_top_to_bottom_short_vertflip_short_600ms.mp4	71.single_stroke_with_finger_top_to_bottom_short_vertflip_short_600ms.mp4	84.93506879675988	85.5433939656632	0.6083251689033204				
54.78466796875	0.2	112199	36	65	0	0	0	36	19	stimuli\Videos_short_600ms\27.single_push_with_a_plastic_whisk_short_short_600ms.mp4	27.single_push_with_a_plastic_whisk_short_short_600ms.mp4	85.73524720706155	86.34336534494287	0.6081181378813199				
55.58447265625	0.2	113837	37	65	0	0	0	37	57	stimuli\Videos_short_600ms\61.single_hit_with_rolling_pin_short_short_600ms.mp4	61.single_hit_with_rolling_pin_short_short_600ms.mp4	86.5350660989061	87.14335138647766	0.6082852875715616				
56.384765625	0.2	115476	38	65	0	0	0	38	110	stimuli\Videos_short_600ms_horflip\28.single_injection_with_sharp_needle_short_horflip_short_600ms.mp4	28.single_injection_with_sharp_needle_short_horflip_short_600ms.mp4	87.33503044030476	87.94333156311222	0.6083011228074611				
57.1845703125	0.2	117114	39	65	0	0	0	39	286	stimuli\Videos_short_600ms_vertflip\24.single_stroke_top_to_bottom_with_a_spoon_short_vertflip_short_600ms.mp4	24.single_stroke_top_to_bottom_with_a_spoon_short_vertflip_short_600ms.mp4	88.13505753615027	88.74331789789176	0.6082603617414861				
57.984375	0.2	118752	40	65	0	0	0	40	351	stimuli\Videos_short_600ms_vertflip\83.single_stroke_top_to_bottom_with_cotton_bud_short_vertflip_short_600ms.mp4	83.single_stroke_top_to_bottom_with_cotton_bud_short_vertflip_short_600ms.mp4	88.93510398616854	89.54330042048423	0.6081964343156869				
58.78466796875	0.2	120391	41	65	0	0	0	41	124	stimuli\Videos_short_600ms_horflip\40.repeated_push_with_finger_short_horflip_short_600ms.mp4	40.repeated_push_with_finger_short_horflip_short_600ms.mp4	89.73499589603671	90.34328118360828	0.6082852875715616				
59.58447265625	0.2	122029	42	65	0	0	0	42	96	stimuli\Videos_short_600ms_horflip\15.single_stroke_top_to_bottom_with_a_plastic_whisk_short_horflip_short_600ms.mp4	15.single_stroke_top_to_bottom_with_a_plastic_whisk_short_horflip_short_600ms.mp4	90.53492886021375	91.1432654656728	0.6083366054590442				
60.384765625	0.2	123668	43	65	0	0	0	43	205	stimuli\Videos_short_600ms_horvertflip\32.single_(long)pinch_with_fingers_short_horvertflip_short_600ms.mp4	32.single_(long)pinch_with_fingers_short_horvertflip_short_600ms.mp4	91.3349389478426	91.94324769502056	0.6083087471779436				
61.1845703125	0.2	125306	44	65	0	0	0	44	307	stimuli\Videos_short_600ms_vertflip\43.touch_top_to_bottom_with_sharp_wooden_stick_short_vertflip_short_600ms.mp4	43.touch_top_to_bottom_with_sharp_wooden_stick_short_vertflip_short_600ms.mp4	92.13488921347924	92.74322787165512	0.6083386581758532				
61.984375	0.2	126944	45	65	0	0	0	45	87	stimuli\Videos_short_600ms\89.single_touch_with_plastic_brush_short_short_600ms.mp4	89.single_touch_with_plastic_brush_short_short_600ms.mp4	92.93492452018654	93.5432013036516	0.608276783465044				
62.78466796875	0.2	128583	46	65	0	0	1	46	380	stimuli\Targets_short_600ms_vertflip\chopstickwood-tap_short_horvertflip_short_600ms.mp4	chopstickwood-tap_short_horvertflip_short_600ms.mp4	93.73485983032332	94.3431785478333	0.6083187175099738				
63.58447265625	0.2	130221	47	65	0	0	0	47	118	stimuli\Videos_short_600ms_horflip\35.single_punch_with_hand_short_horflip_short_600ms.mp4	35.single_punch_with_hand_short_horflip_short_600ms.mp4	94.53484264616236	95.14317514619142	0.6083325000290642				
64.38427734375	0.2	131859	48	65	0	0	0	48	236	stimuli\Videos_short_600ms_horvertflip\60.single_push_with_tip_of_pencil_short_horvertflip_short_600ms.mp4	60.single_push_with_tip_of_pencil_short_horvertflip_short_600ms.mp4	95.33486534333132	95.94313860785589	0.6082732645245414				
65.1845703125	0.2	133498	49	65	0	0	1	49	381	stimuli\Targets_short_600ms_vertflip\finger-tap_short_horvertflip_short_600ms.mp4	finger-tap_short_horvertflip_short_600ms.mp4	96.13490387573256	96.74310089653954	0.6081970208069833				
65.984375	0.2	135136	50	65	0	0	0	50	283	stimuli\Videos_short_600ms_vertflip\21.repeated_touch_with_metal_chopstick_short_vertflip_short_600ms.mp4	21.repeated_touch_with_metal_chopstick_short_vertflip_short_600ms.mp4	96.93482188441158	97.54310629224892	0.6082844078373455				
66.7841796875	0.2	136774	51	65	0	0	0	51	350	stimuli\Videos_short_600ms_vertflip\82.repeated_touch_with_cotton_bud_short_vertflip_short_600ms.mp4	82.repeated_touch_with_cotton_bud_short_vertflip_short_600ms.mp4	97.73481965574864	98.34309555947948	0.6082759037308278				
67.58447265625	0.2	138413	52	65	0	0	0	52	11	stimuli\Videos_short_600ms\2.single_touch_with_finger_short_short_600ms.mp4	2.single_touch_with_finger_short_short_600ms.mp4	98.53486082735616	99.14307397664196	0.6082131492858025				
68.38427734375	0.2	140051	53	65	0	0	0	53	288	stimuli\Videos_short_600ms_vertflip\26.single_touch_with_a_blunt_syringe_short_vertflip_short_600ms.mp4	26.single_touch_with_a_blunt_syringe_short_vertflip_short_600ms.mp4	99.33476182782032	99.94308934268338	0.6083275148630491				
69.18408203125	0.2	141689	54	65	0	0	0	54	27	stimuli\Videos_short_600ms\34.repeated_punch_with_hand_short_short_600ms.mp4	34.repeated_punch_with_hand_short_short_600ms.mp4	100.13473086114207	100.7430686395819	0.6083377784398181				
69.984375	0.2	143328	55	65	0	0	0	55	323	stimuli\Videos_short_600ms_vertflip\58.single_slap_with_pencil_short_vertflip_short_600ms.mp4	58.single_slap_with_pencil_short_vertflip_short_600ms.mp4	100.9347213013516	101.5430464702531	0.6083251689015015				
70.7841796875	0.2	144966	56	65	0	0	0	56	192	stimuli\Videos_short_600ms_horvertflip\20.single_touch_with_screwdriver_short_horvertflip_short_600ms.mp4	20.single_touch_with_screwdriver_short_horvertflip_short_600ms.mp4	101.73475279587184	102.34302957933868	0.608276783466863				
71.583984375	0.2	146604	57	65	0	0	0	57	229	stimuli\Videos_short_600ms_horvertflip\54.repeated_touch_with_knife_short_horvertflip_short_600ms.mp4	54.repeated_touch_with_knife_short_horvertflip_short_600ms.mp4	102.53476200376826	103.14301004921616	0.6082480454479082				
72.38427734375	0.2	148243	58	65	0	0	0	58	326	stimuli\Videos_short_600ms_vertflip\60.single_push_with_tip_of_pencil_short_vertflip_short_600ms.mp4	60.single_push_with_tip_of_pencil_short_vertflip_short_600ms.mp4	103.33509993938787	103.94299315829994	0.6078932189120678				
73.18408203125	0.2	149881	59	65	0	0	0	59	56	stimuli\Videos_short_600ms\60.single_push_with_tip_of_pencil_short_short_600ms.mp4	60.single_push_with_tip_of_pencil_short_short_600ms.mp4	104.13470241636968	104.7429748011582	0.6082723847885063				
73.98388671875	0.2	151519	60	65	0	0	0	60	195	stimuli\Videos_short_600ms_horvertflip\23.single_push_with_a_spoon_short_horvertflip_short_600ms.mp4	23.single_push_with_a_spoon_short_horvertflip_short_600ms.mp4	104.93464564412352	105.54295791024197	0.6083122661184461				
74.7841796875	0.2	153158	61	65	0	0	0	61	293	stimuli\Videos_short_600ms_vertflip\30.finger_pulling_back_another_finger_short_vertflip_short_600ms.mp4	30.finger_pulling_back_another_finger_short_vertflip_short_600ms.mp4	105.73460118817091	106.34294013959152	0.6083389514205919				
75.583984375	0.2	154796	62	65	0	0	0	62	83	stimuli\Videos_short_600ms\85.touch_top_to_bottom_with_fabric_short_short_600ms.mp4	85.touch_top_to_bottom_with_fabric_short_short_600ms.mp4	106.53466024772752	107.14292354192004	0.6082632941925112				
76.3837890625	0.2	156434	63	65	0	0	0	63	299	stimuli\Videos_short_600ms_vertflip\36.single_slap_with_full_hand_short_vertflip_short_600ms.mp4	36.single_slap_with_full_hand_short_vertflip_short_600ms.mp4	107.3347108031794	107.94290694424852	0.6081961410691292				
77.18408203125	0.2	158073	64	65	0	0	0	64	329	stimuli\Videos_short_600ms_vertflip\63.stroke_top_to_bottom_with_screwdriver_short_vertflip_short_600ms.mp4	63.stroke_top_to_bottom_with_screwdriver_short_vertflip_short_600ms.mp4	108.13463702271838	108.74289533174488	0.6082583090264961				
77.98388671875	0.2	159711	65	65	0	0	0	65	254	stimuli\Videos_short_600ms_horvertflip\77.tapping_with_all_fingers_short_horvertflip_short_600ms.mp4	77.tapping_with_all_fingers_short_horvertflip_short_600ms.mp4	108.93453215828232	109.54285087579228	0.6083187175099738				
78.78369140625	0.2	161349	66	65	0	0	0	66	261	stimuli\Videos_short_600ms_horvertflip\83.single_stroke_top_to_bottom_with_cotton_bud_short_horvertflip_short_600ms.mp4	83.single_stroke_top_to_bottom_with_cotton_bud_short_horvertflip_short_600ms.mp4	109.7345384337259	110.34281199149518	0.6082735577692802				
79.583984375	0.2	162988	67	65	0	0	1	67	372	stimuli\Targets_short_600ms_horvertflip\brush-stroke_short_vertflip_short_600ms.mp4	brush-stroke_short_vertflip_short_600ms.mp4	110.53452564824148	111.14280360468727	0.6082779564458178				
80.3837890625	0.2	164626	68	65	0	0	0	68	235	stimuli\Videos_short_600ms_horvertflip\6.single_touch_with_flat_hand_short_horvertflip_short_600ms.mp4	6.single_touch_with_flat_hand_short_horvertflip_short_600ms.mp4	111.33450054646346	111.9427773299285	0.608276783465044				
81.18408203125	0.2	166265	69	65	0	0	0	69	122	stimuli\Videos_short_600ms_horflip\39.single_stab_with_scissors_short_horflip_short_600ms.mp4	39.single_stab_with_scissors_short_horflip_short_600ms.mp4	112.1344604891856	112.74274636324844	0.6082858740628581				
81.98388671875	0.2	167903	70	65	0	0	0	70	81	stimuli\Videos_short_600ms\83.single_stroke_top_to_bottom_with_cotton_bud_short_short_600ms.mp4	83.single_stroke_top_to_bottom_with_cotton_bud_short_short_600ms.mp4	112.9344946229121	113.54277668478971	0.6082820618776168				
82.78369140625	0.2	169541	71	65	0	0	0	71	148	stimuli\Videos_short_600ms_horflip\62.touch_top_to_bottom_with_scissors_short_horflip_short_600ms.mp4	62.touch_top_to_bottom_with_scissors_short_horflip_short_600ms.mp4	113.73449649968096	114.34276155334372	0.6082650536627625				
83.583984375	0.2	171180	72	65	0	0	0	72	42	stimuli\Videos_short_600ms\48.single_slap_with_hand_short_short_600ms.mp4	48.single_slap_with_hand_short_short_600ms.mp4	114.53443532876008	115.14276870852336	0.6083333797632804				
84.3837890625	0.2	172818	73	65	0	0	0	73	309	stimuli\Videos_short_600ms_vertflip\45.scratching_with_finger_nails_short_vertflip_short_600ms.mp4	45.scratching_with_finger_nails_short_vertflip_short_600ms.mp4	115.33445626645698	115.94275035138162	0.608294084924637				
85.18359375	0.2	174456	74	65	0	0	0	74	114	stimuli\Videos_short_600ms_horflip\31.hand_grabbing_wrist_short_horflip_short_600ms.mp4	31.hand_grabbing_wrist_short_horflip_short_600ms.mp4	116.13440008070212	116.74272466311412	0.608324582412024				
85.98388671875	0.2	176095	75	65	0	0	0	75	213	stimuli\Videos_short_600ms_horvertflip\4.repeated_tap_with_finger_slow_short_horvertflip_short_600ms.mp4	4.repeated_tap_with_finger_slow_short_horvertflip_short_600ms.mp4	116.93457057338674	117.54270542623637	0.6081348528496164				
86.78369140625	0.2	177733	76	65	0	0	1	76	376	stimuli\Targets_short_600ms_horvertflip\hand-pinch_short_vertflip_short_600ms.mp4	hand-pinch_short_vertflip_short_600ms.mp4	117.73436717860568	118.34268589611564	0.6083187175099738				
87.58349609375	0.2	179371	77	65	0	0	0	77	126	stimuli\Videos_short_600ms_horflip\42.single_slap_with_plastic_whisk_short_horflip_short_600ms.mp4	42.single_slap_with_plastic_whisk_short_horflip_short_600ms.mp4	118.53475349965991	119.14266988493364	0.6079163852737111				
88.3837890625	0.2	181010	78	65	0	0	0	78	191	stimuli\Videos_short_600ms_horvertflip\2.single_touch_with_finger_short_horvertflip_short_600ms.mp4	2.single_touch_with_finger_short_horvertflip_short_600ms.mp4	119.33430993716684	119.94265856567472	0.6083486285078834				
89.18359375	0.2	182648	79	65	0	0	0	79	345	stimuli\Videos_short_600ms_vertflip\78.single_stroke_top_to_bottom_with_soft_brush_short_vertflip_short_600ms.mp4	78.single_stroke_top_to_bottom_with_soft_brush_short_vertflip_short_600ms.mp4	120.13441503620017	120.7426390355522	0.6082239993520488				
89.9833984375	0.2	184286	80	65	0	0	0	80	253	stimuli\Videos_short_600ms_horvertflip\76.tickle_with_fingers_from_top_to_bottom_short_horvertflip_short_600ms.mp4	76.tickle_with_fingers_from_top_to_bottom_short_horvertflip_short_600ms.mp4	120.93428084725564	121.5426215581465	0.6083407108908432				
90.78369140625	0.2	185925	81	65	0	0	0	81	230	stimuli\Videos_short_600ms_horvertflip\55.touch_top_to_bottom_with_nail_file_short_horvertflip_short_600ms.mp4	55.touch_top_to_bottom_with_nail_file_short_horvertflip_short_600ms.mp4	121.73430940932668	122.34260466723026	0.6082952579035918				
91.58349609375	0.2	187563	82	65	0	0	0	82	38	stimuli\Videos_short_600ms\44.pushing_top_to_bottom_with_finger_short_short_600ms.mp4	44.pushing_top_to_bottom_with_finger_short_short_600ms.mp4	122.53424266674848	123.14258631008852	0.6083436433400493				
92.38330078125	0.2	189201	83	65	0	0	0	83	101	stimuli\Videos_short_600ms_horflip\2.single_touch_with_finger_short_horflip_short_600ms.mp4	2.single_touch_with_finger_short_horflip_short_600ms.mp4	123.33432196021568	123.9425694191741	0.6082474589584308				
93.18359375	0.2	190840	84	65	0	0	0	84	239	stimuli\Videos_short_600ms_horvertflip\63.stroke_top_to_bottom_with_screwdriver_short_horvertflip_short_600ms.mp4	63.stroke_top_to_bottom_with_screwdriver_short_horvertflip_short_600ms.mp4	124.1342505257162	124.74253933222826	0.6082888065120642				
93.9833984375	0.2	192478	85	65	0	0	0	85	308	stimuli\Videos_short_600ms_vertflip\44.pushing_top_to_bottom_with_finger_short_vertflip_short_600ms.mp4	44.pushing_top_to_bottom_with_finger_short_vertflip_short_600ms.mp4	124.9342095887041	125.54250865879476	0.6082990700906521				
94.783203125	0.2	194116	86	65	0	0	0	86	24	stimuli\Videos_short_600ms\31.hand_grabbing_wrist_short_short_600ms.mp4	31.hand_grabbing_wrist_short_short_600ms.mp4	125.73445691159576	126.34248502324226	0.6080281116464903				
95.58349609375	0.2	195755	87	65	0	0	0	87	206	stimuli\Videos_short_600ms_horvertflip\33.scratch_top_to_bottom_with_scissors_short_horvertflip_short_600ms.mp4	33.scratch_top_to_bottom_with_scissors_short_horvertflip_short_600ms.mp4	126.53456318360986	127.1424825013346	0.6079193177247362				
96.38330078125	0.2	197393	88	65	0	0	0	88	119	stimuli\Videos_short_600ms_horflip\36.single_slap_with_full_hand_short_horflip_short_600ms.mp4	36.single_slap_with_full_hand_short_horflip_short_600ms.mp4	127.3341580362212	127.94246150498655	0.6083034687653708				
97.18310546875	0.2	199031	89	65	0	0	0	89	227	stimuli\Videos_short_600ms_horvertflip\52.touch_top_to_bottom_with_hammer_short_horvertflip_short_600ms.mp4	52.touch_top_to_bottom_with_hammer_short_horvertflip_short_600ms.mp4	128.13419539564347	128.74245517089366	0.6082597752501897				
97.9833984375	0.2	200670	90	65	0	0	0	90	84	stimuli\Videos_short_600ms\86.touch_top_to_bottom_with_hair_brush_short_short_600ms.mp4	86.touch_top_to_bottom_with_hair_brush_short_short_600ms.mp4	128.9341295327995	129.54243358805616	0.6083040552566672				
98.783203125	0.2	202308	91	65	0	0	0	91	212	stimuli\Videos_short_600ms_horvertflip\39.single_stab_with_scissors_short_horvertflip_short_600ms.mp4	39.single_stab_with_scissors_short_horvertflip_short_600ms.mp4	129.73440090178883	130.34242080257172	0.6080199007828924				
99.58349609375	0.2	203947	92	65	0	0	0	92	50	stimuli\Videos_short_600ms\55.touch_top_to_bottom_with_nail_file_short_short_600ms.mp4	55.touch_top_to_bottom_with_nail_file_short_short_600ms.mp4	130.53423298966118	131.14242737126187	0.6081943816006969				
100.38330078125	0.2	205585	93	65	0	0	0	93	272	stimuli\Videos_short_600ms_vertflip\11.single_touch_with_lighter_short_vertflip_short_600ms.mp4	11.single_touch_with_lighter_short_vertflip_short_600ms.mp4	131.3340589193867	131.94240138974783	0.6083424703610945				
101.18310546875	0.2	207223	94	65	0	0	0	94	160	stimuli\Videos_short_600ms_horflip\73.single_stroke_with_flat_hand_short_horflip_short_600ms.mp4	73.single_stroke_with_flat_hand_short_horflip_short_600ms.mp4	132.13406255562586	132.74240355976144	0.6083410041355819				
101.9833984375	0.2	208862	95	65	0	0	0	95	18	stimuli\Videos_short_600ms\26.single_touch_with_a_blunt_syringe_short_short_600ms.mp4	26.single_touch_with_a_blunt_syringe_short_short_600ms.mp4	132.93409463663556	133.54236614168985	0.6082715050542902				
102.783203125	0.2	210500	96	65	0	0	0	96	334	stimuli\Videos_short_600ms_vertflip\68.stroke_top_to_bottom_with_shawl_short_vertflip_short_600ms.mp4	68.stroke_top_to_bottom_with_shawl_short_vertflip_short_600ms.mp4	133.73422172904975	134.34235218322465	0.6081304541748977				
103.5830078125	0.2	212138	97	65	0	0	0	97	179	stimuli\Videos_short_600ms_horflip\90.repeated_touch_with_sponge_short_horflip_short_600ms.mp4	90.repeated_touch_with_sponge_short_horflip_short_600ms.mp4	134.5340071909559	135.14233353283817	0.6083263418822753	8.0	8.0	2.113631878319211	1.0
136.4736328125	0.2	279498	98	65	1	0	0	0	266	stimuli\Videos_short_600ms_horvertflip\88.repeated_stroke_with_plastic_brush_short_horvertflip_short_600ms.mp4	88.repeated_stroke_with_plastic_brush_short_horvertflip_short_600ms.mp4	167.42520241974125	168.0332865411965	0.6080841214552493				
137.27392578125	0.2	281137	99	65	1	0	0	1	154	stimuli\Videos_short_600ms_horflip\68.stroke_top_to_bottom_with_shawl_short_horflip_short_600ms.mp4	68.stroke_top_to_bottom_with_shawl_short_horflip_short_600ms.mp4	168.22497145992384	168.83326613133795	0.6082946714141144				
138.07373046875	0.2	282775	100	65	1	0	0	2	211	stimuli\Videos_short_600ms_horvertflip\38.double_slap_with_pencil_short_horvertflip_short_600ms.mp4	38.double_slap_with_pencil_short_horvertflip_short_600ms.mp4	169.02500647338638	169.63325569181507	0.6082492184286821				
138.87353515625	0.2	284413	101	65	1	0	0	3	26	stimuli\Videos_short_600ms\33.scratch_top_to_bottom_with_scissors_short_short_600ms.mp4	33.scratch_top_to_bottom_with_scissors_short_short_600ms.mp4	169.8249106995463	170.43323909414357	0.6083283945972653				
139.673828125	0.2	286052	102	65	1	0	0	4	332	stimuli\Videos_short_600ms_vertflip\66.stroke_top_to_bottom_with_sponge_short_vertflip_short_600ms.mp4	66.stroke_top_to_bottom_with_sponge_short_vertflip_short_600ms.mp4	170.6249600820156	171.2332392114422	0.6082791294265917				
140.4736328125	0.2	287690	103	65	1	0	0	5	68	stimuli\Videos_short_600ms\71.single_stroke_with_finger_top_to_bottom_short_short_600ms.mp4	71.single_stroke_with_finger_top_to_bottom_short_short_600ms.mp4	171.42489304619266	172.0332317043667	0.6083386581740342				
141.2734375	0.2	289328	104	65	1	0	0	6	289	stimuli\Videos_short_600ms_vertflip\27.single_push_with_a_plastic_whisk_short_vertflip_short_600ms.mp4	27.single_push_with_a_plastic_whisk_short_vertflip_short_600ms.mp4	172.22493539078096	172.83320718908	0.6082717982990289				
142.07373046875	0.2	290967	105	65	1	0	0	7	113	stimuli\Videos_short_600ms_horflip\30.finger_pulling_back_another_finger_short_horflip_short_600ms.mp4	30.finger_pulling_back_another_finger_short_horflip_short_600ms.mp4	173.02490970251165	173.63319088465323	0.6082811821415817				
142.87353515625	0.2	292605	106	65	1	0	0	8	97	stimuli\Videos_short_600ms_horflip\16.repeated_touch_with_plastic_brush_short_horflip_short_600ms.mp4	16.repeated_touch_with_plastic_brush_short_horflip_short_600ms.mp4	173.82484970457153	174.43317311400278	0.6083234094312502				
143.67333984375	0.2	294243	107	65	1	0	0	9	238	stimuli\Videos_short_600ms_horvertflip\62.touch_top_to_bottom_with_scissors_short_horvertflip_short_600ms.mp4	62.touch_top_to_bottom_with_scissors_short_horvertflip_short_600ms.mp4	174.624832227164	175.23315417037156	0.6083219432075566				
144.4736328125	0.2	295882	108	65	1	0	0	10	321	stimuli\Videos_short_600ms_vertflip\56.repeated_touch_with_nail_file_short_vertflip_short_600ms.mp4	56.repeated_touch_with_nail_file_short_vertflip_short_600ms.mp4	175.4248162159838	176.03313933217032	0.6083231161865115				
145.2734375	0.2	297520	109	65	1	0	0	11	294	stimuli\Videos_short_600ms_vertflip\31.hand_grabbing_wrist_short_vertflip_short_600ms.mp4	31.hand_grabbing_wrist_short_vertflip_short_600ms.mp4	176.2248002048036	176.83312097502858	0.6083207702249638				
146.0732421875	0.2	299158	110	65	1	0	0	12	88	stimuli\Videos_short_600ms\9.single_touch_with_hammer_short_short_600ms.mp4	9.single_touch_with_hammer_short_short_600ms.mp4	177.0247654259383	177.63310672331863	0.6083412973803206				
146.87353515625	0.2	300797	111	65	1	0	0	13	75	stimuli\Videos_short_600ms\78.single_stroke_top_to_bottom_with_soft_brush_short_short_600ms.mp4	78.single_stroke_top_to_bottom_with_soft_brush_short_short_600ms.mp4	177.82478049873498	178.4330883661769	0.6083078674419085				
147.67333984375	0.2	302435	112	65	1	0	0	14	85	stimuli\Videos_short_600ms\87.single_stroke_top_to_bottom_with_plastic_brush_short_short_600ms.mp4	87.single_stroke_top_to_bottom_with_plastic_brush_short_short_600ms.mp4	178.62473809549738	179.2330697157904	0.6083316202930291				
148.47314453125	0.2	304073	113	65	1	0	0	15	265	stimuli\Videos_short_600ms_horvertflip\87.single_stroke_top_to_bottom_with_plastic_brush_short_horvertflip_short_600ms.mp4	87.single_stroke_top_to_bottom_with_plastic_brush_short_horvertflip_short_600ms.mp4	179.42473645332575	180.03305458434443	0.6083181310186774				
149.2734375	0.2	305712	114	65	1	0	0	16	217	stimuli\Videos_short_600ms_horvertflip\43.touch_top_to_bottom_with_sharp_wooden_stick_short_horvertflip_short_600ms.mp4	43.touch_top_to_bottom_with_sharp_wooden_stick_short_horvertflip_short_600ms.mp4	180.22469492982236	180.83303329475348	0.6083383649311145				
150.0732421875	0.2	307350	115	65	1	0	0	17	355	stimuli\Videos_short_600ms_vertflip\87.single_stroke_top_to_bottom_with_plastic_brush_short_vertflip_short_600ms.mp4	87.single_stroke_top_to_bottom_with_plastic_brush_short_vertflip_short_600ms.mp4	181.0248360980004	181.63302109575852	0.6081849977581442				
150.873046875	0.2	308988	116	65	1	0	0	18	267	stimuli\Videos_short_600ms_horvertflip\89.single_touch_with_plastic_brush_short_horvertflip_short_600ms.mp4	89.single_touch_with_plastic_brush_short_horvertflip_short_600ms.mp4	181.82469487117305	182.4329584586103	0.60826358743725				
151.67333984375	0.2	310627	117	65	1	0	0	19	359	stimuli\Videos_short_600ms_vertflip\90.repeated_touch_with_sponge_short_vertflip_short_600ms.mp4	90.repeated_touch_with_sponge_short_vertflip_short_600ms.mp4	182.6246814991991	183.23294362041088	0.6082621212117374				
152.47314453125	0.2	312265	118	65	1	0	0	20	74	stimuli\Videos_short_600ms\77.tapping_with_all_fingers_short_short_600ms.mp4	77.tapping_with_all_fingers_short_short_600ms.mp4	183.4246361635105	184.0329507755905	0.6083146120799938				
153.27294921875	0.2	313903	119	65	1	0	0	21	30	stimuli\Videos_short_600ms\37.single_stab_with_nail_file_short_short_600ms.mp4	37.single_stab_with_nail_file_short_short_600ms.mp4	184.22463158888783	184.83293505765505	0.6083034687671898				
154.0732421875	0.2	315542	120	65	1	0	0	22	20	stimuli\Videos_short_600ms\28.single_injection_with_sharp_needle_short_short_600ms.mp4	28.single_injection_with_sharp_needle_short_short_600ms.mp4	185.02463170618648	185.63291904647303	0.6082873402865516				
154.873046875	0.2	317180	121	65	1	0	0	23	322	stimuli\Videos_short_600ms_vertflip\57.single_touch_with_nail_file_short_vertflip_short_600ms.mp4	57.single_touch_with_nail_file_short_vertflip_short_600ms.mp4	185.8245969273212	186.4329106596651	0.6083137323439587				
155.67333984375	0.2	318819	122	65	1	0	1	24	367	stimuli\Targets_short_600ms_horflip\chopstick-silver-tap_short_horflip_short_600ms.mp4	chopstick-silver-tap_short_horflip_short_600ms.mp4	186.62457915666891	187.23291194994272	0.608332793273803				
156.47314453125	0.2	320457	123	65	1	0	0	25	313	stimuli\Videos_short_600ms_vertflip\49.repeated_slap_with_hand_short_vertflip_short_600ms.mp4	49.repeated_slap_with_hand_short_vertflip_short_600ms.mp4	187.42461094443388	188.03288596842867	0.6082750239947927				
157.27294921875	0.2	322095	124	65	1	0	0	26	163	stimuli\Videos_short_600ms_horflip\76.tickle_with_fingers_from_top_to_bottom_short_horflip_short_600ms.mp4	76.tickle_with_fingers_from_top_to_bottom_short_horflip_short_600ms.mp4	188.22474712744588	188.83288286003153	0.6081357325856516				
158.0732421875	0.2	323734	125	65	1	0	0	27	159	stimuli\Videos_short_600ms_horflip\72.(short)stroke_with_finger_all_over_the_hand_short_horflip_short_600ms.mp4	72.(short)stroke_with_finger_all_over_the_hand_short_horflip_short_600ms.mp4	189.0245909451205	189.63285072037252	0.6082597752520087				
158.873046875	0.2	325372	126	65	1	0	0	28	17	stimuli\Videos_short_600ms\25.single_touch_with_stanley_knife_short_short_600ms.mp4	25.single_touch_with_stanley_knife_short_short_600ms.mp4	189.824511593004	190.43283558892657	0.6083239959225466				
159.6728515625	0.2	327010	127	65	1	0	0	29	357	stimuli\Videos_short_600ms_vertflip\89.single_touch_with_plastic_brush_short_vertflip_short_600ms.mp4	89.single_touch_with_plastic_brush_short_vertflip_short_600ms.mp4	190.6245345834177	191.2328172317848	0.6082826483670942				
160.47314453125	0.2	328649	128	65	1	0	0	30	89	stimuli\Videos_short_600ms\90.repeated_touch_with_sponge_short_short_600ms.mp4	90.repeated_touch_with_sponge_short_short_600ms.mp4	191.4245094816397	192.0328012206046	0.6082917389649083				
161.27294921875	0.2	330287	129	65	1	0	0	31	3	stimuli\Videos_short_600ms\12.repeated_touch_with_nail_file_short_short_600ms.mp4	12.repeated_touch_with_nail_file_short_short_600ms.mp4	192.22443980661228	192.83278403644363	0.6083442298313457				
162.07275390625	0.2	331925	130	65	1	0	0	32	258	stimuli\Videos_short_600ms_horvertflip\80.stroke_with_sharp_stick_all_over_the_hand_short_horvertflip_short_600ms.mp4	80.stroke_with_sharp_stick_all_over_the_hand_short_horvertflip_short_600ms.mp4	193.02457364366091	193.6327680252616	0.6081943816006969				
162.873046875	0.2	333564	131	65	1	0	0	33	297	stimuli\Videos_short_600ms_vertflip\34.repeated_punch_with_hand_short_vertflip_short_600ms.mp4	34.repeated_punch_with_hand_short_vertflip_short_600ms.mp4	193.8244294843844	194.43275436004112	0.6083248756567627				
163.6728515625	0.2	335202	132	65	1	0	0	34	71	stimuli\Videos_short_600ms\74.fingers_walking_from_top_to_bottom_short_short_600ms.mp4	74.fingers_walking_from_top_to_bottom_short_short_600ms.mp4	194.62440966101897	195.2327351231652	0.6083254621462402				
164.47265625	0.2	336840	133	65	1	0	0	35	14	stimuli\Videos_short_600ms\22.single_touch_with_metal_chopstick_short_short_600ms.mp4	22.single_touch_with_metal_chopstick_short_short_600ms.mp4	195.4243968755327	196.03271969847447	0.6083228229417728				
165.27294921875	0.2	338479	134	65	1	0	0	36	155	stimuli\Videos_short_600ms_horflip\69.stroke_with_soft_sock_short_horflip_short_600ms.mp4	69.stroke_with_soft_sock_short_horflip_short_600ms.mp4	196.2243650291184	196.8326857993452	0.6083207702267828				
166.07275390625	0.2	340117	135	65	1	0	0	37	164	stimuli\Videos_short_600ms_horflip\77.tapping_with_all_fingers_short_horflip_short_600ms.mp4	77.tapping_with_all_fingers_short_horflip_short_600ms.mp4	197.02444226987063	197.63267917200577	0.6082369021351042				
166.87255859375	0.2	341755	136	65	1	0	0	38	234	stimuli\Videos_short_600ms_horvertflip\59.single_push_with_long_side_pencil_short_horvertflip_short_600ms.mp4	59.single_push_with_long_side_pencil_short_horvertflip_short_600ms.mp4	197.82438696384995	198.43264468638515	0.6082577225351997				
167.6728515625	0.2	343394	137	65	1	0	0	39	165	stimuli\Videos_short_600ms_horflip\78.single_stroke_top_to_bottom_with_soft_brush_short_horflip_short_600ms.mp4	78.single_stroke_top_to_bottom_with_soft_brush_short_horflip_short_600ms.mp4	198.62519819701265	199.23262867520495	0.6074304781923274				
168.47265625	0.2	345032	138	65	1	0	0	40	59	stimuli\Videos_short_600ms\63.stroke_top_to_bottom_with_screwdriver_short_short_600ms.mp4	63.stroke_top_to_bottom_with_screwdriver_short_short_600ms.mp4	199.42484026207967	200.0326094383272	0.6077691762475297				
169.2724609375	0.2	346670	139	65	1	0	1	41	366	stimuli\Targets_short_600ms_horflip\brush-stroke_short_horflip_short_600ms.mp4	brush-stroke_short_horflip_short_600ms.mp4	200.224554758679	200.83259577310855	0.6080410144295456				
170.07275390625	0.2	348309	140	65	1	0	0	42	198	stimuli\Videos_short_600ms_horvertflip\26.single_touch_with_a_blunt_syringe_short_horvertflip_short_600ms.mp4	26.single_touch_with_a_blunt_syringe_short_horvertflip_short_600ms.mp4	201.0246410900272	201.63258269437756	0.6079416043503443				
170.87255859375	0.2	349947	141	65	1	0	0	43	142	stimuli\Videos_short_600ms_horflip\57.single_touch_with_nail_file_short_horflip_short_600ms.mp4	57.single_touch_with_nail_file_short_horflip_short_600ms.mp4	201.82432303642415	202.4325913157827	0.6082682793585263				
171.67236328125	0.2	351585	142	65	1	0	0	44	33	stimuli\Videos_short_600ms\4.repeated_tap_with_finger_slow_short_short_600ms.mp4	4.repeated_tap_with_finger_slow_short_short_600ms.mp4	202.6242823926568	203.23256533426863	0.6082829416118329				
172.47265625	0.2	353224	143	65	1	0	0	45	145	stimuli\Videos_short_600ms_horflip\6.single_touch_with_flat_hand_short_horflip_short_600ms.mp4	6.single_touch_with_flat_hand_short_horflip_short_600ms.mp4	203.42422737988272	204.03254902984372	0.6083216499609989				
173.2724609375	0.2	354862	144	65	1	0	0	46	105	stimuli\Videos_short_600ms_horflip\23.single_push_with_a_spoon_short_horflip_short_600ms.mp4	23.single_push_with_a_spoon_short_horflip_short_600ms.mp4	204.22422133903456	204.832528619987	0.608307280952431				
174.072265625	0.2	356500	145	65	1	0	0	47	66	stimuli\Videos_short_600ms\7.repeated_touch_with_hairbrush_short_short_600ms.mp4	7.repeated_touch_with_hairbrush_short_short_600ms.mp4	205.0241903723545	205.63251436827704	0.6083239959225466				
174.87255859375	0.2	358139	146	65	1	0	0	48	46	stimuli\Videos_short_600ms\51.repeated_touch_with_hammer_short_short_600ms.mp4	51.repeated_touch_with_hammer_short_short_600ms.mp4	205.8242306642278	206.43249777060555	0.6082671063777525				
175.67236328125	0.2	359777	147	65	1	0	0	49	125	stimuli\Videos_short_600ms_horflip\41.injection_with_blunt_syringe_short_horflip_short_600ms.mp4	41.injection_with_blunt_syringe_short_horflip_short_600ms.mp4	206.6242328342414	207.23247970670857	0.6082468724671344				
176.47265625	0.2	361416	148	65	1	0	0	50	121	stimuli\Videos_short_600ms_horflip\38.double_slap_with_pencil_short_horflip_short_600ms.mp4	38.double_slap_with_pencil_short_horflip_short_600ms.mp4	207.4241605200059	208.03246310903705	0.6083025890311546				
177.2724609375	0.2	363054	149	65	1	0	0	51	327	stimuli\Videos_short_600ms_vertflip\61.single_hit_with_rolling_pin_short_vertflip_short_600ms.mp4	61.single_hit_with_rolling_pin_short_vertflip_short_600ms.mp4	208.22408175438068	208.8324095624885	0.6083278081077879				
178.072265625	0.2	364692	150	65	1	0	0	52	131	stimuli\Videos_short_600ms_horflip\47.(long)scratching_with_finger_nails_short_horflip_short_600ms.mp4	47.(long)scratching_with_finger_nails_short_horflip_short_600ms.mp4	209.02411618135193	209.6324299136959	0.6083137323439587				
178.87255859375	0.2	366331	151	65	1	0	0	53	136	stimuli\Videos_short_600ms_horflip\51.repeated_touch_with_hammer_short_horflip_short_600ms.mp4	51.repeated_touch_with_hammer_short_horflip_short_600ms.mp4	209.8241066215633	210.43241067681993	0.6083040552566672				
179.67236328125	0.2	367969	152	65	1	0	0	54	82	stimuli\Videos_short_600ms\84.single_touch_with_cotton_bud_short_short_600ms.mp4	84.single_touch_with_cotton_bud_short_short_600ms.mp4	210.6240686170022	211.2323937859037	0.6083251689015015				
180.47216796875	0.2	369607	153	65	1	0	0	55	51	stimuli\Videos_short_600ms\56.repeated_touch_with_nail_file_short_short_600ms.mp4	56.repeated_touch_with_nail_file_short_short_600ms.mp4	211.42408456953308	212.03238246664296	0.6082978971098782				
181.2724609375	0.2	371246	154	65	1	0	0	56	123	stimuli\Videos_short_600ms_horflip\4.repeated_tap_with_finger_slow_short_horflip_short_600ms.mp4	4.repeated_tap_with_finger_slow_short_horflip_short_600ms.mp4	212.2240805813999	212.8323688014225	0.6082882200225868				
182.072265625	0.2	372884	155	65	1	0	0	57	271	stimuli\Videos_short_600ms_vertflip\10.single_touch_with_knife_short_vertflip_short_600ms.mp4	10.single_touch_with_knife_short_vertflip_short_600ms.mp4	213.02410122585388	213.63232405222516	0.608222826371275				
182.8720703125	0.2	374522	156	65	1	0	0	58	344	stimuli\Videos_short_600ms_vertflip\77.tapping_with_all_fingers_short_vertflip_short_600ms.mp4	77.tapping_with_all_fingers_short_vertflip_short_600ms.mp4	213.8240799362611	214.43230334912369	0.6082234128625714				
183.67236328125	0.2	376161	157	65	1	0	0	59	166	stimuli\Videos_short_600ms_horflip\79.long_with_soft_brush_all_over_the_hand_short_horflip_short_600ms.mp4	79.long_with_soft_brush_all_over_the_hand_short_horflip_short_600ms.mp4	214.62396422175695	215.23228939065848	0.6083251689015015				
184.47216796875	0.2	377799	158	65	1	0	1	60	363	stimuli\Targets_short_600ms\finger-tap_short_short_600ms.mp4	finger-tap_short_short_600ms.mp4	215.4239722566708	216.03228510928056	0.6083128526097425				
185.27197265625	0.2	379437	159	65	1	0	0	61	69	stimuli\Videos_short_600ms\72.(short)stroke_with_finger_all_over_the_hand_short_short_600ms.mp4	72.(short)stroke_with_finger_all_over_the_hand_short_short_600ms.mp4	216.22397120098867	216.83225971425784	0.6082885132691445				
186.072265625	0.2	381076	160	65	1	0	0	62	132	stimuli\Videos_short_600ms_horflip\48.single_slap_with_hand_short_horflip_short_600ms.mp4	48.single_slap_with_hand_short_horflip_short_600ms.mp4	217.0240026955089	217.6322665761909	0.6082638806819887				
186.8720703125	0.2	382714	161	65	1	0	0	63	310	stimuli\Videos_short_600ms_vertflip\46.scratching_top_to_bottom_with_finger_nails_short_vertflip_short_600ms.mp4	46.scratching_top_to_bottom_with_finger_nails_short_vertflip_short_600ms.mp4	217.8239755410159	218.43224176765943	0.6082662266435364				
187.671875	0.2	384352	162	65	1	0	0	64	243	stimuli\Videos_short_600ms_horvertflip\67.single_touch_with_sponge_short_horvertflip_short_600ms.mp4	67.single_touch_with_sponge_short_horvertflip_short_600ms.mp4	218.62391583632052	219.2322251699879	0.608309333667421				
188.47216796875	0.2	385991	163	65	1	0	0	65	72	stimuli\Videos_short_600ms\75.(long)stroke_with_fingers_all_over_the_hand_short_short_600ms.mp4	75.(long)stroke_with_fingers_all_over_the_hand_short_short_600ms.mp4	219.4239136076576	220.03221003854196	0.6082964308843657				
189.27197265625	0.2	387629	164	65	1	0	0	66	79	stimuli\Videos_short_600ms\81.single_stroke_top_to_bottom_with_cotton_pad_short_short_600ms.mp4	81.single_stroke_top_to_bottom_with_cotton_pad_short_short_600ms.mp4	220.22387061793052	220.83219197464496	0.6083213567144412				
190.07177734375	0.2	389267	165	65	1	0	0	67	77	stimuli\Videos_short_600ms\8.single_touch_with_hairbrush_short_short_600ms.mp4	8.single_touch_with_hairbrush_short_short_600ms.mp4	221.02385402025905	221.63217596346476	0.6083219432057376				
190.8720703125	0.2	390906	166	65	1	0	0	68	290	stimuli\Videos_short_600ms_vertflip\28.single_injection_with_sharp_needle_short_vertflip_short_600ms.mp4	28.single_injection_with_sharp_needle_short_vertflip_short_600ms.mp4	221.82383654285331	222.43215760632305	0.6083210634697025				
191.671875	0.2	392544	167	65	1	0	0	69	220	stimuli\Videos_short_600ms_horvertflip\46.scratching_top_to_bottom_with_finger_nails_short_horvertflip_short_600ms.mp4	46.scratching_top_to_bottom_with_finger_nails_short_horvertflip_short_600ms.mp4	222.62381877220105	223.2321401289173	0.6083213567162602				
192.4716796875	0.2	394182	168	65	1	0	0	70	152	stimuli\Videos_short_600ms_horflip\66.stroke_top_to_bottom_with_sponge_short_horflip_short_600ms.mp4	66.stroke_top_to_bottom_with_sponge_short_horflip_short_600ms.mp4	223.4238218219507	224.03212382449055	0.6083020025398582				
193.27197265625	0.2	395821	169	65	1	0	0	71	100	stimuli\Videos_short_600ms_horflip\19.single_touch_with_rolling_pin_short_horflip_short_600ms.mp4	19.single_touch_with_rolling_pin_short_horflip_short_600ms.mp4	224.2237879228196	224.8321066403296	0.6083187175099738				
194.07177734375	0.2	397459	170	65	1	0	0	72	276	stimuli\Videos_short_600ms_vertflip\15.single_stroke_top_to_bottom_with_a_plastic_whisk_short_vertflip_short_600ms.mp4	15.single_stroke_top_to_bottom_with_a_plastic_whisk_short_vertflip_short_600ms.mp4	225.02374317362228	225.6320926818644	0.6083495082420995				
194.87158203125	0.2	399097	171	65	1	0	0	73	174	stimuli\Videos_short_600ms_horflip\86.touch_top_to_bottom_with_hair_brush_short_horflip_short_600ms.mp4	86.touch_top_to_bottom_with_hair_brush_short_horflip_short_600ms.mp4	225.82372980164655	226.43203473663925	0.6083049349927023				
195.671875	0.2	400736	172	65	1	0	0	74	0	stimuli\Videos_short_600ms\1.repeated_touch_with_finger_fast_short_short_600ms.mp4	1.repeated_touch_with_finger_fast_short_short_600ms.mp4	226.62371525669187	227.23203192148685	0.6083166647949838				
196.4716796875	0.2	402374	173	65	1	0	0	75	295	stimuli\Videos_short_600ms_vertflip\32.single_(long)pinch_with_fingers_short_vertflip_short_600ms.mp4	32.single_(long)pinch_with_fingers_short_vertflip_short_600ms.mp4	227.42374293902685	228.03204435507723	0.6083014160503808				
197.27197265625	0.2	404013	174	65	1	0	0	76	177	stimuli\Videos_short_600ms_horflip\89.single_touch_with_plastic_brush_short_horflip_short_600ms.mp4	89.single_touch_with_plastic_brush_short_horflip_short_600ms.mp4	228.22370874665103	228.8319987261439	0.608289979492838				
198.07177734375	0.2	405651	175	65	1	0	0	77	64	stimuli\Videos_short_600ms\68.stroke_top_to_bottom_with_shawl_short_short_600ms.mp4	68.stroke_top_to_bottom_with_shawl_short_short_600ms.mp4	229.02368335162828	229.6319900460894	0.6083066944611346				
198.87158203125	0.2	407289	176	65	1	0	0	78	319	stimuli\Videos_short_600ms_vertflip\54.repeated_touch_with_knife_short_vertflip_short_600ms.mp4	54.repeated_touch_with_knife_short_vertflip_short_600ms.mp4	229.82367848375907	230.43194295093235	0.6082644671732851				
199.671875	0.2	408928	177	65	1	0	0	79	225	stimuli\Videos_short_600ms_horvertflip\50.single_(long)hard_push_with_thumb_short_horvertflip_short_600ms.mp4	50.single_(long)hard_push_with_thumb_short_horvertflip_short_600ms.mp4	230.6236835862237	231.23196095618005	0.6082773699563404				
200.4716796875	0.2	410566	178	65	1	0	0	80	111	stimuli\Videos_short_600ms_horflip\29.single_pinch_with_tweezers_short_horflip_short_600ms.mp4	29.single_pinch_with_tweezers_short_horflip_short_600ms.mp4	231.42371918617573	232.03193966658728	0.6082204804115463				
201.271484375	0.2	412204	179	65	1	0	0	81	219	stimuli\Videos_short_600ms_horvertflip\45.scratching_with_finger_nails_short_horvertflip_short_600ms.mp4	45.scratching_with_finger_nails_short_horvertflip_short_600ms.mp4	232.22367326399765	232.83193802441383	0.6082647604162048				
202.07177734375	0.2	413843	180	65	1	0	0	82	354	stimuli\Videos_short_600ms_vertflip\86.touch_top_to_bottom_with_hair_brush_short_vertflip_short_600ms.mp4	86.touch_top_to_bottom_with_hair_brush_short_vertflip_short_600ms.mp4	233.0236742610305	233.63190383203985	0.6082295710093604				
202.87158203125	0.2	415481	181	65	1	0	0	83	109	stimuli\Videos_short_600ms_horflip\27.single_push_with_a_plastic_whisk_short_horflip_short_600ms.mp4	27.single_push_with_a_plastic_whisk_short_horflip_short_600ms.mp4	233.82357819394565	234.43190482907264	0.608326635127014				
203.67138671875	0.2	417119	182	65	1	0	0	84	221	stimuli\Videos_short_600ms_horvertflip\47.(long)scratching_with_finger_nails_short_horvertflip_short_600ms.mp4	47.(long)scratching_with_finger_nails_short_horvertflip_short_600ms.mp4	234.62356364898915	235.23188705842225	0.6083234094330692				
204.4716796875	0.2	418758	183	65	1	0	0	85	233	stimuli\Videos_short_600ms_horvertflip\58.single_slap_with_pencil_short_horvertflip_short_600ms.mp4	58.single_slap_with_pencil_short_horvertflip_short_600ms.mp4	235.4236051138432	236.03184494842935	0.6082398345861293				
205.271484375	0.2	420396	184	65	1	0	1	86	360	stimuli\Targets_short_600ms\brush-stroke_short_short_600ms.mp4	brush-stroke_short_short_600ms.mp4	236.22356828226293	236.8318515171195	0.6082832348565717				
206.0712890625	0.2	422034	185	65	1	0	0	87	281	stimuli\Videos_short_600ms_vertflip\2.single_touch_with_finger_short_vertflip_short_600ms.mp4	2.single_touch_with_finger_short_vertflip_short_600ms.mp4	237.02361619850672	237.63183521269275	0.6082190141860337				
206.87158203125	0.2	423673	186	65	1	0	0	88	106	stimuli\Videos_short_600ms_horflip\24.single_stroke_top_to_bottom_with_a_spoon_short_horflip_short_600ms.mp4	24.single_stroke_top_to_bottom_with_a_spoon_short_horflip_short_600ms.mp4	237.823490220424	238.43181920151255	0.6083289810885617				
207.67138671875	0.2	425311	187	65	1	0	0	89	262	stimuli\Videos_short_600ms_horvertflip\84.single_touch_with_cotton_bud_short_horvertflip_short_600ms.mp4	84.single_touch_with_cotton_bud_short_horvertflip_short_600ms.mp4	238.62354194885484	239.23180025788133	0.6082583090264961				
208.47119140625	0.2	426949	188	65	1	0	0	90	240	stimuli\Videos_short_600ms_horvertflip\64.repeated_touch_with_screwdriver_short_horvertflip_short_600ms.mp4	64.repeated_touch_with_screwdriver_short_horvertflip_short_600ms.mp4	239.4234444155445	240.0317871791503	0.6083427636058332				
209.271484375	0.2	428588	189	65	1	0	0	91	1	stimuli\Videos_short_600ms\10.single_touch_with_knife_short_short_600ms.mp4	10.single_touch_with_knife_short_short_600ms.mp4	240.22346652622215	240.8317688220086	0.6083022957864159				
210.0712890625	0.2	430226	190	65	1	0	0	92	316	stimuli\Videos_short_600ms_vertflip\51.repeated_touch_with_hammer_short_vertflip_short_600ms.mp4	51.repeated_touch_with_hammer_short_vertflip_short_600ms.mp4	241.0234103404673	241.63175574327943	0.6083454028121196				
210.87109375	0.2	431864	191	65	1	0	0	93	70	stimuli\Videos_short_600ms\73.single_stroke_with_flat_hand_short_short_600ms.mp4	73.single_stroke_with_flat_hand_short_short_600ms.mp4	241.82346764055364	242.43173445368663	0.6082668131330138	4.0	4.0	1.91889750410337	1.0
243.07861328125	0.2	497825	192	65	2	0	0	0	328	stimuli\Videos_short_600ms_vertflip\62.touch_top_to_bottom_with_scissors_short_vertflip_short_600ms.mp4	62.touch_top_to_bottom_with_scissors_short_vertflip_short_600ms.mp4	274.0310464421018	274.63938246107136	0.6083360189695668				
243.87841796875	0.2	499463	193	65	2	0	0	1	61	stimuli\Videos_short_600ms\65.stroke_top_to_bottom_with_stanley_knife_short_short_600ms.mp4	65.stroke_top_to_bottom_with_stanley_knife_short_short_600ms.mp4	274.8310535972814	275.4393646904209	0.6083110931394913				
244.6787109375	0.2	501102	194	65	2	0	0	2	149	stimuli\Videos_short_600ms_horflip\63.stroke_top_to_bottom_with_screwdriver_short_horflip_short_600ms.mp4	63.stroke_top_to_bottom_with_screwdriver_short_horflip_short_600ms.mp4	275.63101764543717	276.23935249142596	0.608334845988793				
245.478515625	0.2	502740	195	65	2	0	0	3	247	stimuli\Videos_short_600ms_horvertflip\70.(long)stroke_with_finger_all_over_the_hand_short_horvertflip_short_600ms.mp4	70.(long)stroke_with_finger_all_over_the_hand_short_horvertflip_short_600ms.mp4	276.43131511323554	277.03933560050973	0.6080204872741888				
246.2783203125	0.2	504378	196	65	2	0	0	4	48	stimuli\Videos_short_600ms\53.touch_top_to_bottom_with_knife_short_short_600ms.mp4	53.touch_top_to_bottom_with_knife_short_short_600ms.mp4	277.2310296098349	277.839313137938	0.6082835281031294				
247.07861328125	0.2	506017	197	65	2	0	0	5	28	stimuli\Videos_short_600ms\35.single_punch_with_hand_short_short_600ms.mp4	35.single_punch_with_hand_short_short_600ms.mp4	278.03098134169704	278.63929536728574	0.6083140255886974				
247.87841796875	0.2	507655	198	65	2	0	0	6	182	stimuli\Videos_short_600ms_horvertflip\11.single_touch_with_lighter_short_horvertflip_short_600ms.mp4	11.single_touch_with_lighter_short_horvertflip_short_600ms.mp4	278.83097031568286	279.4392687992822	0.6082984835993557				
248.67822265625	0.2	509293	199	65	2	0	0	7	90	stimuli\Videos_short_600ms_horflip\1.repeated_touch_with_finger_fast_short_horflip_short_600ms.mp4	1.repeated_touch_with_finger_fast_short_horflip_short_600ms.mp4	279.63094726661984	280.2392422312787	0.6082949646588531				
249.478515625	0.2	510932	200	65	2	0	0	8	208	stimuli\Videos_short_600ms_horvertflip\35.single_punch_with_hand_short_horvertflip_short_600ms.mp4	35.single_punch_with_hand_short_horvertflip_short_600ms.mp4	280.43092451080156	281.0392529053988	0.6083283945972653				
250.2783203125	0.2	512570	201	65	2	0	0	9	285	stimuli\Videos_short_600ms_vertflip\23.single_push_with_a_spoon_short_vertflip_short_600ms.mp4	23.single_push_with_a_spoon_short_vertflip_short_600ms.mp4	281.23119265409514	281.83920434401625	0.6080116899211134				
251.078125	0.2	514208	202	65	2	0	0	10	13	stimuli\Videos_short_600ms\21.repeated_touch_with_metal_chopstick_short_short_600ms.mp4	21.repeated_touch_with_metal_chopstick_short_short_600ms.mp4	282.03086961532426	282.6391985964128	0.6083289810885617				
251.87841796875	0.2	515847	203	65	2	0	1	11	362	stimuli\Targets_short_600ms\chopstickwood-tap_short_short_600ms.mp4	chopstickwood-tap_short_short_600ms.mp4	282.830943337136	283.43918199874133	0.6082386616053554				
252.67822265625	0.2	517485	204	65	2	0	0	12	199	stimuli\Videos_short_600ms_horvertflip\27.single_push_with_a_plastic_whisk_short_horvertflip_short_600ms.mp4	27.single_push_with_a_plastic_whisk_short_horvertflip_short_600ms.mp4	283.63090298661336	284.2391853417357	0.6082823551223555				
253.47802734375	0.2	519123	205	65	2	0	0	13	224	stimuli\Videos_short_600ms_horvertflip\5.repeated_tap_with_finger_moving_from_top_to_bottom_short_horvertflip_short_600ms.mp4	5.repeated_tap_with_finger_moving_from_top_to_bottom_short_horvertflip_short_600ms.mp4	284.4308385899967	285.0391581872427	0.6083195972460089				
254.2783203125	0.2	520762	206	65	2	0	0	14	67	stimuli\Videos_short_600ms\70.(long)stroke_with_finger_all_over_the_hand_short_short_600ms.mp4	70.(long)stroke_with_finger_all_over_the_hand_short_short_600ms.mp4	285.2308636331254	285.839153905863	0.6082902727375767				
255.078125	0.2	522400	207	65	2	0	0	15	128	stimuli\Videos_short_600ms_horflip\44.pushing_top_to_bottom_with_finger_short_horflip_short_600ms.mp4	44.pushing_top_to_bottom_with_finger_short_horflip_short_600ms.mp4	286.03084234353264	286.63912587163577	0.6082835281031294				
255.8779296875	0.2	524038	208	65	2	0	0	16	181	stimuli\Videos_short_600ms_horvertflip\10.single_touch_with_knife_short_horvertflip_short_600ms.mp4	10.single_touch_with_knife_short_horvertflip_short_600ms.mp4	286.830784984797	287.439107514494	0.608322529697034				
256.67822265625	0.2	525677	209	65	2	0	0	17	278	stimuli\Videos_short_600ms_vertflip\17.repeated_touch_with_rolling_pin_short_vertflip_short_600ms.mp4	17.repeated_touch_with_rolling_pin_short_vertflip_short_600ms.mp4	287.6307710263318	288.2390991276843	0.6083281013525266				
257.47802734375	0.2	527315	210	65	2	0	0	18	54	stimuli\Videos_short_600ms\59.single_push_with_long_side_pencil_short_short_600ms.mp4	59.single_push_with_long_side_pencil_short_short_600ms.mp4	288.43072422441946	289.0390787178276	0.6083544934081146				
258.2783203125	0.2	528954	211	65	2	0	0	19	251	stimuli\Videos_short_600ms_horvertflip\74.fingers_walking_from_top_to_bottom_short_horvertflip_short_600ms.mp4	74.fingers_walking_from_top_to_bottom_short_horvertflip_short_600ms.mp4	289.2306967766799	289.8390588944603	0.6083621177804162				
259.078125	0.2	530592	212	65	2	0	0	20	183	stimuli\Videos_short_600ms_horvertflip\12.repeated_touch_with_nail_file_short_horvertflip_short_600ms.mp4	12.repeated_touch_with_nail_file_short_horvertflip_short_600ms.mp4	290.030755249747	290.6390428832801	0.6082876335331093				
259.8779296875	0.2	532230	213	65	2	0	0	21	291	stimuli\Videos_short_600ms_vertflip\29.single_pinch_with_tweezers_short_vertflip_short_600ms.mp4	29.single_pinch_with_tweezers_short_vertflip_short_600ms.mp4	290.8306621151132	291.4390289248149	0.6083668097016925				
260.67822265625	0.2	533869	214	65	2	0	0	22	200	stimuli\Videos_short_600ms_horvertflip\28.single_injection_with_sharp_needle_short_horvertflip_short_600ms.mp4	28.single_injection_with_sharp_needle_short_horvertflip_short_600ms.mp4	291.63066633784183	292.2390085149582	0.6083421771163557				
261.47802734375	0.2	535507	215	65	2	0	0	23	127	stimuli\Videos_short_600ms_horflip\43.touch_top_to_bottom_with_sharp_wooden_stick_short_horflip_short_600ms.mp4	43.touch_top_to_bottom_with_sharp_wooden_stick_short_horflip_short_600ms.mp4	292.43065883076815	293.03899015781644	0.6083313270482904				
262.27783203125	0.2	537145	216	65	2	0	0	24	314	stimuli\Videos_short_600ms_vertflip\5.repeated_tap_with_finger_moving_from_top_to_bottom_short_vertflip_short_600ms.mp4	5.repeated_tap_with_finger_moving_from_top_to_bottom_short_vertflip_short_600ms.mp4	293.23066363998805	293.83895420597037	0.6082905659823155				
263.078125	0.2	538784	217	65	2	0	0	25	269	stimuli\Videos_short_600ms_horvertflip\90.repeated_touch_with_sponge_short_horvertflip_short_600ms.mp4	90.repeated_touch_with_sponge_short_horvertflip_short_600ms.mp4	294.0306529072186	294.63893936777094	0.6082864605523355				
263.8779296875	0.2	540422	218	65	2	0	0	26	151	stimuli\Videos_short_600ms_horflip\65.stroke_top_to_bottom_with_stanley_knife_short_horflip_short_600ms.mp4	65.stroke_top_to_bottom_with_stanley_knife_short_horflip_short_600ms.mp4	294.8307580062519	295.438927168776	0.6081691625240637				
264.677734375	0.2	542060	219	65	2	0	0	27	280	stimuli\Videos_short_600ms_vertflip\19.single_touch_with_rolling_pin_short_vertflip_short_600ms.mp4	19.single_touch_with_rolling_pin_short_vertflip_short_600ms.mp4	295.63080768196596	296.23886101268727	0.6080533307213045				
265.47802734375	0.2	543699	220	65	2	0	0	28	12	stimuli\Videos_short_600ms\20.single_touch_with_screwdriver_short_short_600ms.mp4	20.single_touch_with_screwdriver_short_short_600ms.mp4	296.430625107585	297.03890130456057	0.6082761969755666				
266.27783203125	0.2	545337	221	65	2	0	0	29	317	stimuli\Videos_short_600ms_vertflip\52.touch_top_to_bottom_with_hammer_short_vertflip_short_600ms.mp4	52.touch_top_to_bottom_with_hammer_short_vertflip_short_600ms.mp4	297.2305665758686	297.8388753230465	0.6083087471779436				
267.07763671875	0.2	546975	222	65	2	0	0	30	275	stimuli\Videos_short_600ms_vertflip\14.repeated_touch_with_pencil_short_vertflip_short_600ms.mp4	14.repeated_touch_with_pencil_short_vertflip_short_600ms.mp4	298.0305980703888	298.6388499280238	0.6082518576349685				
267.8779296875	0.2	548614	223	65	2	0	0	31	226	stimuli\Videos_short_600ms_horvertflip\51.repeated_touch_with_hammer_short_horvertflip_short_600ms.mp4	51.repeated_touch_with_hammer_short_horvertflip_short_600ms.mp4	298.83058792411066	299.4388611886352	0.6082732645245414				
268.677734375	0.2	550252	224	65	2	0	0	32	264	stimuli\Videos_short_600ms_horvertflip\86.touch_top_to_bottom_with_hair_brush_short_horvertflip_short_600ms.mp4	86.touch_top_to_bottom_with_hair_brush_short_horvertflip_short_600ms.mp4	299.6305062260344	300.2388375530827	0.6083313270482904				
269.4775390625	0.2	551890	225	65	2	0	0	33	102	stimuli\Videos_short_600ms_horflip\20.single_touch_with_screwdriver_short_horflip_short_600ms.mp4	20.single_touch_with_screwdriver_short_horflip_short_600ms.mp4	300.4305028243907	301.0388277000475	0.6083248756567627				
270.27783203125	0.2	553529	226	65	2	0	1	34	379	stimuli\Targets_short_600ms_vertflip\chopstick-silver-tap_short_horvertflip_short_600ms.mp4	chopstick-silver-tap_short_horvertflip_short_600ms.mp4	301.23054077030247	301.8387882292609	0.6082474589584308				
271.07763671875	0.2	555167	227	65	2	0	0	35	197	stimuli\Videos_short_600ms_horvertflip\25.single_touch_with_stanley_knife_short_horvertflip_short_600ms.mp4	25.single_touch_with_stanley_knife_short_horvertflip_short_600ms.mp4	302.03054528627763	302.63878717357875	0.6082418873011193				
271.87744140625	0.2	556805	228	65	2	0	0	36	60	stimuli\Videos_short_600ms\64.repeated_touch_with_screwdriver_short_short_600ms.mp4	64.repeated_touch_with_screwdriver_short_short_600ms.mp4	302.8304659341611	303.43877409484776	0.6083081606866472				
272.677734375	0.2	558444	229	65	2	0	0	37	172	stimuli\Videos_short_600ms_horflip\84.single_touch_with_cotton_bud_short_horflip_short_600ms.mp4	84.single_touch_with_cotton_bud_short_horflip_short_600ms.mp4	303.6304455243044	304.23877802433344	0.6083325000290642				
273.4775390625	0.2	560082	230	65	2	0	0	38	156	stimuli\Videos_short_600ms_horflip\7.repeated_touch_with_hairbrush_short_horflip_short_600ms.mp4	7.repeated_touch_with_hairbrush_short_horflip_short_600ms.mp4	304.4304233549774	305.0387605469259	0.6083371919485216				
274.27734375	0.2	561720	231	65	2	0	0	39	10	stimuli\Videos_short_600ms\19.single_touch_with_rolling_pin_short_short_600ms.mp4	19.single_touch_with_rolling_pin_short_short_600ms.mp4	305.2303759665738	305.8387178504436	0.608341883869798				
275.07763671875	0.2	563359	232	65	2	0	0	40	4	stimuli\Videos_short_600ms\13.single_touch_with_pen_short_short_600ms.mp4	13.single_touch_with_pen_short_short_600ms.mp4	306.0303775500961	306.6386992000571	0.6083216499609989				
275.87744140625	0.2	564997	233	65	2	0	0	41	270	stimuli\Videos_short_600ms_vertflip\1.repeated_touch_with_finger_fast_short_vertflip_short_600ms.mp4	1.repeated_touch_with_finger_fast_short_vertflip_short_600ms.mp4	306.83035098209257	307.4386820158961	0.6083310338035517				
276.677734375	0.2	566636	234	65	2	0	0	42	331	stimuli\Videos_short_600ms_vertflip\65.stroke_top_to_bottom_with_stanley_knife_short_vertflip_short_600ms.mp4	65.stroke_top_to_bottom_with_stanley_knife_short_vertflip_short_600ms.mp4	307.63034523448914	308.23868418590973	0.6083389514205919				
277.4775390625	0.2	568274	235	65	2	0	1	43	374	stimuli\Targets_short_600ms_horvertflip\chopstickwood-tap_short_vertflip_short_600ms.mp4	chopstickwood-tap_short_vertflip_short_600ms.mp4	308.4303705708644	309.03863151909536	0.6082609482309635				
278.27734375	0.2	569912	236	65	2	0	0	44	178	stimuli\Videos_short_600ms_horflip\9.single_touch_with_hammer_short_horflip_short_600ms.mp4	9.single_touch_with_hammer_short_horflip_short_600ms.mp4	309.23031115941194	309.83861492142387	0.6083037620119285				
279.07763671875	0.2	571551	237	65	2	0	0	45	311	stimuli\Videos_short_600ms_vertflip\47.(long)scratching_with_finger_nails_short_vertflip_short_600ms.mp4	47.(long)scratching_with_finger_nails_short_vertflip_short_600ms.mp4	310.0302731548509	310.63859245885214	0.6083193040012702				
279.87744140625	0.2	573189	238	65	2	0	0	46	193	stimuli\Videos_short_600ms_horvertflip\21.repeated_touch_with_metal_chopstick_short_horvertflip_short_600ms.mp4	21.repeated_touch_with_metal_chopstick_short_horvertflip_short_600ms.mp4	310.83027415188553	311.4385752746912	0.6083011228056421				
280.67724609375	0.2	574827	239	65	2	0	1	47	382	stimuli\Targets_short_600ms_vertflip\hand-pinch_short_horvertflip_short_600ms.mp4	hand-pinch_short_horvertflip_short_600ms.mp4	311.6302578474588	312.23856131622597	0.6083034687671898				
281.4775390625	0.2	576466	240	65	2	0	0	48	214	stimuli\Videos_short_600ms_horvertflip\40.repeated_push_with_finger_short_horvertflip_short_600ms.mp4	40.repeated_push_with_finger_short_horvertflip_short_600ms.mp4	312.4302453552191	313.038541199614	0.6082958443948883				
282.27734375	0.2	578104	241	65	2	0	0	49	248	stimuli\Videos_short_600ms_horvertflip\71.single_stroke_with_finger_top_to_bottom_short_horvertflip_short_600ms.mp4	71.single_stroke_with_finger_top_to_bottom_short_horvertflip_short_600ms.mp4	313.2303759665738	313.83853046684453	0.6081545002707571				
283.0771484375	0.2	579742	242	65	2	0	0	50	339	stimuli\Videos_short_600ms_vertflip\72.(short)stroke_with_finger_all_over_the_hand_short_vertflip_short_600ms.mp4	72.(short)stroke_with_finger_all_over_the_hand_short_vertflip_short_600ms.mp4	314.0301898732523	314.63853820851364	0.6083483352613257				
283.87744140625	0.2	581381	243	65	2	0	0	51	187	stimuli\Videos_short_600ms_horvertflip\16.repeated_touch_with_plastic_brush_short_horvertflip_short_600ms.mp4	16.repeated_touch_with_plastic_brush_short_horvertflip_short_600ms.mp4	314.83019028379385	315.4385072418336	0.6083169580397225				
284.67724609375	0.2	583019	244	65	2	0	0	52	223	stimuli\Videos_short_600ms_horvertflip\49.repeated_slap_with_hand_short_horvertflip_short_600ms.mp4	49.repeated_slap_with_hand_short_horvertflip_short_600ms.mp4	315.63017339287944	316.2384941631044	0.6083207702249638				
285.47705078125	0.2	584657	245	65	2	0	0	53	315	stimuli\Videos_short_600ms_vertflip\50.single_(long)hard_push_with_thumb_short_vertflip_short_600ms.mp4	50.single_(long)hard_push_with_thumb_short_vertflip_short_600ms.mp4	316.43015474249296	317.0384752194732	0.6083204769802251				
286.27734375	0.2	586296	246	65	2	0	0	54	86	stimuli\Videos_short_600ms\88.repeated_stroke_with_plastic_brush_short_short_600ms.mp4	88.repeated_stroke_with_plastic_brush_short_short_600ms.mp4	317.230139611047	317.83845920829117	0.6083195972441899				
287.0771484375	0.2	587934	247	65	2	0	0	55	260	stimuli\Videos_short_600ms_horvertflip\82.repeated_touch_with_cotton_bud_short_horvertflip_short_600ms.mp4	82.repeated_touch_with_cotton_bud_short_horvertflip_short_600ms.mp4	318.0301203741692	318.63843967817047	0.6083193040012702				
287.876953125	0.2	589572	248	65	2	0	0	56	108	stimuli\Videos_short_600ms_horflip\26.single_touch_with_a_blunt_syringe_short_horflip_short_600ms.mp4	26.single_touch_with_a_blunt_syringe_short_horflip_short_600ms.mp4	318.83010406974427	319.43843129136076	0.6083272216164914				
288.67724609375	0.2	591211	249	65	2	0	0	57	353	stimuli\Videos_short_600ms_vertflip\85.touch_top_to_bottom_with_fabric_short_vertflip_short_600ms.mp4	85.touch_top_to_bottom_with_fabric_short_vertflip_short_600ms.mp4	319.6301056532666	320.2384126409743	0.6083069877076923				
289.47705078125	0.2	592849	250	65	2	0	0	58	141	stimuli\Videos_short_600ms_horflip\56.repeated_touch_with_nail_file_short_horflip_short_600ms.mp4	56.repeated_touch_with_nail_file_short_horflip_short_600ms.mp4	320.4300529864522	321.0383690647577	0.6083160783055064				
290.27685546875	0.2	594487	251	65	2	0	0	59	43	stimuli\Videos_short_600ms\49.repeated_slap_with_hand_short_short_600ms.mp4	49.repeated_slap_with_hand_short_short_600ms.mp4	321.2300507577893	321.838583837447	0.6085330796577182				
291.0771484375	0.2	596126	252	65	2	0	0	60	186	stimuli\Videos_short_600ms_horvertflip\15.single_stroke_top_to_bottom_with_a_plastic_whisk_short_horvertflip_short_600ms.mp4	15.single_stroke_top_to_bottom_with_a_plastic_whisk_short_horvertflip_short_600ms.mp4	322.0300145126985	322.6383563965701	0.608341883871617				
291.876953125	0.2	597764	253	65	2	0	0	61	36	stimuli\Videos_short_600ms\42.single_slap_with_plastic_whisk_short_short_600ms.mp4	42.single_slap_with_plastic_whisk_short_short_600ms.mp4	322.83000377992903	323.43834713002616	0.6083433500971296				
292.6767578125	0.2	599402	254	65	2	0	0	62	5	stimuli\Videos_short_600ms\14.repeated_touch_with_pencil_short_short_600ms.mp4	14.repeated_touch_with_pencil_short_short_600ms.mp4	323.6300487637236	324.23833727699093	0.6082885132673255				
293.47705078125	0.2	601041	255	65	2	0	0	63	184	stimuli\Videos_short_600ms_horvertflip\13.single_touch_with_pen_short_horvertflip_short_600ms.mp4	13.single_touch_with_pen_short_horvertflip_short_600ms.mp4	324.43002278220956	325.03831012249793	0.6082873402883706				
294.27685546875	0.2	602679	256	65	2	0	0	64	215	stimuli\Videos_short_600ms_horvertflip\41.injection_with_blunt_syringe_short_horvertflip_short_600ms.mp4	41.injection_with_blunt_syringe_short_horvertflip_short_600ms.mp4	325.229974220827	325.8382902991307	0.6083160783036874				
295.07666015625	0.2	604317	257	65	2	0	0	65	6	stimuli\Videos_short_600ms\15.single_stroke_top_to_bottom_with_a_plastic_whisk_short_short_600ms.mp4	15.single_stroke_top_to_bottom_with_a_plastic_whisk_short_short_600ms.mp4	326.0300001436917	326.6382672500695	0.6082671063777525				
295.876953125	0.2	605956	258	65	2	0	0	66	173	stimuli\Videos_short_600ms_horflip\85.touch_top_to_bottom_with_fabric_short_horflip_short_600ms.mp4	85.touch_top_to_bottom_with_fabric_short_horflip_short_600ms.mp4	326.82993310786696	327.4382166359701	0.6082835281031294				
296.6767578125	0.2	607594	259	65	2	0	0	67	133	stimuli\Videos_short_600ms_horflip\49.repeated_slap_with_hand_short_horflip_short_600ms.mp4	49.repeated_slap_with_hand_short_horflip_short_600ms.mp4	327.62997252000605	328.23821909922844	0.6082465792223957				
297.47705078125	0.2	609233	260	65	2	0	0	68	222	stimuli\Videos_short_600ms_horvertflip\48.single_slap_with_hand_short_horvertflip_short_600ms.mp4	48.single_slap_with_hand_short_horvertflip_short_600ms.mp4	328.42993627491524	329.0382242016931	0.608287926777848				
298.27685546875	0.2	610871	261	65	2	0	0	69	9	stimuli\Videos_short_600ms\18.single_stroke_from_top_to_bottom_with_rolling_pin_short_short_600ms.mp4	18.single_stroke_from_top_to_bottom_with_rolling_pin_short_short_600ms.mp4	329.2298844878351	329.8382175743536	0.6083330865185417				
299.07666015625	0.2	612509	262	65	2	0	0	70	298	stimuli\Videos_short_600ms_vertflip\35.single_punch_with_hand_short_vertflip_short_600ms.mp4	35.single_punch_with_hand_short_vertflip_short_600ms.mp4	330.02986554420386	330.6381921793309	0.608326635127014				
299.876953125	0.2	614148	263	65	2	0	0	71	189	stimuli\Videos_short_600ms_horvertflip\18.single_stroke_from_top_to_bottom_with_rolling_pin_short_horvertflip_short_600ms.mp4	18.single_stroke_from_top_to_bottom_with_rolling_pin_short_horvertflip_short_600ms.mp4	330.82989527925383	331.4381729424549	0.6082776632010791				
300.6767578125	0.2	615786	264	65	2	0	0	72	244	stimuli\Videos_short_600ms_horvertflip\68.stroke_top_to_bottom_with_shawl_short_horvertflip_short_600ms.mp4	68.stroke_top_to_bottom_with_shawl_short_horvertflip_short_600ms.mp4	331.62987926807364	332.23815165286214	0.6082723847885063				
301.4765625	0.2	617424	265	65	2	0	0	73	53	stimuli\Videos_short_600ms\58.single_slap_with_pencil_short_short_600ms.mp4	58.single_slap_with_pencil_short_short_600ms.mp4	332.42984038377654	333.0381332957204	0.6082929119438631				
302.27685546875	0.2	619063	266	65	2	0	0	74	194	stimuli\Videos_short_600ms_horvertflip\22.single_touch_with_metal_chopstick_short_horvertflip_short_600ms.mp4	22.single_touch_with_metal_chopstick_short_horvertflip_short_600ms.mp4	333.22979680755816	333.8381187507657	0.6083219432075566				
303.07666015625	0.2	620701	267	65	2	0	0	75	349	stimuli\Videos_short_600ms_vertflip\81.single_stroke_top_to_bottom_with_cotton_pad_short_vertflip_short_600ms.mp4	81.single_stroke_top_to_bottom_with_cotton_pad_short_vertflip_short_600ms.mp4	334.0298054289633	334.63810244633896	0.6082970173756621				
303.87646484375	0.2	622339	268	65	2	0	0	76	305	stimuli\Videos_short_600ms_vertflip\41.injection_with_blunt_syringe_short_vertflip_short_600ms.mp4	41.injection_with_blunt_syringe_short_vertflip_short_600ms.mp4	334.8298125841429	335.4381486031125	0.6083360189695668				
304.6767578125	0.2	623978	269	65	2	0	0	77	241	stimuli\Videos_short_600ms_horvertflip\65.stroke_top_to_bottom_with_stanley_knife_short_horvertflip_short_600ms.mp4	65.stroke_top_to_bottom_with_stanley_knife_short_horvertflip_short_600ms.mp4	335.6297241414304	336.2380713037128	0.6083471622823708				
305.4765625	0.2	625616	270	65	2	0	0	78	49	stimuli\Videos_short_600ms\54.repeated_touch_with_knife_short_short_600ms.mp4	54.repeated_touch_with_knife_short_short_600ms.mp4	336.4297447858844	337.03804825464977	0.6083034687653708				
306.2763671875	0.2	627254	271	65	2	0	0	79	8	stimuli\Videos_short_600ms\17.repeated_touch_with_rolling_pin_short_short_600ms.mp4	17.repeated_touch_with_rolling_pin_short_short_600ms.mp4	337.2297114732428	337.83802872452907	0.6083172512862802				
307.07666015625	0.2	628893	272	65	2	0	0	80	242	stimuli\Videos_short_600ms_horvertflip\66.stroke_top_to_bottom_with_sponge_short_horvertflip_short_600ms.mp4	66.stroke_top_to_bottom_with_sponge_short_horvertflip_short_600ms.mp4	338.029681093054	338.6380194579833	0.6083383649292955				
307.87646484375	0.2	630531	273	65	2	0	0	81	348	stimuli\Videos_short_600ms_vertflip\80.stroke_with_sharp_stick_all_over_the_hand_short_vertflip_short_600ms.mp4	80.stroke_with_sharp_stick_all_over_the_hand_short_vertflip_short_600ms.mp4	338.82969381989096	339.43800168733287	0.6083078674419085				
308.67626953125	0.2	632169	274	65	2	0	0	82	37	stimuli\Videos_short_600ms\43.touch_top_to_bottom_with_sharp_wooden_stick_short_short_600ms.mp4	43.touch_top_to_bottom_with_sharp_wooden_stick_short_short_600ms.mp4	339.6297024412961	340.23797775853564	0.6082753172395314				
309.4765625	0.2	633808	275	65	2	0	0	83	130	stimuli\Videos_short_600ms_horflip\46.scratching_top_to_bottom_with_finger_nails_short_horflip_short_600ms.mp4	46.scratching_top_to_bottom_with_finger_nails_short_horflip_short_600ms.mp4	340.4296553461372	341.0379441526493	0.6082888065120642				
310.2763671875	0.2	635446	276	65	2	0	0	84	161	stimuli\Videos_short_600ms_horflip\74.fingers_walking_from_top_to_bottom_short_horflip_short_600ms.mp4	74.fingers_walking_from_top_to_bottom_short_horflip_short_600ms.mp4	341.2297830250409	341.83792843471383	0.6081454096729431				
311.076171875	0.2	637084	277	65	2	0	0	85	246	stimuli\Videos_short_600ms_horvertflip\7.repeated_touch_with_hairbrush_short_horvertflip_short_600ms.mp4	7.repeated_touch_with_hairbrush_short_horvertflip_short_600ms.mp4	342.02969986073913	342.6379068518763	0.6082069911371946				
311.87646484375	0.2	638723	278	65	2	0	0	86	138	stimuli\Videos_short_600ms_horflip\53.touch_top_to_bottom_with_knife_short_horflip_short_600ms.mp4	53.touch_top_to_bottom_with_knife_short_horflip_short_600ms.mp4	342.829593236831	343.4378899609619	0.6082967241309234				
312.67626953125	0.2	640361	279	65	2	0	0	87	62	stimuli\Videos_short_600ms\66.stroke_top_to_bottom_with_sponge_short_short_600ms.mp4	66.stroke_top_to_bottom_with_sponge_short_short_600ms.mp4	343.6296420328108	344.2378760024949	0.6082339696840791				
313.47607421875	0.2	641999	280	65	2	0	0	88	333	stimuli\Videos_short_600ms_vertflip\67.single_touch_with_sponge_short_vertflip_short_600ms.mp4	67.single_touch_with_sponge_short_vertflip_short_600ms.mp4	344.429600802554	345.0378808117148	0.6082800091608078				
314.2763671875	0.2	643638	281	65	2	0	0	89	287	stimuli\Videos_short_600ms_vertflip\25.single_touch_with_stanley_knife_short_vertflip_short_600ms.mp4	25.single_touch_with_stanley_knife_short_vertflip_short_600ms.mp4	345.2295601587866	345.8378601086133	0.6082999498266872				
315.076171875	0.2	645276	282	65	2	0	0	90	153	stimuli\Videos_short_600ms_horflip\67.single_touch_with_sponge_short_horflip_short_600ms.mp4	67.single_touch_with_sponge_short_horflip_short_600ms.mp4	346.02960426284517	346.63784497716733	0.6082407143221644				
315.8759765625	0.2	646914	283	65	2	0	0	91	32	stimuli\Videos_short_600ms\39.single_stab_with_scissors_short_short_600ms.mp4	39.single_stab_with_scissors_short_short_600ms.mp4	346.8295662582841	347.43784656069147	0.6082803024073655				
316.67626953125	0.2	648553	284	65	2	0	0	92	107	stimuli\Videos_short_600ms_horflip\25.single_touch_with_stanley_knife_short_horflip_short_600ms.mp4	25.single_touch_with_stanley_knife_short_horflip_short_600ms.mp4	347.62954643491867	348.2378070899049	0.6082606549862248				
317.47607421875	0.2	650191	285	65	2	0	0	93	279	stimuli\Videos_short_600ms_vertflip\18.single_stroke_from_top_to_bottom_with_rolling_pin_short_vertflip_short_600ms.mp4	18.single_stroke_from_top_to_bottom_with_rolling_pin_short_vertflip_short_600ms.mp4	348.42951312227706	349.03779225170365	0.6082791294265917	4.0	4.0	1.855430766743666	1.0
348.4833984375	0.2	713694	286	65	3	0	0	0	252	stimuli\Videos_short_600ms_horvertflip\75.(long)stroke_with_fingers_all_over_the_hand_short_horvertflip_short_600ms.mp4	75.(long)stroke_with_fingers_all_over_the_hand_short_horvertflip_short_600ms.mp4	379.4373964295082	380.04544594804247	0.6080495185342443				
349.28369140625	0.2	715333	287	65	3	0	0	1	282	stimuli\Videos_short_600ms_vertflip\20.single_touch_with_screwdriver_short_vertflip_short_600ms.mp4	20.single_touch_with_screwdriver_short_vertflip_short_600ms.mp4	380.23709919630346	380.84545398295813	0.6083547866546724				
350.08349609375	0.2	716971	288	65	3	0	0	2	137	stimuli\Videos_short_600ms_horflip\52.touch_top_to_bottom_with_hammer_short_horflip_short_600ms.mp4	52.touch_top_to_bottom_with_hammer_short_horflip_short_600ms.mp4	381.03714652605777	381.6454241892589	0.6082776632010791				
350.88330078125	0.2	718609	289	65	3	0	0	3	144	stimuli\Videos_short_600ms_horflip\59.single_push_with_long_side_pencil_short_horflip_short_600ms.mp4	59.single_push_with_long_side_pencil_short_horflip_short_600ms.mp4	381.8371598393842	382.4454128699999	0.6082530306157423				
351.68359375	0.2	720248	290	65	3	0	0	4	237	stimuli\Videos_short_600ms_horvertflip\61.single_hit_with_rolling_pin_short_horvertflip_short_600ms.mp4	61.single_hit_with_rolling_pin_short_horvertflip_short_600ms.mp4	382.6370995481975	383.2453909939177	0.6082914457201696				
352.4833984375	0.2	721886	291	65	3	0	1	5	365	stimuli\Targets_short_600ms\hand-stroke_short_short_600ms.mp4	hand-stroke_short_short_600ms.mp4	383.4370536260194	384.0453723435312	0.6083187175117928				
353.283203125	0.2	723524	292	65	3	0	0	6	259	stimuli\Videos_short_600ms_horvertflip\81.single_stroke_top_to_bottom_with_cotton_pad_short_horvertflip_short_600ms.mp4	81.single_stroke_top_to_bottom_with_cotton_pad_short_horvertflip_short_600ms.mp4	384.2370651798756	384.8453577985747	0.6082926186991244				
354.08349609375	0.2	725163	293	65	3	0	0	7	80	stimuli\Videos_short_600ms\82.repeated_touch_with_cotton_bud_short_short_600ms.mp4	82.repeated_touch_with_cotton_bud_short_short_600ms.mp4	385.03707057558495	385.6453368022285	0.6082662266435364				
354.88330078125	0.2	726801	294	65	3	0	1	8	368	stimuli\Targets_short_600ms_horflip\chopstickwood-tap_short_horflip_short_600ms.mp4	chopstickwood-tap_short_horflip_short_600ms.mp4	385.8369882910192	386.44532137753777	0.6083330865185417				
355.68310546875	0.2	728439	295	65	3	0	0	9	204	stimuli\Videos_short_600ms_horvertflip\31.hand_grabbing_wrist_short_horvertflip_short_600ms.mp4	31.hand_grabbing_wrist_short_horvertflip_short_600ms.mp4	386.63702418421417	387.24530595284705	0.6082817686328781				
356.4833984375	0.2	730078	296	65	3	0	0	10	325	stimuli\Videos_short_600ms_vertflip\6.single_touch_with_flat_hand_short_vertflip_short_600ms.mp4	6.single_touch_with_flat_hand_short_vertflip_short_600ms.mp4	387.43696418627405	388.0452864227246	0.6083222364504763				
357.283203125	0.2	731716	297	65	3	0	0	11	268	stimuli\Videos_short_600ms_horvertflip\9.single_touch_with_hammer_short_horvertflip_short_600ms.mp4	9.single_touch_with_hammer_short_horvertflip_short_600ms.mp4	388.2376311428616	388.8452701182996	0.6076389754380216				
358.0830078125	0.2	733354	298	65	3	0	0	12	129	stimuli\Videos_short_600ms_horflip\45.scratching_with_finger_nails_short_horflip_short_600ms.mp4	45.scratching_with_finger_nails_short_horflip_short_600ms.mp4	389.0370245361082	389.6452429638048	0.6082184276965563				
358.88330078125	0.2	734993	299	65	3	0	0	13	296	stimuli\Videos_short_600ms_vertflip\33.scratch_top_to_bottom_with_scissors_short_vertflip_short_600ms.mp4	33.scratch_top_to_bottom_with_scissors_short_vertflip_short_600ms.mp4	389.8371129201733	390.4452284188501	0.6081154986768524				
359.68310546875	0.2	736631	300	65	3	0	0	14	249	stimuli\Videos_short_600ms_horvertflip\72.(short)stroke_with_finger_all_over_the_hand_short_horvertflip_short_600ms.mp4	72.(short)stroke_with_finger_all_over_the_hand_short_horvertflip_short_600ms.mp4	390.63694060936905	391.24517252634	0.6082319169709081				
360.48291015625	0.2	738269	301	65	3	0	0	15	263	stimuli\Videos_short_600ms_horvertflip\85.touch_top_to_bottom_with_fabric_short_horvertflip_short_600ms.mp4	85.touch_top_to_bottom_with_fabric_short_horvertflip_short_600ms.mp4	391.4368826641439	392.0451568084027	0.6082741442587576				
361.283203125	0.2	739908	302	65	3	0	0	16	41	stimuli\Videos_short_600ms\47.(long)scratching_with_finger_nails_short_short_600ms.mp4	47.(long)scratching_with_finger_nails_short_short_600ms.mp4	392.2369458291323	392.8451410904672	0.6081952613349131				
362.0830078125	0.2	741546	303	65	3	0	0	17	273	stimuli\Videos_short_600ms_vertflip\12.repeated_touch_with_nail_file_short_vertflip_short_600ms.mp4	12.repeated_touch_with_nail_file_short_vertflip_short_600ms.mp4	393.03693011119685	393.64514677942134	0.6082166682244861				
362.8828125	0.2	743184	304	65	3	0	0	18	245	stimuli\Videos_short_600ms_horvertflip\69.stroke_with_soft_sock_short_horvertflip_short_600ms.mp4	69.stroke_with_soft_sock_short_horvertflip_short_600ms.mp4	393.8368777376272	394.4451342871817	0.6082565495544259				
363.68310546875	0.2	744823	305	65	3	0	0	19	250	stimuli\Videos_short_600ms_horvertflip\73.single_stroke_with_flat_hand_short_horvertflip_short_600ms.mp4	73.single_stroke_with_flat_hand_short_horvertflip_short_600ms.mp4	394.6372904507389	395.2451203287165	0.607829877977565				
364.48291015625	0.2	746461	306	65	3	0	0	20	169	stimuli\Videos_short_600ms_horflip\81.single_stroke_top_to_bottom_with_cotton_pad_short_horflip_short_600ms.mp4	81.single_stroke_top_to_bottom_with_cotton_pad_short_horflip_short_600ms.mp4	395.4367853067797	396.0451248446916	0.6083395379118883				
365.28271484375	0.2	748099	307	65	3	0	1	21	369	stimuli\Targets_short_600ms_horflip\finger-tap_short_horflip_short_600ms.mp4	finger-tap_short_horflip_short_600ms.mp4	396.23683703521056	396.845097396952	0.6082603617414861				
366.0830078125	0.2	749738	308	65	3	0	0	22	162	stimuli\Videos_short_600ms_horflip\75.(long)stroke_with_fingers_all_over_the_hand_short_horflip_short_600ms.mp4	75.(long)stroke_with_fingers_all_over_the_hand_short_horflip_short_600ms.mp4	397.0367969779345	397.64509106285914	0.608294084924637				
366.8828125	0.2	751376	309	65	3	0	0	23	91	stimuli\Videos_short_600ms_horflip\10.single_touch_with_knife_short_horflip_short_600ms.mp4	10.single_touch_with_knife_short_horflip_short_600ms.mp4	397.83673551376705	398.4450630286301	0.6083275148630491				
367.6826171875	0.2	753014	310	65	3	0	0	24	146	stimuli\Videos_short_600ms_horflip\60.single_push_with_tip_of_pencil_short_horflip_short_600ms.mp4	60.single_push_with_tip_of_pencil_short_horflip_short_600ms.mp4	398.6367860692171	399.2450449647331	0.6082588955159736				
368.48291015625	0.2	754653	311	65	3	0	0	25	210	stimuli\Videos_short_600ms_horvertflip\37.single_stab_with_nail_file_short_horvertflip_short_600ms.mp4	37.single_stab_with_nail_file_short_horvertflip_short_600ms.mp4	399.436780908105	400.0450301265337	0.6082492184286821				
369.28271484375	0.2	756291	312	65	3	0	0	26	188	stimuli\Videos_short_600ms_horvertflip\17.repeated_touch_with_rolling_pin_short_horvertflip_short_600ms.mp4	17.repeated_touch_with_rolling_pin_short_horvertflip_short_600ms.mp4	400.23674319678867	400.84501118290245	0.6082679861137876				
370.0830078125	0.2	757930	313	65	3	0	0	27	7	stimuli\Videos_short_600ms\16.repeated_touch_with_plastic_brush_short_short_600ms.mp4	16.repeated_touch_with_plastic_brush_short_short_600ms.mp4	401.03671926799143	401.64499311900545	0.6082738510140189				
370.8828125	0.2	759568	314	65	3	0	0	28	98	stimuli\Videos_short_600ms_horflip\17.repeated_touch_with_rolling_pin_short_horflip_short_600ms.mp4	17.repeated_touch_with_rolling_pin_short_horflip_short_600ms.mp4	401.8366739323028	402.444979453785	0.6083055214821798				
371.6826171875	0.2	761206	315	65	3	0	0	29	35	stimuli\Videos_short_600ms\41.injection_with_blunt_syringe_short_short_600ms.mp4	41.injection_with_blunt_syringe_short_short_600ms.mp4	402.6365960464118	403.2449584574388	0.6083624110269739				
372.48291015625	0.2	762845	316	65	3	0	0	30	22	stimuli\Videos_short_600ms\3.single_push_with_finger_short_short_600ms.mp4	3.single_push_with_finger_short_short_600ms.mp4	403.4365812082124	404.044944205727	0.6083629975146323				
373.28271484375	0.2	764483	317	65	3	0	0	31	170	stimuli\Videos_short_600ms_horflip\82.repeated_touch_with_cotton_bud_short_horflip_short_600ms.mp4	82.repeated_touch_with_cotton_bud_short_horflip_short_600ms.mp4	404.23664144074974	404.8449243823616	0.6082829416118329				
374.08251953125	0.2	766121	318	65	3	0	0	32	356	stimuli\Videos_short_600ms_vertflip\88.repeated_stroke_with_plastic_brush_short_vertflip_short_600ms.mp4	88.repeated_stroke_with_plastic_brush_short_vertflip_short_600ms.mp4	405.0366148727462	405.6449083711795	0.6082934984333406				
374.8828125	0.2	767760	319	65	3	0	0	33	342	stimuli\Videos_short_600ms_vertflip\75.(long)stroke_with_fingers_all_over_the_hand_short_vertflip_short_600ms.mp4	75.(long)stroke_with_fingers_all_over_the_hand_short_vertflip_short_600ms.mp4	405.83657833441066	406.44487212608874	0.6082937916780793				
375.6826171875	0.2	769398	320	65	3	0	0	34	256	stimuli\Videos_short_600ms_horvertflip\79.long_with_soft_brush_all_over_the_hand_short_horvertflip_short_600ms.mp4	79.long_with_soft_brush_all_over_the_hand_short_horvertflip_short_600ms.mp4	406.6365772787285	407.24485464868303	0.6082773699545214				
376.482421875	0.2	771036	321	65	3	0	0	35	55	stimuli\Videos_short_600ms\6.single_touch_with_flat_hand_short_short_600ms.mp4	6.single_touch_with_flat_hand_short_short_600ms.mp4	407.436569771653	408.04486180386266	0.608292032209647				
377.28271484375	0.2	772675	322	65	3	0	0	36	324	stimuli\Videos_short_600ms_vertflip\59.single_push_with_long_side_pencil_short_vertflip_short_600ms.mp4	59.single_push_with_long_side_pencil_short_vertflip_short_600ms.mp4	408.23649628443854	408.8448056181078	0.60830933366924				
378.08251953125	0.2	774313	323	65	3	0	0	37	158	stimuli\Videos_short_600ms_horflip\71.single_stroke_with_finger_top_to_bottom_short_horflip_short_600ms.mp4	71.single_stroke_with_finger_top_to_bottom_short_horflip_short_600ms.mp4	409.0365057855797	409.6448247963344	0.6083190107547125				
378.88232421875	0.2	775951	324	65	3	0	0	38	218	stimuli\Videos_short_600ms_horvertflip\44.pushing_top_to_bottom_with_finger_short_horvertflip_short_600ms.mp4	44.pushing_top_to_bottom_with_finger_short_horvertflip_short_600ms.mp4	409.8365328814234	410.4447882579989	0.608255376575471				
379.6826171875	0.2	777590	325	65	3	0	0	39	45	stimuli\Videos_short_600ms\50.single_(long)hard_push_with_thumb_short_short_600ms.mp4	50.single_(long)hard_push_with_thumb_short_short_600ms.mp4	410.6365171634879	411.244793946953	0.608276783465044				
380.482421875	0.2	779228	326	65	3	0	0	40	31	stimuli\Videos_short_600ms\38.double_slap_with_pencil_short_short_600ms.mp4	38.double_slap_with_pencil_short_short_600ms.mp4	411.4365114158845	412.04477001815576	0.6082586022712348				
381.2822265625	0.2	780866	327	65	3	0	0	41	340	stimuli\Videos_short_600ms_vertflip\73.single_stroke_with_flat_hand_short_vertflip_short_600ms.mp4	73.single_stroke_with_flat_hand_short_vertflip_short_600ms.mp4	412.23645376390414	412.8447584056503	0.6083046417461446				
382.08251953125	0.2	782505	328	65	3	0	0	42	347	stimuli\Videos_short_600ms_vertflip\8.single_touch_with_hairbrush_short_vertflip_short_600ms.mp4	8.single_touch_with_hairbrush_short_vertflip_short_600ms.mp4	413.0365040261094	413.644736529568	0.6082325034585665				
382.88232421875	0.2	784143	329	65	3	0	0	43	176	stimuli\Videos_short_600ms_horflip\88.repeated_stroke_with_plastic_brush_short_horflip_short_600ms.mp4	88.repeated_stroke_with_plastic_brush_short_horflip_short_600ms.mp4	413.83639974816106	414.4447199318984	0.6083201837373053				
383.68212890625	0.2	785781	330	65	3	0	0	44	292	stimuli\Videos_short_600ms_vertflip\3.single_push_with_finger_short_vertflip_short_600ms.mp4	3.single_push_with_finger_short_vertflip_short_600ms.mp4	414.6363831504914	415.2447009882653	0.6083178377739387				
384.482421875	0.2	787420	331	65	3	0	0	45	117	stimuli\Videos_short_600ms_horflip\34.repeated_punch_with_hand_short_horflip_short_600ms.mp4	34.repeated_punch_with_hand_short_horflip_short_600ms.mp4	415.4363782826222	416.0446835108596	0.608305228237441				
385.2822265625	0.2	789058	332	65	3	0	0	46	284	stimuli\Videos_short_600ms_vertflip\22.single_touch_with_metal_chopstick_short_vertflip_short_600ms.mp4	22.single_touch_with_metal_chopstick_short_vertflip_short_600ms.mp4	416.23635318084416	416.8446657402092	0.6083125593650038				
386.08203125	0.2	790696	333	65	3	0	0	47	306	stimuli\Videos_short_600ms_vertflip\42.single_slap_with_plastic_whisk_short_vertflip_short_600ms.mp4	42.single_slap_with_plastic_whisk_short_vertflip_short_600ms.mp4	417.03633775615344	417.6446485560482	0.6083107998947526				
386.88232421875	0.2	792335	334	65	3	0	0	48	336	stimuli\Videos_short_600ms_vertflip\7.repeated_touch_with_hairbrush_short_vertflip_short_600ms.mp4	7.repeated_touch_with_hairbrush_short_vertflip_short_600ms.mp4	417.8368208480824	418.44463107864067	0.6078102305582433				
387.68212890625	0.2	793973	335	65	3	0	0	49	352	stimuli\Videos_short_600ms_vertflip\84.single_touch_with_cotton_bud_short_vertflip_short_600ms.mp4	84.single_touch_with_cotton_bud_short_vertflip_short_600ms.mp4	418.63670835927405	419.24461477421573	0.6079064149416809				
388.48193359375	0.2	795611	336	65	3	0	0	50	312	stimuli\Videos_short_600ms_vertflip\48.single_slap_with_hand_short_vertflip_short_600ms.mp4	48.single_slap_with_hand_short_vertflip_short_600ms.mp4	419.4363040916196	420.0445975900547	0.6082934984351596				
389.2822265625	0.2	797250	337	65	3	0	0	51	157	stimuli\Videos_short_600ms_horflip\70.(long)stroke_with_finger_all_over_the_hand_short_horflip_short_600ms.mp4	70.(long)stroke_with_finger_all_over_the_hand_short_horflip_short_600ms.mp4	420.2362889601736	420.84457454099174	0.6082855808181193				
390.08203125	0.2	798888	338	65	3	0	0	52	139	stimuli\Videos_short_600ms_horflip\54.repeated_touch_with_knife_short_horflip_short_600ms.mp4	54.repeated_touch_with_knife_short_horflip_short_600ms.mp4	421.0362990478043	421.6445236336476	0.6082245858433453				
390.88232421875	0.2	800527	339	65	3	0	0	53	330	stimuli\Videos_short_600ms_vertflip\64.repeated_touch_with_screwdriver_short_vertflip_short_600ms.mp4	64.repeated_touch_with_screwdriver_short_vertflip_short_600ms.mp4	421.8362296660216	422.44452375094625	0.608294084924637				
391.68212890625	0.2	802165	340	65	3	0	0	54	171	stimuli\Videos_short_600ms_horflip\83.single_stroke_top_to_bottom_with_cotton_bud_short_horflip_short_600ms.mp4	83.single_stroke_top_to_bottom_with_cotton_bud_short_horflip_short_600ms.mp4	422.6361887290095	423.24450304784295	0.6083143188334361				
392.48193359375	0.2	803803	341	65	3	0	1	55	375	stimuli\Targets_short_600ms_horvertflip\finger-tap_short_vertflip_short_600ms.mp4	finger-tap_short_vertflip_short_600ms.mp4	423.4361697853783	424.0445125489842	0.6083427636058332				
393.2822265625	0.2	805442	342	65	3	0	0	56	34	stimuli\Videos_short_600ms\40.repeated_push_with_finger_short_short_600ms.mp4	40.repeated_push_with_finger_short_short_600ms.mp4	424.2365159318597	424.84447659713805	0.6079606652783696				
394.08203125	0.2	807080	343	65	3	0	0	57	180	stimuli\Videos_short_600ms_horvertflip\1.repeated_touch_with_finger_fast_short_horvertflip_short_600ms.mp4	1.repeated_touch_with_finger_fast_short_horvertflip_short_600ms.mp4	425.0361840957375	425.6444582399963	0.6082741442587576				
394.8818359375	0.2	808718	344	65	3	0	0	58	185	stimuli\Videos_short_600ms_horvertflip\14.repeated_touch_with_pencil_short_horvertflip_short_600ms.mp4	14.repeated_touch_with_pencil_short_horvertflip_short_600ms.mp4	425.8361900779364	426.4444709668333	0.608280888896843				
395.68212890625	0.2	810357	345	65	3	0	0	59	95	stimuli\Videos_short_600ms_horflip\14.repeated_touch_with_pencil_short_horflip_short_600ms.mp4	14.repeated_touch_with_pencil_short_horflip_short_600ms.mp4	426.6360981162816	427.2444435190937	0.6083454028121196				
396.48193359375	0.2	811995	346	65	3	0	0	60	277	stimuli\Videos_short_600ms_vertflip\16.repeated_touch_with_plastic_brush_short_vertflip_short_600ms.mp4	16.repeated_touch_with_plastic_brush_short_vertflip_short_600ms.mp4	427.4361560028592	428.044433079569	0.6082770767097827				
397.28173828125	0.2	813633	347	65	3	0	0	61	23	stimuli\Videos_short_600ms\30.finger_pulling_back_another_finger_short_short_600ms.mp4	30.finger_pulling_back_another_finger_short_short_600ms.mp4	428.2361303145917	428.8444053385865	0.6082750239947927				
398.08203125	0.2	815272	348	65	3	0	0	62	47	stimuli\Videos_short_600ms\52.touch_top_to_bottom_with_hammer_short_short_600ms.mp4	52.touch_top_to_bottom_with_hammer_short_short_600ms.mp4	429.0361072655287	429.6443899138958	0.6082826483670942				
398.8818359375	0.2	816910	349	65	3	0	0	63	140	stimuli\Videos_short_600ms_horflip\55.touch_top_to_bottom_with_nail_file_short_horflip_short_600ms.mp4	55.touch_top_to_bottom_with_nail_file_short_horflip_short_600ms.mp4	429.8363123611307	430.4443721432435	0.6080597821128322				
399.681640625	0.2	818548	350	65	3	0	0	64	147	stimuli\Videos_short_600ms_horflip\61.single_hit_with_rolling_pin_short_horflip_short_600ms.mp4	61.single_hit_with_rolling_pin_short_horflip_short_600ms.mp4	430.636079641843	431.2443526131228	0.6082729712798027				
400.48193359375	0.2	820187	351	65	3	0	0	65	202	stimuli\Videos_short_600ms_horvertflip\3.single_push_with_finger_short_horvertflip_short_600ms.mp4	3.single_push_with_finger_short_horvertflip_short_600ms.mp4	431.4359944248263	432.0443363086961	0.608341883869798				
401.28173828125	0.2	821825	352	65	3	0	0	66	255	stimuli\Videos_short_600ms_horvertflip\78.single_stroke_top_to_bottom_with_soft_brush_short_horvertflip_short_600ms.mp4	78.single_stroke_top_to_bottom_with_soft_brush_short_horvertflip_short_600ms.mp4	432.2360687331257	432.84432147049665	0.6082527373710036				
402.08154296875	0.2	823463	353	65	3	0	0	67	150	stimuli\Videos_short_600ms_horflip\64.repeated_touch_with_screwdriver_short_horflip_short_600ms.mp4	64.repeated_touch_with_screwdriver_short_horflip_short_600ms.mp4	433.0359890877644	433.6443022336189	0.6083131458544813				
402.8818359375	0.2	825102	354	65	3	0	0	68	168	stimuli\Videos_short_600ms_horflip\80.stroke_with_sharp_stick_all_over_the_hand_short_horflip_short_600ms.mp4	80.stroke_with_sharp_stick_all_over_the_hand_short_horflip_short_600ms.mp4	433.8360056267866	434.44428680892815	0.6082811821415817				
403.681640625	0.2	826740	355	65	3	0	0	69	358	stimuli\Videos_short_600ms_vertflip\9.single_touch_with_hammer_short_vertflip_short_600ms.mp4	9.single_touch_with_hammer_short_vertflip_short_600ms.mp4	434.63618491682246	435.24426874503297	0.6080838282105105				
404.4814453125	0.2	828378	356	65	3	0	0	70	104	stimuli\Videos_short_600ms_horflip\22.single_touch_with_metal_chopstick_short_horflip_short_600ms.mp4	22.single_touch_with_metal_chopstick_short_horflip_short_600ms.mp4	435.4359706719752	436.04422575530407	0.6082550833289133				
405.28173828125	0.2	830017	357	65	3	0	0	71	304	stimuli\Videos_short_600ms_vertflip\40.repeated_push_with_finger_short_vertflip_short_600ms.mp4	40.repeated_push_with_finger_short_vertflip_short_600ms.mp4	436.2359757744398	436.84421238333016	0.6082366088903655				
406.08154296875	0.2	831655	358	65	3	0	0	72	39	stimuli\Videos_short_600ms\45.scratching_with_finger_nails_short_short_600ms.mp4	45.scratching_with_finger_nails_short_short_600ms.mp4	437.03594070232793	437.6442107411567	0.6082700388287776				
406.88134765625	0.2	833293	359	65	3	0	0	73	2	stimuli\Videos_short_600ms\11.single_touch_with_lighter_short_short_600ms.mp4	11.single_touch_with_lighter_short_short_600ms.mp4	437.83589771260085	438.44417478931246	0.6082770767116017				
407.681640625	0.2	834932	360	65	3	0	0	74	257	stimuli\Videos_short_600ms_horvertflip\8.single_touch_with_hairbrush_short_horvertflip_short_600ms.mp4	8.single_touch_with_hairbrush_short_horvertflip_short_600ms.mp4	438.6358623472461	439.2441370779962	0.608274730750054				
408.4814453125	0.2	836570	361	65	3	0	1	75	383	stimuli\Targets_short_600ms_vertflip\hand-stroke_short_horvertflip_short_600ms.mp4	hand-stroke_short_horvertflip_short_600ms.mp4	439.4358472158001	440.0441445264205	0.6082973106204008				
409.28125	0.2	838208	362	65	3	0	0	76	341	stimuli\Videos_short_600ms_vertflip\74.fingers_walking_from_top_to_bottom_short_vertflip_short_600ms.mp4	74.fingers_walking_from_top_to_bottom_short_vertflip_short_600ms.mp4	440.2358282721689	440.8441293949745	0.6083011228056421				
410.08154296875	0.2	839847	363	65	3	0	0	77	116	stimuli\Videos_short_600ms_horflip\33.scratch_top_to_bottom_with_scissors_short_horflip_short_600ms.mp4	33.scratch_top_to_bottom_with_scissors_short_horflip_short_600ms.mp4	441.0358110880079	441.64413860286913	0.6083275148612302				
410.88134765625	0.2	841485	364	65	3	0	0	78	29	stimuli\Videos_short_600ms\36.single_slap_with_full_hand_short_short_600ms.mp4	36.single_slap_with_full_hand_short_short_600ms.mp4	441.8358329054408	442.4441135010911	0.6082805956502852				
411.681640625	0.2	843124	365	65	3	0	0	79	320	stimuli\Videos_short_600ms_vertflip\55.touch_top_to_bottom_with_nail_file_short_vertflip_short_600ms.mp4	55.touch_top_to_bottom_with_nail_file_short_vertflip_short_600ms.mp4	442.6357570722648	443.2441027683217	0.6083456960568583				
412.4814453125	0.2	844762	366	65	3	0	0	80	201	stimuli\Videos_short_600ms_horvertflip\29.single_pinch_with_tweezers_short_horvertflip_short_600ms.mp4	29.single_pinch_with_tweezers_short_horvertflip_short_600ms.mp4	443.4357862208253	444.04407737329893	0.6082911524736119				
413.28125	0.2	846400	367	65	3	0	0	81	346	stimuli\Videos_short_600ms_vertflip\79.long_with_soft_brush_all_over_the_hand_short_vertflip_short_600ms.mp4	79.long_with_soft_brush_all_over_the_hand_short_vertflip_short_600ms.mp4	444.2357784205069	444.8440619486082	0.6082835281013104				
414.08154296875	0.2	848039	368	65	3	0	0	82	16	stimuli\Videos_short_600ms\24.single_stroke_top_to_bottom_with_a_spoon_short_short_600ms.mp4	24.single_stroke_top_to_bottom_with_a_spoon_short_short_600ms.mp4	445.0360565341307	445.64404359146647	0.6079870573357766				
414.88134765625	0.2	849677	369	65	3	0	0	83	203	stimuli\Videos_short_600ms_horvertflip\30.finger_pulling_back_another_finger_short_horvertflip_short_600ms.mp4	30.finger_pulling_back_another_finger_short_horvertflip_short_600ms.mp4	445.8358980058456	446.444025820816	0.6081278149704303				
415.68115234375	0.2	851315	370	65	3	0	0	84	76	stimuli\Videos_short_600ms\79.long_with_soft_brush_all_over_the_hand_short_short_600ms.mp4	79.long_with_soft_brush_all_over_the_hand_short_short_600ms.mp4	446.6357385978263	447.24401010288057	0.6082715050542902				
416.4814453125	0.2	852954	371	65	3	0	0	85	175	stimuli\Videos_short_600ms_horflip\87.single_stroke_top_to_bottom_with_plastic_brush_short_horflip_short_600ms.mp4	87.single_stroke_top_to_bottom_with_plastic_brush_short_horflip_short_600ms.mp4	447.435670975512	448.0439929187196	0.6083219432075566				
417.28125	0.2	854592	372	65	3	0	0	86	135	stimuli\Videos_short_600ms_horflip\50.single_(long)hard_push_with_thumb_short_horflip_short_600ms.mp4	50.single_(long)hard_push_with_thumb_short_horflip_short_600ms.mp4	448.2356666941341	448.84397456157785	0.6083078674437274				
418.0810546875	0.2	856230	373	65	3	0	0	87	196	stimuli\Videos_short_600ms_horvertflip\24.single_stroke_top_to_bottom_with_a_spoon_short_horvertflip_short_600ms.mp4	24.single_stroke_top_to_bottom_with_a_spoon_short_horvertflip_short_600ms.mp4	449.0356395396411	449.6439562044361	0.6083166647949838				
418.88134765625	0.2	857869	374	65	3	0	0	88	92	stimuli\Videos_short_600ms_horflip\11.single_touch_with_lighter_short_horflip_short_600ms.mp4	11.single_touch_with_lighter_short_horflip_short_600ms.mp4	449.8356288068717	450.4439422459709	0.60831343909922				
