onset	duration	onsetsample	eventnumber	subjectnr	sequencenumber	blocksequencenumber	istarget	presentationnumber	stimnumber	stim	stimname	time_stimon	time_stimoff	stimdur	cresp	resp	rt	correct
27.505859375	0.2	56332	0	50	0	0	0	0	292	stimuli\Videos_short_600ms_vertflip\3.single_push_with_finger_short_vertflip_short_600ms.mp4	3.single_push_with_finger_short_vertflip_short_600ms.mp4	47.02488961457698	47.63322450944952	0.6083348948725416				
28.30615234375	0.2	57971	1	50	0	0	0	1	168	stimuli\Videos_short_600ms_horflip\80.stroke_with_sharp_stick_all_over_the_hand_short_horflip_short_600ms.mp4	80.stroke_with_sharp_stick_all_over_the_hand_short_horflip_short_600ms.mp4	47.82486070044342	48.43320409947273	0.6083433990293088				
29.10595703125	0.2	59609	2	50	0	0	0	2	99	stimuli\Videos_short_600ms_horflip\18.single_stroke_from_top_to_bottom_with_rolling_pin_short_horflip_short_600ms.mp4	18.single_stroke_from_top_to_bottom_with_rolling_pin_short_horflip_short_600ms.mp4	48.62486521644405	49.23320333703123	0.6083381205871774				
29.90576171875	0.2	61247	3	50	0	0	0	3	145	stimuli\Videos_short_600ms_horflip\6.single_touch_with_flat_hand_short_horflip_short_600ms.mp4	6.single_touch_with_flat_hand_short_horflip_short_600ms.mp4	49.424926329075106	50.03317735536552	0.6082510262904179				
30.7060546875	0.2	62886	4	50	0	0	0	4	223	stimuli\Videos_short_600ms_horvertflip\49.repeated_slap_with_hand_short_horvertflip_short_600ms.mp4	49.repeated_slap_with_hand_short_horvertflip_short_600ms.mp4	50.22484257779183	50.83316720902667	0.6083246312348365				
31.505859375	0.2	64524	5	50	0	0	0	5	278	stimuli\Videos_short_600ms_vertflip\17.repeated_touch_with_rolling_pin_short_vertflip_short_600ms.mp4	17.repeated_touch_with_rolling_pin_short_vertflip_short_600ms.mp4	51.02492421769807	51.63315471671331	0.6082304990152352				
32.3056640625	0.2	66162	6	50	0	0	0	6	227	stimuli\Videos_short_600ms_horvertflip\52.touch_top_to_bottom_with_hammer_short_horvertflip_short_600ms.mp4	52.touch_top_to_bottom_with_hammer_short_horvertflip_short_600ms.mp4	51.824797652383495	52.43314427712767	0.608346624744172				
33.10595703125	0.2	67801	7	50	0	0	0	7	258	stimuli\Videos_short_600ms_horvertflip\80.stroke_with_sharp_stick_all_over_the_hand_short_horvertflip_short_600ms.mp4	80.stroke_with_sharp_stick_all_over_the_hand_short_horvertflip_short_600ms.mp4	52.62477196396458	53.233134717282155	0.6083627533175786				
33.90576171875	0.2	69439	8	50	0	0	0	8	332	stimuli\Videos_short_600ms_vertflip\66.stroke_top_to_bottom_with_sponge_short_vertflip_short_600ms.mp4	66.stroke_top_to_bottom_with_sponge_short_vertflip_short_600ms.mp4	53.42475272697516	54.03311841276059	0.6083656857854294				
34.70556640625	0.2	71077	9	50	0	0	0	9	166	stimuli\Videos_short_600ms_horflip\79.long_with_soft_brush_all_over_the_hand_short_horflip_short_600ms.mp4	79.long_with_soft_brush_all_over_the_hand_short_horflip_short_600ms.mp4	54.22474316712987	54.83310943940887	0.6083662722789995				
35.505859375	0.2	72716	10	50	0	0	0	10	82	stimuli\Videos_short_600ms\84.single_touch_with_cotton_bud_short_short_600ms.mp4	84.single_touch_with_cotton_bud_short_short_600ms.mp4	55.02482187456826	55.63309577410837	0.6082738995401087				
36.3056640625	0.2	74354	11	50	0	0	0	11	149	stimuli\Videos_short_600ms_horflip\63.stroke_top_to_bottom_with_screwdriver_short_horflip_short_600ms.mp4	63.stroke_top_to_bottom_with_screwdriver_short_horflip_short_600ms.mp4	55.82474486796127	56.43308298854845	0.6083381205871774				
37.10546875	0.2	75992	12	50	0	0	0	12	151	stimuli\Videos_short_600ms_horflip\65.stroke_top_to_bottom_with_stanley_knife_short_horflip_short_600ms.mp4	65.stroke_top_to_bottom_with_stanley_knife_short_horflip_short_600ms.mp4	56.6247370675967	57.233065804286525	0.6083287366898276				
37.90576171875	0.2	77631	13	50	0	0	0	13	93	stimuli\Videos_short_600ms_horflip\12.repeated_touch_with_nail_file_short_horflip_short_600ms.mp4	12.repeated_touch_with_nail_file_short_horflip_short_600ms.mp4	57.42471841710062	58.03305536470066	0.6083369476000371				
38.70556640625	0.2	79269	14	50	0	0	0	14	21	stimuli\Videos_short_600ms\29.single_pinch_with_tweezers_short_short_600ms.mp4	29.single_pinch_with_tweezers_short_short_600ms.mp4	58.225124387957294	58.83302527757997	0.6079008896226696				
39.50537109375	0.2	80907	15	50	0	0	0	15	248	stimuli\Videos_short_600ms_horvertflip\71.single_stroke_with_finger_top_to_bottom_short_horvertflip_short_600ms.mp4	71.single_stroke_with_finger_top_to_bottom_short_horvertflip_short_600ms.mp4	59.02473800598637	59.63300926630541	0.608271260319043				
40.3056640625	0.2	82546	16	50	0	0	0	16	281	stimuli\Videos_short_600ms_vertflip\2.single_touch_with_finger_short_vertflip_short_600ms.mp4	2.single_touch_with_finger_short_vertflip_short_600ms.mp4	59.82501934695688	60.43300117269382	0.6079818257369425				
41.10546875	0.2	84184	17	50	0	0	0	17	20	stimuli\Videos_short_600ms\28.single_injection_with_sharp_needle_short_short_600ms.mp4	28.single_injection_with_sharp_needle_short_short_600ms.mp4	60.6246792979789	61.23301419285144	0.6083348948725416				
41.9052734375	0.2	85822	18	50	0	0	0	18	73	stimuli\Videos_short_600ms\76.tickle_with_fingers_from_top_to_bottom_short_short_600ms.mp4	76.tickle_with_fingers_from_top_to_bottom_short_short_600ms.mp4	61.42471783060705	62.03298381248396	0.6082659818769116				
42.70556640625	0.2	87461	19	50	0	0	0	19	312	stimuli\Videos_short_600ms_vertflip\48.single_slap_with_hand_short_vertflip_short_600ms.mp4	48.single_slap_with_hand_short_vertflip_short_600ms.mp4	62.22466897569189	62.832992140692795	0.6083231650009111				
43.50537109375	0.2	89099	20	50	0	0	0	20	207	stimuli\Videos_short_600ms_horvertflip\34.repeated_punch_with_hand_short_horvertflip_short_600ms.mp4	34.repeated_punch_with_hand_short_horvertflip_short_600ms.mp4	63.02465531039138	63.632973490196946	0.6083181798055648				
44.30517578125	0.2	90737	21	50	0	0	0	21	214	stimuli\Videos_short_600ms_horvertflip\40.repeated_push_with_finger_short_horvertflip_short_600ms.mp4	40.repeated_push_with_finger_short_horvertflip_short_600ms.mp4	63.8246392991166	64.43297214126164	0.608332842145046				
45.10546875	0.2	92376	22	50	0	0	0	22	354	stimuli\Videos_short_600ms_vertflip\86.touch_top_to_bottom_with_hair_brush_short_vertflip_short_600ms.mp4	86.touch_top_to_bottom_with_hair_brush_short_vertflip_short_600ms.mp4	64.62462475407597	65.23294909206402	0.6083243379880514				
45.9052734375	0.2	94014	23	50	0	0	0	23	318	stimuli\Videos_short_600ms_vertflip\53.touch_top_to_bottom_with_knife_short_vertflip_short_600ms.mp4	53.touch_top_to_bottom_with_knife_short_vertflip_short_600ms.mp4	65.42461372799653	66.0329395322185	0.6083258042219768				
46.70556640625	0.2	95653	24	50	0	0	0	24	202	stimuli\Videos_short_600ms_horvertflip\3.single_push_with_finger_short_horvertflip_short_600ms.mp4	3.single_push_with_finger_short_horvertflip_short_600ms.mp4	66.22460328841089	66.8329487401677	0.6083454517568043				
47.50537109375	0.2	97291	25	50	0	0	0	25	263	stimuli\Videos_short_600ms_horvertflip\85.touch_top_to_bottom_with_fabric_short_horvertflip_short_600ms.mp4	85.touch_top_to_bottom_with_fabric_short_horvertflip_short_600ms.mp4	67.02472832884223	67.63292833019113	0.6082000013489051				
48.30517578125	0.2	98929	26	50	0	0	0	26	272	stimuli\Videos_short_600ms_vertflip\11.single_touch_with_lighter_short_vertflip_short_600ms.mp4	11.single_touch_with_lighter_short_vertflip_short_600ms.mp4	67.82456745365312	68.43290792021457	0.608340466561458				
49.10546875	0.2	100568	27	50	0	0	0	27	197	stimuli\Videos_short_600ms_horvertflip\25.single_touch_with_stanley_knife_short_horvertflip_short_600ms.mp4	25.single_touch_with_stanley_knife_short_horvertflip_short_600ms.mp4	68.62452563666079	69.23288956296551	0.6083639263047189				
49.9052734375	0.2	102206	28	50	0	0	0	28	259	stimuli\Videos_short_600ms_horvertflip\81.single_stroke_top_to_bottom_with_cotton_pad_short_horvertflip_short_600ms.mp4	81.single_stroke_top_to_bottom_with_cotton_pad_short_horvertflip_short_600ms.mp4	69.42452546071263	70.03287970987344	0.6083542491608114				
50.705078125	0.2	103844	29	50	0	0	0	29	158	stimuli\Videos_short_600ms_horflip\71.single_stroke_with_finger_top_to_bottom_short_horflip_short_600ms.mp4	71.single_stroke_with_finger_top_to_bottom_short_horflip_short_600ms.mp4	70.22455724866472	70.8328953692519	0.6083381205871774				
51.50537109375	0.2	105483	30	50	0	0	0	30	30	stimuli\Videos_short_600ms\37.single_stab_with_nail_file_short_short_600ms.mp4	37.single_stab_with_nail_file_short_short_600ms.mp4	71.02454153063672	71.63287407953499	0.6083325488982609				
52.30517578125	0.2	107121	31	50	0	0	0	31	66	stimuli\Videos_short_600ms\7.repeated_touch_with_hairbrush_short_short_600ms.mp4	7.repeated_touch_with_hairbrush_short_short_600ms.mp4	71.82448563779849	72.43285894800056	0.6083733102020688				
53.10498046875	0.2	108759	32	50	0	0	0	32	126	stimuli\Videos_short_600ms_horflip\42.single_slap_with_plastic_whisk_short_horflip_short_600ms.mp4	42.single_slap_with_plastic_whisk_short_horflip_short_600ms.mp4	72.62452856912864	73.23284557594684	0.6083170068181971				
53.9052734375	0.2	110398	33	50	0	0	0	33	160	stimuli\Videos_short_600ms_horflip\73.single_stroke_with_flat_hand_short_horflip_short_600ms.mp4	73.single_stroke_with_flat_hand_short_horflip_short_600ms.mp4	73.42481372230759	74.03280346570773	0.6079897434001396				
54.705078125	0.2	112036	34	50	0	0	1	34	378	stimuli\Targets_short_600ms_vertflip\brush-stroke_short_horvertflip_short_600ms.mp4	brush-stroke_short_horvertflip_short_600ms.mp4	74.22453877411704	74.83280153027908	0.6082627561620484				
55.5048828125	0.2	113674	35	50	0	0	0	35	290	stimuli\Videos_short_600ms_vertflip\28.single_injection_with_sharp_needle_short_vertflip_short_600ms.mp4	28.single_injection_with_sharp_needle_short_vertflip_short_600ms.mp4	75.02445326335283	75.6327834662768	0.6083302029239803				
56.30517578125	0.2	115313	36	50	0	0	0	36	245	stimuli\Videos_short_600ms_horvertflip\69.stroke_with_soft_sock_short_horvertflip_short_600ms.mp4	69.stroke_with_soft_sock_short_horvertflip_short_600ms.mp4	75.82444106428648	76.43277947812044	0.6083384138339625				
57.10498046875	0.2	116951	37	50	0	0	0	37	232	stimuli\Videos_short_600ms_horvertflip\57.single_touch_with_nail_file_short_horvertflip_short_600ms.mp4	57.single_touch_with_nail_file_short_horvertflip_short_600ms.mp4	76.62445056548245	77.23277255749622	0.6083219920137708				
57.90478515625	0.2	118589	38	50	0	0	0	38	299	stimuli\Videos_short_600ms_vertflip\36.single_slap_with_full_hand_short_vertflip_short_600ms.mp4	36.single_slap_with_full_hand_short_vertflip_short_600ms.mp4	77.42450757265851	78.03277326128841	0.6082656886298992				
58.705078125	0.2	120228	39	50	0	0	0	39	301	stimuli\Videos_short_600ms_vertflip\38.double_slap_with_pencil_short_vertflip_short_600ms.mp4	38.double_slap_with_pencil_short_vertflip_short_600ms.mp4	78.22446252995155	78.83276956637883	0.6083070364272771				
59.5048828125	0.2	121866	40	50	0	0	0	40	164	stimuli\Videos_short_600ms_horflip\77.tapping_with_all_fingers_short_horflip_short_600ms.mp4	77.tapping_with_all_fingers_short_horflip_short_600ms.mp4	79.02444211997476	79.63274681042799	0.6083046904532239				
60.3046875	0.2	123504	41	50	0	0	0	41	71	stimuli\Videos_short_600ms\74.fingers_walking_from_top_to_bottom_short_short_600ms.mp4	74.fingers_walking_from_top_to_bottom_short_short_600ms.mp4	79.82440587467158	80.43273343837427	0.6083275637026873				
61.10498046875	0.2	125143	42	50	0	0	0	42	188	stimuli\Videos_short_600ms_horvertflip\17.repeated_touch_with_rolling_pin_short_horvertflip_short_600ms.mp4	17.repeated_touch_with_rolling_pin_short_horvertflip_short_600ms.mp4	80.62435877923713	81.23271038917665	0.6083516099395183				
61.90478515625	0.2	126781	43	50	0	0	0	43	181	stimuli\Videos_short_600ms_horvertflip\10.single_touch_with_knife_short_horvertflip_short_600ms.mp4	10.single_touch_with_knife_short_horvertflip_short_600ms.mp4	81.42465302306641	82.03267385062645	0.6080208275600398				
62.70458984375	0.2	128419	44	50	0	0	0	44	190	stimuli\Videos_short_600ms_horvertflip\19.single_touch_with_rolling_pin_short_horvertflip_short_600ms.mp4	19.single_touch_with_rolling_pin_short_horvertflip_short_600ms.mp4	82.224370743706	82.83267543415923	0.6083046904532239				
63.5048828125	0.2	130058	45	50	0	0	0	45	8	stimuli\Videos_short_600ms\17.repeated_touch_with_rolling_pin_short_short_600ms.mp4	17.repeated_touch_with_rolling_pin_short_short_600ms.mp4	83.02437936516162	83.63263479015404	0.6082554249924215				
64.3046875	0.2	131696	46	50	0	0	0	46	352	stimuli\Videos_short_600ms_vertflip\84.single_touch_with_cotton_bud_short_vertflip_short_600ms.mp4	84.single_touch_with_cotton_bud_short_vertflip_short_600ms.mp4	83.82467126301685	84.43262962901053	0.6079583659936816				
65.1044921875	0.2	133334	47	50	0	0	0	47	266	stimuli\Videos_short_600ms_horvertflip\88.repeated_stroke_with_plastic_brush_short_horvertflip_short_600ms.mp4	88.repeated_stroke_with_plastic_brush_short_horvertflip_short_600ms.mp4	84.6243118597506	85.23260921903398	0.6082973592833696				
65.90478515625	0.2	134973	48	50	0	0	1	48	365	stimuli\Targets_short_600ms\hand-stroke_short_short_600ms.mp4	hand-stroke_short_short_600ms.mp4	85.42432312042729	86.03259056853813	0.608267448110837				
66.70458984375	0.2	136611	49	50	0	0	0	49	345	stimuli\Videos_short_600ms_vertflip\78.single_stroke_top_to_bottom_with_soft_brush_short_vertflip_short_600ms.mp4	78.single_stroke_top_to_bottom_with_soft_brush_short_vertflip_short_600ms.mp4	86.22428922109839	86.83256986531455	0.6082806442161655				
67.5048828125	0.2	138250	50	50	0	0	0	50	241	stimuli\Videos_short_600ms_horvertflip\65.stroke_top_to_bottom_with_stanley_knife_short_horvertflip_short_600ms.mp4	65.stroke_top_to_bottom_with_stanley_knife_short_horvertflip_short_600ms.mp4	87.02428816540987	87.63255326754643	0.6082651021365564				
68.3046875	0.2	139888	51	50	0	0	0	51	336	stimuli\Videos_short_600ms_vertflip\7.repeated_touch_with_hairbrush_short_vertflip_short_600ms.mp4	7.repeated_touch_with_hairbrush_short_vertflip_short_600ms.mp4	87.8247689141981	88.43253960224592	0.6077706880478217				
69.1044921875	0.2	141526	52	50	0	0	0	52	255	stimuli\Videos_short_600ms_horvertflip\78.single_stroke_top_to_bottom_with_soft_brush_short_horvertflip_short_600ms.mp4	78.single_stroke_top_to_bottom_with_soft_brush_short_horvertflip_short_600ms.mp4	88.62504996192183	89.23252769642613	0.6074777345043003				
69.90478515625	0.2	143165	53	50	0	0	0	53	14	stimuli\Videos_short_600ms\22.single_touch_with_metal_chopstick_short_short_600ms.mp4	22.single_touch_with_metal_chopstick_short_short_600ms.mp4	89.42431637575123	90.03253749086889	0.608221115117658				
70.70458984375	0.2	144803	54	50	0	0	0	54	60	stimuli\Videos_short_600ms\64.repeated_touch_with_screwdriver_short_short_600ms.mp4	64.repeated_touch_with_screwdriver_short_short_600ms.mp4	90.2242892210984	90.83250505777391	0.6082158366755266				
71.50439453125	0.2	146441	55	50	0	0	0	55	53	stimuli\Videos_short_600ms\58.single_slap_with_pencil_short_short_600ms.mp4	58.single_slap_with_pencil_short_short_600ms.mp4	91.02422453085636	91.63249461818828	0.6082700873319027				
72.3046875	0.2	148080	56	50	0	0	0	56	156	stimuli\Videos_short_600ms_horflip\7.repeated_touch_with_hairbrush_short_horflip_short_600ms.mp4	7.repeated_touch_with_hairbrush_short_horflip_short_600ms.mp4	91.82421907646608	92.4325135032816	0.6082944268155188				
73.1044921875	0.2	149718	57	50	0	0	0	57	320	stimuli\Videos_short_600ms_vertflip\55.touch_top_to_bottom_with_nail_file_short_vertflip_short_600ms.mp4	55.touch_top_to_bottom_with_nail_file_short_vertflip_short_600ms.mp4	92.6244332639219	93.2325015974618	0.6080683335399044				
73.904296875	0.2	151356	58	50	0	0	0	58	199	stimuli\Videos_short_600ms_horvertflip\27.single_push_with_a_plastic_whisk_short_horvertflip_short_600ms.mp4	27.single_push_with_a_plastic_whisk_short_horvertflip_short_600ms.mp4	93.42435361809362	94.03247972125132	0.6081261031577014				
74.70458984375	0.2	152995	59	50	0	0	0	59	310	stimuli\Videos_short_600ms_vertflip\46.scratching_top_to_bottom_with_finger_nails_short_vertflip_short_600ms.mp4	46.scratching_top_to_bottom_with_finger_nails_short_vertflip_short_600ms.mp4	94.22417250887588	94.83246605595082	0.6082935470749362				
75.50439453125	0.2	154633	60	50	0	0	0	60	44	stimuli\Videos_short_600ms\5.repeated_tap_with_finger_moving_from_top_to_bottom_short_short_600ms.mp4	5.repeated_tap_with_finger_moving_from_top_to_bottom_short_short_600ms.mp4	95.0241767316295	95.63245561636518	0.6082788847356824				
76.30419921875	0.2	156271	61	50	0	0	0	61	107	stimuli\Videos_short_600ms_horflip\25.single_touch_with_stanley_knife_short_horflip_short_600ms.mp4	25.single_touch_with_stanley_knife_short_horflip_short_600ms.mp4	95.82422288867453	96.4324434172986	0.6082205286240878				
77.1044921875	0.2	157910	62	50	0	0	0	62	192	stimuli\Videos_short_600ms_horvertflip\20.single_touch_with_screwdriver_short_horvertflip_short_600ms.mp4	20.single_touch_with_screwdriver_short_horvertflip_short_600ms.mp4	96.62421010311436	97.23243151147904	0.6082214083646704				
77.904296875	0.2	159548	63	50	0	0	0	63	358	stimuli\Videos_short_600ms_vertflip\9.single_touch_with_hammer_short_vertflip_short_600ms.mp4	9.single_touch_with_hammer_short_vertflip_short_600ms.mp4	97.42412488559717	98.03242107189315	0.6082961862960019				
78.7041015625	0.2	161186	64	50	0	0	0	64	104	stimuli\Videos_short_600ms_horflip\22.single_touch_with_metal_chopstick_short_horflip_short_600ms.mp4	22.single_touch_with_metal_chopstick_short_horflip_short_600ms.mp4	98.22412822861044	98.83240887282682	0.6082806442163928				
79.50439453125	0.2	162825	65	50	0	0	0	65	88	stimuli\Videos_short_600ms\9.single_touch_with_hammer_short_short_600ms.mp4	9.single_touch_with_hammer_short_short_600ms.mp4	99.0241462339634	99.63239608726668	0.6082498533032776				
80.30419921875	0.2	164463	66	50	0	0	0	66	333	stimuli\Videos_short_600ms_vertflip\67.single_touch_with_sponge_short_vertflip_short_600ms.mp4	67.single_touch_with_sponge_short_vertflip_short_600ms.mp4	99.82407157333068	100.43238447469388	0.608312901363206				
81.10400390625	0.2	166101	67	50	0	0	0	67	249	stimuli\Videos_short_600ms_horvertflip\72.(short)stroke_with_finger_all_over_the_hand_short_horvertflip_short_600ms.mp4	72.(short)stroke_with_finger_all_over_the_hand_short_horvertflip_short_600ms.mp4	100.62406875816146	101.23237403510802	0.6083052769465667				
81.904296875	0.2	167740	68	50	0	0	0	68	159	stimuli\Videos_short_600ms_horflip\72.(short)stroke_with_finger_all_over_the_hand_short_horflip_short_600ms.mp4	72.(short)stroke_with_finger_all_over_the_hand_short_horflip_short_600ms.mp4	101.42405304013346	102.03236183604167	0.608308795908215				
82.7041015625	0.2	169378	69	50	0	0	0	69	242	stimuli\Videos_short_600ms_horvertflip\66.stroke_top_to_bottom_with_sponge_short_horvertflip_short_600ms.mp4	66.stroke_top_to_bottom_with_sponge_short_horvertflip_short_600ms.mp4	102.2241038891268	102.83235110320902	0.6082472140822119				
83.50390625	0.2	171016	70	50	0	0	0	70	225	stimuli\Videos_short_600ms_horvertflip\50.single_(long)hard_push_with_thumb_short_horvertflip_short_600ms.mp4	50.single_(long)hard_push_with_thumb_short_horvertflip_short_600ms.mp4	103.02411045785492	103.63233890414269	0.6082284462877396				
84.30419921875	0.2	172655	71	50	0	0	0	71	189	stimuli\Videos_short_600ms_horvertflip\18.single_stroke_from_top_to_bottom_with_rolling_pin_short_horvertflip_short_600ms.mp4	18.single_stroke_from_top_to_bottom_with_rolling_pin_short_horvertflip_short_600ms.mp4	103.82409034112516	104.4323082305284	0.6082178894032495				
85.10400390625	0.2	174293	72	50	0	0	0	72	356	stimuli\Videos_short_600ms_vertflip\88.repeated_stroke_with_plastic_brush_short_vertflip_short_600ms.mp4	88.repeated_stroke_with_plastic_brush_short_vertflip_short_600ms.mp4	104.62405526880912	105.23229896392968	0.6082436951205636				
85.904296875	0.2	175932	73	50	0	0	0	73	338	stimuli\Videos_short_600ms_vertflip\71.single_stroke_with_finger_top_to_bottom_short_vertflip_short_600ms.mp4	71.single_stroke_with_finger_top_to_bottom_short_vertflip_short_600ms.mp4	105.42406828896652	106.03230465291745	0.6082363639509367				
86.7041015625	0.2	177570	74	50	0	0	0	74	154	stimuli\Videos_short_600ms_horflip\68.stroke_top_to_bottom_with_shawl_short_horflip_short_600ms.mp4	68.stroke_top_to_bottom_with_shawl_short_horflip_short_600ms.mp4	106.22400477171163	106.83227192657569	0.6082671548640519				
87.50390625	0.2	179208	75	50	0	0	0	75	153	stimuli\Videos_short_600ms_horflip\67.single_touch_with_sponge_short_horflip_short_600ms.mp4	67.single_touch_with_sponge_short_horflip_short_600ms.mp4	107.02400166329583	107.63226735192576	0.6082656886298992				
88.30419921875	0.2	180847	76	50	0	0	0	76	173	stimuli\Videos_short_600ms_horflip\85.touch_top_to_bottom_with_fabric_short_horflip_short_600ms.mp4	85.touch_top_to_bottom_with_fabric_short_horflip_short_600ms.mp4	107.82399386293103	108.43228066532993	0.6082868023988794				
89.10400390625	0.2	182485	77	50	0	0	0	77	294	stimuli\Videos_short_600ms_vertflip\31.hand_grabbing_wrist_short_vertflip_short_600ms.mp4	31.hand_grabbing_wrist_short_vertflip_short_600ms.mp4	108.62400013841238	109.23226260132763	0.6082624629152633				
89.90380859375	0.2	184123	78	50	0	0	0	78	315	stimuli\Videos_short_600ms_vertflip\50.single_(long)hard_push_with_thumb_short_vertflip_short_600ms.mp4	50.single_(long)hard_push_with_thumb_short_vertflip_short_600ms.mp4	109.42466680566554	110.03226565109436	0.6075988454288108				
90.7041015625	0.2	185762	79	50	0	0	0	79	194	stimuli\Videos_short_600ms_horvertflip\22.single_touch_with_metal_chopstick_short_horvertflip_short_600ms.mp4	22.single_touch_with_metal_chopstick_short_horvertflip_short_600ms.mp4	110.2239396709242	110.83224465462422	0.608304983700009				
91.50390625	0.2	187400	80	50	0	0	0	80	238	stimuli\Videos_short_600ms_horvertflip\62.touch_top_to_bottom_with_scissors_short_horvertflip_short_600ms.mp4	62.touch_top_to_bottom_with_scissors_short_horvertflip_short_600ms.mp4	111.02394770588626	111.6322699911468	0.6083222852605559				
92.3037109375	0.2	189038	81	50	0	0	0	81	155	stimuli\Videos_short_600ms_horflip\69.stroke_with_soft_sock_short_horflip_short_600ms.mp4	69.stroke_with_soft_sock_short_horflip_short_600ms.mp4	111.82397392214943	112.43226160428868	0.6082876821392347				
93.10400390625	0.2	190677	82	50	0	0	0	82	252	stimuli\Videos_short_600ms_horvertflip\75.(long)stroke_with_fingers_all_over_the_hand_short_horvertflip_short_600ms.mp4	75.(long)stroke_with_fingers_all_over_the_hand_short_horvertflip_short_600ms.mp4	112.62392711996176	113.23224881872852	0.6083216987667583				
93.90380859375	0.2	192315	83	50	0	0	0	83	328	stimuli\Videos_short_600ms_vertflip\62.touch_top_to_bottom_with_scissors_short_vertflip_short_600ms.mp4	62.touch_top_to_bottom_with_scissors_short_vertflip_short_600ms.mp4	113.42391316141448	114.03223955213002	0.608326390715547				
94.70361328125	0.2	193953	84	50	0	0	0	84	101	stimuli\Videos_short_600ms_horflip\2.single_touch_with_finger_short_horflip_short_600ms.mp4	2.single_touch_with_finger_short_horflip_short_600ms.mp4	114.22389802988005	114.832227939557	0.6083299096769679				
95.50390625	0.2	195592	85	50	0	0	0	85	125	stimuli\Videos_short_600ms_horflip\41.injection_with_blunt_syringe_short_horflip_short_600ms.mp4	41.injection_with_blunt_syringe_short_horflip_short_600ms.mp4	115.02397644407188	115.63221837971172	0.6082419356398532				
96.3037109375	0.2	197230	86	50	0	0	0	86	211	stimuli\Videos_short_600ms_horvertflip\38.double_slap_with_pencil_short_horvertflip_short_600ms.mp4	38.double_slap_with_pencil_short_horvertflip_short_600ms.mp4	115.82388565486552	116.4322032481773	0.6083175933117673				
97.103515625	0.2	198868	87	50	0	0	0	87	111	stimuli\Videos_short_600ms_horflip\29.single_pinch_with_tweezers_short_horflip_short_600ms.mp4	29.single_pinch_with_tweezers_short_horflip_short_600ms.mp4	116.62385850021268	117.23219192885132	0.6083334286386162				
97.90380859375	0.2	200507	88	50	0	0	0	88	221	stimuli\Videos_short_600ms_horvertflip\47.(long)scratching_with_finger_nails_short_horvertflip_short_600ms.mp4	47.(long)scratching_with_finger_nails_short_horvertflip_short_600ms.mp4	117.42384688763993	118.0321785567976	0.6083316691576783				
98.70361328125	0.2	202145	89	50	0	0	0	89	348	stimuli\Videos_short_600ms_vertflip\80.stroke_with_sharp_stick_all_over_the_hand_short_vertflip_short_600ms.mp4	80.stroke_with_sharp_stick_all_over_the_hand_short_vertflip_short_600ms.mp4	118.22383410207976	118.8321651847441	0.6083310826643356				
99.50341796875	0.2	203783	90	50	0	0	0	90	128	stimuli\Videos_short_600ms_horflip\44.pushing_top_to_bottom_with_finger_short_horflip_short_600ms.mp4	44.pushing_top_to_bottom_with_finger_short_horflip_short_600ms.mp4	119.024170573447	119.63208817813688	0.6079176046898738				
100.3037109375	0.2	205422	91	50	0	0	0	91	89	stimuli\Videos_short_600ms\90.repeated_touch_with_sponge_short_short_600ms.mp4	90.repeated_touch_with_sponge_short_short_600ms.mp4	119.82436100791256	120.43208037777232	0.6077193698597512	2.0	2.0	2.5746229506082727	1.0
135.62744140625	0.2	277765	92	50	1	0	0	0	213	stimuli\Videos_short_600ms_horvertflip\4.repeated_tap_with_finger_slow_short_horvertflip_short_600ms.mp4	4.repeated_tap_with_finger_slow_short_horvertflip_short_600ms.mp4	155.14829108966683	155.75664768480192	0.608356595135092				
136.42724609375	0.2	279403	93	50	1	0	0	1	226	stimuli\Videos_short_600ms_horvertflip\51.repeated_touch_with_hammer_short_horvertflip_short_600ms.mp4	51.repeated_touch_with_hammer_short_horvertflip_short_600ms.mp4	155.94848621608116	156.55662815456571	0.6081419384845503				
137.2275390625	0.2	281042	94	50	1	0	0	2	305	stimuli\Videos_short_600ms_vertflip\41.injection_with_blunt_syringe_short_vertflip_short_600ms.mp4	41.injection_with_blunt_syringe_short_vertflip_short_600ms.mp4	156.74828985803038	157.35662006095436	0.6083302029239803				
138.02734375	0.2	282680	95	50	1	0	0	3	180	stimuli\Videos_short_600ms_horvertflip\1.repeated_touch_with_finger_fast_short_horvertflip_short_600ms.mp4	1.repeated_touch_with_finger_fast_short_horvertflip_short_600ms.mp4	157.54824745454448	158.15660580916028	0.6083583546158025				
138.8271484375	0.2	284318	96	50	1	0	0	4	127	stimuli\Videos_short_600ms_horflip\43.touch_top_to_bottom_with_sharp_wooden_stick_short_horflip_short_600ms.mp4	43.touch_top_to_bottom_with_sharp_wooden_stick_short_horflip_short_600ms.mp4	158.3482484515837	158.9565549015174	0.608306449933707				
139.62744140625	0.2	285957	97	50	1	0	0	5	276	stimuli\Videos_short_600ms_vertflip\15.single_stroke_top_to_bottom_with_a_plastic_whisk_short_vertflip_short_600ms.mp4	15.single_stroke_top_to_bottom_with_a_plastic_whisk_short_vertflip_short_600ms.mp4	159.14823507952997	159.75658405024842	0.6083489707184526				
140.42724609375	0.2	287595	98	50	1	0	0	6	117	stimuli\Videos_short_600ms_horflip\34.repeated_punch_with_hand_short_horflip_short_600ms.mp4	34.repeated_punch_with_hand_short_horflip_short_600ms.mp4	159.94827918384726	160.5565727309222	0.6082935470749362				
141.2275390625	0.2	289234	99	50	1	0	0	7	331	stimuli\Videos_short_600ms_vertflip\65.stroke_top_to_bottom_with_stanley_knife_short_vertflip_short_600ms.mp4	65.stroke_top_to_bottom_with_stanley_knife_short_vertflip_short_600ms.mp4	160.74828399309467	161.35656111834942	0.6082771252547445				
142.02734375	0.2	290872	100	50	1	0	0	8	74	stimuli\Videos_short_600ms\77.tapping_with_all_fingers_short_short_600ms.mp4	77.tapping_with_all_fingers_short_short_600ms.mp4	161.54823367194535	162.15654862603606	0.6083149540907016				
142.8271484375	0.2	292510	101	50	1	0	0	9	224	stimuli\Videos_short_600ms_horvertflip\5.repeated_tap_with_finger_moving_from_top_to_bottom_short_horvertflip_short_600ms.mp4	5.repeated_tap_with_finger_moving_from_top_to_bottom_short_horvertflip_short_600ms.mp4	162.3481801250814	162.9565364269697	0.6083563018883069				
143.62744140625	0.2	294149	102	50	1	0	0	10	210	stimuli\Videos_short_600ms_horvertflip\37.single_stab_with_nail_file_short_horvertflip_short_600ms.mp4	37.single_stab_with_nail_file_short_horvertflip_short_600ms.mp4	163.14818053562703	163.7565292130987	0.6083486774716675				
144.42724609375	0.2	295787	103	50	1	0	0	11	120	stimuli\Videos_short_600ms_horflip\37.single_stab_with_nail_file_short_horflip_short_600ms.mp4	37.single_stab_with_nail_file_short_horflip_short_600ms.mp4	163.94819355578443	164.55651642753855	0.608322871754126				
145.22705078125	0.2	297425	104	50	1	0	0	12	2	stimuli\Videos_short_600ms\11.single_touch_with_lighter_short_short_600ms.mp4	11.single_touch_with_lighter_short_short_600ms.mp4	164.7482136138649	165.35650334873162	0.6082897348667302				
146.02734375	0.2	299064	105	50	1	0	0	13	42	stimuli\Videos_short_600ms\48.single_slap_with_hand_short_short_600ms.mp4	48.single_slap_with_hand_short_short_600ms.mp4	165.54816857115793	166.1564861644697	0.6083175933117673				
146.8271484375	0.2	300702	106	50	1	0	0	14	217	stimuli\Videos_short_600ms_horvertflip\43.touch_top_to_bottom_with_sharp_wooden_stick_short_horvertflip_short_600ms.mp4	43.touch_top_to_bottom_with_sharp_wooden_stick_short_horvertflip_short_600ms.mp4	166.34821150248808	166.95647044644193	0.6082589439538424				
147.626953125	0.2	302340	107	50	1	0	0	15	334	stimuli\Videos_short_600ms_vertflip\68.stroke_top_to_bottom_with_shawl_short_vertflip_short_600ms.mp4	68.stroke_top_to_bottom_with_shawl_short_vertflip_short_600ms.mp4	167.14814974471392	167.75643566737244	0.6082859226585242				
148.42724609375	0.2	303979	108	50	1	0	0	16	131	stimuli\Videos_short_600ms_horflip\47.(long)scratching_with_finger_nails_short_horflip_short_600ms.mp4	47.(long)scratching_with_finger_nails_short_horflip_short_600ms.mp4	167.9481390118815	168.55641232492803	0.6082733130465385				
149.22705078125	0.2	305617	109	50	1	0	0	17	273	stimuli\Videos_short_600ms_vertflip\12.repeated_touch_with_nail_file_short_vertflip_short_600ms.mp4	12.repeated_touch_with_nail_file_short_vertflip_short_600ms.mp4	168.74811625593043	169.35642475859186	0.6083085026614299				
150.02685546875	0.2	307255	110	50	1	0	0	18	109	stimuli\Videos_short_600ms_horflip\27.single_push_with_a_plastic_whisk_short_horflip_short_600ms.mp4	27.single_push_with_a_plastic_whisk_short_horflip_short_600ms.mp4	169.54808528906938	170.1564412977109	0.6083560086415218				
150.8271484375	0.2	308894	111	50	1	0	0	19	69	stimuli\Videos_short_600ms\72.(short)stroke_with_finger_all_over_the_hand_short_short_600ms.mp4	72.(short)stroke_with_finger_all_over_the_hand_short_short_600ms.mp4	170.3480944970188	170.95641238357734	0.6083178865585523				
151.626953125	0.2	310532	112	50	1	0	0	20	63	stimuli\Videos_short_600ms\67.single_touch_with_sponge_short_short_600ms.mp4	67.single_touch_with_sponge_short_short_600ms.mp4	171.1481277512048	171.75641895230547	0.6082912011006556				
152.4267578125	0.2	312170	113	50	1	0	0	21	309	stimuli\Videos_short_600ms_vertflip\45.scratching_with_finger_nails_short_vertflip_short_600ms.mp4	45.scratching_with_finger_nails_short_vertflip_short_600ms.mp4	171.94807009888564	172.5563985423289	0.6083284434432699				
153.22705078125	0.2	313809	114	50	1	0	0	22	77	stimuli\Videos_short_600ms\8.single_touch_with_hairbrush_short_short_600ms.mp4	8.single_touch_with_hairbrush_short_short_600ms.mp4	172.74806757696342	173.3563851702752	0.6083175933117673				
154.02685546875	0.2	315447	115	50	1	0	0	23	198	stimuli\Videos_short_600ms_horvertflip\26.single_touch_with_a_blunt_syringe_short_horvertflip_short_600ms.mp4	26.single_touch_with_a_blunt_syringe_short_horvertflip_short_600ms.mp4	173.548109628553	174.15637619692347	0.6082665683704818				
154.82666015625	0.2	317085	116	50	1	0	0	24	27	stimuli\Videos_short_600ms\34.repeated_punch_with_hand_short_short_600ms.mp4	34.repeated_punch_with_hand_short_short_600ms.mp4	174.34803819363492	174.9563639978569	0.6083258042219768				
155.626953125	0.2	318724	117	50	1	0	0	25	81	stimuli\Videos_short_600ms\83.single_stroke_top_to_bottom_with_cotton_bud_short_short_600ms.mp4	83.single_stroke_top_to_bottom_with_cotton_bud_short_short_600ms.mp4	175.148025114828	175.7563544380116	0.6083293231836251				
156.4267578125	0.2	320362	118	50	1	0	0	26	34	stimuli\Videos_short_600ms\40.repeated_push_with_finger_short_short_600ms.mp4	40.repeated_push_with_finger_short_short_600ms.mp4	175.94800206563036	176.5563472241406	0.6083451585102466				
157.2265625	0.2	322000	119	50	1	0	0	27	254	stimuli\Videos_short_600ms_horvertflip\77.tapping_with_all_fingers_short_horvertflip_short_600ms.mp4	77.tapping_with_all_fingers_short_horvertflip_short_600ms.mp4	176.74799162604472	177.35633091961904	0.6083392935743177				
158.02685546875	0.2	323639	120	50	1	0	0	28	274	stimuli\Videos_short_600ms_vertflip\13.single_touch_with_pen_short_vertflip_short_600ms.mp4	13.single_touch_with_pen_short_vertflip_short_600ms.mp4	177.54795098203954	178.15631930704603	0.6083683250064951				
158.82666015625	0.2	325277	121	50	1	0	0	29	308	stimuli\Videos_short_600ms_vertflip\44.pushing_top_to_bottom_with_finger_short_vertflip_short_600ms.mp4	44.pushing_top_to_bottom_with_finger_short_vertflip_short_600ms.mp4	178.34793497076475	178.95630593499254	0.6083709642277881				
159.626953125	0.2	326916	122	50	1	0	0	30	26	stimuli\Videos_short_600ms\33.scratch_top_to_bottom_with_scissors_short_short_600ms.mp4	33.scratch_top_to_bottom_with_scissors_short_short_600ms.mp4	179.14798963196654	179.75629578865346	0.6083061566869219				
160.4267578125	0.2	328554	123	50	1	0	0	31	139	stimuli\Videos_short_600ms_horflip\54.repeated_touch_with_knife_short_horflip_short_600ms.mp4	54.repeated_touch_with_knife_short_horflip_short_600ms.mp4	179.94795925159906	180.5562662880263	0.6083070364272771				
161.2265625	0.2	330192	124	50	1	0	0	32	114	stimuli\Videos_short_600ms_horflip\31.hand_grabbing_wrist_short_horflip_short_600ms.mp4	31.hand_grabbing_wrist_short_horflip_short_600ms.mp4	180.74799367877225	181.35624851727084	0.6082548384986239				
162.02685546875	0.2	331831	125	50	1	0	0	33	193	stimuli\Videos_short_600ms_horvertflip\21.repeated_touch_with_metal_chopstick_short_horvertflip_short_600ms.mp4	21.repeated_touch_with_metal_chopstick_short_horvertflip_short_600ms.mp4	181.54794629009075	182.15621784365655	0.6082715535658281				
162.82666015625	0.2	333469	126	50	1	0	0	34	33	stimuli\Videos_short_600ms\4.repeated_tap_with_finger_slow_short_short_600ms.mp4	4.repeated_tap_with_finger_slow_short_short_600ms.mp4	182.34792236115277	182.95620711082415	0.6082847496713839				
163.62646484375	0.2	335107	127	50	1	0	0	35	24	stimuli\Videos_short_600ms\31.hand_grabbing_wrist_short_short_600ms.mp4	31.hand_grabbing_wrist_short_short_600ms.mp4	183.1479098688394	183.75621602552656	0.6083061566871493				
164.4267578125	0.2	336746	128	50	1	0	0	36	262	stimuli\Videos_short_600ms_horvertflip\84.single_touch_with_cotton_bud_short_horvertflip_short_600ms.mp4	84.single_touch_with_cotton_bud_short_horvertflip_short_600ms.mp4	183.94790617392985	184.55619796152428	0.6082917875944531				
165.2265625	0.2	338384	129	50	1	0	0	37	282	stimuli\Videos_short_600ms_vertflip\20.single_touch_with_screwdriver_short_vertflip_short_600ms.mp4	20.single_touch_with_screwdriver_short_vertflip_short_600ms.mp4	184.7478889896679	185.35619485310824	0.6083058634403642				
166.0263671875	0.2	340022	130	50	1	0	0	38	250	stimuli\Videos_short_600ms_horvertflip\73.single_stroke_with_flat_hand_short_horvertflip_short_600ms.mp4	73.single_stroke_with_flat_hand_short_horvertflip_short_600ms.mp4	185.54789438540888	186.1561891054712	0.6082947200623039				
166.82666015625	0.2	341661	131	50	1	0	1	39	382	stimuli\Targets_short_600ms_vertflip\hand-pinch_short_horvertflip_short_600ms.mp4	hand-pinch_short_horvertflip_short_600ms.mp4	186.3478827728361	186.95620007290108	0.6083173000649822				
167.62646484375	0.2	343299	132	50	1	0	0	40	206	stimuli\Videos_short_600ms_horvertflip\33.scratch_top_to_bottom_with_scissors_short_horvertflip_short_600ms.mp4	33.scratch_top_to_bottom_with_scissors_short_horvertflip_short_600ms.mp4	187.14785239246865	187.75618142240523	0.6083290299366126				
168.42626953125	0.2	344937	133	50	1	0	0	41	105	stimuli\Videos_short_600ms_horflip\23.single_push_with_a_spoon_short_horflip_short_600ms.mp4	23.single_push_with_a_spoon_short_horflip_short_600ms.mp4	187.9478225985947	188.5561768477553	0.608354249160584				
169.2265625	0.2	346576	134	50	1	0	0	42	55	stimuli\Videos_short_600ms\6.single_touch_with_flat_hand_short_short_600ms.mp4	6.single_touch_with_flat_hand_short_short_600ms.mp4	188.7478300470632	189.35615790401263	0.6083278569494723				
170.0263671875	0.2	348214	135	50	1	0	0	43	141	stimuli\Videos_short_600ms_horflip\56.repeated_touch_with_nail_file_short_horflip_short_600ms.mp4	56.repeated_touch_with_nail_file_short_horflip_short_600ms.mp4	189.54781726150304	190.15614570494608	0.6083284434430425				
170.826171875	0.2	349852	136	50	1	0	0	44	13	stimuli\Videos_short_600ms\21.repeated_touch_with_metal_chopstick_short_short_600ms.mp4	21.repeated_touch_with_metal_chopstick_short_short_600ms.mp4	190.34776899308144	190.95612676120345	0.6083577681220049				
171.62646484375	0.2	351491	137	50	1	0	0	45	319	stimuli\Videos_short_600ms_vertflip\54.repeated_touch_with_knife_short_vertflip_short_600ms.mp4	54.repeated_touch_with_knife_short_vertflip_short_600ms.mp4	191.1477884646683	191.75612629200873	0.6083378273403923				
172.42626953125	0.2	353129	138	50	1	0	0	46	314	stimuli\Videos_short_600ms_vertflip\5.repeated_tap_with_finger_moving_from_top_to_bottom_short_vertflip_short_600ms.mp4	5.repeated_tap_with_finger_moving_from_top_to_bottom_short_vertflip_short_600ms.mp4	191.94776365598975	192.5561111604743	0.6083475044845272				
173.22607421875	0.2	354767	139	50	1	0	0	47	219	stimuli\Videos_short_600ms_horvertflip\45.scratching_with_finger_nails_short_horvertflip_short_600ms.mp4	45.scratching_with_finger_nails_short_horvertflip_short_600ms.mp4	192.74779573718865	193.35610277361616	0.6083070364275045				
174.0263671875	0.2	356406	140	50	1	0	0	48	175	stimuli\Videos_short_600ms_horflip\87.single_stroke_top_to_bottom_with_plastic_brush_short_horflip_short_600ms.mp4	87.single_stroke_top_to_bottom_with_plastic_brush_short_horflip_short_600ms.mp4	193.54774248357148	194.15602547376216	0.6082829901906734				
174.826171875	0.2	358044	141	50	1	0	0	49	39	stimuli\Videos_short_600ms\45.scratching_with_finger_nails_short_short_600ms.mp4	45.scratching_with_finger_nails_short_short_600ms.mp4	194.34772999125835	194.95607837548323	0.6083483842248825				
175.6259765625	0.2	359682	142	50	1	0	0	50	200	stimuli\Videos_short_600ms_horvertflip\28.single_injection_with_sharp_needle_short_horvertflip_short_600ms.mp4	28.single_injection_with_sharp_needle_short_horvertflip_short_600ms.mp4	195.1477233638809	195.75607174810557	0.6083483842246551				
176.42626953125	0.2	361321	143	50	1	0	0	51	142	stimuli\Videos_short_600ms_horflip\57.single_touch_with_nail_file_short_horflip_short_600ms.mp4	57.single_touch_with_nail_file_short_horflip_short_600ms.mp4	195.94768829156465	196.55604254072543	0.6083542491608114				
177.22607421875	0.2	362959	144	50	1	0	0	52	357	stimuli\Videos_short_600ms_vertflip\89.single_touch_with_plastic_brush_short_vertflip_short_600ms.mp4	89.single_touch_with_plastic_brush_short_vertflip_short_600ms.mp4	196.74771538756815	197.35603298087997	0.6083175933117673				
178.0263671875	0.2	364598	145	50	1	0	0	53	106	stimuli\Videos_short_600ms_horflip\24.single_stroke_top_to_bottom_with_a_spoon_short_horflip_short_600ms.mp4	24.single_stroke_top_to_bottom_with_a_spoon_short_horflip_short_600ms.mp4	197.54771403863288	198.1560125709034	0.6082985322705099				
178.826171875	0.2	366236	146	50	1	0	0	54	59	stimuli\Videos_short_600ms\63.stroke_top_to_bottom_with_screwdriver_short_short_600ms.mp4	63.stroke_top_to_bottom_with_screwdriver_short_short_600ms.mp4	198.3486334846193	198.9559754458596	0.6073419612403086				
179.6259765625	0.2	367874	147	50	1	0	0	55	94	stimuli\Videos_short_600ms_horflip\13.single_touch_with_pen_short_horflip_short_600ms.mp4	13.single_touch_with_pen_short_horflip_short_600ms.mp4	199.1477136867368	199.7559688184822	0.608255131745409				
180.42626953125	0.2	369513	148	50	1	0	0	56	9	stimuli\Videos_short_600ms\18.single_stroke_from_top_to_bottom_with_rolling_pin_short_short_600ms.mp4	18.single_stroke_from_top_to_bottom_with_rolling_pin_short_short_600ms.mp4	199.94770471338504	200.5560580828053	0.6083533694202288				
181.22607421875	0.2	371151	149	50	1	0	0	57	244	stimuli\Videos_short_600ms_horvertflip\68.stroke_top_to_bottom_with_shawl_short_horvertflip_short_600ms.mp4	68.stroke_top_to_bottom_with_shawl_short_horvertflip_short_600ms.mp4	200.74769720626705	201.355999550746	0.6083023444789433				
182.02587890625	0.2	372789	150	50	1	0	0	58	115	stimuli\Videos_short_600ms_horflip\32.single_(long)pinch_with_fingers_short_horflip_short_600ms.mp4	32.single_(long)pinch_with_fingers_short_horflip_short_600ms.mp4	201.5476448323905	202.1559715163528	0.608326683962332				
182.826171875	0.2	374428	151	50	1	0	0	59	97	stimuli\Videos_short_600ms_horflip\16.repeated_touch_with_plastic_brush_short_horflip_short_600ms.mp4	16.repeated_touch_with_plastic_brush_short_horflip_short_600ms.mp4	202.34792324089312	202.955976618847	0.6080533779538655				
183.6259765625	0.2	376066	152	50	1	0	0	60	61	stimuli\Videos_short_600ms\65.stroke_top_to_bottom_with_stanley_knife_short_short_600ms.mp4	65.stroke_top_to_bottom_with_stanley_knife_short_short_600ms.mp4	203.14760459893068	203.75594917094736	0.6083445720166765				
184.42578125	0.2	377704	153	50	1	0	0	61	293	stimuli\Videos_short_600ms_vertflip\30.finger_pulling_back_another_finger_short_vertflip_short_600ms.mp4	30.finger_pulling_back_another_finger_short_vertflip_short_600ms.mp4	203.94761234064595	204.55594254356993	0.6083302029239803				
185.22607421875	0.2	379343	154	50	1	0	0	62	6	stimuli\Videos_short_600ms\15.single_stroke_top_to_bottom_with_a_plastic_whisk_short_short_600ms.mp4	15.single_stroke_top_to_bottom_with_a_plastic_whisk_short_short_600ms.mp4	204.74770336444976	205.3559271187887	0.608223754338951				
186.02587890625	0.2	380981	155	50	1	0	0	63	265	stimuli\Videos_short_600ms_horvertflip\87.single_stroke_top_to_bottom_with_plastic_brush_short_horvertflip_short_600ms.mp4	87.single_stroke_top_to_bottom_with_plastic_brush_short_horvertflip_short_600ms.mp4	205.54757269367997	206.15591491972216	0.6083422260421685				
186.82568359375	0.2	382619	156	50	1	0	0	64	11	stimuli\Videos_short_600ms\2.single_touch_with_finger_short_short_600ms.mp4	2.single_touch_with_finger_short_short_600ms.mp4	206.34757750292735	206.95590565312364	0.6083281501962574				
187.6259765625	0.2	384258	157	50	1	0	0	65	56	stimuli\Videos_short_600ms\60.single_push_with_tip_of_pencil_short_short_600ms.mp4	60.single_push_with_tip_of_pencil_short_short_600ms.mp4	207.14757527425172	207.755895213538	0.6083199392862753				
188.42578125	0.2	385896	158	50	1	0	0	66	138	stimuli\Videos_short_600ms_horflip\53.touch_top_to_bottom_with_knife_short_horflip_short_600ms.mp4	53.touch_top_to_bottom_with_knife_short_horflip_short_600ms.mp4	207.94754811959888	208.55588448070537	0.6083363611064669				
189.2255859375	0.2	387534	159	50	1	0	1	67	362	stimuli\Targets_short_600ms\chopstickwood-tap_short_short_600ms.mp4	chopstickwood-tap_short_short_600ms.mp4	208.74750278364513	209.355871988392	0.6083692047468503				
190.02587890625	0.2	389173	160	50	1	0	0	68	137	stimuli\Videos_short_600ms_horflip\52.touch_top_to_bottom_with_hammer_short_horflip_short_600ms.mp4	52.touch_top_to_bottom_with_hammer_short_horflip_short_600ms.mp4	209.54751990925777	210.1558600825724	0.6083401733146729				
190.82568359375	0.2	390811	161	50	1	0	0	69	270	stimuli\Videos_short_600ms_vertflip\1.repeated_touch_with_finger_fast_short_vertflip_short_600ms.mp4	1.repeated_touch_with_finger_fast_short_vertflip_short_600ms.mp4	210.34748542343505	210.95584700376548	0.6083615803304383				
191.62548828125	0.2	392449	162	50	1	0	0	70	187	stimuli\Videos_short_600ms_horvertflip\16.repeated_touch_with_plastic_brush_short_horvertflip_short_600ms.mp4	16.repeated_touch_with_plastic_brush_short_horvertflip_short_600ms.mp4	211.14754741580668	211.75583627093303	0.608288855126375				
192.42578125	0.2	394088	163	50	1	0	0	71	86	stimuli\Videos_short_600ms\88.repeated_stroke_with_plastic_brush_short_short_600ms.mp4	88.repeated_stroke_with_plastic_brush_short_short_600ms.mp4	211.9475149827117	212.55581175550128	0.6082967727895721				
193.2255859375	0.2	395726	164	50	1	0	0	72	355	stimuli\Videos_short_600ms_vertflip\87.single_stroke_top_to_bottom_with_plastic_brush_short_vertflip_short_600ms.mp4	87.single_stroke_top_to_bottom_with_plastic_brush_short_vertflip_short_600ms.mp4	212.74748108338255	213.3557734574706	0.6082923740880233				
194.025390625	0.2	397364	165	50	1	0	0	73	64	stimuli\Videos_short_600ms\68.stroke_top_to_bottom_with_shawl_short_short_600ms.mp4	68.stroke_top_to_bottom_with_shawl_short_short_600ms.mp4	213.54748120068143	214.15575832593615	0.6082771252547445				
194.82568359375	0.2	399003	166	50	1	0	0	74	95	stimuli\Videos_short_600ms_horflip\14.repeated_touch_with_pencil_short_horflip_short_600ms.mp4	14.repeated_touch_with_pencil_short_horflip_short_600ms.mp4	214.34746665564057	214.9557461268696	0.6082794712290251				
195.62548828125	0.2	400641	167	50	1	0	0	75	113	stimuli\Videos_short_600ms_horflip\30.finger_pulling_back_another_finger_short_horflip_short_600ms.mp4	30.finger_pulling_back_another_finger_short_horflip_short_600ms.mp4	215.1474547498208	215.755759440274	0.6083046904532239				
196.42578125	0.2	402280	168	50	1	0	1	76	371	stimuli\Targets_short_600ms_horflip\hand-stroke_short_horflip_short_600ms.mp4	hand-stroke_short_horflip_short_600ms.mp4	215.94744372374157	216.55575369263693	0.6083099688953553				
197.2255859375	0.2	403918	169	50	1	0	0	77	87	stimuli\Videos_short_600ms\89.single_touch_with_plastic_brush_short_short_600ms.mp4	89.single_touch_with_plastic_brush_short_short_600ms.mp4	216.7474109973998	217.35575732889697	0.6083463314971596				
198.025390625	0.2	405556	170	50	1	0	0	78	195	stimuli\Videos_short_600ms_horvertflip\23.single_push_with_a_spoon_short_horvertflip_short_600ms.mp4	23.single_push_with_a_spoon_short_horvertflip_short_600ms.mp4	217.5474363339224	218.15574864879204	0.6083123148696359				
198.82568359375	0.2	407195	171	50	1	0	0	79	261	stimuli\Videos_short_600ms_horvertflip\83.single_stroke_top_to_bottom_with_cotton_bud_short_horvertflip_short_600ms.mp4	83.single_stroke_top_to_bottom_with_cotton_bud_short_horvertflip_short_600ms.mp4	218.3475173873353	218.95573058478976	0.6082131974544609				
199.62548828125	0.2	408833	172	50	1	0	0	80	121	stimuli\Videos_short_600ms_horflip\38.double_slap_with_pencil_short_horflip_short_600ms.mp4	38.double_slap_with_pencil_short_horflip_short_600ms.mp4	219.14739727345	219.75573040884183	0.6083331353918311				
200.42529296875	0.2	410471	173	50	1	0	0	81	172	stimuli\Videos_short_600ms_horflip\84.single_touch_with_cotton_bud_short_horflip_short_600ms.mp4	84.single_touch_with_cotton_bud_short_horflip_short_600ms.mp4	219.94738302165592	220.5556932837981	0.6083102621421403				
201.2255859375	0.2	412110	174	50	1	0	0	82	240	stimuli\Videos_short_600ms_horvertflip\64.repeated_touch_with_screwdriver_short_horvertflip_short_600ms.mp4	64.repeated_touch_with_screwdriver_short_horvertflip_short_600ms.mp4	220.7473699428492	221.3556998525262	0.6083299096769679				
202.025390625	0.2	413748	175	50	1	0	0	83	359	stimuli\Videos_short_600ms_vertflip\90.repeated_touch_with_sponge_short_vertflip_short_600ms.mp4	90.repeated_touch_with_sponge_short_vertflip_short_600ms.mp4	221.54733311105224	222.15566712618443	0.6083340151321863				
202.8251953125	0.2	415386	176	50	1	0	0	84	298	stimuli\Videos_short_600ms_vertflip\35.single_punch_with_hand_short_vertflip_short_600ms.mp4	35.single_punch_with_hand_short_vertflip_short_600ms.mp4	222.3473517028988	222.95567604088683	0.6083243379880514				
203.62548828125	0.2	417025	177	50	1	0	0	85	182	stimuli\Videos_short_600ms_horvertflip\11.single_touch_with_lighter_short_horvertflip_short_600ms.mp4	11.single_touch_with_lighter_short_horvertflip_short_600ms.mp4	223.14731809681663	223.75566560130096	0.6083475044842999				
204.42529296875	0.2	418663	178	50	1	0	0	86	123	stimuli\Videos_short_600ms_horflip\4.repeated_tap_with_finger_slow_short_horflip_short_600ms.mp4	4.repeated_tap_with_finger_slow_short_horflip_short_600ms.mp4	223.9473220263235	224.5556498832732	0.6083278569496997				
205.22509765625	0.2	420301	179	50	1	0	0	87	271	stimuli\Videos_short_600ms_vertflip\10.single_touch_with_knife_short_vertflip_short_600ms.mp4	10.single_touch_with_knife_short_vertflip_short_600ms.mp4	224.74731422595892	225.3556414964148	0.6083272704559022				
206.025390625	0.2	421940	180	50	1	0	0	88	0	stimuli\Videos_short_600ms\1.repeated_touch_with_finger_fast_short_short_600ms.mp4	1.repeated_touch_with_finger_fast_short_short_600ms.mp4	225.5472621453289	226.15563135007596	0.6083692047470777				
206.8251953125	0.2	423578	181	50	1	0	0	89	96	stimuli\Videos_short_600ms_horflip\15.single_stroke_top_to_bottom_with_a_plastic_whisk_short_horflip_short_600ms.mp4	15.single_stroke_top_to_bottom_with_a_plastic_whisk_short_horflip_short_600ms.mp4	226.34728689535817	226.95561944425617	0.6083325488980336				
207.625	0.2	425216	182	50	1	0	0	90	300	stimuli\Videos_short_600ms_vertflip\37.single_stab_with_nail_file_short_vertflip_short_600ms.mp4	37.single_stab_with_nail_file_short_vertflip_short_600ms.mp4	227.14728173421463	227.75558965038223	0.6083079161676324				
208.42529296875	0.2	426855	183	50	1	0	0	91	329	stimuli\Videos_short_600ms_vertflip\63.stroke_top_to_bottom_with_screwdriver_short_vertflip_short_600ms.mp4	63.stroke_top_to_bottom_with_screwdriver_short_vertflip_short_600ms.mp4	227.94727158787555	228.5555492996241	0.6082777117485421				
209.22509765625	0.2	428493	184	50	1	0	0	92	277	stimuli\Videos_short_600ms_vertflip\16.repeated_touch_with_plastic_brush_short_vertflip_short_600ms.mp4	16.repeated_touch_with_plastic_brush_short_vertflip_short_600ms.mp4	228.74726408075776	229.3555394465318	0.6082753657740341	3.0	2.0	2.0264790121805163	0.0
246.45751953125	0.2	504745	185	50	2	0	0	0	253	stimuli\Videos_short_600ms_horvertflip\76.tickle_with_fingers_from_top_to_bottom_short_horvertflip_short_600ms.mp4	76.tickle_with_fingers_from_top_to_bottom_short_horvertflip_short_600ms.mp4	265.9800539398145	266.5883345840309	0.6082806442163928				
247.25732421875	0.2	506383	186	50	2	0	0	1	1	stimuli\Videos_short_600ms\10.single_touch_with_knife_short_short_600ms.mp4	10.single_touch_with_knife_short_short_600ms.mp4	266.7800417407482	267.3883478974351	0.6083061566869219				
248.05712890625	0.2	508021	187	50	2	0	1	2	375	stimuli\Targets_short_600ms_horvertflip\finger-tap_short_vertflip_short_600ms.mp4	finger-tap_short_vertflip_short_600ms.mp4	267.5800295416816	268.18834127005766	0.6083117283760657				
248.857421875	0.2	509660	188	50	2	0	0	3	143	stimuli\Videos_short_600ms_horflip\58.single_slap_with_pencil_short_horflip_short_600ms.mp4	58.single_slap_with_pencil_short_horflip_short_600ms.mp4	268.380248421086	268.9883273115104	0.6080788904243946				
249.6572265625	0.2	511298	189	50	2	0	0	4	112	stimuli\Videos_short_600ms_horflip\3.single_push_with_finger_short_horflip_short_600ms.mp4	3.single_push_with_finger_short_horflip_short_600ms.mp4	269.18005294277555	269.7883397451744	0.6082868023988794				
250.45703125	0.2	512936	190	50	2	0	0	5	321	stimuli\Videos_short_600ms_vertflip\56.repeated_touch_with_nail_file_short_vertflip_short_600ms.mp4	56.repeated_touch_with_nail_file_short_vertflip_short_600ms.mp4	269.98002872059055	270.58831962844465	0.6082909078540979				
251.25732421875	0.2	514575	191	50	2	0	0	6	72	stimuli\Videos_short_600ms\75.(long)stroke_with_fingers_all_over_the_hand_short_short_600ms.mp4	75.(long)stroke_with_fingers_all_over_the_hand_short_short_600ms.mp4	270.78001974723884	271.3883168132754	0.6082970660365845				
252.05712890625	0.2	516213	192	50	2	0	1	7	379	stimuli\Targets_short_600ms_vertflip\chopstick-silver-tap_short_horvertflip_short_600ms.mp4	chopstick-silver-tap_short_horvertflip_short_600ms.mp4	271.5799697193363	272.1882978695328	0.6083281501964848				
252.85693359375	0.2	517851	193	50	2	0	0	8	285	stimuli\Videos_short_600ms_vertflip\23.single_push_with_a_spoon_short_vertflip_short_600ms.mp4	23.single_push_with_a_spoon_short_vertflip_short_600ms.mp4	272.379960159491	272.98828860293406	0.6083284434430425				
253.6572265625	0.2	519490	194	50	2	0	0	9	124	stimuli\Videos_short_600ms_horflip\40.repeated_push_with_finger_short_horflip_short_600ms.mp4	40.repeated_push_with_finger_short_horflip_short_600ms.mp4	273.1799470806841	273.7882769903613	0.6083299096771952				
254.45703125	0.2	521128	195	50	2	0	0	10	108	stimuli\Videos_short_600ms_horflip\26.single_touch_with_a_blunt_syringe_short_horflip_short_600ms.mp4	26.single_touch_with_a_blunt_syringe_short_horflip_short_600ms.mp4	273.9799254977204	274.58826215207364	0.608336654353252				
255.2568359375	0.2	522766	196	50	2	0	1	11	363	stimuli\Targets_short_600ms\finger-tap_short_short_600ms.mp4	finger-tap_short_short_600ms.mp4	274.77991887034295	275.38825083274764	0.6083319624046908				
256.05712890625	0.2	524405	197	50	2	0	0	12	325	stimuli\Videos_short_600ms_vertflip\6.single_touch_with_flat_hand_short_vertflip_short_600ms.mp4	6.single_touch_with_flat_hand_short_vertflip_short_600ms.mp4	275.57991722816087	276.1882383404343	0.6083211122734156				
256.85693359375	0.2	526043	198	50	2	0	0	13	279	stimuli\Videos_short_600ms_vertflip\18.single_stroke_from_top_to_bottom_with_rolling_pin_short_vertflip_short_600ms.mp4	18.single_stroke_from_top_to_bottom_with_rolling_pin_short_vertflip_short_600ms.mp4	276.37991851844686	276.9882267278613	0.6083082094144174				
257.65673828125	0.2	527681	199	50	2	0	0	14	257	stimuli\Videos_short_600ms_horvertflip\8.single_touch_with_hairbrush_short_horvertflip_short_600ms.mp4	8.single_touch_with_hairbrush_short_horvertflip_short_600ms.mp4	277.1799121843162	277.7882168747692	0.6083046904529965				
258.45703125	0.2	529320	200	50	2	0	0	15	10	stimuli\Videos_short_600ms\19.single_touch_with_rolling_pin_short_short_600ms.mp4	19.single_touch_with_rolling_pin_short_short_600ms.mp4	277.97988913511836	278.58818561466137	0.6082964795430144				
259.2568359375	0.2	530958	201	50	2	0	0	16	130	stimuli\Videos_short_600ms_horflip\46.scratching_top_to_bottom_with_finger_nails_short_horflip_short_600ms.mp4	46.scratching_top_to_bottom_with_finger_nails_short_horflip_short_600ms.mp4	278.77984145319033	279.3881757615693	0.6083343083789714				
260.056640625	0.2	532596	202	50	2	0	0	17	203	stimuli\Videos_short_600ms_horvertflip\30.finger_pulling_back_another_finger_short_horvertflip_short_600ms.mp4	30.finger_pulling_back_another_finger_short_horvertflip_short_600ms.mp4	279.57986649646614	280.1881371702916	0.6082706738254728				
260.85693359375	0.2	534235	203	50	2	0	0	18	287	stimuli\Videos_short_600ms_vertflip\25.single_touch_with_stanley_knife_short_vertflip_short_600ms.mp4	25.single_touch_with_stanley_knife_short_vertflip_short_600ms.mp4	280.3798519514255	280.9881255577186	0.6082736062930962				
261.65673828125	0.2	535873	204	50	2	0	0	19	267	stimuli\Videos_short_600ms_horvertflip\89.single_touch_with_plastic_brush_short_horvertflip_short_600ms.mp4	89.single_touch_with_plastic_brush_short_horvertflip_short_600ms.mp4	281.18007141732323	281.7881142383926	0.6080428210693753				
262.45654296875	0.2	537511	205	50	2	0	0	20	144	stimuli\Videos_short_600ms_horflip\59.single_push_with_long_side_pencil_short_horflip_short_600ms.mp4	59.single_push_with_long_side_pencil_short_horflip_short_600ms.mp4	281.979801454328	282.58812432608215	0.608322871754126				
263.2568359375	0.2	539150	206	50	2	0	0	21	205	stimuli\Videos_short_600ms_horvertflip\32.single_(long)pinch_with_fingers_short_horvertflip_short_600ms.mp4	32.single_(long)pinch_with_fingers_short_horvertflip_short_600ms.mp4	282.77978808227454	283.38811916493864	0.6083310826641082				
264.056640625	0.2	540788	207	50	2	0	0	22	215	stimuli\Videos_short_600ms_horvertflip\41.injection_with_blunt_syringe_short_horvertflip_short_600ms.mp4	41.injection_with_blunt_syringe_short_horvertflip_short_600ms.mp4	283.57982720139626	284.18811722950977	0.6082900281135153				
264.85693359375	0.2	542427	208	50	2	0	0	23	46	stimuli\Videos_short_600ms\51.repeated_touch_with_hammer_short_short_600ms.mp4	51.repeated_touch_with_hammer_short_short_600ms.mp4	284.3797815721957	284.98812907668025	0.6083475044845272				
265.65673828125	0.2	544065	209	50	2	0	0	24	78	stimuli\Videos_short_600ms\80.stroke_with_sharp_stick_all_over_the_hand_short_short_600ms.mp4	80.stroke_with_sharp_stick_all_over_the_hand_short_short_600ms.mp4	285.1797309577996	285.7881077869631	0.6083768291634897				
266.45654296875	0.2	545703	210	50	2	0	0	25	4	stimuli\Videos_short_600ms\13.single_touch_with_pen_short_short_600ms.mp4	13.single_touch_with_pen_short_short_600ms.mp4	285.97972931561776	286.5880888432205	0.6083595276027154				
267.2568359375	0.2	547342	211	50	2	0	0	26	340	stimuli\Videos_short_600ms_vertflip\73.single_stroke_with_flat_hand_short_vertflip_short_600ms.mp4	73.single_stroke_with_flat_hand_short_vertflip_short_600ms.mp4	286.7797520129193	287.388075471167	0.6083234582476962				
268.056640625	0.2	548980	212	50	2	0	0	27	237	stimuli\Videos_short_600ms_horvertflip\61.single_hit_with_rolling_pin_short_horvertflip_short_600ms.mp4	61.single_hit_with_rolling_pin_short_horvertflip_short_600ms.mp4	287.579742159827	288.18806620456826	0.6083240447412663				
268.8564453125	0.2	550618	213	50	2	0	0	28	169	stimuli\Videos_short_600ms_horflip\81.single_stroke_top_to_bottom_with_cotton_pad_short_horflip_short_600ms.mp4	81.single_stroke_top_to_bottom_with_cotton_pad_short_horflip_short_600ms.mp4	288.37991881169364	288.98805488524226	0.6081360735486214				
269.65673828125	0.2	552257	214	50	2	0	0	29	31	stimuli\Videos_short_600ms\38.double_slap_with_pencil_short_short_600ms.mp4	38.double_slap_with_pencil_short_short_600ms.mp4	289.17969606143174	289.7880420996821	0.6083460382503745				
270.45654296875	0.2	553895	215	50	2	0	0	30	218	stimuli\Videos_short_600ms_horvertflip\44.pushing_top_to_bottom_with_finger_short_horvertflip_short_600ms.mp4	44.pushing_top_to_bottom_with_finger_short_horvertflip_short_600ms.mp4	289.97968767457337	290.5880316600965	0.6083439855231063				
271.25634765625	0.2	555533	216	50	2	0	0	31	311	stimuli\Videos_short_600ms_vertflip\47.(long)scratching_with_finger_nails_short_vertflip_short_600ms.mp4	47.(long)scratching_with_finger_nails_short_vertflip_short_600ms.mp4	290.7796514292702	291.38801828804276	0.6083668587725697				
272.056640625	0.2	557172	217	50	2	0	0	32	68	stimuli\Videos_short_600ms\71.single_stroke_with_finger_top_to_bottom_short_short_600ms.mp4	71.single_stroke_with_finger_top_to_bottom_short_short_600ms.mp4	291.57966122371295	292.18800550248284	0.6083442787698914				
272.8564453125	0.2	558810	218	50	2	0	0	33	284	stimuli\Videos_short_600ms_vertflip\22.single_touch_with_metal_chopstick_short_vertflip_short_600ms.mp4	22.single_touch_with_metal_chopstick_short_vertflip_short_600ms.mp4	292.37962937711154	292.9879962358841	0.6083668587725697				
273.65625	0.2	560448	219	50	2	0	0	34	341	stimuli\Videos_short_600ms_vertflip\74.fingers_walking_from_top_to_bottom_short_vertflip_short_600ms.mp4	74.fingers_walking_from_top_to_bottom_short_vertflip_short_600ms.mp4	293.17963008090373	293.7879852098049	0.6083551289011666				
274.45654296875	0.2	562087	220	50	2	0	0	35	15	stimuli\Videos_short_600ms\23.single_push_with_a_spoon_short_short_600ms.mp4	23.single_push_with_a_spoon_short_short_600ms.mp4	293.97965365794585	294.5879677322962	0.6083140743503463				
275.25634765625	0.2	563725	221	50	2	0	1	36	377	stimuli\Targets_short_600ms_horvertflip\hand-stroke_short_vertflip_short_600ms.mp4	hand-stroke_short_vertflip_short_600ms.mp4	294.77969512304185	295.387960811672	0.6082656886301265				
276.05615234375	0.2	565363	222	50	2	0	0	37	85	stimuli\Videos_short_600ms\87.single_stroke_top_to_bottom_with_plastic_brush_short_short_600ms.mp4	87.single_stroke_top_to_bottom_with_plastic_brush_short_short_600ms.mp4	295.57981517827784	296.1879037458466	0.6080885675687568				
276.8564453125	0.2	567002	223	50	2	0	0	38	47	stimuli\Videos_short_600ms\52.touch_top_to_bottom_with_hammer_short_short_600ms.mp4	52.touch_top_to_bottom_with_hammer_short_short_600ms.mp4	296.37968714672934	296.9879147132765	0.608227566547157				
277.65625	0.2	568640	224	50	2	0	0	39	41	stimuli\Videos_short_600ms\47.(long)scratching_with_finger_nails_short_short_600ms.mp4	47.(long)scratching_with_finger_nails_short_short_600ms.mp4	297.17960280895227	297.78790222096313	0.6082994120108651				
278.4560546875	0.2	570278	225	50	2	0	0	40	80	stimuli\Videos_short_600ms\82.repeated_touch_with_cotton_bud_short_short_600ms.mp4	82.repeated_touch_with_cotton_bud_short_short_600ms.mp4	297.9795867976775	298.58789442059856	0.6083076229210747				
279.25634765625	0.2	571917	226	50	2	0	0	41	349	stimuli\Videos_short_600ms_vertflip\81.single_stroke_top_to_bottom_with_cotton_pad_short_vertflip_short_600ms.mp4	81.single_stroke_top_to_bottom_with_cotton_pad_short_vertflip_short_600ms.mp4	298.7795754783515	299.3878924851697	0.6083170068181971				
280.05615234375	0.2	573555	227	50	2	0	0	42	48	stimuli\Videos_short_600ms\53.touch_top_to_bottom_with_knife_short_short_600ms.mp4	53.touch_top_to_bottom_with_knife_short_short_600ms.mp4	299.5795650387656	300.18788175233726	0.6083167135716394				
280.85595703125	0.2	575193	228	50	2	0	0	43	75	stimuli\Videos_short_600ms\78.single_stroke_top_to_bottom_with_soft_brush_short_short_600ms.mp4	78.single_stroke_top_to_bottom_with_soft_brush_short_short_600ms.mp4	300.37955753164783	300.9878897872993	0.6083322556514759				
281.65625	0.2	576832	229	50	2	0	0	44	18	stimuli\Videos_short_600ms\26.single_touch_with_a_blunt_syringe_short_short_600ms.mp4	26.single_touch_with_a_blunt_syringe_short_short_600ms.mp4	301.17952128634465	301.7878682043356	0.6083469179909571				
282.4560546875	0.2	578470	230	50	2	0	0	45	303	stimuli\Videos_short_600ms_vertflip\4.repeated_tap_with_finger_slow_short_vertflip_short_600ms.mp4	4.repeated_tap_with_finger_slow_short_vertflip_short_600ms.mp4	301.97950967377164	302.5878668554003	0.6083571816286621				
283.25634765625	0.2	580109	231	50	2	0	0	46	51	stimuli\Videos_short_600ms\56.repeated_touch_with_nail_file_short_short_600ms.mp4	56.repeated_touch_with_nail_file_short_short_600ms.mp4	302.7797226882403	303.38784409944924	0.6081214112089128				
284.05615234375	0.2	581747	232	50	2	0	0	47	54	stimuli\Videos_short_600ms\59.single_push_with_long_side_pencil_short_short_600ms.mp4	59.single_push_with_long_side_pencil_short_short_600ms.mp4	303.5794855688855	304.18781870427733	0.6083331353918311				
284.85595703125	0.2	583385	233	50	2	0	0	48	163	stimuli\Videos_short_600ms_horflip\76.tickle_with_fingers_from_top_to_bottom_short_horflip_short_600ms.mp4	76.tickle_with_fingers_from_top_to_bottom_short_horflip_short_600ms.mp4	304.3794944835879	304.98782380677153	0.6083293231836251				
285.65625	0.2	585024	234	50	2	0	0	49	146	stimuli\Videos_short_600ms_horflip\60.single_push_with_tip_of_pencil_short_horflip_short_600ms.mp4	60.single_push_with_tip_of_pencil_short_horflip_short_600ms.mp4	305.1794626369865	305.7878092617307	0.608346624744172				
286.4560546875	0.2	586662	235	50	2	0	0	50	132	stimuli\Videos_short_600ms_horflip\48.single_slap_with_hand_short_horflip_short_600ms.mp4	48.single_slap_with_hand_short_horflip_short_600ms.mp4	305.9794392945421	306.5877988221448	0.6083595276027154				
287.255859375	0.2	588300	236	50	2	0	0	51	92	stimuli\Videos_short_600ms_horflip\11.single_touch_with_lighter_short_horflip_short_600ms.mp4	11.single_touch_with_lighter_short_horflip_short_600ms.mp4	306.77941888456553	307.38778632983167	0.6083674452661398				
288.05615234375	0.2	589939	237	50	2	0	0	52	251	stimuli\Videos_short_600ms_horvertflip\74.fingers_walking_from_top_to_bottom_short_horvertflip_short_600ms.mp4	74.fingers_walking_from_top_to_bottom_short_horvertflip_short_600ms.mp4	307.579430438489	308.18777119829724	0.6083407598082431				
288.85595703125	0.2	591577	238	50	2	0	1	53	361	stimuli\Targets_short_600ms\chopstick-silver-tap_short_short_600ms.mp4	chopstick-silver-tap_short_short_600ms.mp4	308.37944052617854	308.9877613452052	0.6083208190266305				
289.65576171875	0.2	593215	239	50	2	0	0	54	243	stimuli\Videos_short_600ms_horvertflip\67.single_touch_with_sponge_short_horvertflip_short_600ms.mp4	67.single_touch_with_sponge_short_horvertflip_short_600ms.mp4	309.1794233419166	309.7877529583468	0.6083296164301828				
290.4560546875	0.2	594854	240	50	2	0	0	55	50	stimuli\Videos_short_600ms\55.touch_top_to_bottom_with_nail_file_short_short_600ms.mp4	55.touch_top_to_bottom_with_nail_file_short_short_600ms.mp4	309.9794225794749	310.5877155400565	0.6082929605815934				
291.255859375	0.2	596492	241	50	2	0	0	56	346	stimuli\Videos_short_600ms_vertflip\79.long_with_soft_brush_all_over_the_hand_short_vertflip_short_600ms.mp4	79.long_with_soft_brush_all_over_the_hand_short_vertflip_short_600ms.mp4	310.7794144858635	311.3877344251498	0.6083199392862753				
292.0556640625	0.2	598130	242	50	2	0	0	57	275	stimuli\Videos_short_600ms_vertflip\14.repeated_touch_with_pencil_short_vertflip_short_600ms.mp4	14.repeated_touch_with_pencil_short_vertflip_short_600ms.mp4	311.57938000004106	312.18769935283353	0.6083193527924777				
292.85595703125	0.2	599769	243	50	2	0	0	58	118	stimuli\Videos_short_600ms_horflip\35.single_punch_with_hand_short_horflip_short_600ms.mp4	35.single_punch_with_hand_short_horflip_short_600ms.mp4	312.3793566575964	312.9877006431195	0.6083439855231063				
293.65576171875	0.2	601407	244	50	2	0	0	59	347	stimuli\Videos_short_600ms_vertflip\8.single_touch_with_hairbrush_short_vertflip_short_600ms.mp4	8.single_touch_with_hairbrush_short_vertflip_short_600ms.mp4	313.17933214216487	313.78767612768775	0.6083439855228789				
294.45556640625	0.2	603045	245	50	2	0	0	60	326	stimuli\Videos_short_600ms_vertflip\60.single_push_with_tip_of_pencil_short_vertflip_short_600ms.mp4	60.single_push_with_tip_of_pencil_short_vertflip_short_600ms.mp4	313.9793568921939	314.58766304888104	0.6083061566871493				
295.255859375	0.2	604684	246	50	2	0	0	61	350	stimuli\Videos_short_600ms_vertflip\82.repeated_touch_with_cotton_bud_short_vertflip_short_600ms.mp4	82.repeated_touch_with_cotton_bud_short_vertflip_short_600ms.mp4	314.77934439988076	315.38765143630803	0.6083070364272771				
296.0556640625	0.2	606322	247	50	2	0	0	62	98	stimuli\Videos_short_600ms_horflip\17.repeated_touch_with_rolling_pin_short_horflip_short_600ms.mp4	17.repeated_touch_with_rolling_pin_short_horflip_short_600ms.mp4	315.5793682701694	316.1876650429592	0.6082967727897994				
296.85546875	0.2	607960	248	50	2	0	0	63	246	stimuli\Videos_short_600ms_horvertflip\7.repeated_touch_with_hairbrush_short_horvertflip_short_600ms.mp4	7.repeated_touch_with_hairbrush_short_horvertflip_short_600ms.mp4	316.37936868071483	316.98764433973565	0.6082756590208191				
297.65576171875	0.2	609599	249	50	2	0	1	64	369	stimuli\Targets_short_600ms_horflip\finger-tap_short_horflip_short_600ms.mp4	finger-tap_short_horflip_short_600ms.mp4	317.1793107351491	317.78763712586465	0.608326390715547				
298.45556640625	0.2	611237	250	50	2	0	0	65	35	stimuli\Videos_short_600ms\41.injection_with_blunt_syringe_short_short_600ms.mp4	41.injection_with_blunt_syringe_short_short_600ms.mp4	317.9792953103679	318.587622580824	0.6083272704561296				
299.25537109375	0.2	612875	251	50	2	0	0	66	140	stimuli\Videos_short_600ms_horflip\55.touch_top_to_bottom_with_nail_file_short_horflip_short_600ms.mp4	55.touch_top_to_bottom_with_nail_file_short_horflip_short_600ms.mp4	318.77928516402903	319.38760979526387	0.6083246312348365				
300.0556640625	0.2	614514	252	50	2	0	0	67	167	stimuli\Videos_short_600ms_horflip\8.single_touch_with_hairbrush_short_horflip_short_600ms.mp4	8.single_touch_with_hairbrush_short_horflip_short_600ms.mp4	319.5792720852221	320.18759818269086	0.6083260974687619				
300.85546875	0.2	616152	253	50	2	0	0	68	304	stimuli\Videos_short_600ms_vertflip\40.repeated_push_with_finger_short_vertflip_short_600ms.mp4	40.repeated_push_with_finger_short_vertflip_short_600ms.mp4	320.379291556809	320.9875865701181	0.608295013309089				
301.65576171875	0.2	617791	254	50	2	0	1	69	373	stimuli\Targets_short_600ms_horvertflip\chopstick-silver-tap_short_vertflip_short_600ms.mp4	chopstick-silver-tap_short_vertflip_short_600ms.mp4	321.1792902078739	321.78757349131115	0.6082832834372311				
302.45556640625	0.2	619429	255	50	2	0	0	70	177	stimuli\Videos_short_600ms_horflip\89.single_touch_with_plastic_brush_short_horflip_short_600ms.mp4	89.single_touch_with_plastic_brush_short_horflip_short_600ms.mp4	321.97926158698715	322.58756451795944	0.608302930972286				
303.25537109375	0.2	621067	256	50	2	0	0	71	162	stimuli\Videos_short_600ms_horflip\75.(long)stroke_with_fingers_all_over_the_hand_short_horflip_short_600ms.mp4	75.(long)stroke_with_fingers_all_over_the_hand_short_horflip_short_600ms.mp4	322.77918780609457	323.3875529053864	0.6083650992918592				
304.0556640625	0.2	622706	257	50	2	0	0	72	103	stimuli\Videos_short_600ms_horflip\21.repeated_touch_with_metal_chopstick_short_horflip_short_600ms.mp4	21.repeated_touch_with_metal_chopstick_short_horflip_short_600ms.mp4	323.57927296496246	324.1875404130733	0.608267448110837				
304.85546875	0.2	624344	258	50	2	0	0	73	313	stimuli\Videos_short_600ms_vertflip\49.repeated_slap_with_hand_short_vertflip_short_600ms.mp4	49.repeated_slap_with_hand_short_vertflip_short_600ms.mp4	324.3792484495309	324.9875261612792	0.6082777117483147				
305.6552734375	0.2	625982	259	50	2	0	0	74	83	stimuli\Videos_short_600ms\85.touch_top_to_bottom_with_fabric_short_short_600ms.mp4	85.touch_top_to_bottom_with_fabric_short_short_600ms.mp4	325.1791746686383	325.7875207068889	0.6083460382506019				
306.45556640625	0.2	627621	260	50	2	0	0	75	337	stimuli\Videos_short_600ms_vertflip\70.(long)stroke_with_finger_all_over_the_hand_short_vertflip_short_600ms.mp4	70.(long)stroke_with_finger_all_over_the_hand_short_vertflip_short_600ms.mp4	325.9791580708702	326.5875096808097	0.6083516099395183				
307.25537109375	0.2	629259	261	50	2	0	0	76	16	stimuli\Videos_short_600ms\24.single_stroke_top_to_bottom_with_a_spoon_short_short_600ms.mp4	24.single_stroke_top_to_bottom_with_a_spoon_short_short_600ms.mp4	326.7791763694697	327.38744792303555	0.6082715535658281				
308.05517578125	0.2	630897	262	50	2	0	0	77	343	stimuli\Videos_short_600ms_vertflip\76.tickle_with_fingers_from_top_to_bottom_short_vertflip_short_600ms.mp4	76.tickle_with_fingers_from_top_to_bottom_short_vertflip_short_600ms.mp4	327.57911695767007	328.18743660370956	0.6083196460394902				
308.85546875	0.2	632536	263	50	2	0	1	78	364	stimuli\Targets_short_600ms\hand-pinch_short_short_600ms.mp4	hand-pinch_short_short_600ms.mp4	328.37915578354523	328.9874487441266	0.6082929605813661				
309.6552734375	0.2	634174	264	50	2	0	0	79	324	stimuli\Videos_short_600ms_vertflip\59.single_push_with_long_side_pencil_short_vertflip_short_600ms.mp4	59.single_push_with_long_side_pencil_short_vertflip_short_600ms.mp4	329.1791204179822	329.7874591250629	0.6083387070807476				
310.455078125	0.2	635812	265	50	2	0	0	80	291	stimuli\Videos_short_600ms_vertflip\29.single_pinch_with_tweezers_short_vertflip_short_600ms.mp4	29.single_pinch_with_tweezers_short_vertflip_short_600ms.mp4	329.9790988350185	330.5874310906697	0.6083322556512485				
311.25537109375	0.2	637451	266	50	2	0	0	81	65	stimuli\Videos_short_600ms\69.stroke_with_soft_sock_short_short_600ms.mp4	69.stroke_with_soft_sock_short_short_600ms.mp4	330.7790740263399	331.38744440407413	0.608370377734218				
312.05517578125	0.2	639089	267	50	2	0	0	82	161	stimuli\Videos_short_600ms_horflip\74.fingers_walking_from_top_to_bottom_short_horflip_short_600ms.mp4	74.fingers_walking_from_top_to_bottom_short_horflip_short_600ms.mp4	331.57907854234054	332.1874330847479	0.6083545424073691				
312.85498046875	0.2	640727	268	50	2	0	0	83	43	stimuli\Videos_short_600ms\49.repeated_slap_with_hand_short_short_600ms.mp4	49.repeated_slap_with_hand_short_short_600ms.mp4	332.3790868705494	332.9874120882778	0.6083252177284066				
313.6552734375	0.2	642366	269	50	2	0	0	84	19	stimuli\Videos_short_600ms\27.single_push_with_a_plastic_whisk_short_short_600ms.mp4	27.single_push_with_a_plastic_whisk_short_short_600ms.mp4	333.1790462265442	333.7874042879132	0.6083580613690174				
314.455078125	0.2	644004	270	50	2	0	0	85	28	stimuli\Videos_short_600ms\35.single_punch_with_hand_short_short_600ms.mp4	35.single_punch_with_hand_short_short_600ms.mp4	333.9792340217889	334.58738944962556	0.6081554278366639				
315.2548828125	0.2	645642	271	50	2	0	1	86	360	stimuli\Targets_short_600ms\brush-stroke_short_short_600ms.mp4	brush-stroke_short_short_600ms.mp4	334.77910657673374	335.38737578432506	0.6082692075913201				
316.05517578125	0.2	647281	272	50	2	0	0	87	256	stimuli\Videos_short_600ms_horvertflip\79.long_with_soft_brush_all_over_the_hand_short_horvertflip_short_600ms.mp4	79.long_with_soft_brush_all_over_the_hand_short_horvertflip_short_600ms.mp4	335.5790380742835	336.1873632920119	0.6083252177284066				
316.85498046875	0.2	648919	273	50	2	0	0	88	216	stimuli\Videos_short_600ms_horvertflip\42.single_slap_with_plastic_whisk_short_horvertflip_short_600ms.mp4	42.single_slap_with_plastic_whisk_short_horvertflip_short_600ms.mp4	336.3790103331371	336.98735373216664	0.6083433990295362				
317.65478515625	0.2	650557	274	50	2	0	0	89	316	stimuli\Videos_short_600ms_vertflip\51.repeated_touch_with_hammer_short_vertflip_short_600ms.mp4	51.repeated_touch_with_hammer_short_vertflip_short_600ms.mp4	337.178976727055	337.7873450520615	0.6083683250064951				
318.455078125	0.2	652196	275	50	2	0	0	90	116	stimuli\Videos_short_600ms_horflip\33.scratch_top_to_bottom_with_scissors_short_horflip_short_600ms.mp4	33.scratch_top_to_bottom_with_scissors_short_horflip_short_600ms.mp4	337.9797237439286	338.58733080026764	0.6076070563390203				
319.2548828125	0.2	653834	276	50	2	0	0	91	174	stimuli\Videos_short_600ms_horflip\86.touch_top_to_bottom_with_hair_brush_short_horflip_short_600ms.mp4	86.touch_top_to_bottom_with_hair_brush_short_horflip_short_600ms.mp4	338.7789822400946	339.38731889444784	0.608336654353252				
320.05517578125	0.2	655473	277	50	2	0	0	92	212	stimuli\Videos_short_600ms_horvertflip\39.single_stab_with_scissors_short_horvertflip_short_600ms.mp4	39.single_stab_with_scissors_short_horvertflip_short_600ms.mp4	339.5789462880382	340.1873055223941	0.6083592343559303				
320.85498046875	0.2	657111	278	50	2	0	0	93	191	stimuli\Videos_short_600ms_horvertflip\2.single_touch_with_finger_short_horvertflip_short_600ms.mp4	2.single_touch_with_finger_short_horvertflip_short_600ms.mp4	340.37895637572774	340.98729420306813	0.6083378273403923				
321.65478515625	0.2	658749	279	50	2	0	0	94	12	stimuli\Videos_short_600ms\20.single_touch_with_screwdriver_short_short_600ms.mp4	20.single_touch_with_screwdriver_short_short_600ms.mp4	341.1790336169322	341.7872705673767	0.6082369504445069				
322.455078125	0.2	660388	280	50	2	0	0	95	67	stimuli\Videos_short_600ms\70.(long)stroke_with_finger_all_over_the_hand_short_short_600ms.mp4	70.(long)stroke_with_finger_all_over_the_hand_short_short_600ms.mp4	341.9789548508445	342.58729091870396	0.6083360678594545				
323.2548828125	0.2	662026	281	50	2	0	0	96	201	stimuli\Videos_short_600ms_horvertflip\29.single_pinch_with_tweezers_short_horvertflip_short_600ms.mp4	29.single_pinch_with_tweezers_short_horvertflip_short_600ms.mp4	342.7789332678806	343.38723737184023	0.6083041039596537				
324.0546875	0.2	663664	282	50	2	0	0	97	269	stimuli\Videos_short_600ms_horvertflip\90.repeated_touch_with_sponge_short_horvertflip_short_600ms.mp4	90.repeated_touch_with_sponge_short_horvertflip_short_600ms.mp4	343.5789231215417	344.18725537719297	0.6083322556512485				
324.85498046875	0.2	665303	283	50	2	0	0	98	339	stimuli\Videos_short_600ms_vertflip\72.(short)stroke_with_finger_all_over_the_hand_short_vertflip_short_600ms.mp4	72.(short)stroke_with_finger_all_over_the_hand_short_vertflip_short_600ms.mp4	344.3789484580643	344.98721414669444	0.6082656886301265	9.0	8.0	2.3141209766172324	0.0
360.4453125	0.2	738192	284	50	3	0	0	0	283	stimuli\Videos_short_600ms_vertflip\21.repeated_touch_with_metal_chopstick_short_vertflip_short_600ms.mp4	21.repeated_touch_with_metal_chopstick_short_vertflip_short_600ms.mp4	379.9701140466093	380.5783779757585	0.6082639291491887				
361.2451171875	0.2	739830	285	50	3	0	0	1	133	stimuli\Videos_short_600ms_horflip\49.repeated_slap_with_hand_short_horflip_short_600ms.mp4	49.repeated_slap_with_hand_short_horflip_short_600ms.mp4	380.7704508112233	381.37836694967905	0.607916138455721				
362.04541015625	0.2	741469	286	50	3	0	0	2	52	stimuli\Videos_short_600ms\57.single_touch_with_nail_file_short_short_600ms.mp4	57.single_touch_with_nail_file_short_short_600ms.mp4	381.5700403830156	382.1783582695741	0.6083178865585523				
362.84521484375	0.2	743107	287	50	3	0	0	3	204	stimuli\Videos_short_600ms_horvertflip\31.hand_grabbing_wrist_short_horvertflip_short_600ms.mp4	31.hand_grabbing_wrist_short_horvertflip_short_600ms.mp4	382.3701733411101	382.97832759595985	0.6081542548497509				
363.64501953125	0.2	744745	288	50	3	0	0	4	91	stimuli\Videos_short_600ms_horflip\10.single_touch_with_knife_short_horflip_short_600ms.mp4	10.single_touch_with_knife_short_horflip_short_600ms.mp4	383.1700121726742	383.7783112914383	0.60829911876408				
364.4453125	0.2	746384	289	50	3	0	0	5	25	stimuli\Videos_short_600ms\32.single_(long)pinch_with_fingers_short_short_600ms.mp4	32.single_(long)pinch_with_fingers_short_short_600ms.mp4	383.9699941086719	384.57827621912224	0.6082821104503182				
365.2451171875	0.2	748022	290	50	3	0	0	6	183	stimuli\Videos_short_600ms_horvertflip\12.repeated_touch_with_nail_file_short_horvertflip_short_600ms.mp4	12.repeated_touch_with_nail_file_short_horvertflip_short_600ms.mp4	384.7699575701219	385.3782637268089	0.6083061566869219				
366.044921875	0.2	749660	291	50	3	0	0	7	222	stimuli\Videos_short_600ms_horvertflip\48.single_slap_with_hand_short_horvertflip_short_600ms.mp4	48.single_slap_with_hand_short_horvertflip_short_600ms.mp4	385.5703380285077	386.17827146852414	0.6079334400164953				
366.84521484375	0.2	751299	292	50	3	0	0	8	38	stimuli\Videos_short_600ms\44.pushing_top_to_bottom_with_finger_short_short_600ms.mp4	44.pushing_top_to_bottom_with_finger_short_short_600ms.mp4	386.3699800914753	386.9782648411467	0.6082847496713839				
367.64501953125	0.2	752937	293	50	3	0	0	9	344	stimuli\Videos_short_600ms_vertflip\77.tapping_with_all_fingers_short_vertflip_short_600ms.mp4	77.tapping_with_all_fingers_short_vertflip_short_600ms.mp4	387.16992654461137	387.7782719963684	0.6083454517570317				
368.44482421875	0.2	754575	294	50	3	0	0	10	23	stimuli\Videos_short_600ms\30.finger_pulling_back_another_finger_short_short_600ms.mp4	30.finger_pulling_back_another_finger_short_short_600ms.mp4	387.97019263674906	388.5782741663947	0.6080815296456876				
369.2451171875	0.2	756214	295	50	3	0	0	11	170	stimuli\Videos_short_600ms_horflip\82.repeated_touch_with_cotton_bud_short_horflip_short_600ms.mp4	82.repeated_touch_with_cotton_bud_short_horflip_short_600ms.mp4	388.7699341103787	389.3782508239501	0.608316713571412				
370.044921875	0.2	757852	296	50	3	0	0	12	45	stimuli\Videos_short_600ms\50.single_(long)hard_push_with_thumb_short_short_600ms.mp4	50.single_(long)hard_push_with_thumb_short_short_600ms.mp4	389.57017586303255	390.1782488885213	0.608073025488693				
370.84521484375	0.2	759491	297	50	3	0	0	13	76	stimuli\Videos_short_600ms\79.long_with_soft_brush_all_over_the_hand_short_short_600ms.mp4	79.long_with_soft_brush_all_over_the_hand_short_short_600ms.mp4	390.3699927010873	390.97851028871014	0.6085175876228277				
371.64501953125	0.2	761129	298	50	3	0	0	14	148	stimuli\Videos_short_600ms_horflip\62.touch_top_to_bottom_with_scissors_short_horflip_short_600ms.mp4	62.touch_top_to_bottom_with_scissors_short_horflip_short_600ms.mp4	391.1698658425259	391.7782112942827	0.6083454517568043				
372.44482421875	0.2	762767	299	50	3	0	0	15	342	stimuli\Videos_short_600ms_vertflip\75.(long)stroke_with_fingers_all_over_the_hand_short_vertflip_short_600ms.mp4	75.(long)stroke_with_fingers_all_over_the_hand_short_vertflip_short_600ms.mp4	391.9698782761898	392.57820056145033	0.6083222852605559				
373.2451171875	0.2	764406	300	50	3	0	0	16	135	stimuli\Videos_short_600ms_horflip\50.single_(long)hard_push_with_thumb_short_horflip_short_600ms.mp4	50.single_(long)hard_push_with_thumb_short_horflip_short_600ms.mp4	392.769845549848	393.3781889488773	0.6083433990293088				
374.044921875	0.2	766044	301	50	3	0	0	17	236	stimuli\Videos_short_600ms_horvertflip\60.single_push_with_tip_of_pencil_short_horvertflip_short_600ms.mp4	60.single_push_with_tip_of_pencil_short_horvertflip_short_600ms.mp4	393.5698201546759	394.1781779227981	0.6083577681222323				
374.8447265625	0.2	767682	302	50	3	0	0	18	184	stimuli\Videos_short_600ms_horvertflip\13.single_touch_with_pen_short_horvertflip_short_600ms.mp4	13.single_touch_with_pen_short_horvertflip_short_600ms.mp4	394.3698003311929	394.97816572373176	0.6083653925388717				
375.64501953125	0.2	769321	303	50	3	0	0	19	233	stimuli\Videos_short_600ms_horvertflip\58.single_slap_with_pencil_short_horvertflip_short_600ms.mp4	58.single_slap_with_pencil_short_horvertflip_short_600ms.mp4	395.1697890118666	395.778115695829	0.608326683962332				
376.44482421875	0.2	770959	304	50	3	0	0	20	208	stimuli\Videos_short_600ms_horvertflip\35.single_punch_with_hand_short_horvertflip_short_600ms.mp4	35.single_punch_with_hand_short_horvertflip_short_600ms.mp4	395.9697750533196	396.5781439648199	0.6083689115002926				
377.24462890625	0.2	772597	305	50	3	0	0	21	110	stimuli\Videos_short_600ms_horflip\28.single_injection_with_sharp_needle_short_horflip_short_600ms.mp4	28.single_injection_with_sharp_needle_short_horflip_short_600ms.mp4	396.7697924721788	397.3781300062724	0.6083375340936072				
378.044921875	0.2	774236	306	50	3	0	0	22	302	stimuli\Videos_short_600ms_vertflip\39.single_stab_with_scissors_short_vertflip_short_600ms.mp4	39.single_stab_with_scissors_short_vertflip_short_600ms.mp4	397.5697814460996	398.1781178072061	0.6083363611064669				
378.8447265625	0.2	775874	307	50	3	0	0	23	185	stimuli\Videos_short_600ms_horvertflip\14.repeated_touch_with_pencil_short_horvertflip_short_600ms.mp4	14.repeated_touch_with_pencil_short_horvertflip_short_600ms.mp4	398.3697985717122	398.97811176632194	0.6083131946097637				
379.64453125	0.2	777512	308	50	3	0	0	24	335	stimuli\Videos_short_600ms_vertflip\69.stroke_with_soft_sock_short_vertflip_short_600ms.mp4	69.stroke_with_soft_sock_short_vertflip_short_600ms.mp4	399.1699813817613	399.77807024257663	0.6080888608153145				
380.44482421875	0.2	779151	309	50	3	0	0	25	70	stimuli\Videos_short_600ms\73.single_stroke_with_flat_hand_short_short_600ms.mp4	73.single_stroke_with_flat_hand_short_short_600ms.mp4	399.9697181634424	400.5780583367568	0.6083401733144456				
381.24462890625	0.2	780789	310	50	3	0	0	26	57	stimuli\Videos_short_600ms\61.single_hit_with_rolling_pin_short_short_600ms.mp4	61.single_hit_with_rolling_pin_short_short_600ms.mp4	400.7697452594457	401.3780311821042	0.6082859226585242				
382.04443359375	0.2	782427	311	50	3	0	0	27	228	stimuli\Videos_short_600ms_horvertflip\53.touch_top_to_bottom_with_knife_short_horvertflip_short_600ms.mp4	53.touch_top_to_bottom_with_knife_short_horvertflip_short_600ms.mp4	401.5697110668698	402.1780559321333	0.6083448652634615				
382.8447265625	0.2	784066	312	50	3	0	0	28	186	stimuli\Videos_short_600ms_horvertflip\15.single_stroke_top_to_bottom_with_a_plastic_whisk_short_horvertflip_short_600ms.mp4	15.single_stroke_top_to_bottom_with_a_plastic_whisk_short_horvertflip_short_600ms.mp4	402.36972086131254	402.97803053696134	0.6083096756487976				
383.64453125	0.2	785704	313	50	3	0	0	29	122	stimuli\Videos_short_600ms_horflip\39.single_stab_with_scissors_short_horflip_short_600ms.mp4	39.single_stab_with_scissors_short_horflip_short_600ms.mp4	403.1697089554932	403.7780438503655	0.6083348948723142				
384.4443359375	0.2	787342	314	50	3	0	0	30	322	stimuli\Videos_short_600ms_vertflip\57.single_touch_with_nail_file_short_vertflip_short_600ms.mp4	57.single_touch_with_nail_file_short_vertflip_short_600ms.mp4	403.96970643357054	404.57802637285704	0.6083199392865026				
385.24462890625	0.2	788981	315	50	3	0	0	31	327	stimuli\Videos_short_600ms_vertflip\61.single_hit_with_rolling_pin_short_vertflip_short_600ms.mp4	61.single_hit_with_rolling_pin_short_vertflip_short_600ms.mp4	404.7696819181387	405.3780153467774	0.6083334286386162				
386.04443359375	0.2	790619	316	50	3	0	0	32	229	stimuli\Videos_short_600ms_horvertflip\54.repeated_touch_with_knife_short_horvertflip_short_600ms.mp4	54.repeated_touch_with_knife_short_horvertflip_short_600ms.mp4	405.5696562297203	406.1779993355026	0.6083431057822963				
386.84423828125	0.2	792257	317	50	3	0	0	33	268	stimuli\Videos_short_600ms_horvertflip\9.single_touch_with_hammer_short_horvertflip_short_600ms.mp4	9.single_touch_with_hammer_short_horvertflip_short_600ms.mp4	406.3696440306535	406.97798889591695	0.6083448652634615				
387.64453125	0.2	793896	318	50	3	0	0	34	176	stimuli\Videos_short_600ms_horflip\88.repeated_stroke_with_plastic_brush_short_horflip_short_600ms.mp4	88.repeated_stroke_with_plastic_brush_short_horflip_short_600ms.mp4	407.1696620360067	407.77797786983774	0.6083158338310568				
388.4443359375	0.2	795534	319	50	3	0	1	35	380	stimuli\Targets_short_600ms_vertflip\chopstickwood-tap_short_horvertflip_short_600ms.mp4	chopstickwood-tap_short_horvertflip_short_600ms.mp4	407.9696688979816	408.5779639112907	0.608295013309089				
389.24462890625	0.2	797173	320	50	3	0	0	36	296	stimuli\Videos_short_600ms_vertflip\33.scratch_top_to_bottom_with_scissors_short_vertflip_short_600ms.mp4	33.scratch_top_to_bottom_with_scissors_short_vertflip_short_600ms.mp4	408.7696074334544	409.3779537649516	0.6083463314971596				
390.04443359375	0.2	798811	321	50	3	0	0	37	323	stimuli\Videos_short_600ms_vertflip\58.single_slap_with_pencil_short_vertflip_short_600ms.mp4	58.single_slap_with_pencil_short_vertflip_short_600ms.mp4	409.56957412061865	410.1779444983531	0.6083703777344454				
390.84423828125	0.2	800449	322	50	3	0	0	38	220	stimuli\Videos_short_600ms_horvertflip\46.scratching_top_to_bottom_with_finger_nails_short_horvertflip_short_600ms.mp4	46.scratching_top_to_bottom_with_finger_nails_short_horvertflip_short_600ms.mp4	410.3695713054494	410.97793200603974	0.6083607005903104				
391.64453125	0.2	802088	323	50	3	0	0	39	40	stimuli\Videos_short_600ms\46.scratching_top_to_bottom_with_finger_nails_short_short_600ms.mp4	46.scratching_top_to_bottom_with_finger_nails_short_short_600ms.mp4	411.1695523617068	411.7779165812585	0.6083642195517314				
392.4443359375	0.2	803726	324	50	3	0	0	40	351	stimuli\Videos_short_600ms_vertflip\83.single_stroke_top_to_bottom_with_cotton_bud_short_vertflip_short_600ms.mp4	83.single_stroke_top_to_bottom_with_cotton_bud_short_vertflip_short_600ms.mp4	411.96957769822984	412.5779035024516	0.6083258042217494				
393.244140625	0.2	805364	325	50	3	0	1	41	383	stimuli\Targets_short_600ms_vertflip\hand-stroke_short_horvertflip_short_600ms.mp4	hand-stroke_short_horvertflip_short_600ms.mp4	412.7695684316309	413.3779003940358	0.6083319624049182				
394.04443359375	0.2	807003	326	50	3	0	0	42	286	stimuli\Videos_short_600ms_vertflip\24.single_stroke_top_to_bottom_with_a_spoon_short_vertflip_short_600ms.mp4	24.single_stroke_top_to_bottom_with_a_spoon_short_vertflip_short_600ms.mp4	413.56954450269313	414.177892593671	0.60834809097787				
394.84423828125	0.2	808641	327	50	3	0	0	43	7	stimuli\Videos_short_600ms\16.repeated_touch_with_plastic_brush_short_short_600ms.mp4	16.repeated_touch_with_plastic_brush_short_short_600ms.mp4	414.36954901869376	414.97784813745784	0.60829911876408				
395.64404296875	0.2	810279	328	50	3	0	0	44	100	stimuli\Videos_short_600ms_horflip\19.single_touch_with_rolling_pin_short_horflip_short_600ms.mp4	19.single_touch_with_rolling_pin_short_horflip_short_600ms.mp4	415.16953330066553	415.7778186368305	0.6082853361649541				
396.4443359375	0.2	811918	329	50	3	0	0	45	289	stimuli\Videos_short_600ms_vertflip\27.single_push_with_a_plastic_whisk_short_vertflip_short_600ms.mp4	27.single_push_with_a_plastic_whisk_short_vertflip_short_600ms.mp4	415.9695222745863	416.5778237393247	0.6083014647383607				
397.244140625	0.2	813556	330	50	3	0	0	46	147	stimuli\Videos_short_600ms_horflip\61.single_hit_with_rolling_pin_short_horflip_short_600ms.mp4	61.single_hit_with_rolling_pin_short_horflip_short_600ms.mp4	416.7695068498051	417.3778405716903	0.6083337218851739				
398.0439453125	0.2	815194	331	50	3	0	0	47	62	stimuli\Videos_short_600ms\66.stroke_top_to_bottom_with_sponge_short_short_600ms.mp4	66.stroke_top_to_bottom_with_sponge_short_short_600ms.mp4	417.57037292487576	418.1778348240532	0.6074618991774514				
398.84423828125	0.2	816833	332	50	3	0	0	48	84	stimuli\Videos_short_600ms\86.touch_top_to_bottom_with_hair_brush_short_short_600ms.mp4	86.touch_top_to_bottom_with_hair_brush_short_short_600ms.mp4	418.3698742293841	418.97780473693274	0.6079305075486445				
399.64404296875	0.2	818471	333	50	3	0	0	49	79	stimuli\Videos_short_600ms\81.single_stroke_top_to_bottom_with_cotton_pad_short_short_600ms.mp4	81.single_stroke_top_to_bottom_with_cotton_pad_short_short_600ms.mp4	419.1695406318354	419.7778066137121	0.6082659818766842				
400.44384765625	0.2	820109	334	50	3	0	0	50	90	stimuli\Videos_short_600ms_horflip\1.repeated_touch_with_finger_fast_short_horflip_short_600ms.mp4	1.repeated_touch_with_finger_fast_short_horflip_short_600ms.mp4	419.9698507109915	420.57779030919073	0.6079395981992093				
401.25244140625	0.2	821765	335	50	3	0	0	51	134	stimuli\Videos_short_600ms_horflip\5.repeated_tap_with_finger_moving_from_top_to_bottom_short_horflip_short_600ms.mp4	5.repeated_tap_with_finger_moving_from_top_to_bottom_short_horflip_short_600ms.mp4	420.77778608643666	421.38608344572	0.6082973592833696				
402.05224609375	0.2	823403	336	50	3	0	0	52	178	stimuli\Videos_short_600ms_horflip\9.single_touch_with_hammer_short_horflip_short_600ms.mp4	9.single_touch_with_hammer_short_horflip_short_600ms.mp4	421.577817874389	422.18609617263064	0.6082782982416575				
402.85205078125	0.2	825041	337	50	3	0	0	53	307	stimuli\Videos_short_600ms_vertflip\43.touch_top_to_bottom_with_sharp_wooden_stick_short_vertflip_short_600ms.mp4	43.touch_top_to_bottom_with_sharp_wooden_stick_short_vertflip_short_600ms.mp4	422.37775787609553	422.986069017978	0.6083111418824956				
403.65234375	0.2	826680	338	50	3	0	0	54	5	stimuli\Videos_short_600ms\14.repeated_touch_with_pencil_short_short_600ms.mp4	14.repeated_touch_with_pencil_short_short_600ms.mp4	423.1777260294943	423.7860799854079	0.6083539559135716				
404.4521484375	0.2	828318	339	50	3	0	0	55	196	stimuli\Videos_short_600ms_horvertflip\24.single_stroke_top_to_bottom_with_a_spoon_short_horvertflip_short_600ms.mp4	24.single_stroke_top_to_bottom_with_a_spoon_short_horvertflip_short_600ms.mp4	423.9777331847158	424.586071305303	0.6083381205871774				
405.25244140625	0.2	829957	340	50	3	0	0	56	150	stimuli\Videos_short_600ms_horflip\64.repeated_touch_with_screwdriver_short_horflip_short_600ms.mp4	64.repeated_touch_with_screwdriver_short_horflip_short_600ms.mp4	424.77772333162375	425.3860485493519	0.6083252177281793				
406.05224609375	0.2	831595	341	50	3	0	0	57	235	stimuli\Videos_short_600ms_horvertflip\6.single_touch_with_flat_hand_short_horvertflip_short_600ms.mp4	6.single_touch_with_flat_hand_short_horvertflip_short_600ms.mp4	425.5777111325574	426.1860466139233	0.6083354813658843				
406.85205078125	0.2	833233	342	50	3	0	0	58	165	stimuli\Videos_short_600ms_horflip\78.single_stroke_top_to_bottom_with_soft_brush_short_horflip_short_600ms.mp4	78.single_stroke_top_to_bottom_with_soft_brush_short_horflip_short_600ms.mp4	426.3776828049172	426.9860229782321	0.6083401733149003				
407.65234375	0.2	834872	343	50	3	0	0	59	260	stimuli\Videos_short_600ms_horvertflip\82.repeated_touch_with_cotton_bud_short_horvertflip_short_600ms.mp4	82.repeated_touch_with_cotton_bud_short_horvertflip_short_600ms.mp4	427.17769259935994	427.78601224539943	0.6083196460394902				
408.4521484375	0.2	836510	344	50	3	0	0	60	37	stimuli\Videos_short_600ms\43.touch_top_to_bottom_with_sharp_wooden_stick_short_short_600ms.mp4	43.touch_top_to_bottom_with_sharp_wooden_stick_short_short_600ms.mp4	427.9776897841907	428.5860018058138	0.6083120216230782				
409.251953125	0.2	838148	345	50	3	0	0	61	317	stimuli\Videos_short_600ms_vertflip\52.touch_top_to_bottom_with_hammer_short_vertflip_short_600ms.mp4	52.touch_top_to_bottom_with_hammer_short_vertflip_short_600ms.mp4	428.77766585525296	429.3859878472663	0.608321992013316				
410.05224609375	0.2	839787	346	50	3	0	0	62	179	stimuli\Videos_short_600ms_horflip\90.repeated_touch_with_sponge_short_horflip_short_600ms.mp4	90.repeated_touch_with_sponge_short_horflip_short_600ms.mp4	429.57763928709346	430.1859785806678	0.6083392935743177				
410.85205078125	0.2	841425	347	50	3	0	0	63	288	stimuli\Videos_short_600ms_vertflip\26.single_touch_with_a_blunt_syringe_short_vertflip_short_600ms.mp4	26.single_touch_with_a_blunt_syringe_short_vertflip_short_600ms.mp4	430.3776297272484	430.98597019380986	0.608340466561458				
411.65185546875	0.2	843063	348	50	3	0	0	64	209	stimuli\Videos_short_600ms_horvertflip\36.single_slap_with_full_hand_short_horvertflip_short_600ms.mp4	36.single_slap_with_full_hand_short_horvertflip_short_600ms.mp4	431.1775852710348	431.78595300954794	0.6083677385131523				
412.4521484375	0.2	844702	349	50	3	0	0	65	264	stimuli\Videos_short_600ms_horvertflip\86.touch_top_to_bottom_with_hair_brush_short_horvertflip_short_600ms.mp4	86.touch_top_to_bottom_with_hair_brush_short_horvertflip_short_600ms.mp4	431.9775771774234	432.58594696866385	0.6083697912404205				
413.251953125	0.2	846340	350	50	3	0	0	66	247	stimuli\Videos_short_600ms_horvertflip\70.(long)stroke_with_finger_all_over_the_hand_short_horvertflip_short_600ms.mp4	70.(long)stroke_with_finger_all_over_the_hand_short_horvertflip_short_600ms.mp4	432.77762656018285	433.38593154388263	0.6083049836997816				
414.0517578125	0.2	847978	351	50	3	0	0	67	280	stimuli\Videos_short_600ms_vertflip\19.single_touch_with_rolling_pin_short_vertflip_short_600ms.mp4	19.single_touch_with_rolling_pin_short_vertflip_short_600ms.mp4	433.5775973528025	434.18590526897015	0.6083079161676324				
414.85205078125	0.2	849617	352	50	3	0	0	68	29	stimuli\Videos_short_600ms\36.single_slap_with_full_hand_short_short_600ms.mp4	36.single_slap_with_full_hand_short_short_600ms.mp4	434.3776045080244	434.98586110600354	0.608256597979107				
415.65185546875	0.2	851255	353	50	3	0	0	69	297	stimuli\Videos_short_600ms_vertflip\34.repeated_punch_with_hand_short_vertflip_short_600ms.mp4	34.repeated_punch_with_hand_short_vertflip_short_600ms.mp4	435.1776157687009	435.7858489069372	0.6082331382363009				
416.45166015625	0.2	852893	354	50	3	0	0	70	136	stimuli\Videos_short_600ms_horflip\51.repeated_touch_with_hammer_short_horflip_short_600ms.mp4	51.repeated_touch_with_hammer_short_horflip_short_600ms.mp4	435.97755811638217	436.5858367078709	0.6082785914886699				
417.251953125	0.2	854532	355	50	3	0	0	71	295	stimuli\Videos_short_600ms_vertflip\32.single_(long)pinch_with_fingers_short_vertflip_short_600ms.mp4	32.single_(long)pinch_with_fingers_short_vertflip_short_600ms.mp4	436.7775429848475	437.3858403441309	0.6082973592833696				
418.0517578125	0.2	856170	356	50	3	0	0	72	171	stimuli\Videos_short_600ms_horflip\83.single_stroke_top_to_bottom_with_cotton_bud_short_horflip_short_600ms.mp4	83.single_stroke_top_to_bottom_with_cotton_bud_short_horflip_short_600ms.mp4	437.57753753045745	438.1860730061344	0.6085354756769448				
418.8515625	0.2	857808	357	50	3	0	1	73	368	stimuli\Targets_short_600ms_horflip\chopstickwood-tap_short_horflip_short_600ms.mp4	chopstickwood-tap_short_horflip_short_600ms.mp4	438.37752357190993	438.98583236781815	0.608308795908215				
419.65185546875	0.2	859447	358	50	3	0	0	74	239	stimuli\Videos_short_600ms_horvertflip\63.stroke_top_to_bottom_with_screwdriver_short_horvertflip_short_600ms.mp4	63.stroke_top_to_bottom_with_screwdriver_short_horvertflip_short_600ms.mp4	439.1775166512857	439.7858412825208	0.6083246312350639				
420.45166015625	0.2	861085	359	50	3	0	0	75	49	stimuli\Videos_short_600ms\54.repeated_touch_with_knife_short_short_600ms.mp4	54.repeated_touch_with_knife_short_short_600ms.mp4	439.9774745410468	440.5858214590376	0.6083469179907297				
421.25146484375	0.2	862723	360	50	3	0	0	76	157	stimuli\Videos_short_600ms_horflip\70.(long)stroke_with_finger_all_over_the_hand_short_horflip_short_600ms.mp4	70.(long)stroke_with_finger_all_over_the_hand_short_horflip_short_600ms.mp4	440.7774954788674	441.3858124856861	0.6083170068186519				
422.0517578125	0.2	864362	361	50	3	0	0	77	330	stimuli\Videos_short_600ms_vertflip\64.repeated_touch_with_screwdriver_short_vertflip_short_600ms.mp4	64.repeated_touch_with_screwdriver_short_vertflip_short_600ms.mp4	441.5774727229168	442.18579940687914	0.608326683962332				
422.8515625	0.2	866000	362	50	3	0	1	78	374	stimuli\Targets_short_600ms_horvertflip\chopstickwood-tap_short_vertflip_short_600ms.mp4	chopstickwood-tap_short_vertflip_short_600ms.mp4	442.3774408763152	442.98578750105935	0.608346624744172				
423.65185546875	0.2	867639	363	50	3	0	0	79	306	stimuli\Videos_short_600ms_vertflip\42.single_slap_with_plastic_whisk_short_vertflip_short_600ms.mp4	42.single_slap_with_plastic_whisk_short_vertflip_short_600ms.mp4	443.1774494977708	443.785775008746	0.6083255109751917				
424.45166015625	0.2	869277	364	50	3	0	0	80	234	stimuli\Videos_short_600ms_horvertflip\59.single_push_with_long_side_pencil_short_horvertflip_short_600ms.mp4	59.single_push_with_long_side_pencil_short_horvertflip_short_600ms.mp4	443.9774285013009	444.5857628096797	0.608334308378744				
425.25146484375	0.2	870915	365	50	3	0	0	81	353	stimuli\Videos_short_600ms_vertflip\85.touch_top_to_bottom_with_fabric_short_vertflip_short_600ms.mp4	85.touch_top_to_bottom_with_fabric_short_vertflip_short_600ms.mp4	444.7773969479458	445.385748264639	0.608351316693188				
426.0517578125	0.2	872554	366	50	3	0	0	82	22	stimuli\Videos_short_600ms\3.single_push_with_finger_short_short_600ms.mp4	3.single_push_with_finger_short_short_600ms.mp4	445.5773953057642	446.1857384115465	0.6083431057822963				
426.8515625	0.2	874192	367	50	3	0	1	83	367	stimuli\Targets_short_600ms_horflip\chopstick-silver-tap_short_horflip_short_600ms.mp4	chopstick-silver-tap_short_horflip_short_600ms.mp4	446.3773614064348	446.98572562598656	0.6083642195517314				
427.6513671875	0.2	875830	368	50	3	0	0	84	129	stimuli\Videos_short_600ms_horflip\45.scratching_with_finger_nails_short_horflip_short_600ms.mp4	45.scratching_with_finger_nails_short_horflip_short_600ms.mp4	447.1773755995796	447.7857157728945	0.6083401733149003				
428.45166015625	0.2	877469	369	50	3	0	0	85	119	stimuli\Videos_short_600ms_horflip\36.single_slap_with_full_hand_short_horflip_short_600ms.mp4	36.single_slap_with_full_hand_short_horflip_short_600ms.mp4	447.9773590018112	448.58570328058113	0.6083442787698914				
429.25146484375	0.2	879107	370	50	3	0	0	86	230	stimuli\Videos_short_600ms_horvertflip\55.touch_top_to_bottom_with_nail_file_short_horvertflip_short_600ms.mp4	55.touch_top_to_bottom_with_nail_file_short_horvertflip_short_600ms.mp4	448.7773632245653	449.3856781786558	0.6083149540904742				
430.05126953125	0.2	880745	371	50	3	0	1	87	366	stimuli\Targets_short_600ms_horflip\brush-stroke_short_horflip_short_600ms.mp4	brush-stroke_short_horflip_short_600ms.mp4	449.5773434010821	450.18565600919874	0.6083126081166483				
430.8515625	0.2	882384	372	50	3	0	0	88	3	stimuli\Videos_short_600ms\12.repeated_touch_with_nail_file_short_short_600ms.mp4	12.repeated_touch_with_nail_file_short_short_600ms.mp4	450.3773496765634	450.98567049559006	0.6083208190266305				
431.6513671875	0.2	884022	373	50	3	0	0	89	152	stimuli\Videos_short_600ms_horflip\66.stroke_top_to_bottom_with_sponge_short_horflip_short_600ms.mp4	66.stroke_top_to_bottom_with_sponge_short_horflip_short_600ms.mp4	451.17733219905494	451.78561167028374	0.6082794712287978				
432.451171875	0.2	885660	374	50	3	0	0	90	36	stimuli\Videos_short_600ms\42.single_slap_with_plastic_whisk_short_short_600ms.mp4	42.single_slap_with_plastic_whisk_short_short_600ms.mp4	451.97733026362584	452.5855977117367	0.608267448110837				
