onset	duration	onsetsample	eventnumber	subjectnr	sequencenumber	blocksequencenumber	istarget	presentationnumber	stimnumber	stim	stimname	time_stimon	time_stimoff	stimdur	cresp	resp	rt	correct
30.2607421875	0.2	61974	0	17	0	0	0	0	117	stimuli\Videos_short_600ms_horflip\34.repeated_punch_with_hand_short_horflip_short_600ms.mp4	34.repeated_punch_with_hand_short_horflip_short_600ms.mp4	66.72692843090044	67.3346553798583	0.6077269489578612	n/a	n/a	n/a	n/a
31.060546875	0.2	63612	1	17	0	0	0	1	190	stimuli\Videos_short_600ms_horvertflip\19.single_touch_with_rolling_pin_short_horvertflip_short_600ms.mp4	19.single_touch_with_rolling_pin_short_horvertflip_short_600ms.mp4	67.526351735145	68.13464376735465	0.608292032209647	n/a	n/a	n/a	n/a
31.86083984375	0.2	65251	2	17	0	0	0	2	304	stimuli\Videos_short_600ms_vertflip\40.repeated_push_with_finger_short_vertflip_short_600ms.mp4	40.repeated_push_with_finger_short_vertflip_short_600ms.mp4	68.32635478489465	68.93463714001518	0.6082823551205365	n/a	n/a	n/a	n/a
32.66064453125	0.2	66889	3	17	0	0	0	3	3	stimuli\Videos_short_600ms\12.repeated_touch_with_nail_file_short_short_600ms.mp4	12.repeated_touch_with_nail_file_short_short_600ms.mp4	69.12635079676147	69.73463285863727	0.6082820618757978	n/a	n/a	n/a	n/a
33.46044921875	0.2	68527	4	17	0	0	0	4	248	stimuli\Videos_short_600ms_horvertflip\71.single_stroke_with_finger_top_to_bottom_short_horvertflip_short_600ms.mp4	71.single_stroke_with_finger_top_to_bottom_short_horvertflip_short_600ms.mp4	69.92634358293253	70.53460394467402	0.6082603617414861	n/a	n/a	n/a	n/a
34.2607421875	0.2	70166	5	17	0	0	0	5	324	stimuli\Videos_short_600ms_vertflip\59.single_push_with_long_side_pencil_short_vertflip_short_600ms.mp4	59.single_push_with_long_side_pencil_short_vertflip_short_600ms.mp4	70.72654340012377	71.33458676051305	0.6080433603892743	n/a	n/a	n/a	n/a
35.060546875	0.2	71804	6	17	0	0	0	6	9	stimuli\Videos_short_600ms\18.single_stroke_from_top_to_bottom_with_rolling_pin_short_short_600ms.mp4	18.single_stroke_from_top_to_bottom_with_rolling_pin_short_short_600ms.mp4	71.52626464135938	72.1345704560863	0.6083058147269185	n/a	n/a	n/a	n/a
35.8603515625	0.2	73442	7	17	0	0	0	7	309	stimuli\Videos_short_600ms_vertflip\45.scratching_with_finger_nails_short_vertflip_short_600ms.mp4	45.scratching_with_finger_nails_short_vertflip_short_600ms.mp4	72.32624628421763	72.93455473815084	0.6083084539332049	n/a	n/a	n/a	n/a
36.66064453125	0.2	75081	8	17	0	0	0	8	137	stimuli\Videos_short_600ms_horflip\52.touch_top_to_bottom_with_hammer_short_horflip_short_600ms.mp4	52.touch_top_to_bottom_with_hammer_short_horflip_short_600ms.mp4	73.12627367330788	73.7345363810091	0.6082627077012148	n/a	n/a	n/a	n/a
37.46044921875	0.2	76719	9	17	0	0	0	9	6	stimuli\Videos_short_600ms\15.single_stroke_top_to_bottom_with_a_plastic_whisk_short_short_600ms.mp4	15.single_stroke_top_to_bottom_with_a_plastic_whisk_short_short_600ms.mp4	73.9262488647746	74.53451861035865	0.6082697455840389	n/a	n/a	n/a	n/a
38.26025390625	0.2	78357	10	17	0	0	0	10	177	stimuli\Videos_short_600ms_horflip\89.single_touch_with_plastic_brush_short_horflip_short_600ms.mp4	89.single_touch_with_plastic_brush_short_horflip_short_600ms.mp4	74.72623109412416	75.33450171944241	0.608270625318255	n/a	n/a	n/a	n/a
39.060546875	0.2	79996	11	17	0	0	0	11	284	stimuli\Videos_short_600ms_vertflip\22.single_touch_with_metal_chopstick_short_vertflip_short_600ms.mp4	22.single_touch_with_metal_chopstick_short_vertflip_short_600ms.mp4	75.52617344214195	76.13448805422195	0.6083146120799938	n/a	n/a	n/a	n/a
39.8603515625	0.2	81634	12	17	0	0	0	12	277	stimuli\Videos_short_600ms_vertflip\16.repeated_touch_with_plastic_brush_short_vertflip_short_600ms.mp4	16.repeated_touch_with_plastic_brush_short_vertflip_short_600ms.mp4	76.32614746062973	76.93446852409943	0.6083210634697025	n/a	n/a	n/a	n/a
40.66015625	0.2	83272	13	17	0	0	0	13	307	stimuli\Videos_short_600ms_vertflip\43.touch_top_to_bottom_with_sharp_wooden_stick_short_vertflip_short_600ms.mp4	43.touch_top_to_bottom_with_sharp_wooden_stick_short_vertflip_short_600ms.mp4	77.12609889924533	77.73443286549991	0.6083339662545768	n/a	n/a	n/a	n/a
41.46044921875	0.2	84911	14	17	0	0	0	14	353	stimuli\Videos_short_600ms_vertflip\85.touch_top_to_bottom_with_fabric_short_vertflip_short_600ms.mp4	85.touch_top_to_bottom_with_fabric_short_vertflip_short_600ms.mp4	77.92610194899498	78.5344153880942	0.60831343909922	n/a	n/a	n/a	n/a
42.26025390625	0.2	86549	15	17	0	0	0	15	260	stimuli\Videos_short_600ms_horvertflip\82.repeated_touch_with_cotton_bud_short_horvertflip_short_600ms.mp4	82.repeated_touch_with_cotton_bud_short_horvertflip_short_600ms.mp4	78.72610529198755	79.33437063889505	0.6082653469075012	n/a	n/a	n/a	n/a
43.06005859375	0.2	88187	16	17	0	0	1	16	360	stimuli\Targets_short_600ms\brush-stroke_short_short_600ms.mp4	brush-stroke_short_short_600ms.mp4	79.52615877988865	80.13435931963613	0.6082005397474859	n/a	n/a	n/a	n/a
43.8603515625	0.2	89826	17	17	0	0	0	17	61	stimuli\Videos_short_600ms\65.stroke_top_to_bottom_with_stanley_knife_short_short_600ms.mp4	65.stroke_top_to_bottom_with_stanley_knife_short_short_600ms.mp4	80.32642692318223	80.9343353908389	0.6079084676566708	n/a	n/a	n/a	n/a
44.66015625	0.2	91464	18	17	0	0	0	18	11	stimuli\Videos_short_600ms\2.single_touch_with_finger_short_short_600ms.mp4	2.single_touch_with_finger_short_short_600ms.mp4	81.12638041451282	81.73433580138044	0.6079553868676157	n/a	n/a	n/a	n/a
45.4599609375	0.2	93102	19	17	0	0	0	19	74	stimuli\Videos_short_600ms\77.tapping_with_all_fingers_short_short_600ms.mp4	77.tapping_with_all_fingers_short_short_600ms.mp4	81.92606148117557	82.53433298622804	0.6082715050524712	n/a	n/a	n/a	n/a
46.26025390625	0.2	94741	20	17	0	0	1	20	364	stimuli\Targets_short_600ms\hand-pinch_short_short_600ms.mp4	hand-pinch_short_short_600ms.mp4	82.72603931184676	83.33431726829258	0.6082779564458178	n/a	n/a	n/a	n/a
47.06005859375	0.2	96379	21	17	0	0	0	21	351	stimuli\Videos_short_600ms_vertflip\83.single_stroke_top_to_bottom_with_cotton_bud_short_vertflip_short_600ms.mp4	83.single_stroke_top_to_bottom_with_cotton_bud_short_vertflip_short_600ms.mp4	83.52604324133063	84.13430917472942	0.6082659333987976	n/a	n/a	n/a	n/a
47.85986328125	0.2	98017	22	17	0	0	0	22	43	stimuli\Videos_short_600ms\49.repeated_slap_with_hand_short_short_600ms.mp4	49.repeated_slap_with_hand_short_short_600ms.mp4	84.32649348981249	84.93431134474304	0.6078178549305449	n/a	n/a	n/a	n/a
48.66015625	0.2	99656	23	17	0	0	0	23	53	stimuli\Videos_short_600ms\58.single_slap_with_pencil_short_short_600ms.mp4	58.single_slap_with_pencil_short_short_600ms.mp4	85.12596283353378	85.73428125779901	0.6083184242652351	n/a	n/a	n/a	n/a
49.4599609375	0.2	101294	24	17	0	0	0	24	241	stimuli\Videos_short_600ms_horvertflip\65.stroke_top_to_bottom_with_stanley_knife_short_horvertflip_short_600ms.mp4	65.stroke_top_to_bottom_with_stanley_knife_short_horvertflip_short_600ms.mp4	85.9260993097887	86.53426114118702	0.6081618313983199	n/a	n/a	n/a	n/a
50.259765625	0.2	102932	25	17	0	0	0	25	315	stimuli\Videos_short_600ms_vertflip\50.single_(long)hard_push_with_thumb_short_vertflip_short_600ms.mp4	50.single_(long)hard_push_with_thumb_short_vertflip_short_600ms.mp4	86.72593696931835	87.33424659623051	0.6083096269121597	n/a	n/a	n/a	n/a
51.06005859375	0.2	104571	26	17	0	0	0	26	342	stimuli\Videos_short_600ms_vertflip\75.(long)stroke_with_fingers_all_over_the_hand_short_vertflip_short_600ms.mp4	75.(long)stroke_with_fingers_all_over_the_hand_short_vertflip_short_600ms.mp4	87.5262356100975	88.13422882558007	0.6079932154825656	n/a	n/a	n/a	n/a
51.85986328125	0.2	106209	27	17	0	0	0	27	218	stimuli\Videos_short_600ms_horvertflip\44.pushing_top_to_bottom_with_finger_short_horvertflip_short_600ms.mp4	44.pushing_top_to_bottom_with_finger_short_horvertflip_short_600ms.mp4	88.32607385611664	88.93421076168306	0.6081369055664254	n/a	n/a	n/a	n/a
52.66015625	0.2	107848	28	17	0	0	0	28	279	stimuli\Videos_short_600ms_vertflip\18.single_stroke_from_top_to_bottom_with_rolling_pin_short_vertflip_short_600ms.mp4	18.single_stroke_from_top_to_bottom_with_rolling_pin_short_vertflip_short_600ms.mp4	89.12590682372502	89.73419475050287	0.608287926777848	n/a	n/a	n/a	n/a
53.4599609375	0.2	109486	29	17	0	0	0	29	23	stimuli\Videos_short_600ms\30.finger_pulling_back_another_finger_short_short_600ms.mp4	30.finger_pulling_back_another_finger_short_short_600ms.mp4	89.92584389333206	90.53418167177188	0.6083377784398181	n/a	n/a	n/a	n/a
54.259765625	0.2	111124	30	17	0	0	0	30	77	stimuli\Videos_short_600ms\8.single_touch_with_hairbrush_short_short_600ms.mp4	8.single_touch_with_hairbrush_short_short_600ms.mp4	90.72579914413473	91.33416184840462	0.6083627042698936	n/a	n/a	n/a	n/a
55.06005859375	0.2	112763	31	17	0	0	0	31	133	stimuli\Videos_short_600ms_horflip\49.repeated_slap_with_hand_short_horflip_short_600ms.mp4	49.repeated_slap_with_hand_short_horflip_short_600ms.mp4	91.52580219388256	92.13414231828392	0.6083401244013658	n/a	n/a	n/a	n/a
55.85986328125	0.2	114401	32	17	0	0	0	32	60	stimuli\Videos_short_600ms\64.repeated_touch_with_screwdriver_short_short_600ms.mp4	64.repeated_touch_with_screwdriver_short_short_600ms.mp4	92.32586389264544	92.93412396114218	0.6082600684967474	n/a	n/a	n/a	n/a
56.65966796875	0.2	116039	33	17	0	0	1	33	368	stimuli\Targets_short_600ms_horflip\chopstickwood-tap_short_horflip_short_600ms.mp4	chopstickwood-tap_short_horflip_short_600ms.mp4	93.1258329259672	93.73424870759482	0.6084157816276274	n/a	n/a	n/a	n/a
57.4599609375	0.2	117678	34	17	0	0	0	34	31	stimuli\Videos_short_600ms\38.double_slap_with_pencil_short_short_600ms.mp4	38.double_slap_with_pencil_short_short_600ms.mp4	93.92606148117557	94.534090765801	0.6080292846254451	n/a	n/a	n/a	n/a
58.259765625	0.2	119316	35	17	0	0	0	35	44	stimuli\Videos_short_600ms\5.repeated_tap_with_finger_moving_from_top_to_bottom_short_short_600ms.mp4	5.repeated_tap_with_finger_moving_from_top_to_bottom_short_short_600ms.mp4	94.72636921255253	95.33405862614018	0.60768941358765	n/a	n/a	n/a	n/a
59.0595703125	0.2	120954	36	17	0	0	0	36	162	stimuli\Videos_short_600ms_horflip\75.(long)stroke_with_fingers_all_over_the_hand_short_horflip_short_600ms.mp4	75.(long)stroke_with_fingers_all_over_the_hand_short_horflip_short_600ms.mp4	95.52640569223875	96.13403880277474	0.6076331105359714	n/a	n/a	n/a	n/a
59.85986328125	0.2	122593	37	17	0	0	0	37	138	stimuli\Videos_short_600ms_horflip\53.touch_top_to_bottom_with_knife_short_horflip_short_600ms.mp4	53.touch_top_to_bottom_with_knife_short_horflip_short_600ms.mp4	96.32629789534984	96.93401927265222	0.6077213773023686	n/a	n/a	n/a	n/a
60.65966796875	0.2	124231	38	17	0	0	0	38	299	stimuli\Videos_short_600ms_vertflip\36.single_slap_with_full_hand_short_vertflip_short_600ms.mp4	36.single_slap_with_full_hand_short_vertflip_short_600ms.mp4	97.12571152250712	97.73399593034446	0.6082844078373455	n/a	n/a	n/a	n/a
61.45947265625	0.2	125869	39	17	0	0	0	39	146	stimuli\Videos_short_600ms_horflip\60.single_push_with_tip_of_pencil_short_horflip_short_600ms.mp4	60.single_push_with_tip_of_pencil_short_horflip_short_600ms.mp4	97.92566530708427	98.53398607731106	0.6083207702267828	n/a	n/a	n/a	n/a
62.259765625	0.2	127508	40	17	0	0	0	40	95	stimuli\Videos_short_600ms_horflip\14.repeated_touch_with_pencil_short_horflip_short_600ms.mp4	14.repeated_touch_with_pencil_short_horflip_short_600ms.mp4	98.72580149009444	99.3340017365972	0.6082002465027472	n/a	n/a	n/a	n/a
63.0595703125	0.2	129146	41	17	0	0	0	41	289	stimuli\Videos_short_600ms_vertflip\27.single_push_with_a_plastic_whisk_short_vertflip_short_600ms.mp4	27.single_push_with_a_plastic_whisk_short_vertflip_short_600ms.mp4	99.52613297432254	100.13398396594494	0.6078509916223993	n/a	n/a	n/a	n/a
63.859375	0.2	130784	42	17	0	0	1	42	362	stimuli\Targets_short_600ms\chopstickwood-tap_short_short_600ms.mp4	chopstickwood-tap_short_short_600ms.mp4	100.32601872604393	100.93395827767743	0.6079395516335353	n/a	n/a	n/a	n/a
64.65966796875	0.2	132423	43	17	0	0	0	43	36	stimuli\Videos_short_600ms\42.single_slap_with_plastic_whisk_short_short_600ms.mp4	42.single_slap_with_plastic_whisk_short_short_600ms.mp4	101.12564554236631	101.73394021378044	0.6082946714141144	n/a	n/a	n/a	n/a
65.45947265625	0.2	134061	44	17	0	0	0	44	194	stimuli\Videos_short_600ms_horvertflip\22.single_touch_with_metal_chopstick_short_horvertflip_short_600ms.mp4	22.single_touch_with_metal_chopstick_short_horvertflip_short_600ms.mp4	101.92589022605353	102.53392508233628	0.6080348562827567	n/a	n/a	n/a	n/a
66.25927734375	0.2	135699	45	17	0	0	1	45	366	stimuli\Targets_short_600ms_horflip\brush-stroke_short_horflip_short_600ms.mp4	brush-stroke_short_horflip_short_600ms.mp4	102.7256141064954	103.33390555221376	0.6082914457183506	n/a	n/a	n/a	n/a
67.0595703125	0.2	137338	46	17	0	0	0	46	152	stimuli\Videos_short_600ms_horflip\66.stroke_top_to_bottom_with_sponge_short_horflip_short_600ms.mp4	66.stroke_top_to_bottom_with_sponge_short_horflip_short_600ms.mp4	103.52556261266	104.13388866129752	0.6083260486375366	n/a	n/a	n/a	n/a
67.859375	0.2	138976	47	17	0	0	0	47	356	stimuli\Videos_short_600ms_vertflip\88.repeated_stroke_with_plastic_brush_short_vertflip_short_600ms.mp4	88.repeated_stroke_with_plastic_brush_short_vertflip_short_600ms.mp4	104.3255430825393	104.93387294336208	0.6083298608227778	n/a	n/a	n/a	n/a
68.6591796875	0.2	140614	48	17	0	0	0	48	267	stimuli\Videos_short_600ms_horvertflip\89.single_touch_with_plastic_brush_short_horvertflip_short_600ms.mp4	89.single_touch_with_plastic_brush_short_horvertflip_short_600ms.mp4	105.1255229659273	105.73385253350534	0.6083295675780391	n/a	n/a	n/a	n/a
69.45947265625	0.2	142253	49	17	0	0	0	49	144	stimuli\Videos_short_600ms_horflip\59.single_push_with_long_side_pencil_short_horflip_short_600ms.mp4	59.single_push_with_long_side_pencil_short_horflip_short_600ms.mp4	105.9255521144878	106.53383652232516	0.6082844078373455	n/a	n/a	n/a	n/a
70.25927734375	0.2	143891	50	17	0	0	0	50	216	stimuli\Videos_short_600ms_horvertflip\42.single_slap_with_plastic_whisk_short_horvertflip_short_600ms.mp4	42.single_slap_with_plastic_whisk_short_horvertflip_short_600ms.mp4	106.72551704237594	107.33382080438788	0.6083037620119285	n/a	n/a	n/a	n/a
71.05908203125	0.2	145529	51	17	0	0	0	51	223	stimuli\Videos_short_600ms_horvertflip\49.repeated_slap_with_hand_short_horvertflip_short_600ms.mp4	49.repeated_slap_with_hand_short_horvertflip_short_600ms.mp4	107.5256022007452	108.13376549836904	0.6081632976238325	n/a	n/a	n/a	n/a
71.859375	0.2	147168	52	17	0	0	0	52	64	stimuli\Videos_short_600ms\68.stroke_top_to_bottom_with_shawl_short_short_600ms.mp4	68.stroke_top_to_bottom_with_shawl_short_short_600ms.mp4	108.32550877286668	108.9337911279872	0.6082823551205365	n/a	n/a	n/a	n/a
72.6591796875	0.2	148806	53	17	0	0	0	53	233	stimuli\Videos_short_600ms_horvertflip\58.single_slap_with_pencil_short_horvertflip_short_600ms.mp4	58.single_slap_with_pencil_short_horvertflip_short_600ms.mp4	109.125457572276	109.73377277084546	0.6083151985694712	n/a	n/a	n/a	n/a
73.45947265625	0.2	150445	54	17	0	0	0	54	201	stimuli\Videos_short_600ms_horvertflip\29.single_pinch_with_tweezers_short_horvertflip_short_600ms.mp4	29.single_pinch_with_tweezers_short_horvertflip_short_600ms.mp4	109.92545593010436	110.53372215674608	0.6082662266417174	n/a	n/a	n/a	n/a
74.25927734375	0.2	152083	55	17	0	0	0	55	32	stimuli\Videos_short_600ms\39.single_stab_with_scissors_short_short_600ms.mp4	39.single_stab_with_scissors_short_short_600ms.mp4	110.7253991578582	111.33369852119358	0.6082993633353908	n/a	n/a	n/a	n/a
75.05908203125	0.2	153721	56	17	0	0	1	56	373	stimuli\Targets_short_600ms_horvertflip\chopstick-silver-tap_short_vertflip_short_600ms.mp4	chopstick-silver-tap_short_vertflip_short_600ms.mp4	111.52550572311702	112.13369306683671	0.6081873437196919	n/a	n/a	n/a	n/a
75.859375	0.2	155360	57	17	0	0	0	57	94	stimuli\Videos_short_600ms_horflip\13.single_touch_with_pen_short_horflip_short_600ms.mp4	13.single_touch_with_pen_short_horflip_short_600ms.mp4	112.32629496290065	112.93367881512496	0.6073838522243022	n/a	n/a	n/a	n/a
76.6591796875	0.2	156998	58	17	0	0	0	58	303	stimuli\Videos_short_600ms_vertflip\4.repeated_tap_with_finger_slow_short_vertflip_short_600ms.mp4	4.repeated_tap_with_finger_slow_short_vertflip_short_600ms.mp4	113.1257050711156	113.73367189454255	0.6079668234269775	n/a	n/a	n/a	n/a
77.458984375	0.2	158636	59	17	0	0	0	59	157	stimuli\Videos_short_600ms_horflip\70.(long)stroke_with_finger_all_over_the_hand_short_horflip_short_600ms.mp4	70.(long)stroke_with_finger_all_over_the_hand_short_horflip_short_600ms.mp4	113.92535065512313	114.5336596955476	0.6083090404245013	n/a	n/a	n/a	n/a
78.25927734375	0.2	160275	60	17	0	0	0	60	76	stimuli\Videos_short_600ms\79.long_with_soft_brush_all_over_the_hand_short_short_600ms.mp4	79.long_with_soft_brush_all_over_the_hand_short_short_600ms.mp4	114.72538713481116	115.33365658714864	0.6082694523374812	n/a	n/a	n/a	n/a
79.05908203125	0.2	161913	61	17	0	0	0	61	270	stimuli\Videos_short_600ms_vertflip\1.repeated_touch_with_finger_fast_short_vertflip_short_600ms.mp4	1.repeated_touch_with_finger_fast_short_vertflip_short_600ms.mp4	115.5253121813712	116.13363441782168	0.6083222364504763	n/a	n/a	n/a	n/a
79.85888671875	0.2	163551	62	17	0	0	0	62	18	stimuli\Videos_short_600ms\26.single_touch_with_a_blunt_syringe_short_short_600ms.mp4	26.single_touch_with_a_blunt_syringe_short_short_600ms.mp4	116.3252955836997	116.93363013644375	0.6083345527440542	n/a	n/a	n/a	n/a
80.6591796875	0.2	165190	63	17	0	0	1	63	374	stimuli\Targets_short_600ms_horvertflip\chopstickwood-tap_short_vertflip_short_600ms.mp4	chopstickwood-tap_short_vertflip_short_600ms.mp4	117.12527986576424	117.73360092923394	0.6083210634697025	n/a	n/a	n/a	n/a
81.458984375	0.2	166828	64	17	0	0	0	64	323	stimuli\Videos_short_600ms_vertflip\58.single_slap_with_pencil_short_vertflip_short_600ms.mp4	58.single_slap_with_pencil_short_vertflip_short_600ms.mp4	117.92528203577784	118.5335811058685	0.6082990700906521	n/a	n/a	n/a	n/a
82.2587890625	0.2	168466	65	17	0	0	0	65	63	stimuli\Videos_short_600ms\67.single_touch_with_sponge_short_short_600ms.mp4	67.single_touch_with_sponge_short_short_600ms.mp4	118.7253038532108	119.33356480144175	0.6082609482309635	n/a	n/a	n/a	n/a
83.05908203125	0.2	170105	66	17	0	0	0	66	111	stimuli\Videos_short_600ms_horflip\29.single_pinch_with_tweezers_short_horflip_short_600ms.mp4	29.single_pinch_with_tweezers_short_horflip_short_600ms.mp4	119.52522772679004	120.13354996324053	0.6083222364504763	n/a	n/a	n/a	n/a
83.85888671875	0.2	171743	67	17	0	0	1	67	363	stimuli\Targets_short_600ms\finger-tap_short_short_600ms.mp4	finger-tap_short_short_600ms.mp4	120.32523957389094	120.9335316061006	0.608292032209647	n/a	n/a	n/a	n/a
84.65869140625	0.2	173381	68	17	0	0	0	68	335	stimuli\Videos_short_600ms_vertflip\69.stroke_with_soft_sock_short_vertflip_short_600ms.mp4	69.stroke_with_soft_sock_short_vertflip_short_600ms.mp4	121.12519159899784	121.73351559491856	0.6083239959207276	n/a	n/a	n/a	n/a
85.458984375	0.2	175020	69	17	0	0	0	69	14	stimuli\Videos_short_600ms\22.single_touch_with_metal_chopstick_short_short_600ms.mp4	22.single_touch_with_metal_chopstick_short_short_600ms.mp4	121.92520022040298	122.53349987698311	0.6082996565801295	n/a	n/a	n/a	n/a
86.2587890625	0.2	176658	70	17	0	0	0	70	175	stimuli\Videos_short_600ms_horflip\87.single_stroke_top_to_bottom_with_plastic_brush_short_horflip_short_600ms.mp4	87.single_stroke_top_to_bottom_with_plastic_brush_short_horflip_short_600ms.mp4	122.72518332948675	123.33348005361586	0.6082967241291044	n/a	n/a	n/a	n/a
87.05859375	0.2	178296	71	17	0	0	0	71	28	stimuli\Videos_short_600ms\35.single_punch_with_hand_short_short_600ms.mp4	35.single_punch_with_hand_short_short_600ms.mp4	123.52513975326838	124.13346345594618	0.6083237026778079	n/a	n/a	n/a	n/a
87.85888671875	0.2	179935	72	17	0	0	0	72	297	stimuli\Videos_short_600ms_vertflip\34.repeated_punch_with_hand_short_vertflip_short_600ms.mp4	34.repeated_punch_with_hand_short_vertflip_short_600ms.mp4	124.32516596937784	124.93344363257891	0.6082776632010791	n/a	n/a	n/a	n/a
88.65869140625	0.2	181573	73	17	0	0	0	73	271	stimuli\Videos_short_600ms_vertflip\10.single_touch_with_knife_short_vertflip_short_600ms.mp4	10.single_touch_with_knife_short_vertflip_short_600ms.mp4	125.12554290659136	125.73340650775208	0.6078636011607159	n/a	n/a	n/a	n/a
89.45849609375	0.2	183211	74	17	0	0	0	74	69	stimuli\Videos_short_600ms\72.(short)stroke_with_finger_all_over_the_hand_short_short_600ms.mp4	72.(short)stroke_with_finger_all_over_the_hand_short_short_600ms.mp4	125.92510608873454	126.53339049657188	0.6082844078373455	n/a	n/a	n/a	n/a
90.2587890625	0.2	184850	75	17	0	0	0	75	197	stimuli\Videos_short_600ms_horvertflip\25.single_touch_with_stanley_knife_short_horvertflip_short_600ms.mp4	25.single_touch_with_stanley_knife_short_horvertflip_short_600ms.mp4	126.7251405157058	127.33337360565564	0.6082330899498629	n/a	n/a	n/a	n/a
91.05859375	0.2	186488	76	17	0	0	0	76	308	stimuli\Videos_short_600ms_vertflip\44.pushing_top_to_bottom_with_finger_short_vertflip_short_600ms.mp4	44.pushing_top_to_bottom_with_finger_short_vertflip_short_600ms.mp4	127.52537522906096	128.13335143632867	0.6079762072677113	n/a	n/a	n/a	n/a
91.8583984375	0.2	188126	77	17	0	0	0	77	85	stimuli\Videos_short_600ms\87.single_stroke_top_to_bottom_with_plastic_brush_short_short_600ms.mp4	87.single_stroke_top_to_bottom_with_plastic_brush_short_short_600ms.mp4	128.32507154446648	128.9333453954805	0.6082738510140189	n/a	n/a	n/a	n/a
92.65869140625	0.2	189765	78	17	0	0	0	78	187	stimuli\Videos_short_600ms_horvertflip\16.repeated_touch_with_plastic_brush_short_horvertflip_short_600ms.mp4	16.repeated_touch_with_plastic_brush_short_horvertflip_short_600ms.mp4	129.12502268983735	129.73333348973028	0.6083107998929336	n/a	n/a	n/a	n/a
93.45849609375	0.2	191403	79	17	0	0	0	79	261	stimuli\Videos_short_600ms_horvertflip\83.single_stroke_top_to_bottom_with_cotton_bud_short_horvertflip_short_600ms.mp4	83.single_stroke_top_to_bottom_with_cotton_bud_short_horvertflip_short_600ms.mp4	129.92505183839785	130.5333371259694	0.6082852875715616	n/a	n/a	n/a	n/a
94.2587890625	0.2	193042	80	17	0	0	1	80	382	stimuli\Targets_short_600ms_vertflip\hand-pinch_short_horvertflip_short_600ms.mp4	hand-pinch_short_horvertflip_short_600ms.mp4	130.72504785026467	131.3333146633977	0.6082668131330138	n/a	n/a	n/a	n/a
95.05859375	0.2	194680	81	17	0	0	0	81	263	stimuli\Videos_short_600ms_horvertflip\85.touch_top_to_bottom_with_fabric_short_horvertflip_short_600ms.mp4	85.touch_top_to_bottom_with_fabric_short_horvertflip_short_600ms.mp4	131.5250418094165	132.13330422387298	0.6082624144564761	n/a	n/a	n/a	n/a
95.8583984375	0.2	196318	82	17	0	0	0	82	224	stimuli\Videos_short_600ms_horvertflip\5.repeated_tap_with_finger_moving_from_top_to_bottom_short_horvertflip_short_600ms.mp4	5.repeated_tap_with_finger_moving_from_top_to_bottom_short_horvertflip_short_600ms.mp4	132.32501582790246	132.9332814680547	0.6082656401522399	n/a	n/a	n/a	n/a
96.65869140625	0.2	197957	83	17	0	0	0	83	5	stimuli\Videos_short_600ms\14.repeated_touch_with_pencil_short_short_600ms.mp4	14.repeated_touch_with_pencil_short_short_600ms.mp4	133.1250133059948	133.73326164468745	0.6082483386926469	n/a	n/a	n/a	n/a
97.45849609375	0.2	199595	84	17	0	0	0	84	47	stimuli\Videos_short_600ms\52.touch_top_to_bottom_with_hammer_short_short_600ms.mp4	52.touch_top_to_bottom_with_hammer_short_short_600ms.mp4	133.92492486328229	134.533243874037	0.6083190107547125	n/a	n/a	n/a	n/a
98.25830078125	0.2	201233	85	17	0	0	0	85	209	stimuli\Videos_short_600ms_horvertflip\36.single_slap_with_full_hand_short_horvertflip_short_600ms.mp4	36.single_slap_with_full_hand_short_horvertflip_short_600ms.mp4	134.72488803170015	135.3332272763655	0.6083392446653306	n/a	n/a	n/a	n/a
99.05859375	0.2	202872	86	17	0	0	0	86	250	stimuli\Videos_short_600ms_horvertflip\73.single_stroke_with_flat_hand_short_horvertflip_short_600ms.mp4	73.single_stroke_with_flat_hand_short_horvertflip_short_600ms.mp4	135.52488081787124	136.133210678694	0.6083298608227778	n/a	n/a	n/a	n/a
99.8583984375	0.2	204510	87	17	0	0	0	87	131	stimuli\Videos_short_600ms_horflip\47.(long)scratching_with_finger_nails_short_horflip_short_600ms.mp4	47.(long)scratching_with_finger_nails_short_horflip_short_600ms.mp4	136.32491231239328	136.9331952540033	0.608282941610014	n/a	n/a	n/a	n/a
100.658203125	0.2	206148	88	17	0	0	0	88	228	stimuli\Videos_short_600ms_horvertflip\53.touch_top_to_bottom_with_knife_short_horvertflip_short_600ms.mp4	53.touch_top_to_bottom_with_knife_short_horvertflip_short_600ms.mp4	137.1251188742208	137.7331757238826	0.6080568496618071	n/a	n/a	n/a	n/a
101.45849609375	0.2	207787	89	17	0	0	0	89	208	stimuli\Videos_short_600ms_horvertflip\35.single_punch_with_hand_short_horvertflip_short_600ms.mp4	35.single_punch_with_hand_short_horvertflip_short_600ms.mp4	137.92481196392873	138.5331597127024	0.6083477487736673	n/a	n/a	n/a	n/a
102.25830078125	0.2	209425	90	17	0	0	0	90	158	stimuli\Videos_short_600ms_horflip\71.single_stroke_with_finger_top_to_bottom_short_horflip_short_600ms.mp4	71.single_stroke_with_finger_top_to_bottom_short_horflip_short_600ms.mp4	138.72484052599975	139.33314223529487	0.6083017092951195	n/a	n/a	n/a	n/a
103.05810546875	0.2	211063	91	17	0	0	0	91	345	stimuli\Videos_short_600ms_vertflip\78.single_stroke_top_to_bottom_with_soft_brush_short_vertflip_short_600ms.mp4	78.single_stroke_top_to_bottom_with_soft_brush_short_vertflip_short_600ms.mp4	139.52482744726876	140.13312211868288	0.6082946714141144	n/a	n/a	n/a	n/a
103.8583984375	0.2	212702	92	17	0	0	0	92	66	stimuli\Videos_short_600ms\7.repeated_touch_with_hairbrush_short_short_600ms.mp4	7.repeated_touch_with_hairbrush_short_short_600ms.mp4	140.3248457457612	140.93310610750268	0.6082603617414861	n/a	n/a	n/a	n/a
104.658203125	0.2	214340	93	17	0	0	0	93	86	stimuli\Videos_short_600ms\88.repeated_stroke_with_plastic_brush_short_short_600ms.mp4	88.repeated_stroke_with_plastic_brush_short_short_600ms.mp4	141.1258643031888	141.73306780969688	0.6072035065080854	n/a	n/a	n/a	n/a
105.4580078125	0.2	215978	94	17	0	0	0	94	300	stimuli\Videos_short_600ms_vertflip\37.single_stab_with_nail_file_short_vertflip_short_600ms.mp4	37.single_stab_with_nail_file_short_vertflip_short_600ms.mp4	141.9254025595019	142.53305209176142	0.6076495322595292	n/a	n/a	n/a	n/a
106.25830078125	0.2	217617	95	17	0	0	0	95	172	stimuli\Videos_short_600ms_horflip\84.single_touch_with_cotton_bud_short_horflip_short_600ms.mp4	84.single_touch_with_cotton_bud_short_horflip_short_600ms.mp4	142.7253199816896	143.33302053859188	0.6077005569022731	n/a	n/a	n/a	n/a
107.05810546875	0.2	219255	96	17	0	0	0	96	67	stimuli\Videos_short_600ms\70.(long)stroke_with_finger_all_over_the_hand_short_short_600ms.mp4	70.(long)stroke_with_finger_all_over_the_hand_short_short_600ms.mp4	143.5247297966598	144.13302182886946	0.608292032209647	n/a	n/a	n/a	n/a
107.85791015625	0.2	220893	97	17	0	0	0	97	168	stimuli\Videos_short_600ms_horflip\80.stroke_with_sharp_stick_all_over_the_hand_short_horflip_short_600ms.mp4	80.stroke_with_sharp_stick_all_over_the_hand_short_horflip_short_600ms.mp4	144.3247401775352	144.93302605159806	0.6082858740628581	n/a	n/a	n/a	n/a
108.658203125	0.2	222532	98	17	0	0	0	98	292	stimuli\Videos_short_600ms_vertflip\3.single_push_with_finger_short_vertflip_short_600ms.mp4	3.single_push_with_finger_short_vertflip_short_600ms.mp4	145.12468487151637	145.73301414584785	0.6083292743314814	9.0	9.0	1.5578016824638323	1.0
143.04052734375	0.2	292947	99	17	1	0	0	0	249	stimuli\Videos_short_600ms_horvertflip\72.(short)stroke_with_finger_all_over_the_hand_short_horvertflip_short_600ms.mp4	72.(short)stroke_with_finger_all_over_the_hand_short_horvertflip_short_600ms.mp4	179.50729784344549	180.11560043247664	0.6083025890311546	n/a	n/a	n/a	n/a
143.84033203125	0.2	294585	100	17	1	0	0	1	213	stimuli\Videos_short_600ms_horvertflip\4.repeated_tap_with_finger_slow_short_horvertflip_short_600ms.mp4	4.repeated_tap_with_finger_slow_short_horvertflip_short_600ms.mp4	180.30727479438428	180.91558500778592	0.6083102134016372	n/a	n/a	n/a	n/a
144.64013671875	0.2	296223	101	17	1	0	0	2	273	stimuli\Videos_short_600ms_vertflip\12.repeated_touch_with_nail_file_short_vertflip_short_600ms.mp4	12.repeated_touch_with_nail_file_short_vertflip_short_600ms.mp4	181.10728986718095	181.7155909899866	0.6083011228056421	n/a	n/a	n/a	n/a
145.4404296875	0.2	297862	102	17	1	0	0	3	123	stimuli\Videos_short_600ms_horflip\4.repeated_tap_with_finger_slow_short_horflip_short_600ms.mp4	4.repeated_tap_with_finger_slow_short_horflip_short_600ms.mp4	181.9072204853965	182.5155611962873	0.6083407108908432	n/a	n/a	n/a	n/a
146.240234375	0.2	299500	103	17	1	0	0	4	286	stimuli\Videos_short_600ms_vertflip\24.single_stroke_top_to_bottom_with_a_spoon_short_vertflip_short_600ms.mp4	24.single_stroke_top_to_bottom_with_a_spoon_short_vertflip_short_600ms.mp4	182.70728716932535	183.31555662166463	0.6082694523393002	n/a	n/a	n/a	n/a
147.0400390625	0.2	301138	104	17	1	0	1	5	381	stimuli\Targets_short_600ms_vertflip\finger-tap_short_horvertflip_short_600ms.mp4	finger-tap_short_horvertflip_short_600ms.mp4	183.50721074965983	184.11553005366113	0.6083193040012702	n/a	n/a	n/a	n/a
147.84033203125	0.2	302777	105	17	1	0	0	6	276	stimuli\Videos_short_600ms_vertflip\15.single_stroke_top_to_bottom_with_a_plastic_whisk_short_vertflip_short_600ms.mp4	15.single_stroke_top_to_bottom_with_a_plastic_whisk_short_vertflip_short_600ms.mp4	184.30719180602864	184.9155125762536	0.6083207702249638	n/a	n/a	n/a	n/a
148.64013671875	0.2	304415	106	17	1	0	0	7	4	stimuli\Videos_short_600ms\13.single_touch_with_pen_short_short_600ms.mp4	13.single_touch_with_pen_short_short_600ms.mp4	185.1071755016019	185.71549597858393	0.6083204769820441	n/a	n/a	n/a	n/a
149.43994140625	0.2	306053	107	17	1	0	1	8	371	stimuli\Targets_short_600ms_horflip\hand-stroke_short_horflip_short_600ms.mp4	hand-stroke_short_horflip_short_600ms.mp4	185.90733983613973	186.51548172687217	0.6081418907324405	n/a	n/a	n/a	n/a
150.240234375	0.2	307692	108	17	1	0	0	9	266	stimuli\Videos_short_600ms_horvertflip\88.repeated_stroke_with_plastic_brush_short_horvertflip_short_600ms.mp4	88.repeated_stroke_with_plastic_brush_short_horvertflip_short_600ms.mp4	186.70728159766983	187.31546131701543	0.6081797193455714	n/a	n/a	n/a	n/a
151.0400390625	0.2	309330	109	17	1	0	0	10	338	stimuli\Videos_short_600ms_vertflip\71.single_stroke_with_finger_top_to_bottom_short_vertflip_short_600ms.mp4	71.single_stroke_with_finger_top_to_bottom_short_vertflip_short_600ms.mp4	187.5071154450125	188.1154423733842	0.6083269283717527	n/a	n/a	n/a	n/a
151.83984375	0.2	310968	110	17	1	0	1	11	367	stimuli\Targets_short_600ms_horflip\chopstick-silver-tap_short_horflip_short_600ms.mp4	chopstick-silver-tap_short_horflip_short_600ms.mp4	188.3070941554197	188.9154269486935	0.608332793273803	n/a	n/a	n/a	n/a
152.64013671875	0.2	312607	111	17	1	0	0	12	189	stimuli\Videos_short_600ms_horvertflip\18.single_stroke_from_top_to_bottom_with_rolling_pin_short_horvertflip_short_600ms.mp4	18.single_stroke_from_top_to_bottom_with_rolling_pin_short_horvertflip_short_600ms.mp4	189.10706964013295	189.71540947128776	0.608339831154808	n/a	n/a	n/a	n/a
153.43994140625	0.2	314245	112	17	1	0	0	13	153	stimuli\Videos_short_600ms_horflip\67.single_touch_with_sponge_short_horflip_short_600ms.mp4	67.single_touch_with_sponge_short_horflip_short_600ms.mp4	189.9071178496215	190.51539609931208	0.6082782496905565	n/a	n/a	n/a	n/a
154.23974609375	0.2	315883	113	17	1	0	0	14	193	stimuli\Videos_short_600ms_horvertflip\21.repeated_touch_with_metal_chopstick_short_horvertflip_short_600ms.mp4	21.repeated_touch_with_metal_chopstick_short_horvertflip_short_600ms.mp4	190.707096266784	191.3153789151511	0.6082826483670942	n/a	n/a	n/a	n/a
155.0400390625	0.2	317522	114	17	1	0	0	15	310	stimuli\Videos_short_600ms_vertflip\46.scratching_top_to_bottom_with_finger_nails_short_vertflip_short_600ms.mp4	46.scratching_top_to_bottom_with_finger_nails_short_vertflip_short_600ms.mp4	191.5072172010514	192.11533064701325	0.6081134459618625	n/a	n/a	n/a	n/a
155.83984375	0.2	319160	115	17	1	0	0	16	102	stimuli\Videos_short_600ms_horflip\20.single_touch_with_screwdriver_short_horflip_short_600ms.mp4	20.single_touch_with_screwdriver_short_horflip_short_600ms.mp4	192.30703198746596	192.9153169817928	0.6082849943268229	n/a	n/a	n/a	n/a
156.6396484375	0.2	320798	116	17	1	0	0	17	121	stimuli\Videos_short_600ms_horflip\38.double_slap_with_pencil_short_horflip_short_600ms.mp4	38.double_slap_with_pencil_short_horflip_short_600ms.mp4	193.10704881973288	193.71528190968272	0.6082330899498629	n/a	n/a	n/a	n/a
157.43994140625	0.2	322437	117	17	1	0	0	18	346	stimuli\Videos_short_600ms_vertflip\79.long_with_soft_brush_all_over_the_hand_short_vertflip_short_600ms.mp4	79.long_with_soft_brush_all_over_the_hand_short_vertflip_short_600ms.mp4	193.90699116775068	194.51529023784133	0.6082990700906521	n/a	n/a	n/a	n/a
158.23974609375	0.2	324075	118	17	1	0	0	19	262	stimuli\Videos_short_600ms_horvertflip\84.single_touch_with_cotton_bud_short_horvertflip_short_600ms.mp4	84.single_touch_with_cotton_bud_short_horvertflip_short_600ms.mp4	194.7069496442491	195.31527451990587	0.6083248756567627	n/a	n/a	n/a	n/a
159.03955078125	0.2	325713	119	17	1	0	0	20	350	stimuli\Videos_short_600ms_vertflip\82.repeated_touch_with_cotton_bud_short_vertflip_short_600ms.mp4	82.repeated_touch_with_cotton_bud_short_vertflip_short_600ms.mp4	195.50695591969452	196.11525909521515	0.6083031755206321	n/a	n/a	n/a	n/a
159.83984375	0.2	327352	120	17	1	0	0	21	136	stimuli\Videos_short_600ms_horflip\51.repeated_touch_with_hammer_short_horflip_short_600ms.mp4	51.repeated_touch_with_hammer_short_horflip_short_600ms.mp4	196.30708183912793	196.91526976933528	0.6081879302073503	n/a	n/a	n/a	n/a
160.6396484375	0.2	328990	121	17	1	0	0	22	81	stimuli\Videos_short_600ms\83.single_stroke_top_to_bottom_with_cotton_bud_short_short_600ms.mp4	83.single_stroke_top_to_bottom_with_cotton_bud_short_short_600ms.mp4	197.1069919301881	197.7152440810678	0.6082521508797072	n/a	n/a	n/a	n/a
161.439453125	0.2	330628	122	17	1	0	0	23	259	stimuli\Videos_short_600ms_horvertflip\81.single_stroke_top_to_bottom_with_cotton_pad_short_horvertflip_short_600ms.mp4	81.single_stroke_top_to_bottom_with_cotton_pad_short_horvertflip_short_600ms.mp4	197.90697152033135	198.51523657399412	0.6082650536627625	n/a	n/a	n/a	n/a
162.23974609375	0.2	332267	123	17	1	0	0	24	285	stimuli\Videos_short_600ms_vertflip\23.single_push_with_a_spoon_short_vertflip_short_600ms.mp4	23.single_push_with_a_spoon_short_vertflip_short_600ms.mp4	198.70697867551095	199.3152076600309	0.6082289845198829	n/a	n/a	n/a	n/a
163.03955078125	0.2	333905	124	17	1	0	0	25	79	stimuli\Videos_short_600ms\81.single_stroke_top_to_bottom_with_cotton_pad_short_short_600ms.mp4	81.single_stroke_top_to_bottom_with_cotton_pad_short_short_600ms.mp4	199.50692982088185	200.1151937015657	0.6082638806838077	n/a	n/a	n/a	n/a
163.83984375	0.2	335544	125	17	1	0	0	26	15	stimuli\Videos_short_600ms\23.single_push_with_a_spoon_short_short_600ms.mp4	23.single_push_with_a_spoon_short_short_600ms.mp4	200.30690765155487	200.91517534442391	0.6082676928690489	n/a	n/a	n/a	n/a
164.6396484375	0.2	337182	126	17	1	0	1	27	379	stimuli\Targets_short_600ms_vertflip\chopstick-silver-tap_short_horvertflip_short_600ms.mp4	chopstick-silver-tap_short_horvertflip_short_600ms.mp4	201.1068813767979	201.71515698728217	0.6082756104842701	n/a	n/a	n/a	n/a
165.439453125	0.2	338820	127	17	1	0	0	28	333	stimuli\Videos_short_600ms_vertflip\67.single_touch_with_sponge_short_vertflip_short_600ms.mp4	67.single_touch_with_sponge_short_vertflip_short_600ms.mp4	201.90684014653925	202.51513892338517	0.6082987768459134	n/a	n/a	n/a	n/a
166.23974609375	0.2	340459	128	17	1	0	0	29	354	stimuli\Videos_short_600ms_vertflip\86.touch_top_to_bottom_with_hair_brush_short_vertflip_short_600ms.mp4	86.touch_top_to_bottom_with_hair_brush_short_vertflip_short_600ms.mp4	202.70683674489737	203.31512437843048	0.6082876335331093	n/a	n/a	n/a	n/a
167.03955078125	0.2	342097	129	17	1	0	0	30	358	stimuli\Videos_short_600ms_vertflip\9.single_touch_with_hammer_short_vertflip_short_600ms.mp4	9.single_touch_with_hammer_short_vertflip_short_600ms.mp4	203.50680548497257	204.11510690102477	0.6083014160521998	n/a	n/a	n/a	n/a
167.83935546875	0.2	343735	130	17	1	0	0	31	302	stimuli\Videos_short_600ms_vertflip\39.single_stab_with_scissors_short_vertflip_short_600ms.mp4	39.single_stab_with_scissors_short_vertflip_short_600ms.mp4	204.30678976703712	204.91508649116625	0.6082967241291044	n/a	n/a	n/a	n/a
168.6396484375	0.2	345374	131	17	1	0	0	32	204	stimuli\Videos_short_600ms_horvertflip\31.hand_grabbing_wrist_short_horvertflip_short_600ms.mp4	31.hand_grabbing_wrist_short_horvertflip_short_600ms.mp4	205.10678431267843	205.7150719462115	0.6082876335331093	n/a	n/a	n/a	n/a
169.439453125	0.2	347012	132	17	1	0	0	33	52	stimuli\Videos_short_600ms\57.single_touch_with_nail_file_short_short_600ms.mp4	57.single_touch_with_nail_file_short_short_600ms.mp4	205.90676067712593	206.51503012946523	0.6082694523393002	n/a	n/a	n/a	n/a
170.2392578125	0.2	348650	133	17	1	0	0	34	318	stimuli\Videos_short_600ms_vertflip\53.touch_top_to_bottom_with_knife_short_vertflip_short_600ms.mp4	53.touch_top_to_bottom_with_knife_short_vertflip_short_600ms.mp4	206.70671504819256	207.31504197656616	0.6083269283735717	n/a	n/a	n/a	n/a
171.03955078125	0.2	350289	134	17	1	0	0	35	180	stimuli\Videos_short_600ms_horvertflip\1.repeated_touch_with_finger_fast_short_horvertflip_short_600ms.mp4	1.repeated_touch_with_finger_fast_short_horvertflip_short_600ms.mp4	207.50667792336753	208.1149966408775	0.6083187175099738	n/a	n/a	n/a	n/a
171.83935546875	0.2	351927	135	17	1	0	0	36	246	stimuli\Videos_short_600ms_horvertflip\7.repeated_touch_with_hairbrush_short_horvertflip_short_600ms.mp4	7.repeated_touch_with_hairbrush_short_horvertflip_short_600ms.mp4	208.30671968146453	208.91497887022524	0.6082591887607123	n/a	n/a	n/a	n/a
172.63916015625	0.2	353565	136	17	1	0	0	37	207	stimuli\Videos_short_600ms_horvertflip\34.repeated_punch_with_hand_short_horvertflip_short_600ms.mp4	34.repeated_punch_with_hand_short_horvertflip_short_600ms.mp4	209.1067027905483	209.7149487832812	0.6082459927329182	n/a	n/a	n/a	n/a
173.439453125	0.2	355204	137	17	1	0	0	38	229	stimuli\Videos_short_600ms_horvertflip\54.repeated_touch_with_knife_short_horvertflip_short_600ms.mp4	54.repeated_touch_with_knife_short_horvertflip_short_600ms.mp4	209.90669821592564	210.51493511806075	0.6082369021351042	n/a	n/a	n/a	n/a
174.2392578125	0.2	356842	138	17	1	0	0	39	280	stimuli\Videos_short_600ms_vertflip\19.single_touch_with_rolling_pin_short_vertflip_short_600ms.mp4	19.single_touch_with_rolling_pin_short_vertflip_short_600ms.mp4	210.70669686699875	211.31493523535937	0.6082383683606167	n/a	n/a	n/a	n/a
175.0390625	0.2	358480	139	17	1	0	0	40	104	stimuli\Videos_short_600ms_horflip\22.single_touch_with_metal_chopstick_short_horflip_short_600ms.mp4	22.single_touch_with_metal_chopstick_short_horflip_short_600ms.mp4	211.50665592998664	212.11494942842185	0.6082934984351596	n/a	n/a	n/a	n/a
175.83935546875	0.2	360119	140	17	1	0	0	41	188	stimuli\Videos_short_600ms_horvertflip\17.repeated_touch_with_rolling_pin_short_horvertflip_short_600ms.mp4	17.repeated_touch_with_rolling_pin_short_horvertflip_short_600ms.mp4	212.30659769151495	212.91492110094805	0.6083234094330692	n/a	n/a	n/a	n/a
176.63916015625	0.2	361757	141	17	1	0	0	42	169	stimuli\Videos_short_600ms_horflip\81.single_stroke_top_to_bottom_with_cotton_pad_short_horflip_short_600ms.mp4	81.single_stroke_top_to_bottom_with_cotton_pad_short_horflip_short_600ms.mp4	213.10659341013707	213.7149083154618	0.6083149053247325	n/a	n/a	n/a	n/a
177.43896484375	0.2	363395	142	17	1	0	0	43	301	stimuli\Videos_short_600ms_vertflip\38.double_slap_with_pencil_short_vertflip_short_600ms.mp4	38.double_slap_with_pencil_short_vertflip_short_600ms.mp4	213.90662109247205	214.5148873191156	0.6082662266435364	n/a	n/a	n/a	n/a
178.2392578125	0.2	365034	143	17	1	0	0	44	143	stimuli\Videos_short_600ms_horflip\58.single_slap_with_pencil_short_horflip_short_600ms.mp4	58.single_slap_with_pencil_short_horflip_short_600ms.mp4	214.70660654751737	215.31486896197384	0.6082624144564761	n/a	n/a	n/a	n/a
179.0390625	0.2	366672	144	17	1	0	0	45	347	stimuli\Videos_short_600ms_vertflip\8.single_touch_with_hairbrush_short_vertflip_short_600ms.mp4	8.single_touch_with_hairbrush_short_vertflip_short_600ms.mp4	215.50657675381808	216.1148520710576	0.6082753172395314	n/a	n/a	n/a	n/a
179.8388671875	0.2	368310	145	17	1	0	0	46	257	stimuli\Videos_short_600ms_horvertflip\8.single_touch_with_hairbrush_short_horvertflip_short_600ms.mp4	8.single_touch_with_hairbrush_short_horvertflip_short_600ms.mp4	216.30653640329547	216.91483605987744	0.6082996565819485	n/a	n/a	n/a	n/a
180.63916015625	0.2	369949	146	17	1	0	0	47	237	stimuli\Videos_short_600ms_horvertflip\61.single_hit_with_rolling_pin_short_horvertflip_short_600ms.mp4	61.single_hit_with_rolling_pin_short_horvertflip_short_600ms.mp4	217.10655059635792	217.71482180816565	0.6082712118077325	n/a	n/a	n/a	n/a
181.43896484375	0.2	371587	147	17	1	0	0	48	37	stimuli\Videos_short_600ms\43.touch_top_to_bottom_with_sharp_wooden_stick_short_short_600ms.mp4	43.touch_top_to_bottom_with_sharp_wooden_stick_short_short_600ms.mp4	217.90689381038828	218.51480110506415	0.607907294675897	n/a	n/a	n/a	n/a
182.23876953125	0.2	373225	148	17	1	0	0	49	130	stimuli\Videos_short_600ms_horflip\46.scratching_top_to_bottom_with_finger_nails_short_horflip_short_600ms.mp4	46.scratching_top_to_bottom_with_finger_nails_short_horflip_short_600ms.mp4	218.70648426432308	219.31478480063925	0.6083005363161647	n/a	n/a	n/a	n/a
183.0390625	0.2	374864	149	17	1	0	0	50	72	stimuli\Videos_short_600ms\75.(long)stroke_with_fingers_all_over_the_hand_short_short_600ms.mp4	75.(long)stroke_with_fingers_all_over_the_hand_short_short_600ms.mp4	219.50644948545775	220.1147664434975	0.6083169580397225	n/a	n/a	n/a	n/a
183.8388671875	0.2	376502	150	17	1	0	0	51	1	stimuli\Videos_short_600ms\10.single_touch_with_knife_short_short_600ms.mp4	10.single_touch_with_knife_short_short_600ms.mp4	220.3064364067268	220.9147510188068	0.6083146120799938	n/a	n/a	n/a	n/a
184.63916015625	0.2	378141	151	17	1	0	1	52	378	stimuli\Targets_short_600ms_vertflip\brush-stroke_short_horvertflip_short_600ms.mp4	brush-stroke_short_horvertflip_short_600ms.mp4	221.10649194734287	221.71473764683105	0.6082456994881795	n/a	n/a	n/a	n/a
185.43896484375	0.2	379779	152	17	1	0	0	53	96	stimuli\Videos_short_600ms_horflip\15.single_stroke_top_to_bottom_with_a_plastic_whisk_short_horflip_short_600ms.mp4	15.single_stroke_top_to_bottom_with_a_plastic_whisk_short_horflip_short_600ms.mp4	221.90643458860723	222.5147184099551	0.6082838213478681	n/a	n/a	n/a	n/a
186.23876953125	0.2	381417	153	17	1	0	0	54	160	stimuli\Videos_short_600ms_horflip\73.single_stroke_with_flat_hand_short_horflip_short_600ms.mp4	73.single_stroke_with_flat_hand_short_horflip_short_600ms.mp4	222.70646725610823	223.31468421757927	0.6082169614710438	n/a	n/a	n/a	n/a
187.0390625	0.2	383056	154	17	1	0	0	55	305	stimuli\Videos_short_600ms_vertflip\41.injection_with_blunt_syringe_short_vertflip_short_600ms.mp4	41.injection_with_blunt_syringe_short_vertflip_short_600ms.mp4	223.50649933711975	224.1146717253396	0.6081723882198276	n/a	n/a	n/a	n/a
187.8388671875	0.2	384694	155	17	1	0	0	56	176	stimuli\Videos_short_600ms_horflip\88.repeated_stroke_with_plastic_brush_short_horflip_short_600ms.mp4	88.repeated_stroke_with_plastic_brush_short_horflip_short_600ms.mp4	224.30661147403407	224.91462375044648	0.6080122764124098	n/a	n/a	n/a	n/a
188.638671875	0.2	386332	156	17	1	0	0	57	145	stimuli\Videos_short_600ms_horflip\6.single_touch_with_flat_hand_short_horflip_short_600ms.mp4	6.single_touch_with_flat_hand_short_horflip_short_600ms.mp4	225.10634591129747	225.7146376502624	0.6082917389649083	n/a	n/a	n/a	n/a
189.43896484375	0.2	387971	157	17	1	0	0	58	78	stimuli\Videos_short_600ms\80.stroke_with_sharp_stick_all_over_the_hand_short_short_600ms.mp4	80.stroke_with_sharp_stick_all_over_the_hand_short_short_600ms.mp4	225.90631259865768	226.51461460119936	0.6083020025416772	n/a	n/a	n/a	n/a
190.23876953125	0.2	389609	158	17	1	0	0	59	226	stimuli\Videos_short_600ms_horvertflip\51.repeated_touch_with_hammer_short_horvertflip_short_600ms.mp4	51.repeated_touch_with_hammer_short_horvertflip_short_600ms.mp4	226.706362860863	227.31461882392796	0.6082559630649484	n/a	n/a	n/a	n/a
191.03857421875	0.2	391247	159	17	1	0	0	60	154	stimuli\Videos_short_600ms_horflip\68.stroke_top_to_bottom_with_shawl_short_horflip_short_600ms.mp4	68.stroke_top_to_bottom_with_shawl_short_horflip_short_600ms.mp4	227.506279989806	228.11456469088807	0.6082847010820842	n/a	n/a	n/a	n/a
191.8388671875	0.2	392886	160	17	1	0	0	61	150	stimuli\Videos_short_600ms_horflip\64.repeated_touch_with_screwdriver_short_horflip_short_600ms.mp4	64.repeated_touch_with_screwdriver_short_horflip_short_600ms.mp4	228.30628802472165	228.9145829893805	0.6082949646588531	n/a	n/a	n/a	n/a
192.638671875	0.2	394524	161	17	1	0	0	62	82	stimuli\Videos_short_600ms\84.single_touch_with_cotton_bud_short_short_600ms.mp4	84.single_touch_with_cotton_bud_short_short_600ms.mp4	229.1062931271863	229.71456404574928	0.6082709185629938	n/a	n/a	n/a	n/a
193.4384765625	0.2	396162	162	17	1	0	0	63	164	stimuli\Videos_short_600ms_horflip\77.tapping_with_all_fingers_short_horflip_short_600ms.mp4	77.tapping_with_all_fingers_short_horflip_short_600ms.mp4	229.9062445658019	230.5145465683436	0.6083020025416772	n/a	n/a	n/a	n/a
194.23876953125	0.2	397801	163	17	1	0	0	64	2	stimuli\Videos_short_600ms\11.single_touch_with_lighter_short_short_600ms.mp4	11.single_touch_with_lighter_short_short_600ms.mp4	230.70620685448557	231.31453202338707	0.6083251689015015	n/a	n/a	n/a	n/a
195.03857421875	0.2	399439	164	17	1	0	1	65	372	stimuli\Targets_short_600ms_horvertflip\brush-stroke_short_vertflip_short_600ms.mp4	brush-stroke_short_vertflip_short_600ms.mp4	231.50619260277563	232.1145154257174	0.6083228229417728	n/a	n/a	n/a	n/a
195.83837890625	0.2	401077	165	17	1	0	0	66	73	stimuli\Videos_short_600ms\76.tickle_with_fingers_from_top_to_bottom_short_short_600ms.mp4	76.tickle_with_fingers_from_top_to_bottom_short_short_600ms.mp4	232.30620269040628	232.91449413612463	0.6082914457183506	n/a	n/a	n/a	n/a
196.638671875	0.2	402716	166	17	1	0	0	67	34	stimuli\Videos_short_600ms\40.repeated_push_with_finger_short_short_600ms.mp4	40.repeated_push_with_finger_short_short_600ms.mp4	233.10616996425597	233.7144787114339	0.6083087471779436	n/a	n/a	n/a	n/a
197.4384765625	0.2	404354	167	17	1	0	0	68	244	stimuli\Videos_short_600ms_horvertflip\68.stroke_top_to_bottom_with_shawl_short_horvertflip_short_600ms.mp4	68.stroke_top_to_bottom_with_shawl_short_horvertflip_short_600ms.mp4	233.90614955439924	234.5144612340282	0.6083116796289687	n/a	n/a	n/a	n/a
198.23828125	0.2	405992	168	17	1	0	0	69	54	stimuli\Videos_short_600ms\59.single_push_with_long_side_pencil_short_short_600ms.mp4	59.single_push_with_long_side_pencil_short_short_600ms.mp4	234.70615055143207	235.3144452228462	0.6082946714141144	n/a	n/a	n/a	n/a
199.03857421875	0.2	407631	169	17	1	0	0	70	225	stimuli\Videos_short_600ms_horvertflip\50.single_(long)hard_push_with_thumb_short_horvertflip_short_600ms.mp4	50.single_(long)hard_push_with_thumb_short_horvertflip_short_600ms.mp4	235.50612750236905	236.11443038464677	0.6083028822777123	n/a	n/a	n/a	n/a
199.83837890625	0.2	409269	170	17	1	0	0	71	274	stimuli\Videos_short_600ms_vertflip\13.single_touch_with_pen_short_vertflip_short_600ms.mp4	13.single_touch_with_pen_short_vertflip_short_600ms.mp4	236.30610240059104	236.9144132004858	0.6083107998947526	n/a	n/a	n/a	n/a
200.63818359375	0.2	410907	171	17	1	0	0	72	222	stimuli\Videos_short_600ms_horvertflip\48.single_slap_with_hand_short_horvertflip_short_600ms.mp4	48.single_slap_with_hand_short_horvertflip_short_600ms.mp4	237.10608228398087	237.71437519592473	0.6082929119438631	n/a	n/a	n/a	n/a
201.4384765625	0.2	412546	172	17	1	0	1	73	377	stimuli\Targets_short_600ms_horvertflip\hand-stroke_short_vertflip_short_600ms.mp4	hand-stroke_short_vertflip_short_600ms.mp4	237.90606392683912	238.5143541995767	0.6082902727375767	n/a	n/a	n/a	n/a
202.23828125	0.2	414184	173	17	1	0	0	74	25	stimuli\Videos_short_600ms\32.single_(long)pinch_with_fingers_short_short_600ms.mp4	32.single_(long)pinch_with_fingers_short_short_600ms.mp4	238.70603911830585	239.31434053435623	0.6083014160503808	n/a	n/a	n/a	n/a
203.0380859375	0.2	415822	174	17	1	0	0	75	192	stimuli\Videos_short_600ms_horvertflip\20.single_touch_with_screwdriver_short_horvertflip_short_600ms.mp4	20.single_touch_with_screwdriver_short_horvertflip_short_600ms.mp4	239.5060805831581	240.11431895151873	0.6082383683606167	n/a	n/a	n/a	n/a
203.83837890625	0.2	417461	175	17	1	0	0	76	327	stimuli\Videos_short_600ms_vertflip\61.single_hit_with_rolling_pin_short_vertflip_short_600ms.mp4	61.single_hit_with_rolling_pin_short_vertflip_short_600ms.mp4	240.30630943161125	240.91431437689607	0.608004945284847	n/a	n/a	n/a	n/a
204.63818359375	0.2	419099	176	17	1	0	0	77	245	stimuli\Videos_short_600ms_horvertflip\69.stroke_with_soft_sock_short_horvertflip_short_600ms.mp4	69.stroke_with_soft_sock_short_horvertflip_short_600ms.mp4	241.1066373968988	241.7142916210796	0.6076542241808056	n/a	n/a	n/a	n/a
205.4384765625	0.2	420738	177	17	1	0	0	78	100	stimuli\Videos_short_600ms_horflip\19.single_touch_with_rolling_pin_short_horflip_short_600ms.mp4	19.single_touch_with_rolling_pin_short_horflip_short_600ms.mp4	241.90621993321656	242.51429408433796	0.6080741511214001	n/a	n/a	n/a	n/a
206.23828125	0.2	422376	178	17	1	0	0	79	211	stimuli\Videos_short_600ms_horvertflip\38.double_slap_with_pencil_short_horvertflip_short_600ms.mp4	38.double_slap_with_pencil_short_horvertflip_short_600ms.mp4	242.70658338115572	243.31429801382183	0.6077146326661023	n/a	n/a	n/a	n/a
207.0380859375	0.2	424014	179	17	1	0	0	80	290	stimuli\Videos_short_600ms_vertflip\28.single_injection_with_sharp_needle_short_vertflip_short_600ms.mp4	28.single_injection_with_sharp_needle_short_vertflip_short_600ms.mp4	243.50591695240837	244.114259716016	0.6083427636076522	n/a	n/a	n/a	n/a
207.83837890625	0.2	425653	180	17	1	0	0	81	344	stimuli\Videos_short_600ms_vertflip\77.tapping_with_all_fingers_short_vertflip_short_600ms.mp4	77.tapping_with_all_fingers_short_vertflip_short_600ms.mp4	244.30592645354955	244.9142442913253	0.6083178377757577	n/a	n/a	n/a	n/a
208.63818359375	0.2	427291	181	17	1	0	0	82	108	stimuli\Videos_short_600ms_horflip\26.single_touch_with_a_blunt_syringe_short_horflip_short_600ms.mp4	26.single_touch_with_a_blunt_syringe_short_horflip_short_600ms.mp4	245.10593360872917	245.71420716649845	0.6082735577692802	n/a	n/a	n/a	n/a
209.43798828125	0.2	428929	182	17	1	0	0	83	116	stimuli\Videos_short_600ms_horflip\33.scratch_top_to_bottom_with_scissors_short_horflip_short_600ms.mp4	33.scratch_top_to_bottom_with_scissors_short_horflip_short_600ms.mp4	245.90592140973425	246.51420757704184	0.6082861673075968	n/a	n/a	n/a	n/a
210.23828125	0.2	430568	183	17	1	0	0	84	268	stimuli\Videos_short_600ms_horvertflip\9.single_touch_with_hammer_short_horvertflip_short_600ms.mp4	9.single_touch_with_hammer_short_horvertflip_short_600ms.mp4	246.705902466103	247.3141900996361	0.6082876335331093	n/a	n/a	n/a	n/a
211.0380859375	0.2	432206	184	17	1	0	0	85	320	stimuli\Videos_short_600ms_vertflip\55.touch_top_to_bottom_with_nail_file_short_vertflip_short_600ms.mp4	55.touch_top_to_bottom_with_nail_file_short_vertflip_short_600ms.mp4	247.5058788305505	248.1141740884541	0.6082952579035918	n/a	n/a	n/a	n/a
211.837890625	0.2	433844	185	17	1	0	0	86	114	stimuli\Videos_short_600ms_horflip\31.hand_grabbing_wrist_short_horflip_short_600ms.mp4	31.hand_grabbing_wrist_short_horflip_short_600ms.mp4	248.30588334652384	248.9141580772739	0.608274730750054	n/a	n/a	n/a	n/a
212.63818359375	0.2	435483	186	17	1	0	0	87	236	stimuli\Videos_short_600ms_horvertflip\60.single_push_with_tip_of_pencil_short_horvertflip_short_600ms.mp4	60.single_push_with_tip_of_pencil_short_horvertflip_short_600ms.mp4	249.10587701243097	249.71413913364268	0.6082621212117374	n/a	n/a	n/a	n/a
213.43798828125	0.2	437121	187	17	1	0	0	88	30	stimuli\Videos_short_600ms\37.single_stab_with_nail_file_short_short_600ms.mp4	37.single_stab_with_nail_file_short_short_600ms.mp4	249.9058378348891	250.51412312246063	0.6082852875715616	n/a	n/a	n/a	n/a
214.23779296875	0.2	438759	188	17	1	0	0	89	127	stimuli\Videos_short_600ms_horflip\43.touch_top_to_bottom_with_sharp_wooden_stick_short_horflip_short_600ms.mp4	43.touch_top_to_bottom_with_sharp_wooden_stick_short_horflip_short_600ms.mp4	250.7063197538373	251.31410681803573	0.6077870641984191	n/a	n/a	n/a	n/a
215.0380859375	0.2	440398	189	17	1	0	0	90	317	stimuli\Videos_short_600ms_vertflip\52.touch_top_to_bottom_with_hammer_short_vertflip_short_600ms.mp4	52.touch_top_to_bottom_with_hammer_short_vertflip_short_600ms.mp4	251.50593220115297	252.11408699466847	0.6081547935154958	n/a	n/a	n/a	n/a
215.837890625	0.2	442036	190	17	1	0	0	91	20	stimuli\Videos_short_600ms\28.single_injection_with_sharp_needle_short_short_600ms.mp4	28.single_injection_with_sharp_needle_short_short_600ms.mp4	252.30647511507595	252.9140724497138	0.6075973346378305	n/a	n/a	n/a	n/a
216.6376953125	0.2	443674	191	17	1	0	0	92	200	stimuli\Videos_short_600ms_horvertflip\28.single_injection_with_sharp_needle_short_horvertflip_short_600ms.mp4	28.single_injection_with_sharp_needle_short_horvertflip_short_600ms.mp4	253.1064330050849	253.71400775985057	0.6075747547656647	n/a	n/a	n/a	n/a
217.4462890625	0.2	445330	192	17	1	0	0	93	128	stimuli\Videos_short_600ms_horflip\44.pushing_top_to_bottom_with_finger_short_horflip_short_600ms.mp4	44.pushing_top_to_bottom_with_finger_short_horflip_short_600ms.mp4	253.9140516293137	254.52237151980444	0.6083198904907476	n/a	n/a	n/a	n/a
218.24609375	0.2	446968	193	17	1	0	0	94	185	stimuli\Videos_short_600ms_horvertflip\14.repeated_touch_with_pencil_short_horvertflip_short_600ms.mp4	14.repeated_touch_with_pencil_short_horvertflip_short_600ms.mp4	254.71395966765888	255.3223420193499	0.6083823516910343	n/a	n/a	n/a	n/a
219.0458984375	0.2	448606	194	17	1	0	0	95	293	stimuli\Videos_short_600ms_vertflip\30.finger_pulling_back_another_finger_short_vertflip_short_600ms.mp4	30.finger_pulling_back_another_finger_short_vertflip_short_600ms.mp4	255.51397415396605	256.1223371514807	0.6083629975146323	n/a	n/a	n/a	n/a
219.84619140625	0.2	450245	195	17	1	0	0	96	101	stimuli\Videos_short_600ms_horflip\2.single_touch_with_finger_short_horflip_short_600ms.mp4	2.single_touch_with_finger_short_horflip_short_600ms.mp4	256.3139994903395	256.92231263619396	0.6083131458544813	7.0	6.0	1.559155888198802	0.0
254.77001953125	0.2	521769	196	17	2	0	0	0	287	stimuli\Videos_short_600ms_vertflip\25.single_touch_with_stanley_knife_short_vertflip_short_600ms.mp4	25.single_touch_with_stanley_knife_short_vertflip_short_600ms.mp4	291.23826103327156	291.84655981011747	0.6082987768459134	n/a	n/a	n/a	n/a
255.56982421875	0.2	523407	197	17	2	0	0	1	112	stimuli\Videos_short_600ms_horflip\3.single_push_with_finger_short_horflip_short_600ms.mp4	3.single_push_with_finger_short_horflip_short_600ms.mp4	292.03827288037246	292.6465455584075	0.608272678035064	n/a	n/a	n/a	n/a
256.3701171875	0.2	525046	198	17	2	0	0	2	105	stimuli\Videos_short_600ms_horflip\23.single_push_with_a_spoon_short_horflip_short_600ms.mp4	23.single_push_with_a_spoon_short_horflip_short_600ms.mp4	292.8382750503861	293.44653541212756	0.6082603617414861	n/a	n/a	n/a	n/a
257.169921875	0.2	526684	199	17	2	0	0	3	110	stimuli\Videos_short_600ms_horflip\28.single_injection_with_sharp_needle_short_horflip_short_600ms.mp4	28.single_injection_with_sharp_needle_short_horflip_short_600ms.mp4	293.63826109192087	294.24652702531785	0.6082659333969787	n/a	n/a	n/a	n/a
257.9697265625	0.2	528322	200	17	2	0	0	4	35	stimuli\Videos_short_600ms\41.injection_with_blunt_syringe_short_short_600ms.mp4	41.injection_with_blunt_syringe_short_short_600ms.mp4	294.43818379252116	295.04651101413765	0.6083272216164914	n/a	n/a	n/a	n/a
258.77001953125	0.2	529961	201	17	2	0	0	5	106	stimuli\Videos_short_600ms_horflip\24.single_stroke_top_to_bottom_with_a_spoon_short_horflip_short_600ms.mp4	24.single_stroke_top_to_bottom_with_a_spoon_short_horflip_short_600ms.mp4	295.2381736462412	295.84649207050643	0.6083184242652351	n/a	n/a	n/a	n/a
259.56982421875	0.2	531599	202	17	2	0	0	6	115	stimuli\Videos_short_600ms_horflip\32.single_(long)pinch_with_fingers_short_horflip_short_600ms.mp4	32.single_(long)pinch_with_fingers_short_horflip_short_600ms.mp4	296.0381347619441	296.64647342011995	0.6083386581758532	n/a	n/a	n/a	n/a
260.36962890625	0.2	533237	203	17	2	0	1	7	369	stimuli\Targets_short_600ms_horflip\finger-tap_short_horflip_short_600ms.mp4	finger-tap_short_horflip_short_600ms.mp4	296.8381603915641	297.44645887516526	0.6082984836011747	n/a	n/a	n/a	n/a
261.169921875	0.2	534876	204	17	2	0	0	8	184	stimuli\Videos_short_600ms_horvertflip\13.single_touch_with_pen_short_horvertflip_short_600ms.mp4	13.single_touch_with_pen_short_horvertflip_short_600ms.mp4	297.6381666670077	298.2464364125917	0.6082697455840389	n/a	n/a	n/a	n/a
261.9697265625	0.2	536514	205	17	2	0	0	9	10	stimuli\Videos_short_600ms\19.single_touch_with_rolling_pin_short_short_600ms.mp4	19.single_touch_with_rolling_pin_short_short_600ms.mp4	298.4385755679341	299.04642186763704	0.6078462997029419	n/a	n/a	n/a	n/a
262.76953125	0.2	538152	206	17	2	0	0	10	167	stimuli\Videos_short_600ms_horflip\8.single_touch_with_hairbrush_short_horflip_short_600ms.mp4	8.single_touch_with_hairbrush_short_horflip_short_600ms.mp4	299.23806543881074	299.8464055632103	0.6083401243995468	n/a	n/a	n/a	n/a
263.56982421875	0.2	539791	207	17	2	0	0	11	349	stimuli\Videos_short_600ms_vertflip\81.single_stroke_top_to_bottom_with_cotton_pad_short_vertflip_short_600ms.mp4	81.single_stroke_top_to_bottom_with_cotton_pad_short_vertflip_short_600ms.mp4	300.0381063171735	300.64638925878535	0.6082829416118329	n/a	n/a	n/a	n/a
264.36962890625	0.2	541429	208	17	2	0	0	12	84	stimuli\Videos_short_600ms\86.touch_top_to_bottom_with_hair_brush_short_short_600ms.mp4	86.touch_top_to_bottom_with_hair_brush_short_short_600ms.mp4	300.83811699129365	301.4463714881331	0.6082544968394359	n/a	n/a	n/a	n/a
265.16943359375	0.2	543067	209	17	2	0	0	13	89	stimuli\Videos_short_600ms\90.repeated_touch_with_sponge_short_short_600ms.mp4	90.repeated_touch_with_sponge_short_short_600ms.mp4	301.63802884182587	302.2463534242379	0.608324582412024	n/a	n/a	n/a	n/a
265.9697265625	0.2	544706	210	17	2	0	0	14	50	stimuli\Videos_short_600ms\55.touch_top_to_bottom_with_nail_file_short_short_600ms.mp4	55.touch_top_to_bottom_with_nail_file_short_short_600ms.mp4	302.43807118641416	303.04633917252613	0.6082679861119686	n/a	n/a	n/a	n/a
266.76953125	0.2	546344	211	17	2	0	0	15	174	stimuli\Videos_short_600ms_horflip\86.touch_top_to_bottom_with_hair_brush_short_horflip_short_600ms.mp4	86.touch_top_to_bottom_with_hair_brush_short_horflip_short_600ms.mp4	303.23822467088394	303.8463208153844	0.6080961445004505	n/a	n/a	n/a	n/a
267.5693359375	0.2	547982	212	17	2	0	0	16	46	stimuli\Videos_short_600ms\51.repeated_touch_with_hammer_short_short_600ms.mp4	51.repeated_touch_with_hammer_short_short_600ms.mp4	304.0380347653754	304.64625788499325	0.6082231196178327	n/a	n/a	n/a	n/a
268.36962890625	0.2	549621	213	17	2	0	1	17	376	stimuli\Targets_short_600ms_horvertflip\hand-pinch_short_vertflip_short_600ms.mp4	hand-pinch_short_vertflip_short_600ms.mp4	304.8380035054506	305.4462726645452	0.6082691590945615	n/a	n/a	n/a	n/a
269.16943359375	0.2	551259	214	17	2	0	0	18	27	stimuli\Videos_short_600ms\34.repeated_punch_with_hand_short_short_600ms.mp4	34.repeated_punch_with_hand_short_short_600ms.mp4	305.6379581697638	306.24624404382484	0.6082858740610391	n/a	n/a	n/a	n/a
269.96923828125	0.2	552897	215	17	2	0	0	19	215	stimuli\Videos_short_600ms_horvertflip\41.injection_with_blunt_syringe_short_horvertflip_short_600ms.mp4	41.injection_with_blunt_syringe_short_horvertflip_short_600ms.mp4	306.4380019805776	307.04623155158515	0.6082295710075414	n/a	n/a	n/a	n/a
270.76953125	0.2	554536	216	17	2	0	0	20	58	stimuli\Videos_short_600ms\62.touch_top_to_bottom_with_scissors_short_short_600ms.mp4	62.touch_top_to_bottom_with_scissors_short_short_600ms.mp4	307.23789447693343	307.846218472856	0.6083239959225466	n/a	n/a	n/a	n/a
271.5693359375	0.2	556174	217	17	2	0	0	21	341	stimuli\Videos_short_600ms_vertflip\74.fingers_walking_from_top_to_bottom_short_vertflip_short_600ms.mp4	74.fingers_walking_from_top_to_bottom_short_vertflip_short_600ms.mp4	308.03790075237885	308.64622034962485	0.6083195972460089	n/a	n/a	n/a	n/a
272.36962890625	0.2	557813	218	17	2	0	0	22	319	stimuli\Videos_short_600ms_vertflip\54.repeated_touch_with_knife_short_vertflip_short_600ms.mp4	54.repeated_touch_with_knife_short_vertflip_short_600ms.mp4	308.83822549196884	309.44621078983437	0.6079852978655254	n/a	n/a	n/a	n/a
273.16943359375	0.2	559451	219	17	2	0	0	23	118	stimuli\Videos_short_600ms_horflip\35.single_punch_with_hand_short_horflip_short_600ms.mp4	35.single_punch_with_hand_short_horflip_short_600ms.mp4	309.63857867633305	310.24618334209663	0.6076046657635743	n/a	n/a	n/a	n/a
273.96923828125	0.2	561089	220	17	2	0	1	24	361	stimuli\Targets_short_600ms\chopstick-silver-tap_short_short_600ms.mp4	chopstick-silver-tap_short_short_600ms.mp4	310.43785418506195	311.0461652781996	0.6083110931376723	n/a	n/a	n/a	n/a
274.76953125	0.2	562728	221	17	2	0	0	25	253	stimuli\Videos_short_600ms_horvertflip\76.tickle_with_fingers_from_top_to_bottom_short_horvertflip_short_600ms.mp4	76.tickle_with_fingers_from_top_to_bottom_short_horvertflip_short_600ms.mp4	311.23784931719274	311.84615073324494	0.6083014160521998	n/a	n/a	n/a	n/a
275.5693359375	0.2	564366	222	17	2	0	0	26	48	stimuli\Videos_short_600ms\53.touch_top_to_bottom_with_knife_short_short_600ms.mp4	53.touch_top_to_bottom_with_knife_short_short_600ms.mp4	312.0378828644298	312.64613208285846	0.6082492184286821	n/a	n/a	n/a	n/a
276.369140625	0.2	566004	223	17	2	0	0	27	332	stimuli\Videos_short_600ms_vertflip\66.stroke_top_to_bottom_with_sponge_short_vertflip_short_600ms.mp4	66.stroke_top_to_bottom_with_sponge_short_vertflip_short_600ms.mp4	312.8378120164198	313.4461143122062	0.6083022957864159	n/a	n/a	n/a	n/a
277.16943359375	0.2	567643	224	17	2	0	0	28	195	stimuli\Videos_short_600ms_horvertflip\23.single_push_with_a_spoon_short_horvertflip_short_600ms.mp4	23.single_push_with_a_spoon_short_horvertflip_short_600ms.mp4	313.63783354060797	314.2460988875155	0.6082653469075012	n/a	n/a	n/a	n/a
277.96923828125	0.2	569281	225	17	2	0	0	29	62	stimuli\Videos_short_600ms\66.stroke_top_to_bottom_with_sponge_short_short_600ms.mp4	66.stroke_top_to_bottom_with_sponge_short_short_600ms.mp4	314.4378286727406	315.0460790641482	0.6082503914076369	n/a	n/a	n/a	n/a
278.76904296875	0.2	570919	226	17	2	0	0	30	29	stimuli\Videos_short_600ms\36.single_slap_with_full_hand_short_short_600ms.mp4	36.single_slap_with_full_hand_short_short_600ms.mp4	315.23772204883244	315.846063052968	0.6083410041355819	n/a	n/a	n/a	n/a
279.5693359375	0.2	572558	227	17	2	0	0	31	42	stimuli\Videos_short_600ms\48.single_slap_with_hand_short_short_600ms.mp4	48.single_slap_with_hand_short_short_600ms.mp4	316.0377391743441	316.6460476282773	0.6083084539332049	n/a	n/a	n/a	n/a
280.369140625	0.2	574196	228	17	2	0	0	32	179	stimuli\Videos_short_600ms_horflip\90.repeated_touch_with_sponge_short_horflip_short_600ms.mp4	90.repeated_touch_with_sponge_short_horflip_short_600ms.mp4	316.8377038089893	317.44603132385237	0.6083275148630491	n/a	n/a	n/a	n/a
281.1689453125	0.2	575834	229	17	2	0	0	33	126	stimuli\Videos_short_600ms_horflip\42.single_slap_with_plastic_whisk_short_horflip_short_600ms.mp4	42.single_slap_with_plastic_whisk_short_horflip_short_600ms.mp4	317.6378147729247	318.24601179372985	0.6081970208051644	n/a	n/a	n/a	n/a
281.96923828125	0.2	577473	230	17	2	0	0	34	12	stimuli\Videos_short_600ms\20.single_touch_with_screwdriver_short_short_600ms.mp4	20.single_touch_with_screwdriver_short_short_600ms.mp4	318.43766240278455	319.04599226360733	0.6083298608227778	n/a	n/a	n/a	n/a
282.76904296875	0.2	579111	231	17	2	0	0	35	24	stimuli\Videos_short_600ms\31.hand_grabbing_wrist_short_short_600ms.mp4	31.hand_grabbing_wrist_short_short_600ms.mp4	319.2376724904152	319.8459545522928	0.6082820618776168	n/a	n/a	n/a	n/a
283.56884765625	0.2	580749	232	17	2	0	0	36	203	stimuli\Videos_short_600ms_horvertflip\30.finger_pulling_back_another_finger_short_horvertflip_short_600ms.mp4	30.finger_pulling_back_another_finger_short_horvertflip_short_600ms.mp4	320.03768111182035	320.64593883435555	0.6082577225351997	n/a	n/a	n/a	n/a
284.369140625	0.2	582388	233	17	2	0	0	37	99	stimuli\Videos_short_600ms_horflip\18.single_stroke_from_top_to_bottom_with_rolling_pin_short_horflip_short_600ms.mp4	18.single_stroke_from_top_to_bottom_with_rolling_pin_short_horflip_short_600ms.mp4	320.83767008580617	321.4459198907243	0.6082498049181595	n/a	n/a	n/a	n/a
285.1689453125	0.2	584026	234	17	2	0	0	38	161	stimuli\Videos_short_600ms_horflip\74.fingers_walking_from_top_to_bottom_short_horflip_short_600ms.mp4	74.fingers_walking_from_top_to_bottom_short_horflip_short_600ms.mp4	321.6376687368793	322.24590124033784	0.6082325034585665	n/a	n/a	n/a	n/a
285.96875	0.2	585664	235	17	2	0	0	39	269	stimuli\Videos_short_600ms_horvertflip\90.repeated_touch_with_sponge_short_horvertflip_short_600ms.mp4	90.repeated_touch_with_sponge_short_horvertflip_short_600ms.mp4	322.43773864650393	323.0458896278342	0.6081509813302546	n/a	n/a	n/a	n/a
286.76904296875	0.2	587303	236	17	2	0	0	40	359	stimuli\Videos_short_600ms_vertflip\90.repeated_touch_with_sponge_short_vertflip_short_600ms.mp4	90.repeated_touch_with_sponge_short_vertflip_short_600ms.mp4	323.2376085629912	323.84589355731805	0.6082849943268229	n/a	n/a	n/a	n/a
287.56884765625	0.2	588941	237	17	2	0	0	41	355	stimuli\Videos_short_600ms_vertflip\87.single_stroke_top_to_bottom_with_plastic_brush_short_vertflip_short_600ms.mp4	87.single_stroke_top_to_bottom_with_plastic_brush_short_vertflip_short_600ms.mp4	324.0377550095782	324.64588663673385	0.6081316271556716	n/a	n/a	n/a	n/a
288.36865234375	0.2	590579	238	17	2	0	0	42	132	stimuli\Videos_short_600ms_horflip\48.single_slap_with_hand_short_horflip_short_600ms.mp4	48.single_slap_with_hand_short_horflip_short_600ms.mp4	324.8375653973162	325.44585801601534	0.6082926186991244	n/a	n/a	n/a	n/a
289.1689453125	0.2	592218	239	17	2	0	0	43	265	stimuli\Videos_short_600ms_horvertflip\87.single_stroke_top_to_bottom_with_plastic_brush_short_horvertflip_short_600ms.mp4	87.single_stroke_top_to_bottom_with_plastic_brush_short_horvertflip_short_600ms.mp4	325.63752182109783	326.2458431778141	0.6083213567162602	n/a	n/a	n/a	n/a
289.96875	0.2	593856	240	17	2	0	0	44	41	stimuli\Videos_short_600ms\47.(long)scratching_with_finger_nails_short_short_600ms.mp4	47.(long)scratching_with_finger_nails_short_short_600ms.mp4	326.43752751005195	327.04582540716365	0.6082978971116972	n/a	n/a	n/a	n/a
290.7685546875	0.2	595494	241	17	2	0	0	45	55	stimuli\Videos_short_600ms\6.single_touch_with_flat_hand_short_short_600ms.mp4	6.single_touch_with_flat_hand_short_short_600ms.mp4	327.2375651627208	327.8458055837964	0.6082404210756067	n/a	n/a	n/a	n/a
291.56884765625	0.2	597133	242	17	2	0	0	46	196	stimuli\Videos_short_600ms_horvertflip\24.single_stroke_top_to_bottom_with_a_spoon_short_horvertflip_short_600ms.mp4	24.single_stroke_top_to_bottom_with_a_spoon_short_horvertflip_short_600ms.mp4	328.0375124959046	328.6457875198994	0.6082750239947927	n/a	n/a	n/a	n/a
292.36865234375	0.2	598771	243	17	2	0	0	47	40	stimuli\Videos_short_600ms\46.scratching_top_to_bottom_with_finger_nails_short_short_600ms.mp4	46.scratching_top_to_bottom_with_finger_nails_short_short_600ms.mp4	328.83745161822844	329.4457738546789	0.6083222364504763	n/a	n/a	n/a	n/a
293.1689453125	0.2	600410	244	17	2	0	0	48	119	stimuli\Videos_short_600ms_horflip\36.single_slap_with_full_hand_short_horflip_short_600ms.mp4	36.single_slap_with_full_hand_short_horflip_short_600ms.mp4	329.6374200650589	330.2457613624392	0.6083412973803206	n/a	n/a	n/a	n/a
293.96875	0.2	602048	245	17	2	0	0	49	288	stimuli\Videos_short_600ms_vertflip\26.single_touch_with_a_blunt_syringe_short_vertflip_short_600ms.mp4	26.single_touch_with_a_blunt_syringe_short_vertflip_short_600ms.mp4	330.4373984822214	331.0457368471525	0.6083383649311145	n/a	n/a	n/a	n/a
294.7685546875	0.2	603686	246	17	2	0	0	50	93	stimuli\Videos_short_600ms_horflip\12.repeated_touch_with_nail_file_short_horflip_short_600ms.mp4	12.repeated_touch_with_nail_file_short_horflip_short_600ms.mp4	331.2374302699882	331.8457214224618	0.6082911524736119	n/a	n/a	n/a	n/a
295.56884765625	0.2	605325	247	17	2	0	0	51	122	stimuli\Videos_short_600ms_horflip\39.single_stab_with_scissors_short_horflip_short_600ms.mp4	39.single_stab_with_scissors_short_horflip_short_600ms.mp4	332.03741777774667	332.6457033585648	0.6082855808181193	n/a	n/a	n/a	n/a
296.36865234375	0.2	606963	248	17	2	0	0	52	182	stimuli\Videos_short_600ms_horvertflip\11.single_touch_with_lighter_short_horvertflip_short_600ms.mp4	11.single_touch_with_lighter_short_horvertflip_short_600ms.mp4	332.8374020598112	333.44567033916974	0.6082682793585263	n/a	n/a	n/a	n/a
297.16845703125	0.2	608601	249	17	2	0	0	53	148	stimuli\Videos_short_600ms_horflip\62.touch_top_to_bottom_with_scissors_short_horflip_short_600ms.mp4	62.touch_top_to_bottom_with_scissors_short_horflip_short_600ms.mp4	333.6374095082374	334.2456340940789	0.6082245858415263	n/a	n/a	n/a	n/a
297.96875	0.2	610240	250	17	2	0	0	54	281	stimuli\Videos_short_600ms_vertflip\2.single_touch_with_finger_short_vertflip_short_600ms.mp4	2.single_touch_with_finger_short_vertflip_short_600ms.mp4	334.4382392158386	335.0456066463412	0.6073674305025634	n/a	n/a	n/a	n/a
298.7685546875	0.2	611878	251	17	2	0	0	55	199	stimuli\Videos_short_600ms_horvertflip\27.single_push_with_a_plastic_whisk_short_horvertflip_short_600ms.mp4	27.single_push_with_a_plastic_whisk_short_horvertflip_short_600ms.mp4	335.2379701341615	335.84558975542495	0.6076196212634386	n/a	n/a	n/a	n/a
299.568359375	0.2	613516	252	17	2	0	1	56	380	stimuli\Targets_short_600ms_vertflip\chopstickwood-tap_short_horvertflip_short_600ms.mp4	chopstickwood-tap_short_horvertflip_short_600ms.mp4	336.037818937004	336.6455740374895	0.6077551004855195	n/a	n/a	n/a	n/a
300.36865234375	0.2	615155	253	17	2	0	0	57	275	stimuli\Videos_short_600ms_vertflip\14.repeated_touch_with_pencil_short_vertflip_short_600ms.mp4	14.repeated_touch_with_pencil_short_vertflip_short_600ms.mp4	336.83726394138284	337.44558265889464	0.6083187175117928	n/a	n/a	n/a	n/a
301.16845703125	0.2	616793	254	17	2	0	1	58	365	stimuli\Targets_short_600ms\hand-stroke_short_short_600ms.mp4	hand-stroke_short_short_600ms.mp4	337.6372831196113	338.24556811393813	0.6082849943268229	n/a	n/a	n/a	n/a
301.96826171875	0.2	618431	255	17	2	0	0	59	252	stimuli\Videos_short_600ms_horvertflip\75.(long)stroke_with_fingers_all_over_the_hand_short_horvertflip_short_600ms.mp4	75.(long)stroke_with_fingers_all_over_the_hand_short_horvertflip_short_600ms.mp4	338.43724599478446	339.04555708792395	0.6083110931394913	n/a	n/a	n/a	n/a
302.7685546875	0.2	620070	256	17	2	0	0	60	337	stimuli\Videos_short_600ms_vertflip\70.(long)stroke_with_finger_all_over_the_hand_short_vertflip_short_600ms.mp4	70.(long)stroke_with_finger_all_over_the_hand_short_vertflip_short_600ms.mp4	339.237288046128	339.8455530997908	0.6082650536627625	n/a	n/a	n/a	n/a
303.568359375	0.2	621708	257	17	2	0	0	61	21	stimuli\Videos_short_600ms\29.single_pinch_with_tweezers_short_short_600ms.mp4	29.single_pinch_with_tweezers_short_short_600ms.mp4	340.0372251157369	340.64553356966826	0.6083084539313859	n/a	n/a	n/a	n/a
304.3681640625	0.2	623346	258	17	2	0	0	62	56	stimuli\Videos_short_600ms\60.single_push_with_tip_of_pencil_short_short_600ms.mp4	60.single_push_with_tip_of_pencil_short_short_600ms.mp4	340.8372481061506	341.4455114003413	0.6082632941906922	n/a	n/a	n/a	n/a
305.16845703125	0.2	624985	259	17	2	0	1	63	383	stimuli\Targets_short_600ms_vertflip\hand-stroke_short_horvertflip_short_600ms.mp4	hand-stroke_short_horvertflip_short_600ms.mp4	341.63719983801093	342.2454997878376	0.6082999498266872	n/a	n/a	n/a	n/a
305.96826171875	0.2	626623	260	17	2	0	0	64	186	stimuli\Videos_short_600ms_horvertflip\15.single_stroke_top_to_bottom_with_a_plastic_whisk_short_horvertflip_short_600ms.mp4	15.single_stroke_top_to_bottom_with_a_plastic_whisk_short_horvertflip_short_600ms.mp4	342.43716593888166	343.04548260367665	0.6083166647949838	n/a	n/a	n/a	n/a
306.76806640625	0.2	628261	261	17	2	0	0	65	7	stimuli\Videos_short_600ms\16.repeated_touch_with_plastic_brush_short_short_600ms.mp4	16.repeated_touch_with_plastic_brush_short_short_600ms.mp4	343.2372024185679	343.84546307355413	0.6082606549862248	n/a	n/a	n/a	n/a
307.568359375	0.2	629900	262	17	2	0	0	66	339	stimuli\Videos_short_600ms_vertflip\72.(short)stroke_with_finger_all_over_the_hand_short_vertflip_short_600ms.mp4	72.(short)stroke_with_finger_all_over_the_hand_short_vertflip_short_600ms.mp4	344.0371688126834	344.6454455961484	0.608276783465044	n/a	n/a	n/a	n/a
308.3681640625	0.2	631538	263	17	2	0	0	67	251	stimuli\Videos_short_600ms_horvertflip\74.fingers_walking_from_top_to_bottom_short_horvertflip_short_600ms.mp4	74.fingers_walking_from_top_to_bottom_short_horvertflip_short_600ms.mp4	344.8371384324928	345.44543046470244	0.608292032209647	n/a	n/a	n/a	n/a
309.16796875	0.2	633176	264	17	2	0	0	68	166	stimuli\Videos_short_600ms_horflip\79.long_with_soft_brush_all_over_the_hand_short_horflip_short_600ms.mp4	79.long_with_soft_brush_all_over_the_hand_short_horflip_short_600ms.mp4	345.63710336038275	346.2454115210712	0.6083081606884662	n/a	n/a	n/a	n/a
309.96826171875	0.2	634815	265	17	2	0	0	69	348	stimuli\Videos_short_600ms_vertflip\80.stroke_with_sharp_stick_all_over_the_hand_short_vertflip_short_600ms.mp4	80.stroke_with_sharp_stick_all_over_the_hand_short_vertflip_short_600ms.mp4	346.43708207079	347.0453955098892	0.60831343909922	n/a	n/a	n/a	n/a
310.76806640625	0.2	636453	266	17	2	0	0	70	92	stimuli\Videos_short_600ms_horflip\11.single_touch_with_lighter_short_horflip_short_600ms.mp4	11.single_touch_with_lighter_short_horflip_short_600ms.mp4	347.23702764450536	347.845376566258	0.6083489217526221	n/a	n/a	n/a	n/a
311.56787109375	0.2	638091	267	17	2	0	0	71	329	stimuli\Videos_short_600ms_vertflip\63.stroke_top_to_bottom_with_screwdriver_short_vertflip_short_600ms.mp4	63.stroke_top_to_bottom_with_screwdriver_short_vertflip_short_600ms.mp4	348.0370758539957	348.645366419978	0.6082905659823155	n/a	n/a	n/a	n/a
312.3681640625	0.2	639730	268	17	2	0	0	72	159	stimuli\Videos_short_600ms_horflip\72.(short)stroke_with_finger_all_over_the_hand_short_horflip_short_600ms.mp4	72.(short)stroke_with_finger_all_over_the_hand_short_horflip_short_600ms.mp4	348.83702758585605	349.44534366416156	0.6083160783055064	n/a	n/a	n/a	n/a
313.16796875	0.2	641368	269	17	2	0	0	73	98	stimuli\Videos_short_600ms_horflip\17.repeated_touch_with_rolling_pin_short_horflip_short_600ms.mp4	17.repeated_touch_with_rolling_pin_short_horflip_short_600ms.mp4	349.6370224247439	350.24528454595566	0.6082621212117374	n/a	n/a	n/a	n/a
313.96826171875	0.2	643007	270	17	2	0	0	74	314	stimuli\Videos_short_600ms_vertflip\5.repeated_tap_with_finger_moving_from_top_to_bottom_short_vertflip_short_600ms.mp4	5.repeated_tap_with_finger_moving_from_top_to_bottom_short_vertflip_short_600ms.mp4	350.4369811944871	351.04529023490977	0.6083090404226823	n/a	n/a	n/a	n/a
314.76806640625	0.2	644645	271	17	2	0	0	75	313	stimuli\Videos_short_600ms_vertflip\49.repeated_slap_with_hand_short_vertflip_short_600ms.mp4	49.repeated_slap_with_hand_short_vertflip_short_600ms.mp4	351.23698013880494	351.845266892602	0.6082867537970742	n/a	n/a	n/a	n/a
315.56787109375	0.2	646283	272	17	2	0	0	76	155	stimuli\Videos_short_600ms_horflip\69.stroke_with_soft_sock_short_horflip_short_600ms.mp4	69.stroke_with_soft_sock_short_horflip_short_600ms.mp4	352.03704271730203	352.6452555733413	0.6082128560392448	n/a	n/a	n/a	n/a
316.3681640625	0.2	647922	273	17	2	0	1	77	375	stimuli\Targets_short_600ms_horvertflip\finger-tap_short_vertflip_short_600ms.mp4	finger-tap_short_vertflip_short_600ms.mp4	352.8370243601603	353.4452451338184	0.608220773658104	n/a	n/a	n/a	n/a
317.16796875	0.2	649560	274	17	2	0	0	78	198	stimuli\Videos_short_600ms_horvertflip\26.single_touch_with_a_blunt_syringe_short_horvertflip_short_600ms.mp4	26.single_touch_with_a_blunt_syringe_short_horvertflip_short_600ms.mp4	353.6369338647328	354.24522619018535	0.6082923254525667	n/a	n/a	n/a	n/a
317.9677734375	0.2	651198	275	17	2	0	0	79	343	stimuli\Videos_short_600ms_vertflip\76.tickle_with_fingers_from_top_to_bottom_short_vertflip_short_600ms.mp4	76.tickle_with_fingers_from_top_to_bottom_short_vertflip_short_600ms.mp4	354.4369779687913	355.04523510483705	0.6082571360457223	n/a	n/a	n/a	n/a
318.76806640625	0.2	652837	276	17	2	0	0	80	165	stimuli\Videos_short_600ms_horflip\78.single_stroke_top_to_bottom_with_soft_brush_short_horflip_short_600ms.mp4	78.single_stroke_top_to_bottom_with_soft_brush_short_horflip_short_600ms.mp4	355.23695403999227	355.845204138157	0.6082500981647172	n/a	n/a	n/a	n/a
319.56787109375	0.2	654475	277	17	2	0	0	81	38	stimuli\Videos_short_600ms\44.pushing_top_to_bottom_with_finger_short_short_600ms.mp4	44.pushing_top_to_bottom_with_finger_short_short_600ms.mp4	356.0368972677479	356.64520102975985	0.6083037620119285	n/a	n/a	n/a	n/a
320.36767578125	0.2	656113	278	17	2	0	0	82	83	stimuli\Videos_short_600ms\85.touch_top_to_bottom_with_fabric_short_short_600ms.mp4	85.touch_top_to_bottom_with_fabric_short_short_600ms.mp4	356.83702553314106	357.4451700630798	0.6081445299387269	n/a	n/a	n/a	n/a
321.16796875	0.2	657752	279	17	2	0	0	83	240	stimuli\Videos_short_600ms_horvertflip\64.repeated_touch_with_screwdriver_short_horvertflip_short_600ms.mp4	64.repeated_touch_with_screwdriver_short_horvertflip_short_600ms.mp4	357.63685380882816	358.2451534654083	0.6082996565801295	n/a	n/a	n/a	n/a
321.9677734375	0.2	659390	280	17	2	0	1	84	370	stimuli\Targets_short_600ms_horflip\hand-pinch_short_horflip_short_600ms.mp4	hand-pinch_short_horflip_short_600ms.mp4	358.43683339897143	359.04513862720887	0.608305228237441	n/a	n/a	n/a	n/a
322.767578125	0.2	661028	281	17	2	0	0	85	256	stimuli\Videos_short_600ms_horvertflip\79.long_with_soft_brush_all_over_the_hand_short_horvertflip_short_600ms.mp4	79.long_with_soft_brush_all_over_the_hand_short_horvertflip_short_600ms.mp4	359.236831756798	359.84511909708635	0.6082873402883706	n/a	n/a	n/a	n/a
323.56787109375	0.2	662667	282	17	2	0	0	86	227	stimuli\Videos_short_600ms_horvertflip\52.touch_top_to_bottom_with_hammer_short_horvertflip_short_600ms.mp4	52.touch_top_to_bottom_with_hammer_short_horvertflip_short_600ms.mp4	360.03678847382616	360.6451013264359	0.6083128526097425	n/a	n/a	n/a	n/a
324.36767578125	0.2	664305	283	17	2	0	1	87	367	stimuli\Targets_short_600ms_horflip\chopstick-silver-tap_short_horflip_short_600ms.mp4	chopstick-silver-tap_short_horflip_short_600ms.mp4	360.8367988547016	361.4450850220091	0.6082861673075968	n/a	n/a	n/a	n/a
325.16748046875	0.2	665943	284	17	2	0	0	88	336	stimuli\Videos_short_600ms_vertflip\7.repeated_touch_with_hairbrush_short_vertflip_short_600ms.mp4	7.repeated_touch_with_hairbrush_short_vertflip_short_600ms.mp4	361.63677991107033	362.24506754460344	0.6082876335331093	n/a	n/a	n/a	n/a
325.9677734375	0.2	667582	285	17	2	0	0	89	49	stimuli\Videos_short_600ms\54.repeated_touch_with_knife_short_short_600ms.mp4	54.repeated_touch_with_knife_short_short_600ms.mp4	362.4366982129941	363.04505153342143	0.6083533204273408	n/a	n/a	n/a	n/a
326.767578125	0.2	669220	286	17	2	0	0	90	13	stimuli\Videos_short_600ms\21.repeated_touch_with_metal_chopstick_short_short_600ms.mp4	21.repeated_touch_with_metal_chopstick_short_short_600ms.mp4	363.23671680473126	363.8450375749562	0.6083207702249638	n/a	n/a	n/a	n/a
327.5673828125	0.2	670858	287	17	2	0	0	91	156	stimuli\Videos_short_600ms_horflip\7.repeated_touch_with_hairbrush_short_horflip_short_600ms.mp4	7.repeated_touch_with_hairbrush_short_horflip_short_600ms.mp4	364.03707849320017	364.6449766972801	0.6078982040799019	n/a	n/a	n/a	n/a
328.36767578125	0.2	672497	288	17	2	0	0	92	33	stimuli\Videos_short_600ms\4.repeated_tap_with_finger_slow_short_short_600ms.mp4	4.repeated_tap_with_finger_slow_short_short_600ms.mp4	364.83674049893307	365.4450137634576	0.6082732645245414	n/a	n/a	n/a	n/a
329.16748046875	0.2	674135	289	17	2	0	0	93	255	stimuli\Videos_short_600ms_horvertflip\78.single_stroke_top_to_bottom_with_soft_brush_short_horvertflip_short_600ms.mp4	78.single_stroke_top_to_bottom_with_soft_brush_short_horvertflip_short_600ms.mp4	365.6366593873463	366.2449578709475	0.6082984836011747	n/a	n/a	n/a	n/a
329.96728515625	0.2	675773	290	17	2	0	0	94	51	stimuli\Videos_short_600ms\56.repeated_touch_with_nail_file_short_short_600ms.mp4	56.repeated_touch_with_nail_file_short_short_600ms.mp4	366.436692348092	367.0449207461206	0.6082283980285865	n/a	n/a	n/a	n/a
330.767578125	0.2	677412	291	17	2	0	0	95	206	stimuli\Videos_short_600ms_horvertflip\33.scratch_top_to_bottom_with_scissors_short_horvertflip_short_600ms.mp4	33.scratch_top_to_bottom_with_scissors_short_horvertflip_short_600ms.mp4	367.2366487718755	367.84493054050654	0.6082817686310591	n/a	n/a	n/a	n/a
331.5673828125	0.2	679050	292	17	2	0	0	96	141	stimuli\Videos_short_600ms_horflip\56.repeated_touch_with_nail_file_short_horflip_short_600ms.mp4	56.repeated_touch_with_nail_file_short_horflip_short_600ms.mp4	368.0366005037358	368.64491540906056	0.6083149053247325	n/a	n/a	n/a	n/a
332.3671875	0.2	680688	293	17	2	0	0	97	8	stimuli\Videos_short_600ms\17.repeated_touch_with_rolling_pin_short_short_600ms.mp4	17.repeated_touch_with_rolling_pin_short_short_600ms.mp4	368.8365932899069	369.4449026235761	0.60830933366924	n/a	n/a	n/a	n/a
333.16748046875	0.2	682327	294	17	2	0	0	98	291	stimuli\Videos_short_600ms_vertflip\29.single_pinch_with_tweezers_short_vertflip_short_600ms.mp4	29.single_pinch_with_tweezers_short_vertflip_short_600ms.mp4	369.6365676016394	370.24490919226446	0.6083415906250593	9.0	9.0	1.4590511117348797	1.0
365.48291015625	0.2	748509	295	17	3	0	0	0	17	stimuli\Videos_short_600ms\25.single_touch_with_stanley_knife_short_short_600ms.mp4	25.single_touch_with_stanley_knife_short_short_600ms.mp4	401.9525676098492	402.5608716651059	0.6083040552566672	n/a	n/a	n/a	n/a
366.283203125	0.2	750148	296	17	3	0	0	1	45	stimuli\Videos_short_600ms\50.single_(long)hard_push_with_thumb_short_short_600ms.mp4	50.single_(long)hard_push_with_thumb_short_short_600ms.mp4	402.7527237335253	403.36085066875967	0.6081269352343952	n/a	n/a	n/a	n/a
367.0830078125	0.2	751786	297	17	3	0	0	2	296	stimuli\Videos_short_600ms_vertflip\33.scratch_top_to_bottom_with_scissors_short_vertflip_short_600ms.mp4	33.scratch_top_to_bottom_with_scissors_short_vertflip_short_600ms.mp4	403.5524880817866	404.16083817652	0.608350094733396	n/a	n/a	n/a	n/a
367.8828125	0.2	753424	298	17	3	0	0	3	258	stimuli\Videos_short_600ms_horvertflip\80.stroke_with_sharp_stick_all_over_the_hand_short_horvertflip_short_600ms.mp4	80.stroke_with_sharp_stick_all_over_the_hand_short_horvertflip_short_600ms.mp4	404.35261576069024	404.9608256842803	0.6082099235900387	n/a	n/a	n/a	n/a
368.68310546875	0.2	755063	299	17	3	0	0	4	16	stimuli\Videos_short_600ms\24.single_stroke_top_to_bottom_with_a_spoon_short_short_600ms.mp4	24.single_stroke_top_to_bottom_with_a_spoon_short_short_600ms.mp4	405.1526871365404	405.7608193501856	0.608132213645149	n/a	n/a	n/a	n/a
369.48291015625	0.2	756701	300	17	3	0	1	5	381	stimuli\Targets_short_600ms_vertflip\finger-tap_short_horvertflip_short_600ms.mp4	finger-tap_short_horvertflip_short_600ms.mp4	405.9525535340872	406.5607596454902	0.6082061114029784	n/a	n/a	n/a	n/a
370.28271484375	0.2	758339	301	17	3	0	0	6	205	stimuli\Videos_short_600ms_horvertflip\32.single_(long)pinch_with_fingers_short_horvertflip_short_600ms.mp4	32.single_(long)pinch_with_fingers_short_horvertflip_short_600ms.mp4	406.752431074945	407.3607207611931	0.6082896862480993	n/a	n/a	n/a	n/a
371.0830078125	0.2	759978	302	17	3	0	0	7	328	stimuli\Videos_short_600ms_vertflip\62.touch_top_to_bottom_with_scissors_short_vertflip_short_600ms.mp4	62.touch_top_to_bottom_with_scissors_short_vertflip_short_600ms.mp4	407.5524285530373	408.1607264501472	0.6082978971098782	n/a	n/a	n/a	n/a
371.8828125	0.2	761616	303	17	3	0	0	8	352	stimuli\Videos_short_600ms_vertflip\84.single_touch_with_cotton_bud_short_vertflip_short_600ms.mp4	84.single_touch_with_cotton_bud_short_vertflip_short_600ms.mp4	408.3524096094061	408.9607195295648	0.6083099201587174	n/a	n/a	n/a	n/a
372.6826171875	0.2	763254	304	17	3	0	0	9	103	stimuli\Videos_short_600ms_horflip\21.repeated_touch_with_metal_chopstick_short_horflip_short_600ms.mp4	21.repeated_touch_with_metal_chopstick_short_horflip_short_600ms.mp4	409.1524173510752	409.7606950142763	0.6082776632010791	n/a	n/a	n/a	n/a
373.48291015625	0.2	764893	305	17	3	0	0	10	334	stimuli\Videos_short_600ms_vertflip\68.stroke_top_to_bottom_with_shawl_short_vertflip_short_600ms.mp4	68.stroke_top_to_bottom_with_shawl_short_vertflip_short_600ms.mp4	409.9524280251971	410.5607021694559	0.6082741442587576	n/a	n/a	n/a	n/a
374.28271484375	0.2	766531	306	17	3	0	1	11	374	stimuli\Targets_short_600ms_horvertflip\chopstickwood-tap_short_vertflip_short_600ms.mp4	chopstickwood-tap_short_vertflip_short_600ms.mp4	410.75245394806007	411.36069466238223	0.6082407143221644	n/a	n/a	n/a	n/a
375.08251953125	0.2	768169	307	17	3	0	0	12	312	stimuli\Videos_short_600ms_vertflip\48.single_slap_with_hand_short_vertflip_short_600ms.mp4	48.single_slap_with_hand_short_vertflip_short_600ms.mp4	411.5524229813818	412.16066428219347	0.6082413008116418	n/a	n/a	n/a	n/a
375.8828125	0.2	769808	308	17	3	0	0	13	254	stimuli\Videos_short_600ms_horvertflip\77.tapping_with_all_fingers_short_horvertflip_short_600ms.mp4	77.tapping_with_all_fingers_short_horvertflip_short_600ms.mp4	412.3523101993269	412.960648564258	0.6083383649311145	n/a	n/a	n/a	n/a
376.6826171875	0.2	771446	309	17	3	0	0	14	19	stimuli\Videos_short_600ms\27.single_push_with_a_plastic_whisk_short_short_600ms.mp4	27.single_push_with_a_plastic_whisk_short_short_600ms.mp4	413.152306797685	413.7606278611547	0.6083210634697025	n/a	n/a	n/a	n/a
377.482421875	0.2	773084	310	17	3	0	0	15	142	stimuli\Videos_short_600ms_horflip\57.single_touch_with_nail_file_short_horflip_short_600ms.mp4	57.single_touch_with_nail_file_short_horflip_short_600ms.mp4	413.9522963581603	414.5606109702385	0.6083146120781748	n/a	n/a	n/a	n/a
378.28271484375	0.2	774723	311	17	3	0	0	16	80	stimuli\Videos_short_600ms\82.repeated_touch_with_cotton_bud_short_short_600ms.mp4	82.repeated_touch_with_cotton_bud_short_short_600ms.mp4	414.752333424336	415.3605949590583	0.60826153472226	n/a	n/a	n/a	n/a
379.08251953125	0.2	776361	312	17	3	0	0	17	140	stimuli\Videos_short_600ms_horflip\55.touch_top_to_bottom_with_nail_file_short_horflip_short_600ms.mp4	55.touch_top_to_bottom_with_nail_file_short_horflip_short_600ms.mp4	415.55231184150034	416.16057513569103	0.6082632941906922	n/a	n/a	n/a	n/a
379.88232421875	0.2	777999	313	17	3	0	0	18	202	stimuli\Videos_short_600ms_horvertflip\3.single_push_with_finger_short_horvertflip_short_600ms.mp4	3.single_push_with_finger_short_horvertflip_short_600ms.mp4	416.3522527232926	416.9605597110003	0.6083069877076923	n/a	n/a	n/a	n/a
380.6826171875	0.2	779638	314	17	3	0	0	19	316	stimuli\Videos_short_600ms_vertflip\51.repeated_touch_with_hammer_short_vertflip_short_600ms.mp4	51.repeated_touch_with_hammer_short_vertflip_short_600ms.mp4	417.1522566527765	417.7605442863096	0.6082876335331093	n/a	n/a	n/a	n/a
381.482421875	0.2	781276	315	17	3	0	0	20	243	stimuli\Videos_short_600ms_horvertflip\67.single_touch_with_sponge_short_horvertflip_short_600ms.mp4	67.single_touch_with_sponge_short_horvertflip_short_600ms.mp4	417.95224738623256	418.56052798188466	0.6082805956521042	n/a	n/a	n/a	n/a
382.2822265625	0.2	782914	316	17	3	0	0	21	147	stimuli\Videos_short_600ms_horflip\61.single_hit_with_rolling_pin_short_horflip_short_600ms.mp4	61.single_hit_with_rolling_pin_short_horflip_short_600ms.mp4	418.7522023437905	419.3605096247429	0.608307280952431	n/a	n/a	n/a	n/a
383.08251953125	0.2	784553	317	17	3	0	0	22	264	stimuli\Videos_short_600ms_horvertflip\86.touch_top_to_bottom_with_hair_brush_short_horvertflip_short_600ms.mp4	86.touch_top_to_bottom_with_hair_brush_short_horvertflip_short_600ms.mp4	419.5522053935383	420.1604977189927	0.6082923254543857	n/a	n/a	n/a	n/a
383.88232421875	0.2	786191	318	17	3	0	1	23	370	stimuli\Targets_short_600ms_horflip\hand-pinch_short_horflip_short_600ms.mp4	hand-pinch_short_horflip_short_600ms.mp4	420.35218058500686	420.9604497440996	0.6082691590927425	n/a	n/a	n/a	n/a
384.68212890625	0.2	787829	319	17	3	0	0	24	134	stimuli\Videos_short_600ms_horflip\5.repeated_tap_with_finger_moving_from_top_to_bottom_short_horflip_short_600ms.mp4	5.repeated_tap_with_finger_moving_from_top_to_bottom_short_horflip_short_600ms.mp4	421.1522780596679	421.7604096868235	0.6081316271556716	n/a	n/a	n/a	n/a
385.482421875	0.2	789468	320	17	3	0	0	25	22	stimuli\Videos_short_600ms\3.single_push_with_finger_short_short_600ms.mp4	3.single_push_with_finger_short_short_600ms.mp4	421.9524136561886	422.5604241731289	0.6080105169403396	n/a	n/a	n/a	n/a
386.2822265625	0.2	791106	321	17	3	0	0	26	311	stimuli\Videos_short_600ms_vertflip\47.(long)scratching_with_finger_nails_short_vertflip_short_600ms.mp4	47.(long)scratching_with_finger_nails_short_vertflip_short_600ms.mp4	422.75215835703057	423.3604022970467	0.6082439400161093	n/a	n/a	n/a	n/a
387.08251953125	0.2	792745	322	17	3	0	0	27	220	stimuli\Videos_short_600ms_horvertflip\46.scratching_top_to_bottom_with_finger_nails_short_horvertflip_short_600ms.mp4	46.scratching_top_to_bottom_with_finger_nails_short_horvertflip_short_600ms.mp4	423.55216316624865	424.16038804533673	0.608224879088084	n/a	n/a	n/a	n/a
387.88232421875	0.2	794383	323	17	3	0	0	28	90	stimuli\Videos_short_600ms_horflip\1.repeated_touch_with_finger_fast_short_horflip_short_600ms.mp4	1.repeated_touch_with_finger_fast_short_horflip_short_600ms.mp4	424.35204510578296	424.9603688084608	0.6083237026778079	n/a	n/a	n/a	n/a
388.68212890625	0.2	796021	324	17	3	0	0	29	235	stimuli\Videos_short_600ms_horvertflip\6.single_touch_with_flat_hand_short_horvertflip_short_600ms.mp4	6.single_touch_with_flat_hand_short_horvertflip_short_600ms.mp4	425.1520475690413	425.76037273794464	0.6083251689033204	n/a	n/a	n/a	n/a
389.482421875	0.2	797660	325	17	3	0	0	30	242	stimuli\Videos_short_600ms_horvertflip\66.stroke_top_to_bottom_with_sponge_short_horvertflip_short_600ms.mp4	66.stroke_top_to_bottom_with_sponge_short_horvertflip_short_600ms.mp4	425.9520690932295	426.56035819298813	0.6082890997586219	n/a	n/a	n/a	n/a
390.2822265625	0.2	799298	326	17	3	0	0	31	181	stimuli\Videos_short_600ms_horvertflip\10.single_touch_with_knife_short_horvertflip_short_600ms.mp4	10.single_touch_with_knife_short_horvertflip_short_600ms.mp4	426.75205132257906	427.36033690339536	0.6082855808163004	n/a	n/a	n/a	n/a
391.08203125	0.2	800936	327	17	3	0	0	32	65	stimuli\Videos_short_600ms\69.stroke_with_soft_sock_short_short_600ms.mp4	69.stroke_with_soft_sock_short_short_600ms.mp4	427.5520939604121	428.1603170800299	0.6082231196178327	n/a	n/a	n/a	n/a
391.88232421875	0.2	802575	328	17	3	0	0	33	326	stimuli\Videos_short_600ms_vertflip\60.single_push_with_tip_of_pencil_short_vertflip_short_600ms.mp4	60.single_push_with_tip_of_pencil_short_vertflip_short_600ms.mp4	428.3520222326679	428.9603007756032	0.6082785429352953	n/a	n/a	n/a	n/a
392.68212890625	0.2	804213	329	17	3	0	0	34	325	stimuli\Videos_short_600ms_vertflip\6.single_touch_with_flat_hand_short_vertflip_short_600ms.mp4	6.single_touch_with_flat_hand_short_vertflip_short_600ms.mp4	429.1519868673131	429.7602862306485	0.6082993633353908	n/a	n/a	n/a	n/a
393.48193359375	0.2	805851	330	17	3	0	0	35	107	stimuli\Videos_short_600ms_horflip\25.single_touch_with_stanley_knife_short_horflip_short_600ms.mp4	25.single_touch_with_stanley_knife_short_horflip_short_600ms.mp4	429.9520600026335	430.5602655275452	0.608205524911682	n/a	n/a	n/a	n/a
394.2822265625	0.2	807490	331	17	3	0	0	36	230	stimuli\Videos_short_600ms_horvertflip\55.touch_top_to_bottom_with_nail_file_short_horvertflip_short_600ms.mp4	55.touch_top_to_bottom_with_nail_file_short_horvertflip_short_600ms.mp4	430.75194076918706	431.3602501028563	0.60830933366924	n/a	n/a	n/a	n/a
395.08203125	0.2	809128	332	17	3	0	0	37	272	stimuli\Videos_short_600ms_vertflip\11.single_touch_with_lighter_short_vertflip_short_600ms.mp4	11.single_touch_with_lighter_short_vertflip_short_600ms.mp4	431.5519194795961	432.16023174571455	0.6083122661184461	n/a	n/a	n/a	n/a
395.8818359375	0.2	810766	333	17	3	0	0	38	120	stimuli\Videos_short_600ms_horflip\37.single_stab_with_nail_file_short_horflip_short_600ms.mp4	37.single_stab_with_nail_file_short_horflip_short_600ms.mp4	432.35195537279105	432.960214268307	0.6082588955159736	n/a	n/a	n/a	n/a
396.68212890625	0.2	812405	334	17	3	0	0	39	71	stimuli\Videos_short_600ms\74.fingers_walking_from_top_to_bottom_short_short_600ms.mp4	74.fingers_walking_from_top_to_bottom_short_short_600ms.mp4	433.1519264588278	433.7601985503716	0.6082720915437676	n/a	n/a	n/a	n/a
397.48193359375	0.2	814043	335	17	3	0	0	40	298	stimuli\Videos_short_600ms_vertflip\35.single_punch_with_hand_short_vertflip_short_600ms.mp4	35.single_punch_with_hand_short_vertflip_short_600ms.mp4	433.9519899170609	434.56018165945534	0.6081917423944105	n/a	n/a	n/a	n/a
398.28173828125	0.2	815681	336	17	3	0	0	41	170	stimuli\Videos_short_600ms_horflip\82.repeated_touch_with_cotton_bud_short_horflip_short_600ms.mp4	82.repeated_touch_with_cotton_bud_short_horflip_short_600ms.mp4	434.7519085122294	435.36016095635387	0.6082524441244459	n/a	n/a	n/a	n/a
399.08203125	0.2	817320	337	17	3	0	0	42	295	stimuli\Videos_short_600ms_vertflip\32.single_(long)pinch_with_fingers_short_vertflip_short_600ms.mp4	32.single_(long)pinch_with_fingers_short_vertflip_short_600ms.mp4	435.5518074599786	436.160101838148	0.6082943781693757	n/a	n/a	n/a	n/a
399.8818359375	0.2	818958	338	17	3	0	0	43	321	stimuli\Videos_short_600ms_vertflip\56.repeated_touch_with_nail_file_short_vertflip_short_600ms.mp4	56.repeated_touch_with_nail_file_short_vertflip_short_600ms.mp4	436.35191138603113	436.960094624319	0.6081832382878929	n/a	n/a	n/a	n/a
400.68994140625	0.2	820613	339	17	3	0	0	44	88	stimuli\Videos_short_600ms\9.single_touch_with_hammer_short_short_600ms.mp4	9.single_touch_with_hammer_short_short_600ms.mp4	437.1600824839734	437.76844020307726	0.6083577191038785	n/a	n/a	n/a	n/a
401.490234375	0.2	822252	340	17	3	0	0	45	57	stimuli\Videos_short_600ms\61.single_hit_with_rolling_pin_short_short_600ms.mp4	61.single_hit_with_rolling_pin_short_short_600ms.mp4	437.9601350921384	438.56842829732705	0.6082932051886019	n/a	n/a	n/a	n/a
402.2900390625	0.2	823890	341	17	3	0	0	46	238	stimuli\Videos_short_600ms_horvertflip\62.touch_top_to_bottom_with_scissors_short_horvertflip_short_600ms.mp4	62.touch_top_to_bottom_with_scissors_short_horvertflip_short_600ms.mp4	438.7601516311606	439.3684122861469	0.6082606549862248	n/a	n/a	n/a	n/a
403.08984375	0.2	825528	342	17	3	0	0	47	212	stimuli\Videos_short_600ms_horvertflip\39.single_stab_with_scissors_short_horvertflip_short_600ms.mp4	39.single_stab_with_scissors_short_horvertflip_short_600ms.mp4	439.5600887007695	440.16839275602615	0.6083040552566672	n/a	n/a	n/a	n/a
403.89013671875	0.2	827167	343	17	3	0	0	48	163	stimuli\Videos_short_600ms_horflip\76.tickle_with_fingers_from_top_to_bottom_short_horflip_short_600ms.mp4	76.tickle_with_fingers_from_top_to_bottom_short_horflip_short_600ms.mp4	440.360074155813	440.96837205292286	0.6082978971098782	n/a	n/a	n/a	n/a
404.68994140625	0.2	828805	344	17	3	0	0	49	135	stimuli\Videos_short_600ms_horflip\50.single_(long)hard_push_with_thumb_short_horflip_short_600ms.mp4	50.single_(long)hard_push_with_thumb_short_horflip_short_600ms.mp4	441.1600742731116	441.7683126414722	0.6082383683606167	n/a	n/a	n/a	n/a
405.490234375	0.2	830444	345	17	3	0	1	50	379	stimuli\Targets_short_600ms_vertflip\chopstick-silver-tap_short_horvertflip_short_600ms.mp4	chopstick-silver-tap_short_horvertflip_short_600ms.mp4	441.9601509273725	442.5683156912201	0.608164763847526	n/a	n/a	n/a	n/a
406.2900390625	0.2	832082	346	17	3	0	0	51	219	stimuli\Videos_short_600ms_horvertflip\45.scratching_with_finger_nails_short_horvertflip_short_600ms.mp4	45.scratching_with_finger_nails_short_horvertflip_short_600ms.mp4	442.7600079410768	443.36827592718873	0.6082679861119686	n/a	n/a	n/a	n/a
407.08984375	0.2	833720	347	17	3	0	0	52	217	stimuli\Videos_short_600ms_horvertflip\43.touch_top_to_bottom_with_sharp_wooden_stick_short_horvertflip_short_600ms.mp4	43.touch_top_to_bottom_with_sharp_wooden_stick_short_horvertflip_short_600ms.mp4	443.55996759055415	444.1682898270065	0.6083222364522953	n/a	n/a	n/a	n/a
407.89013671875	0.2	835359	348	17	3	0	0	53	109	stimuli\Videos_short_600ms_horflip\27.single_push_with_a_plastic_whisk_short_horflip_short_600ms.mp4	27.single_push_with_a_plastic_whisk_short_horflip_short_600ms.mp4	444.3603087518695	444.9682694171479	0.6079606652783696	n/a	n/a	n/a	n/a
408.68994140625	0.2	836997	349	17	3	0	0	54	68	stimuli\Videos_short_600ms\71.single_stroke_with_finger_top_to_bottom_short_short_600ms.mp4	71.single_stroke_with_finger_top_to_bottom_short_short_600ms.mp4	445.159939380379	445.7682616168295	0.6083222364504763	n/a	n/a	n/a	n/a
409.48974609375	0.2	838635	350	17	3	0	0	55	340	stimuli\Videos_short_600ms_vertflip\73.single_stroke_with_flat_hand_short_vertflip_short_600ms.mp4	73.single_stroke_with_flat_hand_short_vertflip_short_600ms.mp4	445.9599474152929	446.5682673057836	0.6083198904907476	n/a	n/a	n/a	n/a
410.2900390625	0.2	840274	351	17	3	0	0	56	231	stimuli\Videos_short_600ms_horvertflip\56.repeated_touch_with_nail_file_short_horvertflip_short_600ms.mp4	56.repeated_touch_with_nail_file_short_horvertflip_short_600ms.mp4	446.7599302311319	447.36823927155456	0.6083090404226823	n/a	n/a	n/a	n/a
411.08984375	0.2	841912	352	17	3	0	0	57	124	stimuli\Videos_short_600ms_horflip\40.repeated_push_with_finger_short_horflip_short_600ms.mp4	40.repeated_push_with_finger_short_horflip_short_600ms.mp4	447.5599010239239	448.1682191549444	0.6083181310204964	n/a	n/a	n/a	n/a
411.8896484375	0.2	843550	353	17	3	0	0	58	0	stimuli\Videos_short_600ms\1.repeated_touch_with_finger_fast_short_short_600ms.mp4	1.repeated_touch_with_finger_fast_short_short_600ms.mp4	448.3598794410864	448.9682028505176	0.6083234094312502	n/a	n/a	n/a	n/a
412.68994140625	0.2	845189	354	17	3	0	0	59	331	stimuli\Videos_short_600ms_vertflip\65.stroke_top_to_bottom_with_stanley_knife_short_vertflip_short_600ms.mp4	65.stroke_top_to_bottom_with_stanley_knife_short_vertflip_short_600ms.mp4	449.1599094693811	449.7681847866206	0.6082753172395314	n/a	n/a	n/a	n/a
413.48974609375	0.2	846827	355	17	3	0	0	60	232	stimuli\Videos_short_600ms_horvertflip\57.single_touch_with_nail_file_short_horvertflip_short_600ms.mp4	57.single_touch_with_nail_file_short_horvertflip_short_600ms.mp4	449.959916331316	450.56816760245965	0.6082512711436721	n/a	n/a	n/a	n/a
414.28955078125	0.2	848465	356	17	3	0	0	61	39	stimuli\Videos_short_600ms\45.scratching_with_finger_nails_short_short_600ms.mp4	45.scratching_with_finger_nails_short_short_600ms.mp4	450.75989445523373	451.36815100479	0.6082565495562449	n/a	n/a	n/a	n/a
415.08984375	0.2	850104	357	17	3	0	0	62	171	stimuli\Videos_short_600ms_horflip\83.single_stroke_top_to_bottom_with_cotton_bud_short_horflip_short_600ms.mp4	83.single_stroke_top_to_bottom_with_cotton_bud_short_horflip_short_600ms.mp4	451.5603259360305	452.168132940893	0.6078070048624795	n/a	n/a	n/a	n/a
415.8896484375	0.2	851742	358	17	3	0	0	63	322	stimuli\Videos_short_600ms_vertflip\57.single_touch_with_nail_file_short_vertflip_short_600ms.mp4	57.single_touch_with_nail_file_short_vertflip_short_600ms.mp4	452.35979322703497	452.9681151702425	0.6083219432075566	n/a	n/a	n/a	n/a
416.689453125	0.2	853380	359	17	3	0	0	64	247	stimuli\Videos_short_600ms_horvertflip\70.(long)stroke_with_finger_all_over_the_hand_short_horvertflip_short_600ms.mp4	70.(long)stroke_with_finger_all_over_the_hand_short_horvertflip_short_600ms.mp4	453.15989715308933	453.768097692835	0.6082005397456669	n/a	n/a	n/a	n/a
