onset	duration	onsetsample	eventnumber	subjectnr	sequencenumber	blocksequencenumber	istarget	presentationnumber	stimnumber	stim	stimname	time_stimon	time_stimoff	stimdur	cresp	resp	rt	correct
39.23876953125	0.2	80361	0	27	0	0	0	0	316	stimuli\Videos_short_600ms_vertflip\51.repeated_touch_with_hammer_short_vertflip_short_600ms.mp4	51.repeated_touch_with_hammer_short_vertflip_short_600ms.mp4	95.21417009224842	95.82498857813424	0.6108184858858294				
40.0390625	0.2	82000	1	27	0	0	0	1	324	stimuli\Videos_short_600ms_vertflip\59.single_push_with_long_side_pencil_short_vertflip_short_600ms.mp4	59.single_push_with_long_side_pencil_short_vertflip_short_600ms.mp4	96.01668149505348	96.62496781643858	0.6082863213850942				
40.8388671875	0.2	83638	2	27	0	0	1	2	361	stimuli\Targets_short_600ms\chopstick-silver-tap_short_short_600ms.mp4	chopstick-silver-tap_short_short_600ms.mp4	96.81670941190988	97.42495526558288	0.6082458536729973				
41.638671875	0.2	85276	3	27	0	0	0	3	254	stimuli\Videos_short_600ms_horvertflip\77.tapping_with_all_fingers_short_horvertflip_short_600ms.mp4	77.tapping_with_all_fingers_short_horvertflip_short_600ms.mp4	97.61666519067056	98.22492717277872	0.6082619821081607				
42.43896484375	0.2	86915	4	27	0	0	0	4	176	stimuli\Videos_short_600ms_horflip\88.repeated_stroke_with_plastic_brush_short_horflip_short_600ms.mp4	88.repeated_stroke_with_plastic_brush_short_horflip_short_600ms.mp4	98.41660894641429	99.02493749497808	0.6083285485638044				
43.23876953125	0.2	88553	5	27	0	0	0	5	38	stimuli\Videos_short_600ms\44.pushing_top_to_bottom_with_finger_short_short_600ms.mp4	44.pushing_top_to_bottom_with_finger_short_short_600ms.mp4	99.21692424268169	99.82492377114522	0.6079995284635515				
44.03857421875	0.2	90191	6	27	0	0	0	6	206	stimuli\Videos_short_600ms_horvertflip\33.scratch_top_to_bottom_with_scissors_short_horvertflip_short_600ms.mp4	33.scratch_top_to_bottom_with_scissors_short_horvertflip_short_600ms.mp4	100.0165466026765	100.62490271620482	0.6083561135283162				
44.8388671875	0.2	91830	7	27	0	0	0	7	348	stimuli\Videos_short_600ms_vertflip\80.stroke_with_sharp_stick_all_over_the_hand_short_vertflip_short_600ms.mp4	80.stroke_with_sharp_stick_all_over_the_hand_short_vertflip_short_600ms.mp4	100.81655281945586	101.42488723290536	0.6083344134494837				
45.638671875	0.2	93468	8	27	0	0	0	8	359	stimuli\Videos_short_600ms_vertflip\90.repeated_touch_with_sponge_short_vertflip_short_600ms.mp4	90.repeated_touch_with_sponge_short_vertflip_short_600ms.mp4	101.61659979719208	102.2248597265907	0.6082599293986277				
46.4384765625	0.2	95106	9	27	0	0	1	9	380	stimuli\Targets_short_600ms_vertflip\chopstickwood-tap_short_horvertflip_short_600ms.mp4	chopstickwood-tap_short_horvertflip_short_600ms.mp4	102.41659750988674	103.02483603245128	0.6082385225645339				
47.23876953125	0.2	96745	10	27	0	0	0	10	113	stimuli\Videos_short_600ms_horflip\30.finger_pulling_back_another_finger_short_horflip_short_600ms.mp4	30.finger_pulling_back_another_finger_short_horflip_short_600ms.mp4	103.21648349650422	103.82482142888604	0.6083379323818008				
48.03857421875	0.2	98383	11	27	0	0	0	11	350	stimuli\Videos_short_600ms_vertflip\82.repeated_touch_with_cotton_bud_short_vertflip_short_600ms.mp4	82.repeated_touch_with_cotton_bud_short_vertflip_short_600ms.mp4	104.01647446457991	104.62480096043328	0.6083264958533618				
48.83837890625	0.2	100021	12	27	0	0	0	12	18	stimuli\Videos_short_600ms\26.single_touch_with_a_blunt_syringe_short_short_600ms.mp4	26.single_touch_with_a_blunt_syringe_short_short_600ms.mp4	104.81645546234996	105.42478137171474	0.6083259093647939				
49.638671875	0.2	101660	13	27	0	0	0	13	327	stimuli\Videos_short_600ms_vertflip\61.single_hit_with_rolling_pin_short_vertflip_short_600ms.mp4	61.single_hit_with_rolling_pin_short_vertflip_short_600ms.mp4	105.61644320473806	106.22476530192762	0.6083220971895571				
50.4384765625	0.2	103298	14	27	0	0	0	14	278	stimuli\Videos_short_600ms_vertflip\17.repeated_touch_with_rolling_pin_short_vertflip_short_600ms.mp4	17.repeated_touch_with_rolling_pin_short_vertflip_short_600ms.mp4	106.41644267689844	107.02474043481106	0.6082977579126236				
51.23828125	0.2	104936	15	27	0	0	0	15	334	stimuli\Videos_short_600ms_vertflip\68.stroke_top_to_bottom_with_shawl_short_vertflip_short_600ms.mp4	68.stroke_top_to_bottom_with_shawl_short_vertflip_short_600ms.mp4	107.216387898864	107.82472700422204	0.6083391053580272				
52.03857421875	0.2	106575	16	27	0	0	0	16	101	stimuli\Videos_short_600ms_horflip\2.single_touch_with_finger_short_horflip_short_600ms.mp4	2.single_touch_with_finger_short_horflip_short_600ms.mp4	108.0163944088872	108.62470536279308	0.6083109539058569				
52.83837890625	0.2	108213	17	27	0	0	0	17	128	stimuli\Videos_short_600ms_horflip\44.pushing_top_to_bottom_with_finger_short_horflip_short_600ms.mp4	44.pushing_top_to_bottom_with_finger_short_horflip_short_600ms.mp4	108.81634051058518	109.42468342811937	0.6083429175341735				
53.63818359375	0.2	109851	18	27	0	0	0	18	318	stimuli\Videos_short_600ms_vertflip\53.touch_top_to_bottom_with_knife_short_vertflip_short_600ms.mp4	53.touch_top_to_bottom_with_knife_short_vertflip_short_600ms.mp4	109.6163549382045	110.22466765157696	0.6083127133724702				
54.4384765625	0.2	111490	19	27	0	0	0	19	159	stimuli\Videos_short_600ms_horflip\72.(short)stroke_with_finger_all_over_the_hand_short_horflip_short_600ms.mp4	72.(short)stroke_with_finger_all_over_the_hand_short_horflip_short_600ms.mp4	110.4163347629974	111.02464601014708	0.6083112471496861				
55.23828125	0.2	113128	20	27	0	0	0	20	70	stimuli\Videos_short_600ms\73.single_stroke_with_flat_hand_short_short_600ms.mp4	73.single_stroke_with_flat_hand_short_short_600ms.mp4	111.21630813641514	111.82462906062663	0.6083209242115117				
56.0380859375	0.2	114766	21	27	0	0	0	21	148	stimuli\Videos_short_600ms_horflip\62.touch_top_to_bottom_with_scissors_short_horflip_short_600ms.mp4	62.touch_top_to_bottom_with_scissors_short_horflip_short_600ms.mp4	112.01626244895306	112.62458132045596	0.6083188715028882				
56.83837890625	0.2	116405	22	27	0	0	1	22	381	stimuli\Targets_short_600ms_vertflip\finger-tap_short_horvertflip_short_600ms.mp4	finger-tap_short_horvertflip_short_600ms.mp4	112.81626807924386	113.42456759662218	0.6082995173783274				
57.63818359375	0.2	118043	23	27	0	0	0	23	124	stimuli\Videos_short_600ms_horflip\40.repeated_push_with_finger_short_horflip_short_600ms.mp4	40.repeated_push_with_finger_short_horflip_short_600ms.mp4	113.6162440918606	114.2245562187436	0.6083121268829927				
58.43798828125	0.2	119681	24	27	0	0	1	24	369	stimuli\Targets_short_600ms_horflip\finger-tap_short_horflip_short_600ms.mp4	finger-tap_short_horflip_short_600ms.mp4	114.4163520644106	115.02454953277356	0.6081974683629596				
59.23828125	0.2	121320	25	27	0	0	0	25	141	stimuli\Videos_short_600ms_horflip\56.repeated_touch_with_nail_file_short_horflip_short_600ms.mp4	56.repeated_touch_with_nail_file_short_horflip_short_600ms.mp4	115.21620755362164	115.8245287710779	0.6083212174562505				
60.0380859375	0.2	122958	26	27	0	0	0	26	13	stimuli\Videos_short_600ms\21.repeated_touch_with_metal_chopstick_short_short_600ms.mp4	21.repeated_touch_with_metal_chopstick_short_short_600ms.mp4	116.01628414903188	116.62452061888598	0.6082364698540914				
60.83837890625	0.2	124597	27	27	0	0	0	27	342	stimuli\Videos_short_600ms_vertflip\75.(long)stroke_with_fingers_all_over_the_hand_short_vertflip_short_600ms.mp4	75.(long)stroke_with_fingers_all_over_the_hand_short_vertflip_short_600ms.mp4	116.81614755583814	117.42449076661704	0.6083432107789122				
61.63818359375	0.2	126235	28	27	0	0	0	28	258	stimuli\Videos_short_600ms_horvertflip\80.stroke_with_sharp_stick_all_over_the_hand_short_horvertflip_short_600ms.mp4	80.stroke_with_sharp_stick_all_over_the_hand_short_horvertflip_short_600ms.mp4	117.61614820097566	118.22447205763092	0.6083238566552609				
62.43798828125	0.2	127873	29	27	0	0	0	29	168	stimuli\Videos_short_600ms_horflip\80.stroke_with_sharp_stick_all_over_the_hand_short_horflip_short_600ms.mp4	80.stroke_with_sharp_stick_all_over_the_hand_short_horflip_short_600ms.mp4	118.41613007847808	119.02445334864478	0.608323270166693				
63.23828125	0.2	129512	30	27	0	0	0	30	230	stimuli\Videos_short_600ms_horvertflip\55.touch_top_to_bottom_with_nail_file_short_horvertflip_short_600ms.mp4	55.touch_top_to_bottom_with_nail_file_short_horvertflip_short_600ms.mp4	119.21611224922526	119.82443375992534	0.6083215107000797				
64.0380859375	0.2	131150	31	27	0	0	0	31	171	stimuli\Videos_short_600ms_horflip\83.single_stroke_top_to_bottom_with_cotton_bud_short_horflip_short_600ms.mp4	83.single_stroke_top_to_bottom_with_cotton_bud_short_horflip_short_600ms.mp4	120.01609148752868	120.62441387796208	0.6083223904333863				
64.837890625	0.2	132788	32	27	0	0	0	32	72	stimuli\Videos_short_600ms\75.(long)stroke_with_fingers_all_over_the_hand_short_short_600ms.mp4	75.(long)stroke_with_fingers_all_over_the_hand_short_short_600ms.mp4	120.81605665010647	121.4243939959988	0.6083373458923234				
65.63818359375	0.2	134427	33	27	0	0	0	33	80	stimuli\Videos_short_600ms\82.repeated_touch_with_cotton_bud_short_short_600ms.mp4	82.repeated_touch_with_cotton_bud_short_short_600ms.mp4	121.6160341289442	122.22437352754696	0.6083393986027659				
66.43798828125	0.2	136065	34	27	0	0	0	34	204	stimuli\Videos_short_600ms_horvertflip\31.hand_grabbing_wrist_short_horvertflip_short_600ms.mp4	31.hand_grabbing_wrist_short_horvertflip_short_600ms.mp4	122.41601160778193	123.0243460212323	0.6083344134503932				
67.23779296875	0.2	137703	35	27	0	0	0	35	222	stimuli\Videos_short_600ms_horvertflip\48.single_slap_with_hand_short_horvertflip_short_600ms.mp4	48.single_slap_with_hand_short_horvertflip_short_600ms.mp4	123.215977650093	123.82433845552896	0.6083608054359502				
68.0380859375	0.2	139342	36	27	0	0	0	36	207	stimuli\Videos_short_600ms_horvertflip\34.repeated_punch_with_hand_short_horvertflip_short_600ms.mp4	34.repeated_punch_with_hand_short_horvertflip_short_600ms.mp4	124.0159867993143	124.62431974654282	0.6083329472285186				
68.837890625	0.2	140980	37	27	0	0	0	37	244	stimuli\Videos_short_600ms_horvertflip\68.stroke_top_to_bottom_with_shawl_short_horvertflip_short_600ms.mp4	68.stroke_top_to_bottom_with_shawl_short_horvertflip_short_600ms.mp4	124.8159692633062	125.42429957133572	0.6083303080295082				
69.6376953125	0.2	142618	38	27	0	0	0	38	74	stimuli\Videos_short_600ms\77.tapping_with_all_fingers_short_short_600ms.mp4	77.tapping_with_all_fingers_short_short_600ms.mp4	125.61597635981798	126.224277636662	0.6083012768440312				
70.43798828125	0.2	144257	39	27	0	0	0	39	294	stimuli\Videos_short_600ms_vertflip\31.hand_grabbing_wrist_short_vertflip_short_600ms.mp4	31.hand_grabbing_wrist_short_vertflip_short_600ms.mp4	126.41595413190043	127.0242427992398	0.6082886673393659				
71.23779296875	0.2	145895	40	27	0	0	1	40	366	stimuli\Targets_short_600ms_horflip\brush-stroke_short_horflip_short_600ms.mp4	brush-stroke_short_horflip_short_600ms.mp4	127.21600873398802	127.82423787273548	0.608229138747447				
72.03759765625	0.2	147533	41	27	0	0	0	41	121	stimuli\Videos_short_600ms_horflip\38.double_slap_with_pencil_short_horflip_short_600ms.mp4	38.double_slap_with_pencil_short_horflip_short_600ms.mp4	128.01592433827955	128.6241965839381	0.6082722456585543				
72.837890625	0.2	149172	42	27	0	0	0	42	209	stimuli\Videos_short_600ms_horvertflip\36.single_slap_with_full_hand_short_horvertflip_short_600ms.mp4	36.single_slap_with_full_hand_short_horvertflip_short_600ms.mp4	128.81589917791916	129.42420807911458	0.6083089011954144				
73.6376953125	0.2	150810	43	27	0	0	0	43	20	stimuli\Videos_short_600ms\28.single_injection_with_sharp_needle_short_short_600ms.mp4	28.single_injection_with_sharp_needle_short_short_600ms.mp4	129.61593149344026	130.2241873174189	0.6082558239786522				
74.4375	0.2	152448	44	27	0	0	0	44	257	stimuli\Videos_short_600ms_horvertflip\8.single_touch_with_hairbrush_short_horvertflip_short_600ms.mp4	8.single_touch_with_hairbrush_short_horvertflip_short_600ms.mp4	130.41584416528897	131.02416655572233	0.6083223904333863				
75.23779296875	0.2	154087	45	27	0	0	0	45	8	stimuli\Videos_short_600ms\17.repeated_touch_with_rolling_pin_short_short_600ms.mp4	17.repeated_touch_with_rolling_pin_short_short_600ms.mp4	131.21582428332567	131.82415605757706	0.6083317742513827				
76.03759765625	0.2	155725	46	27	0	0	0	46	15	stimuli\Videos_short_600ms\23.single_push_with_a_spoon_short_short_600ms.mp4	23.single_push_with_a_spoon_short_short_600ms.mp4	132.01580410811766	132.6241306039719	0.6083264958542713				
76.83740234375	0.2	157363	47	27	0	0	0	47	283	stimuli\Videos_short_600ms_vertflip\21.repeated_touch_with_metal_chopstick_short_vertflip_short_600ms.mp4	21.repeated_touch_with_metal_chopstick_short_vertflip_short_600ms.mp4	132.81578363966582	133.42410720307726	0.6083235634114317				
77.6376953125	0.2	159002	48	27	0	0	0	48	267	stimuli\Videos_short_600ms_horvertflip\89.single_touch_with_plastic_brush_short_horvertflip_short_600ms.mp4	89.single_touch_with_plastic_brush_short_horvertflip_short_600ms.mp4	133.61576639690156	134.2240890805797	0.608322683678125				
78.4375	0.2	160640	49	27	0	0	0	49	25	stimuli\Videos_short_600ms\32.single_(long)pinch_with_fingers_short_short_600ms.mp4	32.single_(long)pinch_with_fingers_short_short_600ms.mp4	134.4157233486385	135.02407066483738	0.6083473161988877				
79.2373046875	0.2	162278	50	27	0	0	0	50	136	stimuli\Videos_short_600ms_horflip\51.repeated_touch_with_hammer_short_horflip_short_600ms.mp4	51.repeated_touch_with_hammer_short_horflip_short_600ms.mp4	135.21576152904618	135.8240490234084	0.6082874943622301				
80.03759765625	0.2	163917	51	27	0	0	0	51	301	stimuli\Videos_short_600ms_vertflip\38.double_slap_with_pencil_short_vertflip_short_600ms.mp4	38.double_slap_with_pencil_short_vertflip_short_600ms.mp4	136.0157821147959	136.62404321717167	0.6082611023757636				
80.83740234375	0.2	165555	52	27	0	0	0	52	117	stimuli\Videos_short_600ms_horflip\34.repeated_punch_with_hand_short_horflip_short_600ms.mp4	34.repeated_punch_with_hand_short_horflip_short_600ms.mp4	136.81567748523048	137.42401160543614	0.6083341202056545				
81.6376953125	0.2	167194	53	27	0	0	1	53	360	stimuli\Targets_short_600ms\brush-stroke_short_short_600ms.mp4	brush-stroke_short_short_600ms.mp4	137.61565437758054	138.22399436267187	0.6083399850913338				
82.4375	0.2	168832	54	27	0	0	0	54	309	stimuli\Videos_short_600ms_vertflip\45.scratching_with_finger_nails_short_vertflip_short_600ms.mp4	45.scratching_with_finger_nails_short_vertflip_short_600ms.mp4	138.4157189499747	139.02397477395243	0.6082558239777427				
83.2373046875	0.2	170470	55	27	0	0	0	55	169	stimuli\Videos_short_600ms_horflip\81.single_stroke_top_to_bottom_with_cotton_pad_short_horflip_short_600ms.mp4	81.single_stroke_top_to_bottom_with_cotton_pad_short_horflip_short_600ms.mp4	139.21578528183454	139.82395283927963	0.6081675574450855				
84.03759765625	0.2	172109	56	27	0	0	0	56	10	stimuli\Videos_short_600ms\19.single_touch_with_rolling_pin_short_short_600ms.mp4	19.single_touch_with_rolling_pin_short_short_600ms.mp4	140.01567596036057	140.6239153626584	0.6082394022978406				
84.83740234375	0.2	173747	57	27	0	0	0	57	63	stimuli\Videos_short_600ms\67.single_touch_with_sponge_short_short_600ms.mp4	67.single_touch_with_sponge_short_short_600ms.mp4	140.81560417415676	141.42391190237504	0.6083077282182785				
85.63720703125	0.2	175385	58	27	0	0	0	58	205	stimuli\Videos_short_600ms_horvertflip\32.single_(long)pinch_with_fingers_short_horvertflip_short_600ms.mp4	32.single_(long)pinch_with_fingers_short_horvertflip_short_600ms.mp4	141.6157666901454	142.2239016974736	0.608135007328201				
86.4375	0.2	177024	59	27	0	0	0	59	28	stimuli\Videos_short_600ms\35.single_punch_with_hand_short_short_600ms.mp4	35.single_punch_with_hand_short_short_600ms.mp4	142.415622765845	143.02385337081432	0.6082306049693216				
87.2373046875	0.2	178662	60	27	0	0	0	60	259	stimuli\Videos_short_600ms_horvertflip\81.single_stroke_top_to_bottom_with_cotton_pad_short_horvertflip_short_600ms.mp4	81.single_stroke_top_to_bottom_with_cotton_pad_short_horvertflip_short_600ms.mp4	143.2155500999088	143.82384316591197	0.6082930660031707				
88.037109375	0.2	180300	61	27	0	0	0	61	233	stimuli\Videos_short_600ms_horvertflip\58.single_slap_with_pencil_short_horvertflip_short_600ms.mp4	58.single_slap_with_pencil_short_horvertflip_short_600ms.mp4	144.01549356240776	144.62381947177346	0.6083259093657034				
88.83740234375	0.2	181939	62	27	0	0	0	62	114	stimuli\Videos_short_600ms_horflip\31.hand_grabbing_wrist_short_horflip_short_600ms.mp4	31.hand_grabbing_wrist_short_horflip_short_600ms.mp4	144.8155003656757	145.42382920748423	0.6083288418085431				
89.63720703125	0.2	183577	63	27	0	0	0	63	281	stimuli\Videos_short_600ms_vertflip\2.single_touch_with_finger_short_vertflip_short_600ms.mp4	2.single_touch_with_finger_short_vertflip_short_600ms.mp4	145.6154983716142	146.22380522010008	0.6083068484858813				
90.43701171875	0.2	185215	64	27	0	0	0	64	56	stimuli\Videos_short_600ms\60.single_push_with_tip_of_pencil_short_short_600ms.mp4	60.single_push_with_tip_of_pencil_short_short_600ms.mp4	146.4154318638084	147.0237947219548	0.6083628581463927				
91.2373046875	0.2	186854	65	27	0	0	0	65	196	stimuli\Videos_short_600ms_horvertflip\24.single_stroke_top_to_bottom_with_a_spoon_short_horvertflip_short_600ms.mp4	24.single_stroke_top_to_bottom_with_a_spoon_short_horvertflip_short_600ms.mp4	147.21548206723128	147.82376223048686	0.6082801632555856				
92.037109375	0.2	188492	66	27	0	0	0	66	252	stimuli\Videos_short_600ms_horvertflip\75.(long)stroke_with_fingers_all_over_the_hand_short_horvertflip_short_600ms.mp4	75.(long)stroke_with_fingers_all_over_the_hand_short_horvertflip_short_600ms.mp4	148.01542904866255	148.6237423485236	0.6083132998610381				
92.8369140625	0.2	190130	67	27	0	0	0	67	202	stimuli\Videos_short_600ms_horvertflip\3.single_push_with_finger_short_horvertflip_short_600ms.mp4	3.single_push_with_finger_short_horvertflip_short_600ms.mp4	148.81538394768995	149.4237265719803	0.6083426242903442				
93.63720703125	0.2	191769	68	27	0	0	0	68	43	stimuli\Videos_short_600ms\49.repeated_slap_with_hand_short_short_600ms.mp4	49.repeated_slap_with_hand_short_short_600ms.mp4	149.6153822468732	150.22370698326085	0.608324736387658				
94.43701171875	0.2	193407	69	27	0	0	0	69	24	stimuli\Videos_short_600ms\31.hand_grabbing_wrist_short_short_600ms.mp4	31.hand_grabbing_wrist_short_short_600ms.mp4	150.4153655905966	151.02368768778615	0.6083220971895571				
95.23681640625	0.2	195045	70	27	0	0	1	70	365	stimuli\Targets_short_600ms\hand-stroke_short_short_600ms.mp4	hand-stroke_short_short_600ms.mp4	151.21532459504397	151.82366839231145	0.6083437972674801				
96.037109375	0.2	196684	71	27	0	0	0	71	120	stimuli\Videos_short_600ms_horflip\37.single_stab_with_nail_file_short_horflip_short_600ms.mp4	37.single_stab_with_nail_file_short_horflip_short_600ms.mp4	152.0153132171654	152.6236496833253	0.6083364661599262				
96.8369140625	0.2	198322	72	27	0	0	0	72	238	stimuli\Videos_short_600ms_horvertflip\62.touch_top_to_bottom_with_scissors_short_horvertflip_short_600ms.mp4	62.touch_top_to_bottom_with_scissors_short_horvertflip_short_600ms.mp4	152.81533262993798	153.42362892162964	0.6082962916916586				
97.63671875	0.2	199960	73	27	0	0	0	73	17	stimuli\Videos_short_600ms\25.single_touch_with_stanley_knife_short_short_600ms.mp4	25.single_touch_with_stanley_knife_short_short_600ms.mp4	153.61530981553187	154.22360962615494	0.6082998106230662				
98.43701171875	0.2	201599	74	27	0	0	0	74	48	stimuli\Videos_short_600ms\53.touch_top_to_bottom_with_knife_short_short_600ms.mp4	53.touch_top_to_bottom_with_knife_short_short_600ms.mp4	154.41525533074127	155.02358974419167	0.6083344134503932				
99.2451171875	0.2	203254	75	27	0	0	0	75	356	stimuli\Videos_short_600ms_vertflip\88.repeated_stroke_with_plastic_brush_short_vertflip_short_600ms.mp4	88.repeated_stroke_with_plastic_brush_short_vertflip_short_600ms.mp4	155.2152809016443	155.8235810055112	0.6083001038668954				
100.04541015625	0.2	204893	76	27	0	0	0	76	76	stimuli\Videos_short_600ms\79.long_with_soft_brush_all_over_the_hand_short_short_600ms.mp4	79.long_with_soft_brush_all_over_the_hand_short_short_600ms.mp4	156.0235762549537	156.6318857426386	0.6083094876848918				
100.84521484375	0.2	206531	77	27	0	0	0	77	143	stimuli\Videos_short_600ms_horflip\58.single_slap_with_pencil_short_horflip_short_600ms.mp4	58.single_slap_with_pencil_short_horflip_short_600ms.mp4	156.82352499585068	157.43186908636198	0.6083440905113093				
101.64501953125	0.2	208169	78	27	0	0	0	78	153	stimuli\Videos_short_600ms_horflip\67.single_touch_with_sponge_short_horflip_short_600ms.mp4	67.single_touch_with_sponge_short_horflip_short_600ms.mp4	157.62351332472736	158.23184949764345	0.608336172916097				
102.4453125	0.2	209808	79	27	0	0	0	79	248	stimuli\Videos_short_600ms_horvertflip\71.single_stroke_with_finger_top_to_bottom_short_horvertflip_short_600ms.mp4	71.single_stroke_with_finger_top_to_bottom_short_horvertflip_short_600ms.mp4	158.42351807528485	159.03183108190115	0.6083130066162994				
103.2451171875	0.2	211446	80	27	0	0	0	80	6	stimuli\Videos_short_600ms\15.single_stroke_top_to_bottom_with_a_plastic_whisk_short_short_600ms.mp4	15.single_stroke_top_to_bottom_with_a_plastic_whisk_short_short_600ms.mp4	159.2234709216027	159.8318097337169	0.6083388121141979				
104.044921875	0.2	213084	81	27	0	0	0	81	127	stimuli\Videos_short_600ms_horflip\43.touch_top_to_bottom_with_sharp_wooden_stick_short_horflip_short_600ms.mp4	43.touch_top_to_bottom_with_sharp_wooden_stick_short_horflip_short_600ms.mp4	160.0234730329612	160.63180979236586	0.6083367594046649				
104.84521484375	0.2	214723	82	27	0	0	0	82	167	stimuli\Videos_short_600ms_horflip\8.single_touch_with_hairbrush_short_horflip_short_600ms.mp4	8.single_touch_with_hairbrush_short_horflip_short_600ms.mp4	160.82412878585728	161.43176909005706	0.6076403041997764				
105.64501953125	0.2	216361	83	27	0	0	0	83	152	stimuli\Videos_short_600ms_horflip\66.stroke_top_to_bottom_with_sponge_short_horflip_short_600ms.mp4	66.stroke_top_to_bottom_with_sponge_short_horflip_short_600ms.mp4	161.62345672857828	162.2317278012597	0.6082710726814184				
106.44482421875	0.2	217999	84	27	0	0	0	84	106	stimuli\Videos_short_600ms_horflip\24.single_stroke_top_to_bottom_with_a_spoon_short_horflip_short_600ms.mp4	24.single_stroke_top_to_bottom_with_a_spoon_short_horflip_short_600ms.mp4	162.42380105603115	163.03170967876304	0.607908622731884				
107.2451171875	0.2	219638	85	27	0	0	0	85	239	stimuli\Videos_short_600ms_horvertflip\63.stroke_top_to_bottom_with_screwdriver_short_horvertflip_short_600ms.mp4	63.stroke_top_to_bottom_with_screwdriver_short_horvertflip_short_600ms.mp4	163.2240823359607	163.83171266985482	0.6076303338941216				
108.044921875	0.2	221276	86	27	0	0	1	86	367	stimuli\Targets_short_600ms_horflip\chopstick-silver-tap_short_horflip_short_600ms.mp4	chopstick-silver-tap_short_horflip_short_600ms.mp4	164.02344400177572	164.63170422441908	0.6082602226433664				
108.8447265625	0.2	222914	87	27	0	0	0	87	32	stimuli\Videos_short_600ms\39.single_stab_with_scissors_short_short_600ms.mp4	39.single_stab_with_scissors_short_short_600ms.mp4	164.8234865808481	165.43168668841008	0.6082001075619701				
109.64501953125	0.2	224553	88	27	0	0	0	88	85	stimuli\Videos_short_600ms\87.single_stroke_top_to_bottom_with_plastic_brush_short_short_600ms.mp4	87.single_stroke_top_to_bottom_with_plastic_brush_short_short_600ms.mp4	165.62336963502185	166.2316917322114	0.6083220971895571				
110.44482421875	0.2	226191	89	27	0	0	0	89	284	stimuli\Videos_short_600ms_vertflip\22.single_touch_with_metal_chopstick_short_vertflip_short_600ms.mp4	22.single_touch_with_metal_chopstick_short_vertflip_short_600ms.mp4	166.4233189624083	167.03164868394924	0.6083297215409402				
111.24462890625	0.2	227829	90	27	0	0	0	90	199	stimuli\Videos_short_600ms_horvertflip\27.single_push_with_a_plastic_whisk_short_horvertflip_short_600ms.mp4	27.single_push_with_a_plastic_whisk_short_horvertflip_short_600ms.mp4	167.22329644124602	167.8316246965651	0.6083282553190656				
112.044921875	0.2	229468	91	27	0	0	0	91	54	stimuli\Videos_short_600ms\59.single_push_with_long_side_pencil_short_short_600ms.mp4	59.single_push_with_long_side_pencil_short_short_600ms.mp4	168.02327831874845	168.63160510784655	0.6083267890981006				
112.8447265625	0.2	231106	92	27	0	0	0	92	65	stimuli\Videos_short_600ms\69.stroke_with_soft_sock_short_short_600ms.mp4	69.stroke_with_soft_sock_short_short_600ms.mp4	168.82326488815943	169.43158082721857	0.608315939059139				
113.64453125	0.2	232744	93	27	0	0	0	93	89	stimuli\Videos_short_600ms\90.repeated_touch_with_sponge_short_short_600ms.mp4	90.repeated_touch_with_sponge_short_short_600ms.mp4	169.62331362536133	170.2315644641867	0.60825083882537				
114.44482421875	0.2	234383	94	27	0	0	0	94	215	stimuli\Videos_short_600ms_horvertflip\41.injection_with_blunt_syringe_short_horvertflip_short_600ms.mp4	41.injection_with_blunt_syringe_short_horvertflip_short_600ms.mp4	170.42320137144452	171.03154370249104	0.608342331046515				
115.24462890625	0.2	236021	95	27	0	0	0	95	300	stimuli\Videos_short_600ms_vertflip\37.single_stab_with_nail_file_short_vertflip_short_600ms.mp4	37.single_stab_with_nail_file_short_vertflip_short_600ms.mp4	171.2231964449411	171.83152704621443	0.6083306012733374				
116.04443359375	0.2	237659	96	27	0	0	0	96	83	stimuli\Videos_short_600ms\85.touch_top_to_bottom_with_fabric_short_short_600ms.mp4	85.touch_top_to_bottom_with_fabric_short_short_600ms.mp4	172.02319151843676	172.63150511154072	0.6083135931039578				
116.84423828125	0.2	239297	97	27	0	0	0	97	66	stimuli\Videos_short_600ms\7.repeated_touch_with_hairbrush_short_short_600ms.mp4	7.repeated_touch_with_hairbrush_short_short_600ms.mp4	172.82314876341752	173.4314881620203	0.6083393986027659	8.0	8.0	2.6330135602020164	1.0
150.68505859375	0.2	308603	98	27	1	0	0	0	250	stimuli\Videos_short_600ms_horvertflip\73.single_stroke_with_flat_hand_short_horvertflip_short_600ms.mp4	73.single_stroke_with_flat_hand_short_horvertflip_short_600ms.mp4	207.46400719504257	208.07233838280536	0.6083311877628148				
151.4853515625	0.2	310242	99	27	1	0	0	1	330	stimuli\Videos_short_600ms_vertflip\64.repeated_touch_with_screwdriver_short_vertflip_short_600ms.mp4	64.repeated_touch_with_screwdriver_short_vertflip_short_600ms.mp4	208.26396561300044	208.8723085305346	0.6083429175341735				
152.28515625	0.2	311880	100	27	1	0	0	2	310	stimuli\Videos_short_600ms_vertflip\46.scratching_top_to_bottom_with_finger_nails_short_vertflip_short_600ms.mp4	46.scratching_top_to_bottom_with_finger_nails_short_vertflip_short_600ms.mp4	209.06394631752573	209.6723024310531	0.6083561135274067				
153.0849609375	0.2	313518	101	27	1	0	0	3	162	stimuli\Videos_short_600ms_horflip\75.(long)stroke_with_fingers_all_over_the_hand_short_horflip_short_600ms.mp4	75.(long)stroke_with_fingers_all_over_the_hand_short_horflip_short_600ms.mp4	209.86394285724327	210.47227052607468	0.6083276688314072				
153.88525390625	0.2	315157	102	27	1	0	0	4	232	stimuli\Videos_short_600ms_horvertflip\57.single_touch_with_nail_file_short_horvertflip_short_600ms.mp4	57.single_touch_with_nail_file_short_horvertflip_short_600ms.mp4	210.6640476041057	211.27225005762284	0.6082024535171513				
154.68505859375	0.2	316795	103	27	1	0	0	5	133	stimuli\Videos_short_600ms_horflip\49.repeated_slap_with_hand_short_horflip_short_600ms.mp4	49.repeated_slap_with_hand_short_horflip_short_600ms.mp4	211.46398930714076	212.07223252161293	0.6082432144721679				
155.48486328125	0.2	318433	104	27	1	0	0	6	235	stimuli\Videos_short_600ms_horvertflip\6.single_touch_with_flat_hand_short_horvertflip_short_600ms.mp4	6.single_touch_with_flat_hand_short_horvertflip_short_600ms.mp4	212.2639506575424	212.8722155720925	0.6082649145500909				
156.28515625	0.2	320072	105	27	1	0	0	7	297	stimuli\Videos_short_600ms_vertflip\34.repeated_punch_with_hand_short_vertflip_short_600ms.mp4	34.repeated_punch_with_hand_short_vertflip_short_600ms.mp4	213.06384866717508	213.67219656986256	0.6083479026874556				
157.0849609375	0.2	321710	106	27	1	0	0	8	181	stimuli\Videos_short_600ms_horvertflip\10.single_touch_with_knife_short_horvertflip_short_600ms.mp4	10.single_touch_with_knife_short_horvertflip_short_600ms.mp4	213.8638408082288	214.47217668790017	0.6083358796713583				
157.884765625	0.2	323348	107	27	1	0	0	9	218	stimuli\Videos_short_600ms_horvertflip\44.pushing_top_to_bottom_with_finger_short_horvertflip_short_600ms.mp4	44.pushing_top_to_bottom_with_finger_short_horvertflip_short_600ms.mp4	214.6638581682901	215.27215445998172	0.6082962916916586				
158.68505859375	0.2	324987	108	27	1	0	0	10	173	stimuli\Videos_short_600ms_horflip\85.touch_top_to_bottom_with_fabric_short_horflip_short_600ms.mp4	85.touch_top_to_bottom_with_fabric_short_horflip_short_600ms.mp4	215.46379576590425	216.0721386834384	0.6083429175341735				
159.48486328125	0.2	326625	109	27	1	0	0	11	93	stimuli\Videos_short_600ms_horflip\12.repeated_touch_with_nail_file_short_horflip_short_600ms.mp4	12.repeated_touch_with_nail_file_short_horflip_short_600ms.mp4	216.26394215345772	216.8721164555218	0.6081743020640715				
160.28466796875	0.2	328263	110	27	1	0	0	12	42	stimuli\Videos_short_600ms\48.single_slap_with_hand_short_short_600ms.mp4	48.single_slap_with_hand_short_short_600ms.mp4	217.0637923642707	217.67209422760337	0.6083018633325992				
161.0849609375	0.2	329902	111	27	1	0	0	13	339	stimuli\Videos_short_600ms_vertflip\72.(short)stroke_with_finger_all_over_the_hand_short_vertflip_short_600ms.mp4	72.(short)stroke_with_finger_all_over_the_hand_short_vertflip_short_600ms.mp4	217.8637487295191	218.47205939018113	0.6083106606620277				
161.884765625	0.2	331540	112	27	1	0	0	14	126	stimuli\Videos_short_600ms_horflip\42.single_slap_with_plastic_whisk_short_horflip_short_600ms.mp4	42.single_slap_with_plastic_whisk_short_horflip_short_600ms.mp4	218.6637458557243	219.27206355424912	0.6083176985248429				
162.68505859375	0.2	333179	113	27	1	0	0	15	325	stimuli\Videos_short_600ms_vertflip\6.single_touch_with_flat_hand_short_vertflip_short_600ms.mp4	6.single_touch_with_flat_hand_short_vertflip_short_600ms.mp4	219.46381042811936	220.07203839388876	0.6082279657694016				
163.48486328125	0.2	334817	114	27	1	0	0	16	151	stimuli\Videos_short_600ms_horflip\65.stroke_top_to_bottom_with_stanley_knife_short_horflip_short_600ms.mp4	65.stroke_top_to_bottom_with_stanley_knife_short_horflip_short_600ms.mp4	220.26375506359636	220.8720032632218	0.6082481996254501				
164.28466796875	0.2	336455	115	27	1	0	0	17	175	stimuli\Videos_short_600ms_horflip\87.single_stroke_top_to_bottom_with_plastic_brush_short_horflip_short_600ms.mp4	87.single_stroke_top_to_bottom_with_plastic_brush_short_horflip_short_600ms.mp4	221.06368239765925	221.67200742729165	0.6083250296323968				
165.0849609375	0.2	338094	116	27	1	0	0	18	96	stimuli\Videos_short_600ms_horflip\15.single_stroke_top_to_bottom_with_a_plastic_whisk_short_horflip_short_600ms.mp4	15.single_stroke_top_to_bottom_with_a_plastic_whisk_short_horflip_short_600ms.mp4	221.8641683621072	222.4719878385722	0.6078194764650107				
165.884765625	0.2	339732	117	27	1	0	0	19	79	stimuli\Videos_short_600ms\81.single_stroke_top_to_bottom_with_cotton_pad_short_short_600ms.mp4	81.single_stroke_top_to_bottom_with_cotton_pad_short_short_600ms.mp4	222.66386843184137	223.27197088905177	0.608102457210407				
166.6845703125	0.2	341370	118	27	1	0	0	20	269	stimuli\Videos_short_600ms_horvertflip\90.repeated_touch_with_sponge_short_horvertflip_short_600ms.mp4	90.repeated_touch_with_sponge_short_horvertflip_short_600ms.mp4	223.46366820463572	224.0719471949133	0.6082789902775403				
167.48486328125	0.2	343009	119	27	1	0	0	21	131	stimuli\Videos_short_600ms_horflip\47.(long)scratching_with_finger_nails_short_horflip_short_600ms.mp4	47.(long)scratching_with_finger_nails_short_horflip_short_600ms.mp4	224.2636471496944	224.87193581703377	0.6082886673393659				
168.28466796875	0.2	344647	120	27	1	0	0	22	125	stimuli\Videos_short_600ms_horflip\41.injection_with_blunt_syringe_short_horflip_short_600ms.mp4	41.injection_with_blunt_syringe_short_horflip_short_600ms.mp4	225.06358767975053	225.67190860396383	0.6083209242133307				
169.08447265625	0.2	346285	121	27	1	0	0	23	1	stimuli\Videos_short_600ms\10.single_touch_with_knife_short_short_600ms.mp4	10.single_touch_with_knife_short_short_600ms.mp4	225.8635698504977	226.47188872199968	0.6083188715019787				
169.884765625	0.2	347924	122	27	1	0	0	24	73	stimuli\Videos_short_600ms\76.tickle_with_fingers_from_top_to_bottom_short_short_600ms.mp4	76.tickle_with_fingers_from_top_to_bottom_short_short_600ms.mp4	226.66353237387648	227.2718688400373	0.6083364661608357				
170.6845703125	0.2	349562	123	27	1	0	0	25	174	stimuli\Videos_short_600ms_horflip\86.touch_top_to_bottom_with_hair_brush_short_horflip_short_600ms.mp4	86.touch_top_to_bottom_with_hair_brush_short_horflip_short_600ms.mp4	227.46350398782943	228.07185247700457	0.6083484891751141				
171.484375	0.2	351200	124	27	1	0	0	26	90	stimuli\Videos_short_600ms_horflip\1.repeated_touch_with_finger_fast_short_horflip_short_600ms.mp4	1.repeated_touch_with_finger_fast_short_horflip_short_600ms.mp4	228.26349554239368	228.87183288828692	0.6083373458932329				
172.28466796875	0.2	352839	125	27	1	0	0	27	35	stimuli\Videos_short_600ms\41.injection_with_blunt_syringe_short_short_600ms.mp4	41.injection_with_blunt_syringe_short_short_600ms.mp4	229.0635633404754	229.6718106603685	0.6082473198930529				
173.08447265625	0.2	354477	126	27	1	0	0	28	46	stimuli\Videos_short_600ms\51.repeated_touch_with_hammer_short_short_600ms.mp4	51.repeated_touch_with_hammer_short_short_600ms.mp4	229.8634502068244	230.47179283111564	0.6083426242912537				
173.88427734375	0.2	356115	127	27	1	0	0	29	273	stimuli\Videos_short_600ms_vertflip\12.repeated_touch_with_nail_file_short_vertflip_short_600ms.mp4	12.repeated_touch_with_nail_file_short_vertflip_short_600ms.mp4	230.66344205463335	231.2717714829314	0.6083294282980205				
174.6845703125	0.2	357754	128	27	1	0	0	30	194	stimuli\Videos_short_600ms_horvertflip\22.single_touch_with_metal_chopstick_short_horvertflip_short_600ms.mp4	22.single_touch_with_metal_chopstick_short_horvertflip_short_600ms.mp4	231.463419533472	232.07175805234235	0.6083385188703687				
175.484375	0.2	359392	129	27	1	0	0	31	256	stimuli\Videos_short_600ms_horvertflip\79.long_with_soft_brush_all_over_the_hand_short_horvertflip_short_600ms.mp4	79.long_with_soft_brush_all_over_the_hand_short_horvertflip_short_600ms.mp4	232.2634415854436	232.871732891982	0.6082913065383764				
176.2841796875	0.2	361030	130	27	1	0	0	32	45	stimuli\Videos_short_600ms\50.single_(long)hard_push_with_thumb_short_short_600ms.mp4	50.single_(long)hard_push_with_thumb_short_short_600ms.mp4	233.06348211180463	233.67171330326255	0.6082311914578895				
177.08447265625	0.2	362669	131	27	1	0	0	33	188	stimuli\Videos_short_600ms_horvertflip\17.repeated_touch_with_rolling_pin_short_horvertflip_short_600ms.mp4	17.repeated_touch_with_rolling_pin_short_horvertflip_short_600ms.mp4	233.8633892120115	234.4716728941976	0.6082836821860838				
177.88427734375	0.2	364307	132	27	1	0	0	34	268	stimuli\Videos_short_600ms_horvertflip\9.single_touch_with_hammer_short_horvertflip_short_600ms.mp4	9.single_touch_with_hammer_short_horvertflip_short_600ms.mp4	234.66335672054356	235.2716606365857	0.6083039160421322				
178.68408203125	0.2	365945	133	27	1	0	0	35	78	stimuli\Videos_short_600ms\80.stroke_with_sharp_stick_all_over_the_hand_short_short_600ms.mp4	80.stroke_with_sharp_stick_all_over_the_hand_short_short_600ms.mp4	235.46334915484024	236.0716592290146	0.6083100741743692				
179.484375	0.2	367584	134	27	1	0	0	36	186	stimuli\Videos_short_600ms_horvertflip\15.single_stroke_top_to_bottom_with_a_plastic_whisk_short_horvertflip_short_600ms.mp4	15.single_stroke_top_to_bottom_with_a_plastic_whisk_short_horvertflip_short_600ms.mp4	236.26337237978896	236.87163729434087	0.6082649145519099				
180.2841796875	0.2	369222	135	27	1	0	0	37	355	stimuli\Videos_short_600ms_vertflip\87.single_stroke_top_to_bottom_with_plastic_brush_short_vertflip_short_600ms.mp4	87.single_stroke_top_to_bottom_with_plastic_brush_short_vertflip_short_600ms.mp4	237.06337713034645	237.6716578800906	0.6082807497441536				
181.083984375	0.2	370860	136	27	1	0	0	38	337	stimuli\Videos_short_600ms_vertflip\70.(long)stroke_with_finger_all_over_the_hand_short_vertflip_short_600ms.mp4	70.(long)stroke_with_finger_all_over_the_hand_short_vertflip_short_600ms.mp4	237.86333202937297	238.47160368854475	0.6082716591718054				
181.88427734375	0.2	372499	137	27	1	0	0	39	266	stimuli\Videos_short_600ms_horvertflip\88.repeated_stroke_with_plastic_brush_short_horvertflip_short_600ms.mp4	88.repeated_stroke_with_plastic_brush_short_horvertflip_short_600ms.mp4	238.6633247569143	239.27158673902431	0.6082619821099797				
182.68408203125	0.2	374137	138	27	1	0	1	40	374	stimuli\Targets_short_600ms_horvertflip\chopstickwood-tap_short_vertflip_short_600ms.mp4	chopstickwood-tap_short_vertflip_short_600ms.mp4	239.46321983410508	240.07156949625912	0.6083496621540689				
183.484375	0.2	375776	139	27	1	0	0	41	147	stimuli\Videos_short_600ms_horflip\61.single_hit_with_rolling_pin_short_horflip_short_600ms.mp4	61.single_hit_with_rolling_pin_short_horflip_short_600ms.mp4	240.26322575764152	240.8715455088759	0.6083197512343759				
184.2841796875	0.2	377414	140	27	1	0	0	42	146	stimuli\Videos_short_600ms_horflip\60.single_push_with_tip_of_pencil_short_horflip_short_600ms.mp4	60.single_push_with_tip_of_pencil_short_horflip_short_600ms.mp4	241.06320323647833	241.67152650664593	0.6083232701676025				
185.083984375	0.2	379052	141	27	1	0	0	43	262	stimuli\Videos_short_600ms_horvertflip\84.single_touch_with_cotton_bud_short_horvertflip_short_600ms.mp4	84.single_touch_with_cotton_bud_short_horvertflip_short_600ms.mp4	241.86318511398076	242.471506331437	0.6083212174562505				
185.88427734375	0.2	380691	142	27	1	0	0	44	4	stimuli\Videos_short_600ms\13.single_touch_with_pen_short_short_600ms.mp4	13.single_touch_with_pen_short_short_600ms.mp4	242.6632048199981	243.27148732920705	0.6082825092089479				
186.68408203125	0.2	382329	143	27	1	0	0	45	29	stimuli\Videos_short_600ms\36.single_slap_with_full_hand_short_short_600ms.mp4	36.single_slap_with_full_hand_short_short_600ms.mp4	243.4631245297087	244.0714668607552	0.608342331046515				
187.48388671875	0.2	383967	144	27	1	0	1	46	376	stimuli\Targets_short_600ms_horvertflip\hand-pinch_short_vertflip_short_600ms.mp4	hand-pinch_short_vertflip_short_600ms.mp4	244.2633392431826	244.87145049772425	0.6081112545416545				
188.2841796875	0.2	385606	145	27	1	0	0	47	97	stimuli\Videos_short_600ms_horflip\16.repeated_touch_with_plastic_brush_short_horflip_short_600ms.mp4	16.repeated_touch_with_plastic_brush_short_horflip_short_600ms.mp4	245.06308447253923	245.67143061576007	0.6083461432208424				
189.083984375	0.2	387244	146	27	1	0	0	48	321	stimuli\Videos_short_600ms_vertflip\56.repeated_touch_with_nail_file_short_vertflip_short_600ms.mp4	56.repeated_touch_with_nail_file_short_vertflip_short_600ms.mp4	245.8631147353508	246.47141220001777	0.6082974646669754				
189.8837890625	0.2	388882	147	27	1	0	0	49	344	stimuli\Videos_short_600ms_vertflip\77.tapping_with_all_fingers_short_vertflip_short_600ms.mp4	77.tapping_with_all_fingers_short_vertflip_short_600ms.mp4	246.6630716870868	247.2713952504973	0.6083235634105222				
190.68408203125	0.2	390521	148	27	1	0	0	50	229	stimuli\Videos_short_600ms_horvertflip\54.repeated_touch_with_knife_short_horvertflip_short_600ms.mp4	54.repeated_touch_with_knife_short_horvertflip_short_600ms.mp4	247.4630435942845	248.0713463373495	0.6083027430649963				
191.48388671875	0.2	392159	149	27	1	0	0	51	298	stimuli\Videos_short_600ms_vertflip\35.single_punch_with_hand_short_vertflip_short_600ms.mp4	35.single_punch_with_hand_short_vertflip_short_600ms.mp4	248.263034855604	248.87133290676047	0.6082980511564529				
192.28369140625	0.2	393797	150	27	1	0	0	52	214	stimuli\Videos_short_600ms_horvertflip\40.repeated_push_with_finger_short_horvertflip_short_600ms.mp4	40.repeated_push_with_finger_short_horvertflip_short_600ms.mp4	249.06315924983485	249.67130745315535	0.6081482033205248				
193.083984375	0.2	395436	151	27	1	0	0	53	270	stimuli\Videos_short_600ms_vertflip\1.repeated_touch_with_finger_fast_short_vertflip_short_600ms.mp4	1.repeated_touch_with_finger_fast_short_vertflip_short_600ms.mp4	249.86294993205505	250.4712990077196	0.6083490756645915				
193.8837890625	0.2	397074	152	27	1	0	0	54	30	stimuli\Videos_short_600ms\37.single_stab_with_nail_file_short_short_600ms.mp4	37.single_stab_with_nail_file_short_short_600ms.mp4	250.66302183555763	251.27127677980295	0.6082549442453455				
194.68359375	0.2	398712	153	27	1	0	0	55	261	stimuli\Videos_short_600ms_horvertflip\83.single_stroke_top_to_bottom_with_cotton_bud_short_horvertflip_short_600ms.mp4	83.single_stroke_top_to_bottom_with_cotton_bud_short_horvertflip_short_600ms.mp4	251.46295620748333	252.07127038707677	0.6083141795934353				
195.48388671875	0.2	400351	154	27	1	0	0	56	22	stimuli\Videos_short_600ms\3.single_push_with_finger_short_short_600ms.mp4	3.single_push_with_finger_short_short_600ms.mp4	252.2629744472788	252.87127103221337	0.6082965849345783				
196.28369140625	0.2	401989	155	27	1	0	0	57	308	stimuli\Videos_short_600ms_vertflip\44.pushing_top_to_bottom_with_finger_short_vertflip_short_600ms.mp4	44.pushing_top_to_bottom_with_finger_short_vertflip_short_600ms.mp4	253.06292289493192	253.6712479245643	0.6083250296323968				
197.08349609375	0.2	403627	156	27	1	0	0	58	243	stimuli\Videos_short_600ms_horvertflip\67.single_touch_with_sponge_short_horvertflip_short_600ms.mp4	67.single_touch_with_sponge_short_horvertflip_short_600ms.mp4	253.86289714808208	254.47122100473737	0.6083238566552609				
197.8837890625	0.2	405266	157	27	1	0	0	59	23	stimuli\Videos_short_600ms\30.finger_pulling_back_another_finger_short_short_600ms.mp4	30.finger_pulling_back_another_finger_short_short_600ms.mp4	254.66289984593004	255.27119907006363	0.6082992241335887				
198.68359375	0.2	406904	158	27	1	0	0	60	91	stimuli\Videos_short_600ms_horflip\10.single_touch_with_knife_short_horflip_short_600ms.mp4	10.single_touch_with_knife_short_horflip_short_600ms.mp4	255.46286002335455	256.0711806543213	0.608320630966773				
199.4833984375	0.2	408542	159	27	1	0	0	61	225	stimuli\Videos_short_600ms_horvertflip\50.single_(long)hard_push_with_thumb_short_horvertflip_short_600ms.mp4	50.single_(long)hard_push_with_thumb_short_horvertflip_short_600ms.mp4	256.26295773235415	256.87116223858084	0.6082045062266843				
200.28369140625	0.2	410181	160	27	1	0	0	62	351	stimuli\Videos_short_600ms_vertflip\83.single_stroke_top_to_bottom_with_cotton_bud_short_vertflip_short_600ms.mp4	83.single_stroke_top_to_bottom_with_cotton_bud_short_vertflip_short_600ms.mp4	257.0627967998835	257.6711411836395	0.608344383756048				
201.08349609375	0.2	411819	161	27	1	0	0	63	353	stimuli\Videos_short_600ms_vertflip\85.touch_top_to_bottom_with_fabric_short_vertflip_short_600ms.mp4	85.touch_top_to_bottom_with_fabric_short_vertflip_short_600ms.mp4	257.8627992044867	258.4711218881648	0.608322683678125				
201.88330078125	0.2	413457	162	27	1	0	0	64	185	stimuli\Videos_short_600ms_horvertflip\14.repeated_touch_with_pencil_short_horvertflip_short_600ms.mp4	14.repeated_touch_with_pencil_short_horvertflip_short_600ms.mp4	258.66279339824996	259.27110376566725	0.6083103674172889				
202.68359375	0.2	415096	163	27	1	0	0	65	197	stimuli\Videos_short_600ms_horvertflip\25.single_touch_with_stanley_knife_short_horvertflip_short_600ms.mp4	25.single_touch_with_stanley_knife_short_horvertflip_short_600ms.mp4	259.4627459513222	260.07108447019255	0.6083385188703687				
203.4833984375	0.2	416734	164	27	1	0	0	66	155	stimuli\Videos_short_600ms_horflip\69.stroke_with_soft_sock_short_horflip_short_600ms.mp4	69.stroke_with_soft_sock_short_horflip_short_600ms.mp4	260.2627216706942	260.8710648814731	0.6083432107789122				
204.28369140625	0.2	418373	165	27	1	0	0	67	346	stimuli\Videos_short_600ms_vertflip\79.long_with_soft_brush_all_over_the_hand_short_vertflip_short_600ms.mp4	79.long_with_soft_brush_all_over_the_hand_short_vertflip_short_600ms.mp4	261.0627041346861	261.67104499951074	0.6083408648246404				
205.08349609375	0.2	420011	166	27	1	0	0	68	135	stimuli\Videos_short_600ms_horflip\50.single_(long)hard_push_with_thumb_short_horflip_short_600ms.mp4	50.single_(long)hard_push_with_thumb_short_horflip_short_600ms.mp4	261.86276958681356	262.47102423781416	0.6082546510006068				
205.88330078125	0.2	421649	167	27	1	0	0	69	285	stimuli\Videos_short_600ms_vertflip\23.single_push_with_a_spoon_short_vertflip_short_600ms.mp4	23.single_push_with_a_spoon_short_vertflip_short_600ms.mp4	262.662698973586	263.2709814827949	0.6082825092089479				
206.68359375	0.2	423288	168	27	1	0	0	70	282	stimuli\Videos_short_600ms_vertflip\20.single_touch_with_screwdriver_short_vertflip_short_600ms.mp4	20.single_touch_with_screwdriver_short_vertflip_short_600ms.mp4	263.46306998627097	264.07099327121705	0.6079232849460823				
207.4833984375	0.2	424926	169	27	1	0	0	71	47	stimuli\Videos_short_600ms\52.touch_top_to_bottom_with_hammer_short_short_600ms.mp4	52.touch_top_to_bottom_with_hammer_short_short_600ms.mp4	264.26266038263657	264.870943478335	0.6082830956984253				
208.283203125	0.2	426564	170	27	1	0	0	72	306	stimuli\Videos_short_600ms_vertflip\42.single_slap_with_plastic_whisk_short_vertflip_short_600ms.mp4	42.single_slap_with_plastic_whisk_short_vertflip_short_600ms.mp4	265.06284899736875	265.6709262355698	0.6080772382010764				
209.08349609375	0.2	428203	171	27	1	0	0	73	224	stimuli\Videos_short_600ms_horvertflip\5.repeated_tap_with_finger_moving_from_top_to_bottom_short_horvertflip_short_600ms.mp4	5.repeated_tap_with_finger_moving_from_top_to_bottom_short_horvertflip_short_600ms.mp4	265.8627956855553	266.47093215910445	0.6081364735491661				
209.88330078125	0.2	429841	172	27	1	0	0	74	88	stimuli\Videos_short_600ms\9.single_touch_with_hammer_short_short_600ms.mp4	9.single_touch_with_hammer_short_short_600ms.mp4	266.662620677359	267.2709005473689	0.6082798700099374				
210.68310546875	0.2	431479	173	27	1	0	0	75	172	stimuli\Videos_short_600ms_horflip\84.single_touch_with_cotton_bud_short_horflip_short_600ms.mp4	84.single_touch_with_cotton_bud_short_horflip_short_600ms.mp4	267.4625735236759	268.07089210193317	0.60831857825724				
211.4833984375	0.2	433118	174	27	1	0	0	76	260	stimuli\Videos_short_600ms_horvertflip\82.repeated_touch_with_cotton_bud_short_horvertflip_short_600ms.mp4	82.repeated_touch_with_cotton_bud_short_horvertflip_short_600ms.mp4	268.2625530552241	268.87087691187935	0.6083238566552609				
212.283203125	0.2	434756	175	27	1	0	0	77	182	stimuli\Videos_short_600ms_horvertflip\11.single_touch_with_lighter_short_horvertflip_short_600ms.mp4	11.single_touch_with_lighter_short_horvertflip_short_600ms.mp4	269.06253933139214	269.6708605488484	0.6083212174562505				
213.0830078125	0.2	436394	176	27	1	0	0	78	249	stimuli\Videos_short_600ms_horvertflip\72.(short)stroke_with_finger_all_over_the_hand_short_horvertflip_short_600ms.mp4	72.(short)stroke_with_finger_all_over_the_hand_short_horvertflip_short_600ms.mp4	269.8625517063001	270.47083744119755	0.6082857348974358				
213.88330078125	0.2	438033	177	27	1	0	0	79	345	stimuli\Videos_short_600ms_vertflip\78.single_stroke_top_to_bottom_with_soft_brush_short_vertflip_short_600ms.mp4	78.single_stroke_top_to_bottom_with_soft_brush_short_vertflip_short_600ms.mp4	270.6625570433471	271.27081550652383	0.6082584631767531				
214.68310546875	0.2	439671	178	27	1	0	0	80	115	stimuli\Videos_short_600ms_horflip\32.single_(long)pinch_with_fingers_short_horflip_short_600ms.mp4	32.single_(long)pinch_with_fingers_short_horflip_short_600ms.mp4	271.4624952274489	272.070797677271	0.6083024498220766				
215.48291015625	0.2	441309	179	27	1	0	0	81	170	stimuli\Videos_short_600ms_horflip\82.repeated_touch_with_cotton_bud_short_horflip_short_600ms.mp4	82.repeated_touch_with_cotton_bud_short_horflip_short_600ms.mp4	272.262480330638	272.8707775020621	0.6082971714240557				
216.283203125	0.2	442948	180	27	1	0	0	82	77	stimuli\Videos_short_600ms\8.single_touch_with_hairbrush_short_short_600ms.mp4	8.single_touch_with_hairbrush_short_short_600ms.mp4	273.06243816210826	273.67076025929873	0.6083220971904666				
217.0830078125	0.2	444586	181	27	1	0	0	83	109	stimuli\Videos_short_600ms_horflip\27.single_push_with_a_plastic_whisk_short_horflip_short_600ms.mp4	27.single_push_with_a_plastic_whisk_short_horflip_short_600ms.mp4	273.86241270850314	274.4707362719155	0.6083235634123412				
217.8828125	0.2	446224	182	27	1	0	0	84	228	stimuli\Videos_short_600ms_horvertflip\53.touch_top_to_bottom_with_knife_short_horvertflip_short_600ms.mp4	53.touch_top_to_bottom_with_knife_short_horvertflip_short_600ms.mp4	274.6624206847491	275.2707181494179	0.6082974646687944				
218.68310546875	0.2	447863	183	27	1	0	0	85	138	stimuli\Videos_short_600ms_horflip\53.touch_top_to_bottom_with_knife_short_horflip_short_600ms.mp4	53.touch_top_to_bottom_with_knife_short_horflip_short_600ms.mp4	275.4624486016064	276.07070266611936	0.6082540645129484				
219.48291015625	0.2	449501	184	27	1	0	0	86	134	stimuli\Videos_short_600ms_horflip\5.repeated_tap_with_finger_moving_from_top_to_bottom_short_horflip_short_600ms.mp4	5.repeated_tap_with_finger_moving_from_top_to_bottom_short_horflip_short_600ms.mp4	276.2623413328429	276.8706821976657	0.6083408648228215				
220.28271484375	0.2	451139	185	27	1	0	0	87	332	stimuli\Videos_short_600ms_vertflip\66.stroke_top_to_bottom_with_sponge_short_vertflip_short_600ms.mp4	66.stroke_top_to_bottom_with_sponge_short_vertflip_short_600ms.mp4	277.062326436032	277.6706634886805	0.6083370526484941				
221.0830078125	0.2	452778	186	27	1	0	0	88	71	stimuli\Videos_short_600ms\74.fingers_walking_from_top_to_bottom_short_short_600ms.mp4	74.fingers_walking_from_top_to_bottom_short_short_600ms.mp4	277.8624490707962	278.47061838770696	0.6081693169107893				
221.8828125	0.2	454416	187	27	1	0	0	89	55	stimuli\Videos_short_600ms\6.single_touch_with_flat_hand_short_short_600ms.mp4	6.single_touch_with_flat_hand_short_short_600ms.mp4	278.66256378796515	279.27062313826445	0.6080593502992997				
222.6826171875	0.2	456054	188	27	1	0	0	90	322	stimuli\Videos_short_600ms_vertflip\57.single_touch_with_nail_file_short_vertflip_short_600ms.mp4	57.single_touch_with_nail_file_short_vertflip_short_600ms.mp4	279.46236121480524	280.0705853684003	0.6082241535950743				
223.48291015625	0.2	457693	189	27	1	0	0	91	245	stimuli\Videos_short_600ms_horvertflip\69.stroke_with_soft_sock_short_horvertflip_short_600ms.mp4	69.stroke_with_soft_sock_short_horvertflip_short_600ms.mp4	280.2622401635608	280.87056548643613	0.6083253228753165	2.0	2.0	4.584335300221937	1.0
260.86474609375	0.2	534251	190	27	2	0	1	0	375	stimuli\Targets_short_600ms_horvertflip\finger-tap_short_vertflip_short_600ms.mp4	finger-tap_short_vertflip_short_600ms.mp4	317.6449588666228	318.2530188034116	0.6080599367887771				
261.6650390625	0.2	535890	191	27	2	0	0	1	213	stimuli\Videos_short_600ms_horvertflip\4.repeated_tap_with_finger_slow_short_horvertflip_short_600ms.mp4	4.repeated_tap_with_finger_slow_short_horvertflip_short_600ms.mp4	318.4446929526939	319.0530091849987	0.6083162323047873				
262.46484375	0.2	537528	192	27	2	0	0	2	216	stimuli\Videos_short_600ms_horvertflip\42.single_slap_with_plastic_whisk_short_horvertflip_short_600ms.mp4	42.single_slap_with_plastic_whisk_short_horvertflip_short_600ms.mp4	319.2449331784219	319.85298783681264	0.6080546583907562				
263.2646484375	0.2	539166	193	27	2	0	1	3	368	stimuli\Targets_short_600ms_horflip\chopstickwood-tap_short_horflip_short_600ms.mp4	chopstickwood-tap_short_horflip_short_600ms.mp4	320.04501417249685	320.65296091698747	0.6079467444906186				
264.06494140625	0.2	540805	194	27	2	0	0	4	291	stimuli\Videos_short_600ms_vertflip\29.single_pinch_with_tweezers_short_vertflip_short_600ms.mp4	29.single_pinch_with_tweezers_short_vertflip_short_600ms.mp4	320.84462685542985	321.4529430877328	0.6083162323029683				
264.86474609375	0.2	542443	195	27	2	0	0	5	246	stimuli\Videos_short_600ms_horvertflip\7.repeated_touch_with_hairbrush_short_horvertflip_short_600ms.mp4	7.repeated_touch_with_hairbrush_short_horvertflip_short_600ms.mp4	321.64460316129134	322.2529229125257	0.6083197512343759				
265.66455078125	0.2	544081	196	27	2	0	0	6	198	stimuli\Videos_short_600ms_horvertflip\26.single_touch_with_a_blunt_syringe_short_horvertflip_short_600ms.mp4	26.single_touch_with_a_blunt_syringe_short_horvertflip_short_600ms.mp4	322.4446214010868	323.0529059630053	0.6082845619184809				
266.46484375	0.2	545720	197	27	2	0	0	7	333	stimuli\Videos_short_600ms_vertflip\67.single_touch_with_sponge_short_vertflip_short_600ms.mp4	67.single_touch_with_sponge_short_vertflip_short_600ms.mp4	323.24525867959073	323.8528831485992	0.6076244690084422				
267.2646484375	0.2	547358	198	27	2	0	0	8	52	stimuli\Videos_short_600ms\57.single_touch_with_nail_file_short_short_600ms.mp4	57.single_touch_with_nail_file_short_short_600ms.mp4	324.0446637455616	324.6528664923235	0.60820274676189				
268.06494140625	0.2	548997	199	27	2	0	0	9	21	stimuli\Videos_short_600ms\29.single_pinch_with_tweezers_short_short_600ms.mp4	29.single_pinch_with_tweezers_short_short_600ms.mp4	324.84451161042216	325.45284778333644	0.608336172914278				
268.86474609375	0.2	550635	200	27	2	0	0	10	217	stimuli\Videos_short_600ms_horvertflip\43.touch_top_to_bottom_with_sharp_wooden_stick_short_horvertflip_short_600ms.mp4	43.touch_top_to_bottom_with_sharp_wooden_stick_short_horvertflip_short_600ms.mp4	325.6445536030051	326.25282672839694	0.608273125391861				
269.66455078125	0.2	552273	201	27	2	0	0	11	95	stimuli\Videos_short_600ms_horflip\14.repeated_touch_with_pencil_short_horflip_short_600ms.mp4	14.repeated_touch_with_pencil_short_horflip_short_600ms.mp4	326.4445208182924	327.0528062599451	0.608285441652697				
270.46484375	0.2	553912	202	27	2	0	0	12	92	stimuli\Videos_short_600ms_horflip\11.single_touch_with_lighter_short_horflip_short_600ms.mp4	11.single_touch_with_lighter_short_horflip_short_600ms.mp4	327.244884499868	327.85278931042467	0.6079048105566471				
271.2646484375	0.2	555550	203	27	2	0	0	13	191	stimuli\Videos_short_600ms_horvertflip\2.single_touch_with_finger_short_horvertflip_short_600ms.mp4	2.single_touch_with_finger_short_horvertflip_short_600ms.mp4	328.04447255028117	328.65277236090424	0.6082998106230662				
272.064453125	0.2	557188	204	27	2	0	0	14	60	stimuli\Videos_short_600ms\64.repeated_touch_with_screwdriver_short_short_600ms.mp4	64.repeated_touch_with_screwdriver_short_short_600ms.mp4	328.84445911969215	329.452726966686	0.6082678469938401				
272.86474609375	0.2	558827	205	27	2	0	0	15	82	stimuli\Videos_short_600ms\84.single_touch_with_cotton_bud_short_short_600ms.mp4	84.single_touch_with_cotton_bud_short_short_600ms.mp4	329.64449759334366	330.2527290780463	0.6082314847026282				
273.66455078125	0.2	560465	206	27	2	0	0	16	118	stimuli\Videos_short_600ms_horflip\35.single_punch_with_hand_short_horflip_short_600ms.mp4	35.single_punch_with_hand_short_horflip_short_600ms.mp4	330.4445243372238	331.052713301503	0.6081889642791793				
274.46435546875	0.2	562103	207	27	2	0	0	17	193	stimuli\Videos_short_600ms_horvertflip\21.repeated_touch_with_metal_chopstick_short_horvertflip_short_600ms.mp4	21.repeated_touch_with_metal_chopstick_short_horvertflip_short_600ms.mp4	331.24437220208256	331.85266556133047	0.6082933592479094				
275.2646484375	0.2	563742	208	27	2	0	0	18	87	stimuli\Videos_short_600ms\89.single_touch_with_plastic_brush_short_short_600ms.mp4	89.single_touch_with_plastic_brush_short_short_600ms.mp4	332.0443526133631	332.6526527172309	0.6083001038678049				
276.064453125	0.2	565380	209	27	2	0	0	19	14	stimuli\Videos_short_600ms\22.single_touch_with_metal_chopstick_short_short_600ms.mp4	22.single_touch_with_metal_chopstick_short_short_600ms.mp4	332.8444283290419	333.45264925694846	0.6082209279065864				
276.8642578125	0.2	567018	210	27	2	0	0	20	61	stimuli\Videos_short_600ms\65.stroke_top_to_bottom_with_stanley_knife_short_short_600ms.mp4	65.stroke_top_to_bottom_with_stanley_knife_short_short_600ms.mp4	333.64438821322165	334.2526364128489	0.6082481996272691				
277.66455078125	0.2	568657	211	27	2	0	1	21	370	stimuli\Targets_short_600ms_horflip\hand-pinch_short_horflip_short_600ms.mp4	hand-pinch_short_horflip_short_600ms.mp4	334.4443032310237	335.0526179971066	0.6083147660829127				
278.46435546875	0.2	570295	212	27	2	0	0	22	81	stimuli\Videos_short_600ms\83.single_stroke_top_to_bottom_with_cotton_bud_short_short_600ms.mp4	83.single_stroke_top_to_bottom_with_cotton_bud_short_short_600ms.mp4	335.24430504913926	335.8525954759434	0.6082904268041602				
279.26416015625	0.2	571933	213	27	2	0	0	23	208	stimuli\Videos_short_600ms_horvertflip\35.single_punch_with_hand_short_horvertflip_short_600ms.mp4	35.single_punch_with_hand_short_horvertflip_short_600ms.mp4	336.0442543765248	336.6525761804687	0.6083218039439089				
280.064453125	0.2	573572	214	27	2	0	0	24	272	stimuli\Videos_short_600ms_vertflip\11.single_touch_with_lighter_short_vertflip_short_600ms.mp4	11.single_touch_with_lighter_short_vertflip_short_600ms.mp4	336.84423566753776	337.4525583512159	0.608322683678125				
280.8642578125	0.2	575210	215	27	2	0	1	25	379	stimuli\Targets_short_600ms_vertflip\chopstick-silver-tap_short_horvertflip_short_600ms.mp4	chopstick-silver-tap_short_horvertflip_short_600ms.mp4	337.64419291252034	338.2525393489859	0.6083464364655811				
281.6640625	0.2	576848	216	27	2	0	0	26	94	stimuli\Videos_short_600ms_horflip\13.single_touch_with_pen_short_horflip_short_600ms.mp4	13.single_touch_with_pen_short_horflip_short_600ms.mp4	338.4441959036112	339.05251594809033	0.6083200444791146				
282.46435546875	0.2	578487	217	27	2	0	0	27	299	stimuli\Videos_short_600ms_vertflip\36.single_slap_with_full_hand_short_vertflip_short_600ms.mp4	36.single_slap_with_full_hand_short_vertflip_short_600ms.mp4	339.24428950719175	339.8524989985699	0.6082094913781475				
283.26416015625	0.2	580125	218	27	2	0	0	28	314	stimuli\Videos_short_600ms_vertflip\5.repeated_tap_with_finger_moving_from_top_to_bottom_short_vertflip_short_600ms.mp4	5.repeated_tap_with_finger_moving_from_top_to_bottom_short_vertflip_short_600ms.mp4	340.04420071281766	340.65247911660754	0.6082784037898818				
284.06396484375	0.2	581763	219	27	2	0	1	29	373	stimuli\Targets_short_600ms_horvertflip\chopstick-silver-tap_short_vertflip_short_600ms.mp4	chopstick-silver-tap_short_vertflip_short_600ms.mp4	340.84415649157836	341.4524595278881	0.608303036309735				
284.8642578125	0.2	583402	220	27	2	0	0	30	336	stimuli\Videos_short_600ms_vertflip\7.repeated_touch_with_hairbrush_short_vertflip_short_600ms.mp4	7.repeated_touch_with_hairbrush_short_vertflip_short_600ms.mp4	341.6441521515635	342.2524422851229	0.6082901335594215				
285.6640625	0.2	585040	221	27	2	0	0	31	338	stimuli\Videos_short_600ms_vertflip\71.single_stroke_with_finger_top_to_bottom_short_vertflip_short_600ms.mp4	71.single_stroke_with_finger_top_to_bottom_short_vertflip_short_600ms.mp4	342.4440838842902	343.0524226964053	0.6083388121151074				
286.4638671875	0.2	586678	222	27	2	0	0	32	290	stimuli\Videos_short_600ms_vertflip\28.single_injection_with_sharp_needle_short_vertflip_short_600ms.mp4	28.single_injection_with_sharp_needle_short_vertflip_short_600ms.mp4	343.2440601901517	343.8524010549763	0.6083408648246404				
287.26416015625	0.2	588317	223	27	2	0	0	33	329	stimuli\Videos_short_600ms_vertflip\63.stroke_top_to_bottom_with_screwdriver_short_vertflip_short_600ms.mp4	63.stroke_top_to_bottom_with_screwdriver_short_vertflip_short_600ms.mp4	344.04406464746444	344.65235800671235	0.6082933592479094				
288.06396484375	0.2	589955	224	27	2	0	0	34	58	stimuli\Videos_short_600ms\62.touch_top_to_bottom_with_scissors_short_short_600ms.mp4	62.touch_top_to_bottom_with_scissors_short_short_600ms.mp4	344.8440251181337	345.4523598248279	0.6083347066942224				
288.8642578125	0.2	591594	225	27	2	0	0	35	150	stimuli\Videos_short_600ms_horflip\64.repeated_touch_with_screwdriver_short_horflip_short_600ms.mp4	64.repeated_touch_with_screwdriver_short_horflip_short_600ms.mp4	345.64414833938736	346.25232645362576	0.6081781142383988				
289.6640625	0.2	593232	226	27	2	0	0	36	165	stimuli\Videos_short_600ms_horflip\78.single_stroke_top_to_bottom_with_soft_brush_short_horflip_short_600ms.mp4	78.single_stroke_top_to_bottom_with_soft_brush_short_horflip_short_600ms.mp4	346.4440891626882	347.0523015865101	0.6082124238218967				
290.4638671875	0.2	594870	227	27	2	0	0	37	274	stimuli\Videos_short_600ms_vertflip\13.single_touch_with_pen_short_vertflip_short_600ms.mp4	13.single_touch_with_pen_short_vertflip_short_600ms.mp4	347.244017962973	347.85230604382286	0.6082880808498885				
291.26416015625	0.2	596509	228	27	2	0	0	38	177	stimuli\Videos_short_600ms_horflip\89.single_touch_with_plastic_brush_short_horflip_short_600ms.mp4	89.single_touch_with_plastic_brush_short_horflip_short_600ms.mp4	348.04405174471594	348.6522741388444	0.608222394128461				
292.06396484375	0.2	598147	229	27	2	0	0	39	5	stimuli\Videos_short_600ms\14.repeated_touch_with_pencil_short_short_600ms.mp4	14.repeated_touch_with_pencil_short_short_600ms.mp4	348.84401397485	349.4522739042486	0.6082599293986277				
292.86376953125	0.2	599785	230	27	2	0	0	40	116	stimuli\Videos_short_600ms_horflip\33.scratch_top_to_bottom_with_scissors_short_horflip_short_600ms.mp4	33.scratch_top_to_bottom_with_scissors_short_horflip_short_600ms.mp4	349.64395391841845	350.25224874388823	0.608294825469784				
293.6640625	0.2	601424	231	27	2	0	0	41	190	stimuli\Videos_short_600ms_horvertflip\19.single_touch_with_rolling_pin_short_horvertflip_short_600ms.mp4	19.single_touch_with_rolling_pin_short_horvertflip_short_600ms.mp4	350.4439082309573	351.0522358997887	0.6083276688314072				
294.4638671875	0.2	603062	232	27	2	0	0	42	103	stimuli\Videos_short_600ms_horflip\21.repeated_touch_with_metal_chopstick_short_horflip_short_600ms.mp4	21.repeated_touch_with_metal_chopstick_short_horflip_short_600ms.mp4	351.2444522577762	351.8522083934722	0.6077561356960359				
295.263671875	0.2	604700	233	27	2	0	0	43	201	stimuli\Videos_short_600ms_horvertflip\29.single_pinch_with_tweezers_short_horvertflip_short_600ms.mp4	29.single_pinch_with_tweezers_short_horvertflip_short_600ms.mp4	352.044071978572	352.6521890979975	0.6081171194255148				
296.06396484375	0.2	606339	234	27	2	0	0	44	160	stimuli\Videos_short_600ms_horflip\73.single_stroke_with_flat_hand_short_horflip_short_600ms.mp4	73.single_stroke_with_flat_hand_short_horflip_short_600ms.mp4	352.84386383377114	353.4521712687447	0.6083074349735398				
296.86376953125	0.2	607977	235	27	2	0	0	45	179	stimuli\Videos_short_600ms_horflip\90.repeated_touch_with_sponge_short_horflip_short_600ms.mp4	90.repeated_touch_with_sponge_short_horflip_short_600ms.mp4	353.64385421535826	354.25215255975945	0.6082983444011916				
297.66357421875	0.2	609615	236	27	2	0	0	46	223	stimuli\Videos_short_600ms_horvertflip\49.repeated_slap_with_hand_short_horvertflip_short_600ms.mp4	49.repeated_slap_with_hand_short_horvertflip_short_600ms.mp4	354.44381175358376	355.05213297104	0.6083212174562505				
298.4638671875	0.2	611254	237	27	2	0	0	47	178	stimuli\Videos_short_600ms_horflip\9.single_touch_with_hammer_short_horflip_short_600ms.mp4	9.single_touch_with_hammer_short_horflip_short_600ms.mp4	355.24386459620564	355.8521136755653	0.6082490793596662				
299.263671875	0.2	612892	238	27	2	0	0	48	328	stimuli\Videos_short_600ms_vertflip\62.touch_top_to_bottom_with_scissors_short_vertflip_short_600ms.mp4	62.touch_top_to_bottom_with_scissors_short_vertflip_short_600ms.mp4	356.0437555679755	356.65209643280014	0.6083408648246404				
300.0634765625	0.2	614530	239	27	2	0	0	49	287	stimuli\Videos_short_600ms_vertflip\25.single_touch_with_stanley_knife_short_vertflip_short_600ms.mp4	25.single_touch_with_stanley_knife_short_vertflip_short_600ms.mp4	356.84373158059225	357.4520724454169	0.6083408648246404				
300.86376953125	0.2	616169	240	27	2	0	0	50	276	stimuli\Videos_short_600ms_vertflip\15.single_stroke_top_to_bottom_with_a_plastic_whisk_short_vertflip_short_600ms.mp4	15.single_stroke_top_to_bottom_with_a_plastic_whisk_short_vertflip_short_600ms.mp4	357.6441454069436	358.25205637562885	0.6079109686852462				
301.66357421875	0.2	617807	241	27	2	0	0	51	34	stimuli\Videos_short_600ms\40.repeated_push_with_finger_short_short_600ms.mp4	40.repeated_push_with_finger_short_short_600ms.mp4	358.4437613155651	359.0520350274446	0.6082737118795194				
302.46337890625	0.2	619445	242	27	2	0	0	52	183	stimuli\Videos_short_600ms_horvertflip\12.repeated_touch_with_nail_file_short_horvertflip_short_600ms.mp4	12.repeated_touch_with_nail_file_short_horvertflip_short_600ms.mp4	359.24375814852556	359.85199021971584	0.6082320711902867				
303.263671875	0.2	621084	243	27	2	0	0	53	144	stimuli\Videos_short_600ms_horflip\59.single_push_with_long_side_pencil_short_horflip_short_600ms.mp4	59.single_push_with_long_side_pencil_short_horflip_short_600ms.mp4	360.0437324016775	360.65199497027334	0.6082625685958192				
304.0634765625	0.2	622722	244	27	2	0	0	54	139	stimuli\Videos_short_600ms_horflip\54.repeated_touch_with_knife_short_horflip_short_600ms.mp4	54.repeated_touch_with_knife_short_horflip_short_600ms.mp4	360.8436612019623	361.4519832991509	0.6083220971886476				
304.86328125	0.2	624360	245	27	2	0	0	55	189	stimuli\Videos_short_600ms_horvertflip\18.single_stroke_from_top_to_bottom_with_rolling_pin_short_horvertflip_short_600ms.mp4	18.single_stroke_from_top_to_bottom_with_rolling_pin_short_horvertflip_short_600ms.mp4	361.6436372145772	362.2519584320353	0.6083212174580694				
305.66357421875	0.2	625999	246	27	2	0	0	56	107	stimuli\Videos_short_600ms_horflip\25.single_touch_with_stanley_knife_short_horflip_short_600ms.mp4	25.single_touch_with_stanley_knife_short_horflip_short_600ms.mp4	362.4436231975006	363.0519168499932	0.6082936524926481				
306.46337890625	0.2	627637	247	27	2	0	1	57	382	stimuli\Targets_short_600ms_vertflip\hand-pinch_short_horvertflip_short_600ms.mp4	hand-pinch_short_horvertflip_short_600ms.mp4	363.2436015560715	363.8519160289097	0.608314472838174				
307.26318359375	0.2	629275	248	27	2	0	0	58	154	stimuli\Videos_short_600ms_horflip\68.stroke_top_to_bottom_with_shawl_short_horflip_short_600ms.mp4	68.stroke_top_to_bottom_with_shawl_short_horflip_short_600ms.mp4	364.0435831403293	364.65189878614456	0.6083156458153098				
308.0634765625	0.2	630914	249	27	2	0	0	59	140	stimuli\Videos_short_600ms_horflip\55.touch_top_to_bottom_with_nail_file_short_horflip_short_600ms.mp4	55.touch_top_to_bottom_with_nail_file_short_horflip_short_600ms.mp4	364.84356296512215	365.4518818366241	0.6083188715019787				
308.86328125	0.2	632552	250	27	2	0	0	60	98	stimuli\Videos_short_600ms_horflip\17.repeated_touch_with_rolling_pin_short_horflip_short_600ms.mp4	17.repeated_touch_with_rolling_pin_short_horflip_short_600ms.mp4	365.6435474818236	366.25186869927984	0.6083212174562505				
309.66357421875	0.2	634191	251	27	2	0	0	61	288	stimuli\Videos_short_600ms_vertflip\26.single_touch_with_a_blunt_syringe_short_vertflip_short_600ms.mp4	26.single_touch_with_a_blunt_syringe_short_vertflip_short_600ms.mp4	366.4435129376443	367.0518438321642	0.6083308945198951				
310.46337890625	0.2	635829	252	27	2	0	0	62	27	stimuli\Videos_short_600ms\34.repeated_punch_with_hand_short_short_600ms.mp4	34.repeated_punch_with_hand_short_short_600ms.mp4	367.2435015597666	367.8518251231771	0.6083235634105222				
311.26318359375	0.2	637467	253	27	2	0	0	63	312	stimuli\Videos_short_600ms_vertflip\48.single_slap_with_hand_short_vertflip_short_600ms.mp4	48.single_slap_with_hand_short_vertflip_short_600ms.mp4	368.0434828507796	368.6518049479701	0.6083220971904666				
312.0634765625	0.2	639106	254	27	2	0	0	64	347	stimuli\Videos_short_600ms_vertflip\8.single_touch_with_hairbrush_short_vertflip_short_600ms.mp4	8.single_touch_with_hairbrush_short_vertflip_short_600ms.mp4	368.8434620890848	369.45178477276295	0.608322683678125				
312.86328125	0.2	640744	255	27	2	0	0	65	122	stimuli\Videos_short_600ms_horflip\39.single_stab_with_scissors_short_horflip_short_600ms.mp4	39.single_stab_with_scissors_short_horflip_short_600ms.mp4	369.64344308685304	370.25176635702064	0.6083232701676025				
313.6630859375	0.2	642382	256	27	2	0	1	66	363	stimuli\Targets_short_600ms\finger-tap_short_short_600ms.mp4	finger-tap_short_short_600ms.mp4	370.4434240846231	371.0517450088346	0.6083209242115117				
314.46337890625	0.2	644021	257	27	2	0	0	67	44	stimuli\Videos_short_600ms\5.repeated_tap_with_finger_moving_from_top_to_bottom_short_short_600ms.mp4	5.repeated_tap_with_finger_moving_from_top_to_bottom_short_short_600ms.mp4	371.2433854350247	371.85172542011696	0.6083399850922433				
315.26318359375	0.2	645659	258	27	2	0	0	68	119	stimuli\Videos_short_600ms_horflip\36.single_slap_with_full_hand_short_horflip_short_600ms.mp4	36.single_slap_with_full_hand_short_horflip_short_600ms.mp4	372.04343182627326	372.6517108165508	0.6082789902775403				
316.06298828125	0.2	647297	259	27	2	0	0	69	123	stimuli\Videos_short_600ms_horflip\4.repeated_tap_with_finger_slow_short_horflip_short_600ms.mp4	4.repeated_tap_with_finger_slow_short_horflip_short_600ms.mp4	372.8433585738467	373.4516882953876	0.6083297215409402				
316.86328125	0.2	648936	260	27	2	0	0	70	289	stimuli\Videos_short_600ms_vertflip\27.single_push_with_a_plastic_whisk_short_vertflip_short_600ms.mp4	27.single_push_with_a_plastic_whisk_short_vertflip_short_600ms.mp4	373.6433240296692	374.2516692931577	0.6083452634884452				
317.6630859375	0.2	650574	261	27	2	0	0	71	86	stimuli\Videos_short_600ms\88.repeated_stroke_with_plastic_brush_short_short_600ms.mp4	88.repeated_stroke_with_plastic_brush_short_short_600ms.mp4	374.4433384572885	375.05164413279726	0.6083056755087455				
318.462890625	0.2	652212	262	27	2	0	0	72	163	stimuli\Videos_short_600ms_horflip\76.tickle_with_fingers_from_top_to_bottom_short_horflip_short_600ms.mp4	76.tickle_with_fingers_from_top_to_bottom_short_horflip_short_600ms.mp4	375.2433467267774	375.85161193457407	0.6082652077966486				
319.26318359375	0.2	653851	263	27	2	0	0	73	352	stimuli\Videos_short_600ms_vertflip\84.single_touch_with_cotton_bud_short_vertflip_short_600ms.mp4	84.single_touch_with_cotton_bud_short_vertflip_short_600ms.mp4	376.04348431700146	376.6516108202459	0.6081265032444207				
320.06298828125	0.2	655489	264	27	2	0	0	74	343	stimuli\Videos_short_600ms_vertflip\76.tickle_with_fingers_from_top_to_bottom_short_vertflip_short_600ms.mp4	76.tickle_with_fingers_from_top_to_bottom_short_vertflip_short_600ms.mp4	376.8432703073149	377.4515657192724	0.6082954119574424				
320.86279296875	0.2	657127	265	27	2	0	0	75	16	stimuli\Videos_short_600ms\24.single_stroke_top_to_bottom_with_a_spoon_short_short_600ms.mp4	24.single_stroke_top_to_bottom_with_a_spoon_short_short_600ms.mp4	377.64334338379285	378.2515792671593	0.608235883366433				
321.6630859375	0.2	658766	266	27	2	0	0	76	323	stimuli\Videos_short_600ms_vertflip\58.single_slap_with_pencil_short_vertflip_short_600ms.mp4	58.single_slap_with_pencil_short_vertflip_short_600ms.mp4	378.4433331788905	379.0515523473323	0.6082191684417921				
322.462890625	0.2	660404	267	27	2	0	0	77	253	stimuli\Videos_short_600ms_horvertflip\76.tickle_with_fingers_from_top_to_bottom_short_horvertflip_short_600ms.mp4	76.tickle_with_fingers_from_top_to_bottom_short_horvertflip_short_600ms.mp4	379.2432396926097	379.8515333451023	0.6082936524926481				
323.2626953125	0.2	662042	268	27	2	0	0	78	263	stimuli\Videos_short_600ms_horvertflip\85.touch_top_to_bottom_with_fabric_short_horvertflip_short_600ms.mp4	85.touch_top_to_bottom_with_fabric_short_horvertflip_short_600ms.mp4	380.0431948848809	380.65151698207137	0.6083220971904666				
324.06298828125	0.2	663681	269	27	2	0	0	79	110	stimuli\Videos_short_600ms_horflip\28.single_injection_with_sharp_needle_short_horflip_short_600ms.mp4	28.single_injection_with_sharp_needle_short_horflip_short_600ms.mp4	380.8431738299414	381.4515056041919	0.6083317742504732				
324.86279296875	0.2	665319	270	27	2	0	0	80	137	stimuli\Videos_short_600ms_horflip\52.touch_top_to_bottom_with_hammer_short_horflip_short_600ms.mp4	52.touch_top_to_bottom_with_hammer_short_horflip_short_600ms.mp4	381.6431536547325	382.2514760451659	0.6083223904333863				
325.66259765625	0.2	666957	271	27	2	0	0	81	354	stimuli\Videos_short_600ms_vertflip\86.touch_top_to_bottom_with_hair_brush_short_vertflip_short_600ms.mp4	86.touch_top_to_bottom_with_hair_brush_short_vertflip_short_600ms.mp4	382.443135238992	383.0514552834711	0.6083200444791146				
326.462890625	0.2	668596	272	27	2	0	0	82	75	stimuli\Videos_short_600ms\78.single_stroke_top_to_bottom_with_soft_brush_short_short_600ms.mp4	78.single_stroke_top_to_bottom_with_soft_brush_short_short_600ms.mp4	383.2431118380964	383.8514362812394	0.6083244431429193				
327.2626953125	0.2	670234	273	27	2	0	0	83	2	stimuli\Videos_short_600ms\11.single_touch_with_lighter_short_short_600ms.mp4	11.single_touch_with_lighter_short_short_600ms.mp4	384.0431010467064	384.6514149330551	0.6083138863486965				
328.0625	0.2	671872	274	27	2	0	0	84	195	stimuli\Videos_short_600ms_horvertflip\23.single_push_with_a_spoon_short_horvertflip_short_600ms.mp4	23.single_push_with_a_spoon_short_horvertflip_short_600ms.mp4	384.8433861388121	385.4513982767794	0.6080121379673074				
328.86279296875	0.2	673511	275	27	2	0	1	85	383	stimuli\Targets_short_600ms_vertflip\hand-stroke_short_horvertflip_short_600ms.mp4	hand-stroke_short_horvertflip_short_600ms.mp4	385.64313957900686	386.25138103401423	0.6082414550073736				
329.66259765625	0.2	675149	276	27	2	0	0	86	242	stimuli\Videos_short_600ms_horvertflip\66.stroke_top_to_bottom_with_sponge_short_horvertflip_short_600ms.mp4	66.stroke_top_to_bottom_with_sponge_short_horvertflip_short_600ms.mp4	386.44301442234155	387.0513588060976	0.608344383756048				
330.462890625	0.2	676788	277	27	2	0	0	87	200	stimuli\Videos_short_600ms_horvertflip\28.single_injection_with_sharp_needle_short_horvertflip_short_600ms.mp4	28.single_injection_with_sharp_needle_short_horvertflip_short_600ms.mp4	387.2429965930869	387.85134009711055	0.6083435040236509				
331.2626953125	0.2	678426	278	27	2	0	0	88	264	stimuli\Videos_short_600ms_horvertflip\86.touch_top_to_bottom_with_hair_brush_short_horvertflip_short_600ms.mp4	86.touch_top_to_bottom_with_hair_brush_short_horvertflip_short_600ms.mp4	388.0429843354768	388.6513210948806	0.6083367594037554				
332.0625	0.2	680064	279	27	2	0	0	89	156	stimuli\Videos_short_600ms_horflip\7.repeated_touch_with_hairbrush_short_horflip_short_600ms.mp4	7.repeated_touch_with_hairbrush_short_horflip_short_600ms.mp4	388.84295829538223	389.4512991602069	0.6083408648246404				
332.86279296875	0.2	681703	280	27	2	0	0	90	50	stimuli\Videos_short_600ms\55.touch_top_to_bottom_with_nail_file_short_short_600ms.mp4	55.touch_top_to_bottom_with_nail_file_short_short_600ms.mp4	389.6429671513606	390.2512772255331	0.6083100741725502				
333.66259765625	0.2	683341	281	27	2	0	0	91	247	stimuli\Videos_short_600ms_horvertflip\70.(long)stroke_with_finger_all_over_the_hand_short_horvertflip_short_600ms.mp4	70.(long)stroke_with_finger_all_over_the_hand_short_horvertflip_short_600ms.mp4	390.44300826421113	391.05123740295767	0.6082291387465375				
334.46240234375	0.2	684979	282	27	2	0	0	92	231	stimuli\Videos_short_600ms_horvertflip\56.repeated_touch_with_nail_file_short_horvertflip_short_600ms.mp4	56.repeated_touch_with_nail_file_short_horvertflip_short_600ms.mp4	391.2429106725094	391.8512465521808	0.6083358796713583				
335.2626953125	0.2	686618	283	27	2	0	0	93	271	stimuli\Videos_short_600ms_vertflip\10.single_touch_with_knife_short_vertflip_short_600ms.mp4	10.single_touch_with_knife_short_vertflip_short_600ms.mp4	392.0429048662727	392.6512307756375	0.6083259093647939				
336.0625	0.2	688256	284	27	2	0	0	94	158	stimuli\Videos_short_600ms_horflip\71.single_stroke_with_finger_top_to_bottom_short_horflip_short_600ms.mp4	71.single_stroke_with_finger_top_to_bottom_short_horflip_short_600ms.mp4	392.84289407488086	393.4511997503896	0.6083056755087455				
336.8623046875	0.2	689894	285	27	2	0	0	95	132	stimuli\Videos_short_600ms_horflip\48.single_slap_with_hand_short_horflip_short_600ms.mp4	48.single_slap_with_hand_short_horflip_short_600ms.mp4	393.6428630496348	394.2511649129674	0.6083018633325992				
337.66259765625	0.2	691533	286	27	2	0	0	96	349	stimuli\Videos_short_600ms_vertflip\81.single_stroke_top_to_bottom_with_cotton_pad_short_vertflip_short_600ms.mp4	81.single_stroke_top_to_bottom_with_cotton_pad_short_vertflip_short_600ms.mp4	394.4432158811733	395.0511679040601	0.6079520228868205				
338.46240234375	0.2	693171	287	27	2	0	0	97	57	stimuli\Videos_short_600ms\61.single_hit_with_rolling_pin_short_short_600ms.mp4	61.single_hit_with_rolling_pin_short_short_600ms.mp4	395.2428751899488	395.8511468491188	0.6082716591699864	8.0	8.0	11.241954109615108	1.0
383.37744140625	0.2	785157	288	27	3	0	0	0	26	stimuli\Videos_short_600ms\33.scratch_top_to_bottom_with_scissors_short_short_600ms.mp4	33.scratch_top_to_bottom_with_scissors_short_short_600ms.mp4	440.1584044108631	440.7667206431661	0.6083162323029683				
384.177734375	0.2	786796	289	27	3	0	0	1	157	stimuli\Videos_short_600ms_horflip\70.(long)stroke_with_finger_all_over_the_hand_short_horflip_short_600ms.mp4	70.(long)stroke_with_finger_all_over_the_hand_short_horflip_short_600ms.mp4	440.95842675607946	441.566700467959	0.6082737118795194				
384.9775390625	0.2	788434	290	27	3	0	0	2	62	stimuli\Videos_short_600ms\66.stroke_top_to_bottom_with_sponge_short_short_600ms.mp4	66.stroke_top_to_bottom_with_sponge_short_short_600ms.mp4	441.7583960240763	442.36668439817095	0.6082883740946272				
385.77734375	0.2	790072	291	27	3	0	0	3	192	stimuli\Videos_short_600ms_horvertflip\20.single_touch_with_screwdriver_short_horvertflip_short_600ms.mp4	20.single_touch_with_screwdriver_short_horvertflip_short_600ms.mp4	442.5584101584509	443.1666609972772	0.6082508388262795				
386.57763671875	0.2	791711	292	27	3	0	0	4	67	stimuli\Videos_short_600ms\70.(long)stroke_with_finger_all_over_the_hand_short_short_600ms.mp4	70.(long)stroke_with_finger_all_over_the_hand_short_short_600ms.mp4	443.3583210708339	443.96664492748914	0.6083238566552609				
387.37744140625	0.2	793349	293	27	3	0	0	5	255	stimuli\Videos_short_600ms_horvertflip\78.single_stroke_top_to_bottom_with_soft_brush_short_horvertflip_short_600ms.mp4	78.single_stroke_top_to_bottom_with_soft_brush_short_horvertflip_short_600ms.mp4	444.15828330096974	444.7666253387697	0.6083420377999573				
388.17724609375	0.2	794987	294	27	3	0	1	6	362	stimuli\Targets_short_600ms\chopstickwood-tap_short_short_600ms.mp4	chopstickwood-tap_short_short_600ms.mp4	444.9582610730513	445.5666051635626	0.6083440905113093				
388.9775390625	0.2	796626	295	27	3	0	0	7	112	stimuli\Videos_short_600ms_horflip\3.single_push_with_finger_short_horflip_short_600ms.mp4	3.single_push_with_finger_short_horflip_short_600ms.mp4	445.7582661168535	446.3665838153784	0.6083176985248429				
389.77734375	0.2	798264	296	27	3	0	0	8	100	stimuli\Videos_short_600ms_horflip\19.single_touch_with_rolling_pin_short_horflip_short_600ms.mp4	19.single_touch_with_rolling_pin_short_horflip_short_600ms.mp4	446.5585157263986	447.1665416468486	0.608025920450018				
390.5771484375	0.2	799902	297	27	3	0	0	9	326	stimuli\Videos_short_600ms_vertflip\60.single_push_with_tip_of_pencil_short_vertflip_short_600ms.mp4	60.single_push_with_tip_of_pencil_short_vertflip_short_600ms.mp4	447.35825274491344	447.96652381759577	0.6082710726823279				
391.37744140625	0.2	801541	298	27	3	0	0	10	210	stimuli\Videos_short_600ms_horvertflip\37.single_stab_with_nail_file_short_horvertflip_short_600ms.mp4	37.single_stab_with_nail_file_short_horvertflip_short_600ms.mp4	448.15820353852087	448.7665024694097	0.60829893088885				
392.17724609375	0.2	803179	299	27	3	0	0	11	302	stimuli\Videos_short_600ms_vertflip\39.single_stab_with_scissors_short_vertflip_short_600ms.mp4	39.single_stab_with_scissors_short_vertflip_short_600ms.mp4	448.9581684078539	449.56650399428054	0.6083355864266196				
392.97705078125	0.2	804817	300	27	3	0	0	12	280	stimuli\Videos_short_600ms_vertflip\19.single_touch_with_rolling_pin_short_vertflip_short_600ms.mp4	19.single_touch_with_rolling_pin_short_vertflip_short_600ms.mp4	449.7581661205486	450.3664844055611	0.6083182850125013				
393.77734375	0.2	806456	301	27	3	0	0	13	51	stimuli\Videos_short_600ms\56.repeated_touch_with_nail_file_short_short_600ms.mp4	56.repeated_touch_with_nail_file_short_short_600ms.mp4	450.55811984659795	451.16647596012535	0.6083561135274067				
394.5771484375	0.2	808094	302	27	3	0	0	14	358	stimuli\Videos_short_600ms_vertflip\9.single_touch_with_hammer_short_vertflip_short_600ms.mp4	9.single_touch_with_hammer_short_vertflip_short_600ms.mp4	451.3581152133383	451.96645490518586	0.6083396918475046				
395.376953125	0.2	809732	303	27	3	0	1	15	377	stimuli\Targets_short_600ms_horvertflip\hand-stroke_short_vertflip_short_600ms.mp4	hand-stroke_short_vertflip_short_600ms.mp4	452.1585536722096	452.76643150429027	0.6078778320807032				
396.17724609375	0.2	811371	304	27	3	0	0	16	313	stimuli\Videos_short_600ms_vertflip\49.repeated_slap_with_hand_short_vertflip_short_600ms.mp4	49.repeated_slap_with_hand_short_vertflip_short_600ms.mp4	452.9582733893121	453.5664169007241	0.6081435114119813				
396.97705078125	0.2	813009	305	27	3	0	0	17	211	stimuli\Videos_short_600ms_horvertflip\38.double_slap_with_pencil_short_horvertflip_short_600ms.mp4	38.double_slap_with_pencil_short_horvertflip_short_600ms.mp4	453.758091343253	454.3663917403637	0.6083003971107246				
397.77734375	0.2	814648	306	27	3	0	0	18	59	stimuli\Videos_short_600ms\63.stroke_top_to_bottom_with_screwdriver_short_short_600ms.mp4	63.stroke_top_to_bottom_with_screwdriver_short_short_600ms.mp4	454.55887993581473	455.1664085139373	0.607528578122583				
398.5771484375	0.2	816286	307	27	3	0	0	19	161	stimuli\Videos_short_600ms_horflip\74.fingers_walking_from_top_to_bottom_short_horflip_short_600ms.mp4	74.fingers_walking_from_top_to_bottom_short_horflip_short_600ms.mp4	455.35802929275906	455.9663554953686	0.6083262026095326				
399.376953125	0.2	817924	308	27	3	0	1	20	372	stimuli\Targets_short_600ms_horvertflip\brush-stroke_short_vertflip_short_600ms.mp4	brush-stroke_short_vertflip_short_600ms.mp4	456.1579885904512	456.7663335606949	0.6083449702437065				
400.17724609375	0.2	819563	309	27	3	0	0	21	9	stimuli\Videos_short_600ms\18.single_stroke_from_top_to_bottom_with_rolling_pin_short_short_600ms.mp4	18.single_stroke_from_top_to_bottom_with_rolling_pin_short_short_600ms.mp4	456.9579833707021	457.5663125057554	0.6083291350532818				
400.97705078125	0.2	821201	310	27	3	0	0	22	296	stimuli\Videos_short_600ms_vertflip\33.scratch_top_to_bottom_with_scissors_short_vertflip_short_600ms.mp4	33.scratch_top_to_bottom_with_scissors_short_vertflip_short_600ms.mp4	457.7579529319437	458.3662926237912	0.6083396918475046				
401.77685546875	0.2	822839	311	27	3	0	1	23	371	stimuli\Targets_short_600ms_horflip\hand-stroke_short_horflip_short_600ms.mp4	hand-stroke_short_horflip_short_600ms.mp4	458.5579289445605	459.1662724485841	0.6083435040236509				
402.5771484375	0.2	824478	312	27	3	0	0	24	212	stimuli\Videos_short_600ms_horvertflip\39.single_stab_with_scissors_short_horvertflip_short_600ms.mp4	39.single_stab_with_scissors_short_horvertflip_short_600ms.mp4	459.3579993818412	459.9662516868875	0.6082523050463351				
403.376953125	0.2	826116	313	27	3	0	0	25	145	stimuli\Videos_short_600ms_horflip\6.single_touch_with_flat_hand_short_horflip_short_600ms.mp4	6.single_touch_with_flat_hand_short_horflip_short_600ms.mp4	460.15792759563647	460.7662335643899	0.6083059687534842				
404.1767578125	0.2	827754	314	27	3	0	0	26	226	stimuli\Videos_short_600ms_horvertflip\51.repeated_touch_with_hammer_short_horvertflip_short_600ms.mp4	51.repeated_touch_with_hammer_short_horvertflip_short_600ms.mp4	460.9578827879095	461.5661916891049	0.6083089011954144				
404.97705078125	0.2	829393	315	27	3	0	0	27	319	stimuli\Videos_short_600ms_vertflip\54.repeated_touch_with_knife_short_vertflip_short_600ms.mp4	54.repeated_touch_with_knife_short_vertflip_short_600ms.mp4	461.7578954560622	462.3661926274862	0.6082971714240557				
405.77685546875	0.2	831031	316	27	3	0	0	28	68	stimuli\Videos_short_600ms\71.single_stroke_with_finger_top_to_bottom_short_short_600ms.mp4	71.single_stroke_with_finger_top_to_bottom_short_short_600ms.mp4	462.5578345198983	463.16617655769824	0.6083420377999573				
406.57666015625	0.2	832669	317	27	3	0	0	29	227	stimuli\Videos_short_600ms_horvertflip\52.touch_top_to_bottom_with_hammer_short_horvertflip_short_600ms.mp4	52.touch_top_to_bottom_with_hammer_short_horvertflip_short_600ms.mp4	463.3578231420188	463.9661317499713	0.6083086079524946				
407.376953125	0.2	834308	318	27	3	0	0	30	64	stimuli\Videos_short_600ms\68.stroke_top_to_bottom_with_shawl_short_short_600ms.mp4	68.stroke_top_to_bottom_with_shawl_short_short_600ms.mp4	464.15781381685065	464.7661426586592	0.6083288418085431				
408.1767578125	0.2	835946	319	27	3	0	0	31	305	stimuli\Videos_short_600ms_vertflip\41.injection_with_blunt_syringe_short_vertflip_short_600ms.mp4	41.injection_with_blunt_syringe_short_vertflip_short_600ms.mp4	464.95779804030735	465.56610254283896	0.6083045025316096				
408.9765625	0.2	837584	320	27	3	0	0	32	293	stimuli\Videos_short_600ms_vertflip\30.finger_pulling_back_another_finger_short_vertflip_short_600ms.mp4	30.finger_pulling_back_another_finger_short_vertflip_short_600ms.mp4	465.75778138403166	466.3660732770577	0.6082918930260348				
409.77685546875	0.2	839223	321	27	3	0	0	33	180	stimuli\Videos_short_600ms_horvertflip\1.repeated_touch_with_finger_fast_short_horvertflip_short_600ms.mp4	1.repeated_touch_with_finger_fast_short_horvertflip_short_600ms.mp4	466.5578098873766	467.1660777343705	0.6082678469938401				
410.57666015625	0.2	840861	322	27	3	0	0	34	317	stimuli\Videos_short_600ms_vertflip\52.touch_top_to_bottom_with_hammer_short_vertflip_short_600ms.mp4	52.touch_top_to_bottom_with_hammer_short_vertflip_short_600ms.mp4	467.3577477782337	467.96605491996434	0.6083071417306201				
411.37646484375	0.2	842499	323	27	3	0	0	35	292	stimuli\Videos_short_600ms_vertflip\3.single_push_with_finger_short_vertflip_short_600ms.mp4	3.single_push_with_finger_short_vertflip_short_600ms.mp4	468.15777334913673	468.76604706101807	0.6082737118813384				
412.1767578125	0.2	844138	324	27	3	0	0	36	340	stimuli\Videos_short_600ms_vertflip\73.single_stroke_with_flat_hand_short_vertflip_short_600ms.mp4	73.single_stroke_with_flat_hand_short_vertflip_short_600ms.mp4	468.9576992169795	469.566047119667	0.6083479026874556				
412.9765625	0.2	845776	325	27	3	0	0	37	33	stimuli\Videos_short_600ms\4.repeated_tap_with_finger_slow_short_short_600ms.mp4	4.repeated_tap_with_finger_slow_short_short_600ms.mp4	469.7576787485277	470.3659750402176	0.6082962916898396				
413.7763671875	0.2	847414	326	27	3	0	0	38	315	stimuli\Videos_short_600ms_vertflip\50.single_(long)hard_push_with_thumb_short_vertflip_short_600ms.mp4	50.single_(long)hard_push_with_thumb_short_vertflip_short_600ms.mp4	470.5576585733188	471.16597803131026	0.6083194579914561				
414.57666015625	0.2	849053	327	27	3	0	0	39	220	stimuli\Videos_short_600ms_horvertflip\46.scratching_top_to_bottom_with_finger_nails_short_horvertflip_short_600ms.mp4	46.scratching_top_to_bottom_with_finger_nails_short_horvertflip_short_600ms.mp4	471.357637811624	471.9659596155679	0.6083218039439089				
415.37646484375	0.2	850691	328	27	3	0	0	40	53	stimuli\Videos_short_600ms\58.single_slap_with_pencil_short_short_600ms.mp4	58.single_slap_with_pencil_short_short_600ms.mp4	472.1576510662662	472.76596612559206	0.6083150593258324				
416.17626953125	0.2	852329	329	27	3	0	0	41	142	stimuli\Videos_short_600ms_horflip\57.single_touch_with_nail_file_short_horflip_short_600ms.mp4	57.single_touch_with_nail_file_short_horflip_short_600ms.mp4	472.9576003936518	473.5659207313756	0.6083203377238533				
416.9765625	0.2	853968	330	27	3	0	0	42	41	stimuli\Videos_short_600ms\47.(long)scratching_with_finger_nails_short_short_600ms.mp4	47.(long)scratching_with_finger_nails_short_short_600ms.mp4	473.757650010587	474.3659020223886	0.6082520118015964				
417.7763671875	0.2	855606	331	27	3	0	0	43	320	stimuli\Videos_short_600ms_vertflip\55.touch_top_to_bottom_with_nail_file_short_vertflip_short_600ms.mp4	55.touch_top_to_bottom_with_nail_file_short_vertflip_short_600ms.mp4	474.5575620959453	475.1658797944702	0.6083176985248429				
418.576171875	0.2	857244	332	27	3	0	0	44	203	stimuli\Videos_short_600ms_horvertflip\30.finger_pulling_back_another_finger_short_horvertflip_short_600ms.mp4	30.finger_pulling_back_another_finger_short_horvertflip_short_600ms.mp4	475.3575266720354	475.9658625517068	0.6083358796713583				
419.37646484375	0.2	858883	333	27	3	0	0	45	19	stimuli\Videos_short_600ms\27.single_push_with_a_plastic_whisk_short_short_600ms.mp4	27.single_push_with_a_plastic_whisk_short_short_600ms.mp4	476.1575009251856	476.76584237649786	0.6083414513122989				
420.17626953125	0.2	860521	334	27	3	0	0	46	99	stimuli\Videos_short_600ms_horflip\18.single_stroke_from_top_to_bottom_with_rolling_pin_short_horflip_short_600ms.mp4	18.single_stroke_from_top_to_bottom_with_rolling_pin_short_horflip_short_600ms.mp4	476.95750391627826	477.5657978620138	0.6082939457355678				
420.9765625	0.2	862160	335	27	3	0	0	47	31	stimuli\Videos_short_600ms\38.double_slap_with_pencil_short_short_600ms.mp4	38.double_slap_with_pencil_short_short_600ms.mp4	477.7574963505749	478.3657844314266	0.6082880808517075				
421.7763671875	0.2	863798	336	27	3	0	0	48	307	stimuli\Videos_short_600ms_vertflip\43.touch_top_to_bottom_with_sharp_wooden_stick_short_vertflip_short_600ms.mp4	43.touch_top_to_bottom_with_sharp_wooden_stick_short_vertflip_short_600ms.mp4	478.5574509563585	479.16578009140994	0.6083291350514628				
422.576171875	0.2	865436	337	27	3	0	0	49	129	stimuli\Videos_short_600ms_horflip\45.scratching_with_finger_nails_short_horflip_short_600ms.mp4	45.scratching_with_finger_nails_short_horflip_short_600ms.mp4	479.3575111300879	479.9657725257066	0.6082613956186833				
423.37646484375	0.2	867075	338	27	3	0	0	50	104	stimuli\Videos_short_600ms_horflip\22.single_touch_with_metal_chopstick_short_horflip_short_600ms.mp4	22.single_touch_with_metal_chopstick_short_horflip_short_600ms.mp4	480.1574003423912	480.76574355317007	0.6083432107789122				
424.17626953125	0.2	868713	339	27	3	0	0	51	295	stimuli\Videos_short_600ms_vertflip\32.single_(long)pinch_with_fingers_short_vertflip_short_600ms.mp4	32.single_(long)pinch_with_fingers_short_vertflip_short_600ms.mp4	480.9574062659276	481.56572836311625	0.6083220971886476				
424.97607421875	0.2	870351	340	27	3	0	0	52	37	stimuli\Videos_short_600ms\43.touch_top_to_bottom_with_sharp_wooden_stick_short_short_600ms.mp4	43.touch_top_to_bottom_with_sharp_wooden_stick_short_short_600ms.mp4	481.75738491774155	482.36570848115207	0.6083235634105222				
425.7763671875	0.2	871990	341	27	3	0	0	53	304	stimuli\Videos_short_600ms_vertflip\40.repeated_push_with_finger_short_vertflip_short_600ms.mp4	40.repeated_push_with_finger_short_vertflip_short_600ms.mp4	482.5573670884887	483.1658349280942	0.6084678396055097				
426.576171875	0.2	873628	342	27	3	0	0	54	277	stimuli\Videos_short_600ms_vertflip\16.repeated_touch_with_plastic_brush_short_vertflip_short_600ms.mp4	16.repeated_touch_with_plastic_brush_short_vertflip_short_600ms.mp4	483.3573492592359	483.9656742888683	0.6083250296323968				
427.3759765625	0.2	875266	343	27	3	0	0	55	7	stimuli\Videos_short_600ms\16.repeated_touch_with_plastic_brush_short_short_600ms.mp4	16.repeated_touch_with_plastic_brush_short_short_600ms.mp4	484.15732527185264	484.7656218567872	0.6082965849345783				
428.17626953125	0.2	876905	344	27	3	0	0	56	221	stimuli\Videos_short_600ms_horvertflip\47.(long)scratching_with_finger_nails_short_horvertflip_short_600ms.mp4	47.(long)scratching_with_finger_nails_short_horvertflip_short_600ms.mp4	484.9573071493551	485.5656016815801	0.6082945322250453				
428.97607421875	0.2	878543	345	27	3	0	0	57	184	stimuli\Videos_short_600ms_horvertflip\13.single_touch_with_pen_short_horvertflip_short_600ms.mp4	13.single_touch_with_pen_short_horvertflip_short_600ms.mp4	485.7573286148372	486.3656897135179	0.6083610986806889				
429.77587890625	0.2	880181	346	27	3	0	0	58	275	stimuli\Videos_short_600ms_vertflip\14.repeated_touch_with_pencil_short_vertflip_short_600ms.mp4	14.repeated_touch_with_pencil_short_vertflip_short_600ms.mp4	486.5572673854286	487.1655891893725	0.6083218039439089				
430.576171875	0.2	881820	347	27	3	0	0	59	335	stimuli\Videos_short_600ms_vertflip\69.stroke_with_soft_sock_short_vertflip_short_600ms.mp4	69.stroke_with_soft_sock_short_vertflip_short_600ms.mp4	487.35726275216894	487.96554496813314	0.6082822159642092				
431.3759765625	0.2	883458	348	27	3	0	0	60	219	stimuli\Videos_short_600ms_horvertflip\45.scratching_with_finger_nails_short_horvertflip_short_600ms.mp4	45.scratching_with_finger_nails_short_horvertflip_short_600ms.mp4	488.1572282079897	488.765549132203	0.6083209242133307				
432.17578125	0.2	885096	349	27	3	0	0	61	11	stimuli\Videos_short_600ms\2.single_touch_with_finger_short_short_600ms.mp4	2.single_touch_with_finger_short_short_600ms.mp4	488.9572593505336	489.5655257313074	0.6082663807737845				
432.97607421875	0.2	886735	350	27	3	0	0	62	111	stimuli\Videos_short_600ms_horflip\29.single_pinch_with_tweezers_short_horflip_short_600ms.mp4	29.single_pinch_with_tweezers_short_horflip_short_600ms.mp4	489.7571822859327	490.3655090750317	0.6083267890990101				
433.77587890625	0.2	888373	351	27	3	0	0	63	102	stimuli\Videos_short_600ms_horflip\20.single_touch_with_screwdriver_short_horflip_short_600ms.mp4	20.single_touch_with_screwdriver_short_horflip_short_600ms.mp4	490.5571665093894	491.1654906592894	0.6083241498999996				
434.57568359375	0.2	890011	352	27	3	0	0	64	84	stimuli\Videos_short_600ms\86.touch_top_to_bottom_with_hair_brush_short_short_600ms.mp4	86.touch_top_to_bottom_with_hair_brush_short_short_600ms.mp4	491.35726128594706	491.9654696043481	0.6082083184010116				
435.3759765625	0.2	891650	353	27	3	0	0	65	12	stimuli\Videos_short_600ms\20.single_touch_with_screwdriver_short_short_600ms.mp4	20.single_touch_with_screwdriver_short_short_600ms.mp4	492.15720680115646	492.7654517750952	0.6082449739387812				
436.17578125	0.2	893288	354	27	3	0	0	66	241	stimuli\Videos_short_600ms_horvertflip\65.stroke_top_to_bottom_with_stanley_knife_short_horvertflip_short_600ms.mp4	65.stroke_top_to_bottom_with_stanley_knife_short_horvertflip_short_600ms.mp4	492.9571133148738	493.56540843358835	0.6082951187145227				
436.9755859375	0.2	894926	355	27	3	0	0	67	331	stimuli\Videos_short_600ms_vertflip\65.stroke_top_to_bottom_with_stanley_knife_short_vertflip_short_600ms.mp4	65.stroke_top_to_bottom_with_stanley_knife_short_vertflip_short_600ms.mp4	493.7570946058886	494.3653888448689	0.6082942389803065				
437.77587890625	0.2	896565	356	27	3	0	0	68	105	stimuli\Videos_short_600ms_horflip\23.single_push_with_a_spoon_short_horflip_short_600ms.mp4	23.single_push_with_a_spoon_short_horflip_short_600ms.mp4	494.5570717914825	495.1653891967626	0.6083174052801041				
438.57568359375	0.2	898203	357	27	3	0	0	69	265	stimuli\Videos_short_600ms_horvertflip\87.single_stroke_top_to_bottom_with_plastic_brush_short_horvertflip_short_600ms.mp4	87.single_stroke_top_to_bottom_with_plastic_brush_short_horvertflip_short_600ms.mp4	495.3570498568088	495.96538251079346	0.6083326539846894				
439.37548828125	0.2	899841	358	27	3	0	0	70	279	stimuli\Videos_short_600ms_vertflip\18.single_stroke_from_top_to_bottom_with_rolling_pin_short_vertflip_short_600ms.mp4	18.single_stroke_from_top_to_bottom_with_rolling_pin_short_vertflip_short_600ms.mp4	496.15703378702074	496.7653591098979	0.6083253228771355				
440.17578125	0.2	901480	359	27	3	0	0	71	240	stimuli\Videos_short_600ms_horvertflip\64.repeated_touch_with_screwdriver_short_horvertflip_short_600ms.mp4	64.repeated_touch_with_screwdriver_short_horvertflip_short_600ms.mp4	496.9570133185689	497.5653178211005	0.6083045025316096				
440.9755859375	0.2	903118	360	27	3	0	0	72	130	stimuli\Videos_short_600ms_horflip\46.scratching_top_to_bottom_with_finger_nails_short_horflip_short_600ms.mp4	46.scratching_top_to_bottom_with_finger_nails_short_horflip_short_600ms.mp4	497.757025106991	498.3653155337952	0.6082904268041602				
441.77587890625	0.2	904757	361	27	3	0	0	73	311	stimuli\Videos_short_600ms_vertflip\47.(long)scratching_with_finger_nails_short_vertflip_short_600ms.mp4	47.(long)scratching_with_finger_nails_short_vertflip_short_600ms.mp4	498.55707560365863	499.1652704328235	0.6081948291648587				
442.57568359375	0.2	906395	362	27	3	0	0	74	164	stimuli\Videos_short_600ms_horflip\77.tapping_with_all_fingers_short_horflip_short_600ms.mp4	77.tapping_with_all_fingers_short_horflip_short_600ms.mp4	499.3569832903531	499.96535259987377	0.60836930952064				
443.37548828125	0.2	908033	363	27	3	0	0	75	3	stimuli\Videos_short_600ms\12.repeated_touch_with_nail_file_short_short_600ms.mp4	12.repeated_touch_with_nail_file_short_short_600ms.mp4	500.1569358434272	500.7652544216844	0.60831857825724				
444.17578125	0.2	909672	364	27	3	0	0	76	69	stimuli\Videos_short_600ms\72.(short)stroke_with_finger_all_over_the_hand_short_short_600ms.mp4	72.(short)stroke_with_finger_all_over_the_hand_short_short_600ms.mp4	500.9569142019964	501.56523483296496	0.608320630968592				
444.9755859375	0.2	911310	365	27	3	0	0	77	39	stimuli\Videos_short_600ms\45.scratching_with_finger_nails_short_short_600ms.mp4	45.scratching_with_finger_nails_short_short_600ms.mp4	501.7569365472127	502.3652870890992	0.6083505418864661				
445.775390625	0.2	912948	366	27	3	0	0	78	108	stimuli\Videos_short_600ms_horflip\26.single_touch_with_a_blunt_syringe_short_horflip_short_600ms.mp4	26.single_touch_with_a_blunt_syringe_short_horflip_short_600ms.mp4	502.55694774914537	503.16519184335175	0.608244094206384				
446.57568359375	0.2	914587	367	27	3	0	0	79	40	stimuli\Videos_short_600ms\46.scratching_top_to_bottom_with_finger_nails_short_short_600ms.mp4	46.scratching_top_to_bottom_with_finger_nails_short_short_600ms.mp4	503.35695689836666	503.9651763600532	0.6082194616865308				
447.37548828125	0.2	916225	368	27	3	0	0	80	357	stimuli\Videos_short_600ms_vertflip\89.single_touch_with_plastic_brush_short_vertflip_short_600ms.mp4	89.single_touch_with_plastic_brush_short_vertflip_short_600ms.mp4	504.1568156132644	504.7651553051119	0.6083396918475046				
448.17529296875	0.2	917863	369	27	3	0	0	81	0	stimuli\Videos_short_600ms\1.repeated_touch_with_finger_fast_short_short_600ms.mp4	1.repeated_touch_with_finger_fast_short_short_600ms.mp4	504.95681860435707	505.56513659612665	0.6083179917695816				
448.9755859375	0.2	919502	370	27	3	0	0	82	149	stimuli\Videos_short_600ms_horflip\63.stroke_top_to_bottom_with_screwdriver_short_horflip_short_600ms.mp4	63.stroke_top_to_bottom_with_screwdriver_short_horflip_short_600ms.mp4	505.7567963764386	506.3651164209178	0.6083200444791146				
449.775390625	0.2	921140	371	27	3	0	0	83	303	stimuli\Videos_short_600ms_vertflip\4.repeated_tap_with_finger_slow_short_vertflip_short_600ms.mp4	4.repeated_tap_with_finger_slow_short_vertflip_short_600ms.mp4	506.5568269324949	507.1650938997563	0.6082669672614429				
450.5751953125	0.2	922778	372	27	3	0	0	84	237	stimuli\Videos_short_600ms_horvertflip\61.single_hit_with_rolling_pin_short_horvertflip_short_600ms.mp4	61.single_hit_with_rolling_pin_short_horvertflip_short_600ms.mp4	507.3568082235078	507.96505994206655	0.6082517185586767				
451.37548828125	0.2	924417	373	27	3	0	0	85	166	stimuli\Videos_short_600ms_horflip\79.long_with_soft_brush_all_over_the_hand_short_horflip_short_600ms.mp4	79.long_with_soft_brush_all_over_the_hand_short_horflip_short_600ms.mp4	508.1567317453964	508.7650324357519	0.6083006903554633				
452.17529296875	0.2	926055	374	27	3	0	1	86	378	stimuli\Targets_short_600ms_vertflip\brush-stroke_short_horvertflip_short_600ms.mp4	brush-stroke_short_horvertflip_short_600ms.mp4	508.9567262324026	509.5650137267649	0.6082874943622301				
