onset	duration	onsetsample	eventnumber	subjectnr	sequencenumber	blocksequencenumber	istarget	presentationnumber	stimnumber	stim	stimname	time_stimon	time_stimoff	stimdur	cresp	resp	rt	correct
21.27197265625	0.2	43565	0	33	0	0	1	0	372	stimuli\Targets_short_600ms_horvertflip\brush-stroke_short_vertflip_short_600ms.mp4	brush-stroke_short_vertflip_short_600ms.mp4	3708.554269255736	3709.165124103907	0.6108548481715843	n/a	n/a	n/a	n/a
22.07177734375	0.2	45203	1	33	0	0	0	1	93	stimuli\Videos_short_600ms_horflip\12.repeated_touch_with_nail_file_short_horflip_short_600ms.mp4	12.repeated_touch_with_nail_file_short_horflip_short_600ms.mp4	3709.3567692220095	3709.965107154392	0.6083379323827103	n/a	n/a	n/a	n/a
22.8720703125	0.2	46842	2	33	0	0	0	2	257	stimuli\Videos_short_600ms_horvertflip\8.single_touch_with_hairbrush_short_horvertflip_short_600ms.mp4	8.single_touch_with_hairbrush_short_horvertflip_short_600ms.mp4	3710.156756964396	3710.765082873768	0.6083259093720699	n/a	n/a	n/a	n/a
23.671875	0.2	48480	3	33	0	0	0	3	152	stimuli\Videos_short_600ms_horflip\66.stroke_top_to_bottom_with_sponge_short_horflip_short_600ms.mp4	66.stroke_top_to_bottom_with_sponge_short_horflip_short_600ms.mp4	3710.95672769862	3711.565070616154	0.6083429175341735	n/a	n/a	n/a	n/a
24.4716796875	0.2	50118	4	33	0	0	0	4	130	stimuli\Videos_short_600ms_horflip\46.scratching_top_to_bottom_with_finger_nails_short_horflip_short_600ms.mp4	46.scratching_top_to_bottom_with_finger_nails_short_horflip_short_600ms.mp4	3711.756766172271	3712.365041643614	0.6082754713424947	n/a	n/a	n/a	n/a
25.27197265625	0.2	51757	5	33	0	0	0	5	249	stimuli\Videos_short_600ms_horvertflip\72.(short)stroke_with_finger_all_over_the_hand_short_horvertflip_short_600ms.mp4	72.(short)stroke_with_finger_all_over_the_hand_short_horvertflip_short_600ms.mp4	3712.556793502634	3713.164981587179	0.6081880845449632	n/a	n/a	n/a	n/a
26.07177734375	0.2	53395	6	33	0	0	0	6	267	stimuli\Videos_short_600ms_horvertflip\89.single_touch_with_plastic_brush_short_horvertflip_short_600ms.mp4	89.single_touch_with_plastic_brush_short_horvertflip_short_600ms.mp4	3713.3567724477034	3713.964973141745	0.6082006940414431	n/a	n/a	n/a	n/a
26.87158203125	0.2	55033	7	33	0	0	0	7	37	stimuli\Videos_short_600ms\43.touch_top_to_bottom_with_sharp_wooden_stick_short_short_600ms.mp4	43.touch_top_to_bottom_with_sharp_wooden_stick_short_short_600ms.mp4	3714.1567311589024	3714.7649450489407	0.6082138900383143	n/a	n/a	n/a	n/a
27.671875	0.2	56672	8	33	0	0	0	8	66	stimuli\Videos_short_600ms\7.repeated_touch_with_hairbrush_short_short_600ms.mp4	7.repeated_touch_with_hairbrush_short_short_600ms.mp4	3714.956664944344	3715.5649474535458	0.6082825092016719	n/a	n/a	n/a	n/a
28.4716796875	0.2	58310	9	33	0	0	0	9	48	stimuli\Videos_short_600ms\53.touch_top_to_bottom_with_knife_short_short_600ms.mp4	53.touch_top_to_bottom_with_knife_short_short_600ms.mp4	3715.7566306934023	3716.3649319702527	0.6083012768503977	n/a	n/a	n/a	n/a
29.271484375	0.2	59948	10	33	0	0	0	10	298	stimuli\Videos_short_600ms_vertflip\35.single_punch_with_hand_short_vertflip_short_600ms.mp4	35.single_punch_with_hand_short_vertflip_short_600ms.mp4	3716.5565873518935	3717.164913847751	0.6083264958579093	n/a	n/a	n/a	n/a
30.07177734375	0.2	61587	11	33	0	0	1	11	363	stimuli\Targets_short_600ms\finger-tap_short_short_600ms.mp4	finger-tap_short_short_600ms.mp4	3717.3565926889423	3717.964940591628	0.6083479026856367	n/a	n/a	n/a	n/a
30.87158203125	0.2	63225	12	33	0	0	0	12	321	stimuli\Videos_short_600ms_vertflip\56.repeated_touch_with_nail_file_short_vertflip_short_600ms.mp4	56.repeated_touch_with_nail_file_short_vertflip_short_600ms.mp4	3718.156624711221	3718.764889332524	0.6082646213035332	n/a	n/a	n/a	n/a
31.671875	0.2	64864	13	33	0	0	0	13	228	stimuli\Videos_short_600ms_horvertflip\53.touch_top_to_bottom_with_knife_short_horvertflip_short_600ms.mp4	53.touch_top_to_bottom_with_knife_short_horvertflip_short_600ms.mp4	3718.956600137346	3719.564878247897	0.6082781105506001	n/a	n/a	n/a	n/a
32.4716796875	0.2	66502	14	33	0	0	1	14	371	stimuli\Targets_short_600ms_horflip\hand-stroke_short_horflip_short_600ms.mp4	hand-stroke_short_horflip_short_600ms.mp4	3719.756544479576	3720.364849275357	0.6083047957799863	n/a	n/a	n/a	n/a
33.271484375	0.2	68140	15	33	0	0	0	15	197	stimuli\Videos_short_600ms_horvertflip\25.single_touch_with_stanley_knife_short_horvertflip_short_600ms.mp4	25.single_touch_with_stanley_knife_short_horvertflip_short_600ms.mp4	3720.556559786928	3721.164829979883	0.6082701929553878	n/a	n/a	n/a	n/a
34.07177734375	0.2	69779	16	33	0	0	1	16	366	stimuli\Targets_short_600ms_horflip\brush-stroke_short_horflip_short_600ms.mp4	brush-stroke_short_horflip_short_600ms.mp4	3721.356533453596	3721.9648106844106	0.608277230814565	n/a	n/a	n/a	n/a
34.87158203125	0.2	71417	17	33	0	0	0	17	359	stimuli\Videos_short_600ms_vertflip\90.repeated_touch_with_sponge_short_vertflip_short_600ms.mp4	90.repeated_touch_with_sponge_short_vertflip_short_600ms.mp4	3722.156533512243	3722.764790802452	0.6082572902087122	n/a	n/a	n/a	n/a
35.67138671875	0.2	73055	18	33	0	0	0	18	332	stimuli\Videos_short_600ms_vertflip\66.stroke_top_to_bottom_with_sponge_short_vertflip_short_600ms.mp4	66.stroke_top_to_bottom_with_sponge_short_vertflip_short_600ms.mp4	3722.956422724558	3723.564772386701	0.608349662143155	n/a	n/a	n/a	n/a
36.4716796875	0.2	74694	19	33	0	0	0	19	227	stimuli\Videos_short_600ms_horvertflip\52.touch_top_to_bottom_with_hammer_short_horvertflip_short_600ms.mp4	52.touch_top_to_bottom_with_hammer_short_horvertflip_short_600ms.mp4	3723.756436565687	3724.364751918256	0.6083153525687521	n/a	n/a	n/a	n/a
37.271484375	0.2	76332	20	33	0	0	0	20	342	stimuli\Videos_short_600ms_vertflip\75.(long)stroke_with_fingers_all_over_the_hand_short_vertflip_short_600ms.mp4	75.(long)stroke_with_fingers_all_over_the_hand_short_vertflip_short_600ms.mp4	3724.556537500365	3725.1647358484624	0.6081983480980853	n/a	n/a	n/a	n/a
38.0712890625	0.2	77970	21	33	0	0	0	21	111	stimuli\Videos_short_600ms_horflip\29.single_pinch_with_tweezers_short_horflip_short_600ms.mp4	29.single_pinch_with_tweezers_short_horflip_short_600ms.mp4	3725.3564451870625	3725.9647183124616	0.6082731253991369	n/a	n/a	n/a	n/a
38.87158203125	0.2	79609	22	33	0	0	0	22	252	stimuli\Videos_short_600ms_horvertflip\75.(long)stroke_with_fingers_all_over_the_hand_short_horvertflip_short_600ms.mp4	75.(long)stroke_with_fingers_all_over_the_hand_short_horvertflip_short_600ms.mp4	3726.156336452085	3726.7646954980446	0.6083590459602419	n/a	n/a	n/a	n/a
39.67138671875	0.2	81247	23	33	0	0	0	23	174	stimuli\Videos_short_600ms_horflip\86.touch_top_to_bottom_with_hair_brush_short_horflip_short_600ms.mp4	86.touch_top_to_bottom_with_hair_brush_short_horflip_short_600ms.mp4	3726.9563977987855	3727.564660953867	0.6082631550816586	n/a	n/a	n/a	n/a
40.47119140625	0.2	82885	24	33	0	0	0	24	196	stimuli\Videos_short_600ms_horvertflip\24.single_stroke_top_to_bottom_with_a_spoon_short_horvertflip_short_600ms.mp4	24.single_stroke_top_to_bottom_with_a_spoon_short_horvertflip_short_600ms.mp4	3727.756448881948	3728.364627582676	0.6081787007278763	n/a	n/a	n/a	n/a
41.271484375	0.2	84524	25	33	0	0	0	25	245	stimuli\Videos_short_600ms_horvertflip\69.stroke_with_soft_sock_short_horvertflip_short_600ms.mp4	69.stroke_with_soft_sock_short_horvertflip_short_600ms.mp4	3728.556362140283	3729.164618257506	0.6082561172224814	n/a	n/a	n/a	n/a
42.0712890625	0.2	86162	26	33	0	0	0	26	312	stimuli\Videos_short_600ms_vertflip\48.single_slap_with_hand_short_vertflip_short_600ms.mp4	48.single_slap_with_hand_short_vertflip_short_600ms.mp4	3729.356302670334	3729.964575502483	0.6082728321489412	n/a	n/a	n/a	n/a
42.87109375	0.2	87800	27	33	0	0	0	27	108	stimuli\Videos_short_600ms_horflip\26.single_touch_with_a_blunt_syringe_short_horflip_short_600ms.mp4	26.single_touch_with_a_blunt_syringe_short_horflip_short_600ms.mp4	3730.1562883600127	3730.764563538119	0.6082751781068509	n/a	n/a	n/a	n/a
43.67138671875	0.2	89439	28	33	0	0	0	28	158	stimuli\Videos_short_600ms_horflip\71.single_stroke_with_finger_top_to_bottom_short_horflip_short_600ms.mp4	71.single_stroke_with_finger_top_to_bottom_short_horflip_short_600ms.mp4	3730.956262319916	3731.564560077837	0.6082977579208091	n/a	n/a	n/a	n/a
44.47119140625	0.2	91077	29	33	0	0	0	29	254	stimuli\Videos_short_600ms_horvertflip\77.tapping_with_all_fingers_short_horvertflip_short_600ms.mp4	77.tapping_with_all_fingers_short_horvertflip_short_600ms.mp4	3731.756235986584	3732.364548406709	0.608312420125003	n/a	n/a	n/a	n/a
45.27099609375	0.2	92715	30	33	0	0	0	30	72	stimuli\Videos_short_600ms\75.(long)stroke_with_fingers_all_over_the_hand_short_short_600ms.mp4	75.(long)stroke_with_fingers_all_over_the_hand_short_short_600ms.mp4	3732.5562266614143	3733.1645508113143	0.6083241498999996	n/a	n/a	n/a	n/a
46.0712890625	0.2	94354	31	33	0	0	0	31	211	stimuli\Videos_short_600ms_horvertflip\38.double_slap_with_pencil_short_horvertflip_short_600ms.mp4	38.double_slap_with_pencil_short_horvertflip_short_600ms.mp4	3733.3562375701	3733.96452653069	0.6082889605895616	n/a	n/a	n/a	n/a
46.87109375	0.2	95992	32	33	0	0	0	32	299	stimuli\Videos_short_600ms_vertflip\36.single_slap_with_full_hand_short_vertflip_short_600ms.mp4	36.single_slap_with_full_hand_short_vertflip_short_600ms.mp4	3734.1562475990504	3734.764507235217	0.6082596361666219	n/a	n/a	n/a	n/a
47.6708984375	0.2	97630	33	33	0	0	0	33	8	stimuli\Videos_short_600ms\17.repeated_touch_with_rolling_pin_short_short_600ms.mp4	17.repeated_touch_with_rolling_pin_short_short_600ms.mp4	3734.9562321157578	3735.564485300536	0.6082531847787322	n/a	n/a	n/a	n/a
48.47119140625	0.2	99269	34	33	0	0	0	34	134	stimuli\Videos_short_600ms_horflip\5.repeated_tap_with_finger_moving_from_top_to_bottom_short_horflip_short_600ms.mp4	5.repeated_tap_with_finger_moving_from_top_to_bottom_short_horflip_short_600ms.mp4	3735.756147426801	3736.364463952355	0.608316525554983	n/a	n/a	n/a	n/a
49.27099609375	0.2	100907	35	33	0	0	0	35	331	stimuli\Videos_short_600ms_vertflip\65.stroke_top_to_bottom_with_stanley_knife_short_vertflip_short_600ms.mp4	65.stroke_top_to_bottom_with_stanley_knife_short_vertflip_short_600ms.mp4	3736.55611053668	3737.16445052177	0.6083399850904243	n/a	n/a	n/a	n/a
50.07080078125	0.2	102545	36	33	0	0	0	36	147	stimuli\Videos_short_600ms_horflip\61.single_hit_with_rolling_pin_short_horflip_short_600ms.mp4	61.single_hit_with_rolling_pin_short_horflip_short_600ms.mp4	3737.356161033342	3737.9644312262826	0.6082701929408358	n/a	n/a	n/a	n/a
50.87109375	0.2	104184	37	33	0	0	0	37	103	stimuli\Videos_short_600ms_horflip\21.repeated_touch_with_metal_chopstick_short_horflip_short_600ms.mp4	21.repeated_touch_with_metal_chopstick_short_horflip_short_600ms.mp4	3738.1560575767503	3738.764410757838	0.6083531810872955	n/a	n/a	n/a	n/a
51.6708984375	0.2	105822	38	33	0	0	0	38	173	stimuli\Videos_short_600ms_horflip\85.touch_top_to_bottom_with_fabric_short_horflip_short_600ms.mp4	85.touch_top_to_bottom_with_fabric_short_horflip_short_600ms.mp4	3738.956047665095	3739.564390289379	0.6083426242839778	n/a	n/a	n/a	n/a
52.47119140625	0.2	107461	39	33	0	0	0	39	21	stimuli\Videos_short_600ms\29.single_pinch_with_tweezers_short_short_600ms.mp4	29.single_pinch_with_tweezers_short_short_600ms.mp4	3739.7560128276673	3740.3643730466138	0.6083602189464727	n/a	n/a	n/a	n/a
53.27099609375	0.2	109099	40	33	0	0	1	40	379	stimuli\Targets_short_600ms_vertflip\chopstick-silver-tap_short_horvertflip_short_600ms.mp4	chopstick-silver-tap_short_horvertflip_short_600ms.mp4	3740.555991772737	3741.164354044391	0.6083622716541868	n/a	n/a	n/a	n/a
54.07080078125	0.2	110737	41	33	0	0	0	41	118	stimuli\Videos_short_600ms_horflip\35.single_punch_with_hand_short_horflip_short_600ms.mp4	35.single_punch_with_hand_short_horflip_short_600ms.mp4	3741.356003267909	3741.964329177281	0.6083259093720699	n/a	n/a	n/a	n/a
54.87109375	0.2	112376	42	33	0	0	0	42	195	stimuli\Videos_short_600ms_horvertflip\23.single_push_with_a_spoon_short_horvertflip_short_600ms.mp4	23.single_push_with_a_spoon_short_horvertflip_short_600ms.mp4	3742.156036169923	3742.764318092639	0.6082819227158325	n/a	n/a	n/a	n/a
55.6708984375	0.2	114014	43	33	0	0	0	43	13	stimuli\Videos_short_600ms\21.repeated_touch_with_metal_chopstick_short_short_600ms.mp4	21.repeated_touch_with_metal_chopstick_short_short_600ms.mp4	3742.9559617445193	3743.564295278237	0.6083335337170865	n/a	n/a	n/a	n/a
56.470703125	0.2	115652	44	33	0	0	0	44	20	stimuli\Videos_short_600ms\28.single_injection_with_sharp_needle_short_short_600ms.mp4	28.single_injection_with_sharp_needle_short_short_600ms.mp4	3743.755957404501	3744.364387122346	0.6084297178458655	n/a	n/a	n/a	n/a
57.27099609375	0.2	117291	45	33	0	0	0	45	44	stimuli\Videos_short_600ms\5.repeated_tap_with_finger_moving_from_top_to_bottom_short_short_600ms.mp4	5.repeated_tap_with_finger_moving_from_top_to_bottom_short_short_600ms.mp4	3744.555939282	3745.164225603395	0.6082863213960081	n/a	n/a	n/a	n/a
58.07080078125	0.2	118929	46	33	0	0	0	46	200	stimuli\Videos_short_600ms_horvertflip\28.single_injection_with_sharp_needle_short_horvertflip_short_600ms.mp4	28.single_injection_with_sharp_needle_short_horvertflip_short_600ms.mp4	3745.3559199865263	3745.9642274215	0.6083074349735398	n/a	n/a	n/a	n/a
58.87060546875	0.2	120567	47	33	0	0	1	47	364	stimuli\Targets_short_600ms\hand-pinch_short_short_600ms.mp4	hand-pinch_short_short_600ms.mp4	3746.155900397803	3746.764203434126	0.608303036322468	n/a	n/a	n/a	n/a
59.6708984375	0.2	122206	48	33	0	0	0	48	286	stimuli\Videos_short_600ms_vertflip\24.single_stroke_top_to_bottom_with_a_spoon_short_vertflip_short_600ms.mp4	24.single_stroke_top_to_bottom_with_a_spoon_short_vertflip_short_600ms.mp4	3746.956523307337	3747.564184431889	0.6076611245516688	n/a	n/a	n/a	n/a
60.470703125	0.2	123844	49	33	0	0	0	49	238	stimuli\Videos_short_600ms_horvertflip\62.touch_top_to_bottom_with_scissors_short_horvertflip_short_600ms.mp4	62.touch_top_to_bottom_with_scissors_short_horvertflip_short_600ms.mp4	3747.7561040266446	3748.3641880094656	0.6080839828209719	n/a	n/a	n/a	n/a
61.2705078125	0.2	125482	50	33	0	0	0	50	172	stimuli\Videos_short_600ms_horflip\84.single_touch_with_cotton_bud_short_horflip_short_600ms.mp4	84.single_touch_with_cotton_bud_short_horflip_short_600ms.mp4	3748.5557994044793	3749.164172819408	0.608373414928792	n/a	n/a	n/a	n/a
62.07080078125	0.2	127121	51	33	0	0	0	51	194	stimuli\Videos_short_600ms_horvertflip\22.single_touch_with_metal_chopstick_short_horvertflip_short_600ms.mp4	22.single_touch_with_metal_chopstick_short_horvertflip_short_600ms.mp4	3749.35582526862	3749.964147659048	0.6083223904279293	n/a	n/a	n/a	n/a
62.87060546875	0.2	128759	52	33	0	0	0	52	33	stimuli\Videos_short_600ms\4.repeated_tap_with_finger_slow_short_short_600ms.mp4	4.repeated_tap_with_finger_slow_short_short_600ms.mp4	3750.155888668043	3750.764125431131	0.6082367630879162	n/a	n/a	n/a	n/a
63.67041015625	0.2	130397	53	33	0	0	0	53	176	stimuli\Videos_short_600ms_horflip\88.repeated_stroke_with_plastic_brush_short_horflip_short_600ms.mp4	88.repeated_stroke_with_plastic_brush_short_horflip_short_600ms.mp4	3750.955838875161	3751.564101443757	0.6082625685958192	n/a	n/a	n/a	n/a
64.470703125	0.2	132036	54	33	0	0	0	54	109	stimuli\Videos_short_600ms_horflip\27.single_push_with_a_plastic_whisk_short_horflip_short_600ms.mp4	27.single_push_with_a_plastic_whisk_short_horflip_short_600ms.mp4	3751.755852129805	3752.364084200992	0.6082320711866487	n/a	n/a	n/a	n/a
65.2705078125	0.2	133674	55	33	0	0	0	55	23	stimuli\Videos_short_600ms\30.finger_pulling_back_another_finger_short_short_600ms.mp4	30.finger_pulling_back_another_finger_short_short_600ms.mp4	3752.555867437157	3753.164064905519	0.6081974683620501	n/a	n/a	n/a	n/a
66.0703125	0.2	135312	56	33	0	0	0	56	279	stimuli\Videos_short_600ms_vertflip\18.single_stroke_from_top_to_bottom_with_rolling_pin_short_vertflip_short_600ms.mp4	18.single_stroke_from_top_to_bottom_with_rolling_pin_short_vertflip_short_600ms.mp4	3753.355832306479	3753.9640450235456	0.6082127170666354	n/a	n/a	n/a	n/a
66.87060546875	0.2	136951	57	33	0	0	0	57	142	stimuli\Videos_short_600ms_horflip\57.single_touch_with_nail_file_short_horflip_short_600ms.mp4	57.single_touch_with_nail_file_short_horflip_short_600ms.mp4	3754.155742925621	3754.7640248483367	0.6082819227158325	n/a	n/a	n/a	n/a
67.67041015625	0.2	138589	58	33	0	0	0	58	284	stimuli\Videos_short_600ms_vertflip\22.single_touch_with_metal_chopstick_short_vertflip_short_600ms.mp4	22.single_touch_with_metal_chopstick_short_vertflip_short_600ms.mp4	3754.9556594096503	3755.564008192072	0.6083487824216718	n/a	n/a	n/a	n/a
68.47021484375	0.2	140227	59	33	0	0	0	59	283	stimuli\Videos_short_600ms_vertflip\21.repeated_touch_with_metal_chopstick_short_vertflip_short_600ms.mp4	21.repeated_touch_with_metal_chopstick_short_vertflip_short_600ms.mp4	3755.755682927833	3756.363988016863	0.608305089030182	n/a	n/a	n/a	n/a
69.2705078125	0.2	141866	60	33	0	0	0	60	137	stimuli\Videos_short_600ms_horflip\52.touch_top_to_bottom_with_hammer_short_horflip_short_600ms.mp4	52.touch_top_to_bottom_with_hammer_short_horflip_short_600ms.mp4	3756.555882099361	3757.16396872139	0.6080866220290773	n/a	n/a	n/a	n/a
70.0703125	0.2	143504	61	33	0	0	0	61	260	stimuli\Videos_short_600ms_horvertflip\82.repeated_touch_with_cotton_bud_short_horvertflip_short_600ms.mp4	82.repeated_touch_with_cotton_bud_short_horvertflip_short_600ms.mp4	3757.3556689694087	3757.963957636748	0.6082886673393659	n/a	n/a	n/a	n/a
70.8701171875	0.2	145142	62	33	0	0	0	62	356	stimuli\Videos_short_600ms_vertflip\88.repeated_stroke_with_plastic_brush_short_vertflip_short_600ms.mp4	88.repeated_stroke_with_plastic_brush_short_vertflip_short_600ms.mp4	3758.155617123819	3758.763931010166	0.6083138863468776	n/a	n/a	n/a	n/a
71.67041015625	0.2	146781	63	33	0	0	0	63	61	stimuli\Videos_short_600ms\65.stroke_top_to_bottom_with_stanley_knife_short_short_600ms.mp4	65.stroke_top_to_bottom_with_stanley_knife_short_short_600ms.mp4	3758.955584632349	3759.56387095373	0.6082863213814562	n/a	n/a	n/a	n/a
72.47021484375	0.2	148419	64	33	0	0	0	64	243	stimuli\Videos_short_600ms_horvertflip\67.single_touch_with_sponge_short_horvertflip_short_600ms.mp4	67.single_touch_with_sponge_short_horvertflip_short_600ms.mp4	3759.755578239623	3760.3638739448215	0.6082957051985431	n/a	n/a	n/a	n/a
73.2705078125	0.2	150058	65	33	0	0	0	65	322	stimuli\Videos_short_600ms_vertflip\57.single_touch_with_nail_file_short_vertflip_short_600ms.mp4	57.single_touch_with_nail_file_short_vertflip_short_600ms.mp4	3760.5555692077032	3761.163833242521	0.6082640348176938	n/a	n/a	n/a	n/a
74.0703125	0.2	151696	66	33	0	0	0	66	19	stimuli\Videos_short_600ms\27.single_push_with_a_plastic_whisk_short_short_600ms.mp4	27.single_push_with_a_plastic_whisk_short_short_600ms.mp4	3761.355573371766	3761.963835647126	0.6082622753601754	n/a	n/a	n/a	n/a
74.8701171875	0.2	153334	67	33	0	0	0	67	131	stimuli\Videos_short_600ms_horflip\47.(long)scratching_with_finger_nails_short_horflip_short_600ms.mp4	47.(long)scratching_with_finger_nails_short_horflip_short_600ms.mp4	3762.15552093969	3762.763821336805	0.6083003971143626	n/a	n/a	n/a	n/a
75.67041015625	0.2	154973	68	33	0	0	0	68	114	stimuli\Videos_short_600ms_horflip\31.hand_grabbing_wrist_short_horflip_short_600ms.mp4	31.hand_grabbing_wrist_short_horflip_short_600ms.mp4	3762.955509561813	3763.5638290197967	0.6083194579841802	n/a	n/a	n/a	n/a
76.47021484375	0.2	156611	69	33	0	0	0	69	345	stimuli\Videos_short_600ms_vertflip\78.single_stroke_top_to_bottom_with_soft_brush_short_vertflip_short_600ms.mp4	78.single_stroke_top_to_bottom_with_soft_brush_short_vertflip_short_600ms.mp4	3763.755576773401	3764.363807671616	0.6082308982149698	n/a	n/a	n/a	n/a
77.27001953125	0.2	158249	70	33	0	0	0	70	63	stimuli\Videos_short_600ms\67.single_touch_with_sponge_short_short_600ms.mp4	67.single_touch_with_sponge_short_short_600ms.mp4	3764.555536364336	3765.1637830977415	0.6082467334053945	n/a	n/a	n/a	n/a
78.0703125	0.2	159888	71	33	0	0	1	71	370	stimuli\Targets_short_600ms_horflip\hand-pinch_short_horflip_short_600ms.mp4	hand-pinch_short_horflip_short_600ms.mp4	3765.3554736687074	3765.963769373906	0.6082957051985431	n/a	n/a	n/a	n/a
78.8701171875	0.2	161526	72	33	0	0	0	72	216	stimuli\Videos_short_600ms_horvertflip\42.single_slap_with_plastic_whisk_short_horvertflip_short_600ms.mp4	42.single_slap_with_plastic_whisk_short_horvertflip_short_600ms.mp4	3766.1554775395343	3766.76374714599	0.6082696064549964	n/a	n/a	n/a	n/a
79.669921875	0.2	163164	73	33	0	0	0	73	291	stimuli\Videos_short_600ms_vertflip\29.single_pinch_with_tweezers_short_vertflip_short_600ms.mp4	29.single_pinch_with_tweezers_short_vertflip_short_600ms.mp4	3766.955452672424	3767.5637263842946	0.6082737118704244	n/a	n/a	n/a	n/a
80.47021484375	0.2	164803	74	33	0	0	0	74	56	stimuli\Videos_short_600ms\60.single_push_with_tip_of_pencil_short_short_600ms.mp4	60.single_push_with_tip_of_pencil_short_short_600ms.mp4	3767.755398480877	3768.3637088482938	0.6083103674172889	n/a	n/a	n/a	n/a
81.27001953125	0.2	166441	75	33	0	0	0	75	308	stimuli\Videos_short_600ms_vertflip\44.pushing_top_to_bottom_with_finger_short_vertflip_short_600ms.mp4	44.pushing_top_to_bottom_with_finger_short_vertflip_short_600ms.mp4	3768.55535308666	3769.1636904325424	0.6083373458823189	n/a	n/a	n/a	n/a
82.06982421875	0.2	168079	76	33	0	0	0	76	285	stimuli\Videos_short_600ms_vertflip\23.single_push_with_a_spoon_short_vertflip_short_600ms.mp4	23.single_push_with_a_spoon_short_vertflip_short_600ms.mp4	3769.355324407355	3769.9636649789463	0.6083405715908157	n/a	n/a	n/a	n/a
82.8701171875	0.2	169718	77	33	0	0	0	77	151	stimuli\Videos_short_600ms_horflip\65.stroke_top_to_bottom_with_stanley_knife_short_horflip_short_600ms.mp4	65.stroke_top_to_bottom_with_stanley_knife_short_horflip_short_600ms.mp4	3770.155337368764	3770.7636503753743	0.6083130066108424	n/a	n/a	n/a	n/a
83.669921875	0.2	171356	78	33	0	0	0	78	38	stimuli\Videos_short_600ms\44.pushing_top_to_bottom_with_finger_short_short_600ms.mp4	44.pushing_top_to_bottom_with_finger_short_short_600ms.mp4	3770.955349157186	3771.563628440708	0.608279283522279	n/a	n/a	n/a	n/a
84.4697265625	0.2	172994	79	33	0	0	0	79	133	stimuli\Videos_short_600ms_horflip\49.repeated_slap_with_hand_short_horflip_short_600ms.mp4	49.repeated_slap_with_hand_short_horflip_short_600ms.mp4	3771.755320477896	3772.3636106114423	0.6082901335466886	n/a	n/a	n/a	n/a
85.27001953125	0.2	174633	80	33	0	0	0	80	80	stimuli\Videos_short_600ms\82.repeated_touch_with_cotton_bud_short_short_600ms.mp4	82.repeated_touch_with_cotton_bud_short_short_600ms.mp4	3772.555285640469	3773.163591022734	0.6083053822658258	n/a	n/a	n/a	n/a
86.06982421875	0.2	176271	81	33	0	0	0	81	76	stimuli\Videos_short_600ms\79.long_with_soft_brush_all_over_the_hand_short_short_600ms.mp4	79.long_with_soft_brush_all_over_the_hand_short_short_600ms.mp4	3773.355595071844	3773.963586682716	0.6079916108719772	n/a	n/a	n/a	n/a
86.86962890625	0.2	177909	82	33	0	0	0	82	57	stimuli\Videos_short_600ms\61.single_hit_with_rolling_pin_short_short_600ms.mp4	61.single_hit_with_rolling_pin_short_short_600ms.mp4	3774.155286344249	3774.763512257312	0.6082259130635066	n/a	n/a	n/a	n/a
87.669921875	0.2	179548	83	33	0	0	0	83	310	stimuli\Videos_short_600ms_vertflip\46.scratching_top_to_bottom_with_finger_nails_short_vertflip_short_600ms.mp4	46.scratching_top_to_bottom_with_finger_nails_short_vertflip_short_600ms.mp4	3774.9552174904966	3775.563513488946	0.6082959984487388	n/a	n/a	n/a	n/a
88.4697265625	0.2	181186	84	33	0	0	0	84	178	stimuli\Videos_short_600ms_horflip\9.single_touch_with_hammer_short_horflip_short_600ms.mp4	9.single_touch_with_hammer_short_horflip_short_600ms.mp4	3775.755209045062	3776.36349624618	0.6082872011174913	n/a	n/a	n/a	n/a
89.26953125	0.2	182824	85	33	0	0	0	85	330	stimuli\Videos_short_600ms_vertflip\64.repeated_touch_with_screwdriver_short_vertflip_short_600ms.mp4	64.repeated_touch_with_screwdriver_short_vertflip_short_600ms.mp4	3776.555185350924	3777.163479589901	0.6082942389766686	n/a	n/a	n/a	n/a
90.06982421875	0.2	184463	86	33	0	0	0	86	27	stimuli\Videos_short_600ms\34.repeated_punch_with_hand_short_short_600ms.mp4	34.repeated_punch_with_hand_short_short_600ms.mp4	3777.3551607770496	3777.9634643998434	0.6083036227937555	n/a	n/a	n/a	n/a
90.86962890625	0.2	186101	87	33	0	0	1	87	367	stimuli\Targets_short_600ms_horflip\chopstick-silver-tap_short_horflip_short_600ms.mp4	chopstick-silver-tap_short_horflip_short_600ms.mp4	3778.155159369475	3778.763452728715	0.6082933592406334	n/a	n/a	n/a	n/a
91.66943359375	0.2	187739	88	33	0	0	0	88	223	stimuli\Videos_short_600ms_horvertflip\49.repeated_slap_with_hand_short_horvertflip_short_600ms.mp4	49.repeated_slap_with_hand_short_horvertflip_short_600ms.mp4	3778.9551248252974	3779.5634495616832	0.6083247363858391	n/a	n/a	n/a	n/a
92.4697265625	0.2	189378	89	33	0	0	0	89	302	stimuli\Videos_short_600ms_vertflip\39.single_stab_with_scissors_short_vertflip_short_600ms.mp4	39.single_stab_with_scissors_short_vertflip_short_600ms.mp4	3779.7551069960464	3780.3634255742945	0.6083185782481451	n/a	n/a	n/a	n/a
93.26953125	0.2	191016	90	33	0	0	0	90	119	stimuli\Videos_short_600ms_horflip\36.single_slap_with_full_hand_short_horflip_short_600ms.mp4	36.single_slap_with_full_hand_short_horflip_short_600ms.mp4	3780.555097377626	3781.163414196417	0.6083168187906267	n/a	n/a	n/a	n/a
94.06982421875	0.2	192655	91	33	0	0	0	91	343	stimuli\Videos_short_600ms_vertflip\76.tickle_with_fingers_from_top_to_bottom_short_vertflip_short_600ms.mp4	76.tickle_with_fingers_from_top_to_bottom_short_vertflip_short_600ms.mp4	3781.3550452387863	3781.963385810377	0.6083405715908157	n/a	n/a	n/a	n/a
94.86962890625	0.2	194293	92	33	0	0	0	92	208	stimuli\Videos_short_600ms_horvertflip\35.single_punch_with_hand_short_horvertflip_short_600ms.mp4	35.single_punch_with_hand_short_horvertflip_short_600ms.mp4	3782.155040605532	3782.7633673946257	0.6083267890935531	n/a	n/a	n/a	n/a
95.66943359375	0.2	195931	93	33	0	0	0	93	189	stimuli\Videos_short_600ms_horvertflip\18.single_stroke_from_top_to_bottom_with_rolling_pin_short_horvertflip_short_600ms.mp4	18.single_stroke_from_top_to_bottom_with_rolling_pin_short_horvertflip_short_600ms.mp4	3782.9550758534897	3783.563350738361	0.6082748848712072	n/a	n/a	n/a	n/a
96.4697265625	0.2	197570	94	33	0	0	0	94	316	stimuli\Videos_short_600ms_vertflip\51.repeated_touch_with_hammer_short_vertflip_short_600ms.mp4	51.repeated_touch_with_hammer_short_vertflip_short_600ms.mp4	3783.755124004209	3784.363330563152	0.6082065589434933	n/a	n/a	n/a	n/a
97.26953125	0.2	199208	95	33	0	0	0	95	34	stimuli\Videos_short_600ms\40.repeated_push_with_finger_short_short_600ms.mp4	40.repeated_push_with_finger_short_short_600ms.mp4	3784.555342236621	3785.163240302558	0.6078980659367517	n/a	n/a	n/a	n/a
98.0693359375	0.2	200846	96	33	0	0	0	96	11	stimuli\Videos_short_600ms\2.single_touch_with_finger_short_short_600ms.mp4	2.single_touch_with_finger_short_short_600ms.mp4	3785.355188928501	3785.963294024914	0.6081050964130554	n/a	n/a	n/a	n/a
98.869140625	0.2	202484	97	33	0	0	0	97	55	stimuli\Videos_short_600ms\6.single_touch_with_flat_hand_short_short_600ms.mp4	6.single_touch_with_flat_hand_short_short_600ms.mp4	3786.1549400227377	3786.7632732632046	0.6083332404668909	8.0	8.0	4.296692556221387	1.0
136.818359375	0.2	280204	98	33	1	0	0	0	358	stimuli\Videos_short_600ms_vertflip\9.single_touch_with_hammer_short_vertflip_short_600ms.mp4	9.single_touch_with_hammer_short_vertflip_short_600ms.mp4	3824.904044894516	3825.512367871445	0.6083229769283207	n/a	n/a	n/a	n/a
137.6181640625	0.2	281842	99	33	1	0	0	1	280	stimuli\Videos_short_600ms_vertflip\19.single_touch_with_rolling_pin_short_vertflip_short_600ms.mp4	19.single_touch_with_rolling_pin_short_vertflip_short_600ms.mp4	3825.7040250125574	3826.312345057042	0.6083200444845716	n/a	n/a	n/a	n/a
138.41796875	0.2	283480	100	33	1	0	0	2	229	stimuli\Videos_short_600ms_horvertflip\54.repeated_touch_with_knife_short_horvertflip_short_600ms.mp4	54.repeated_touch_with_knife_short_horvertflip_short_600ms.mp4	3826.5039541060833	3827.112339837287	0.60838573120418	n/a	n/a	n/a	n/a
139.21826171875	0.2	285119	101	33	1	0	0	3	106	stimuli\Videos_short_600ms_horflip\24.single_stroke_top_to_bottom_with_a_spoon_short_horflip_short_600ms.mp4	24.single_stroke_top_to_bottom_with_a_spoon_short_horflip_short_600ms.mp4	3827.303989060805	3827.91230881204	0.6083197512343759	n/a	n/a	n/a	n/a
140.01806640625	0.2	286757	102	33	1	0	1	4	377	stimuli\Targets_short_600ms_horvertflip\hand-stroke_short_vertflip_short_600ms.mp4	hand-stroke_short_vertflip_short_600ms.mp4	3828.1039814951073	3828.712289516566	0.6083080214593792	n/a	n/a	n/a	n/a
140.81787109375	0.2	288395	103	33	1	0	0	5	248	stimuli\Videos_short_600ms_horvertflip\71.single_stroke_with_finger_top_to_bottom_short_horvertflip_short_600ms.mp4	71.single_stroke_with_finger_top_to_bottom_short_horvertflip_short_600ms.mp4	3828.9039495901234	3829.512270221094	0.608320630970411	n/a	n/a	n/a	n/a
141.6181640625	0.2	290034	104	33	1	0	0	6	101	stimuli\Videos_short_600ms_horflip\2.single_touch_with_finger_short_horflip_short_600ms.mp4	2.single_touch_with_finger_short_horflip_short_600ms.mp4	3829.704098616872	3830.312253271579	0.6081546547065955	n/a	n/a	n/a	n/a
142.41796875	0.2	291672	105	33	1	0	0	7	218	stimuli\Videos_short_600ms_horvertflip\44.pushing_top_to_bottom_with_finger_short_horvertflip_short_600ms.mp4	44.pushing_top_to_bottom_with_finger_short_horvertflip_short_600ms.mp4	3830.503879622032	3831.1122342693416	0.6083546473091701	n/a	n/a	n/a	n/a
143.2177734375	0.2	293310	106	33	1	0	0	8	77	stimuli\Videos_short_600ms\8.single_touch_with_hairbrush_short_short_600ms.mp4	8.single_touch_with_hairbrush_short_short_600ms.mp4	3831.30425298067	3831.9122149738687	0.6079619931988418	n/a	n/a	n/a	n/a
144.01806640625	0.2	294949	107	33	1	0	0	9	305	stimuli\Videos_short_600ms_vertflip\41.injection_with_blunt_syringe_short_vertflip_short_600ms.mp4	41.injection_with_blunt_syringe_short_vertflip_short_600ms.mp4	3832.104011112781	3832.7121352700633	0.6081241572828731	n/a	n/a	n/a	n/a
144.81787109375	0.2	296587	108	33	1	0	0	10	73	stimuli\Videos_short_600ms\76.tickle_with_fingers_from_top_to_bottom_short_short_600ms.mp4	76.tickle_with_fingers_from_top_to_bottom_short_short_600ms.mp4	3832.90393991307	3833.51218547349	0.6082455604191637	n/a	n/a	n/a	n/a
145.6181640625	0.2	298226	109	33	1	0	0	11	239	stimuli\Videos_short_600ms_horvertflip\63.stroke_top_to_bottom_with_screwdriver_short_horvertflip_short_600ms.mp4	63.stroke_top_to_bottom_with_screwdriver_short_horvertflip_short_600ms.mp4	3833.7038352834934	3834.312166178017	0.6083308945235331	n/a	n/a	n/a	n/a
146.41796875	0.2	299864	110	33	1	0	0	12	92	stimuli\Videos_short_600ms_horflip\11.single_touch_with_lighter_short_horflip_short_600ms.mp4	11.single_touch_with_lighter_short_horflip_short_600ms.mp4	3834.503855282761	3835.112114625678	0.6082593429164262	n/a	n/a	n/a	n/a
147.2177734375	0.2	301502	111	33	1	0	0	13	184	stimuli\Videos_short_600ms_horvertflip\13.single_touch_with_pen_short_horvertflip_short_600ms.mp4	13.single_touch_with_pen_short_horvertflip_short_600ms.mp4	3835.3038204453337	3835.912119962712	0.6082995173783274	n/a	n/a	n/a	n/a
148.01806640625	0.2	303141	112	33	1	0	0	14	39	stimuli\Videos_short_600ms\45.scratching_with_finger_nails_short_short_600ms.mp4	45.scratching_with_finger_nails_short_short_600ms.mp4	3836.1038199174945	3836.7120795536466	0.60825963615207	n/a	n/a	n/a	n/a
148.81787109375	0.2	304779	113	33	1	0	0	15	311	stimuli\Videos_short_600ms_vertflip\47.(long)scratching_with_finger_nails_short_vertflip_short_600ms.mp4	47.(long)scratching_with_finger_nails_short_vertflip_short_600ms.mp4	3836.903827893737	3837.512059085202	0.6082311914651655	n/a	n/a	n/a	n/a
149.61767578125	0.2	306417	114	33	1	0	0	16	136	stimuli\Videos_short_600ms_horflip\51.repeated_touch_with_hammer_short_horflip_short_600ms.mp4	51.repeated_touch_with_hammer_short_horflip_short_600ms.mp4	3837.703774875175	3838.3120447748806	0.6082698997051921	n/a	n/a	n/a	n/a
150.41796875	0.2	308056	115	33	1	0	0	17	104	stimuli\Videos_short_600ms_horflip\22.single_touch_with_metal_chopstick_short_horflip_short_600ms.mp4	22.single_touch_with_metal_chopstick_short_horflip_short_600ms.mp4	3838.503724495807	3839.1120272388657	0.6083027430577204	n/a	n/a	n/a	n/a
151.2177734375	0.2	309694	116	33	1	0	0	18	278	stimuli\Videos_short_600ms_vertflip\17.repeated_touch_with_rolling_pin_short_vertflip_short_600ms.mp4	17.repeated_touch_with_rolling_pin_short_vertflip_short_600ms.mp4	3839.303707839528	3839.912007943392	0.6083001038641669	n/a	n/a	n/a	n/a
152.017578125	0.2	311332	117	33	1	0	0	19	30	stimuli\Videos_short_600ms\37.single_stab_with_nail_file_short_short_600ms.mp4	37.single_stab_with_nail_file_short_short_600ms.mp4	3840.1036894237914	3840.712021198037	0.6083317742450163	n/a	n/a	n/a	n/a
152.81787109375	0.2	312971	118	33	1	0	0	20	45	stimuli\Videos_short_600ms\50.single_(long)hard_push_with_thumb_short_short_600ms.mp4	50.single_(long)hard_push_with_thumb_short_short_600ms.mp4	3840.9036701283185	3841.511990172789	0.6083200444700196	n/a	n/a	n/a	n/a
153.61767578125	0.2	314609	119	33	1	0	0	21	65	stimuli\Videos_short_600ms\69.stroke_with_soft_sock_short_short_600ms.mp4	69.stroke_with_soft_sock_short_short_600ms.mp4	3841.703930881136	3842.3119714638015	0.6080405826651258	n/a	n/a	n/a	n/a
154.41748046875	0.2	316247	120	33	1	0	0	22	31	stimuli\Videos_short_600ms\38.double_slap_with_pencil_short_short_600ms.mp4	38.double_slap_with_pencil_short_short_600ms.mp4	3842.5037593918823	3843.1119553940225	0.6081960021401756	n/a	n/a	n/a	n/a
155.2177734375	0.2	317886	121	33	1	0	0	23	149	stimuli\Videos_short_600ms_horflip\63.stroke_top_to_bottom_with_screwdriver_short_horflip_short_600ms.mp4	63.stroke_top_to_bottom_with_screwdriver_short_horflip_short_600ms.mp4	3843.303614294593	3843.9119360985496	0.6083218039566418	n/a	n/a	n/a	n/a
156.017578125	0.2	319524	122	33	1	0	0	24	272	stimuli\Videos_short_600ms_vertflip\11.single_touch_with_lighter_short_vertflip_short_600ms.mp4	11.single_touch_with_lighter_short_vertflip_short_600ms.mp4	3844.103594119384	3844.7119147503545	0.608320630970411	n/a	n/a	n/a	n/a
156.8173828125	0.2	321162	123	33	1	0	0	25	303	stimuli\Videos_short_600ms_vertflip\4.repeated_tap_with_finger_slow_short_vertflip_short_600ms.mp4	4.repeated_tap_with_finger_slow_short_vertflip_short_600ms.mp4	3844.903575410411	3845.511895161646	0.6083197512343759	n/a	n/a	n/a	n/a
157.61767578125	0.2	322801	124	33	1	0	0	26	153	stimuli\Videos_short_600ms_horflip\67.single_touch_with_sponge_short_horflip_short_600ms.mp4	67.single_touch_with_sponge_short_horflip_short_600ms.mp4	3845.70375112239	3846.31188114456	0.6081300221703714	n/a	n/a	n/a	n/a
158.41748046875	0.2	324439	125	33	1	0	0	27	17	stimuli\Videos_short_600ms\25.single_touch_with_stanley_knife_short_short_600ms.mp4	25.single_touch_with_stanley_knife_short_short_600ms.mp4	3846.503587550717	3847.111857743672	0.6082701929553878	n/a	n/a	n/a	n/a
159.21728515625	0.2	326077	126	33	1	0	1	28	378	stimuli\Targets_short_600ms_vertflip\brush-stroke_short_horvertflip_short_600ms.mp4	brush-stroke_short_horvertflip_short_600ms.mp4	3847.3034788157383	3847.9118416738784	0.6083628581400262	n/a	n/a	n/a	n/a
160.017578125	0.2	327716	127	33	1	0	0	29	313	stimuli\Videos_short_600ms_vertflip\49.repeated_slap_with_hand_short_vertflip_short_600ms.mp4	49.repeated_slap_with_hand_short_vertflip_short_600ms.mp4	3848.103493243354	3848.711820912184	0.6083276688295882	n/a	n/a	n/a	n/a
160.8173828125	0.2	329354	128	33	1	0	0	30	192	stimuli\Videos_short_600ms_horvertflip\20.single_touch_with_screwdriver_short_horvertflip_short_600ms.mp4	20.single_touch_with_screwdriver_short_horvertflip_short_600ms.mp4	3848.903541687309	3849.511798977517	0.6082572902087122	n/a	n/a	n/a	n/a
161.6171875	0.2	330992	129	33	1	0	0	31	215	stimuli\Videos_short_600ms_horvertflip\41.injection_with_blunt_syringe_short_horvertflip_short_600ms.mp4	41.injection_with_blunt_syringe_short_horvertflip_short_600ms.mp4	3849.703469901113	3850.3117216196697	0.6082517185568577	n/a	n/a	n/a	n/a
162.41748046875	0.2	332631	130	33	1	0	0	32	198	stimuli\Videos_short_600ms_horvertflip\26.single_touch_with_a_blunt_syringe_short_horvertflip_short_600ms.mp4	26.single_touch_with_a_blunt_syringe_short_horvertflip_short_600ms.mp4	3850.50366027531	3851.11176683793	0.6081065626203781	n/a	n/a	n/a	n/a
163.21728515625	0.2	334269	131	33	1	0	0	33	91	stimuli\Videos_short_600ms_horflip\10.single_touch_with_knife_short_horflip_short_600ms.mp4	10.single_touch_with_knife_short_horflip_short_600ms.mp4	3851.303501102302	3851.9117032625654	0.6082021602633176	n/a	n/a	n/a	n/a
164.017578125	0.2	335908	132	33	1	0	0	34	2	stimuli\Videos_short_600ms\11.single_touch_with_lighter_short_short_600ms.mp4	11.single_touch_with_lighter_short_short_600ms.mp4	3852.1033870889223	3852.7120235439943	0.6086364550719736	n/a	n/a	n/a	n/a
164.8173828125	0.2	337546	133	33	1	0	0	35	47	stimuli\Videos_short_600ms\52.touch_top_to_bottom_with_hammer_short_short_600ms.mp4	52.touch_top_to_bottom_with_hammer_short_short_600ms.mp4	3852.9034499018458	3853.511687837919	0.608237936074147	n/a	n/a	n/a	n/a
165.6171875	0.2	339184	134	33	1	0	0	36	170	stimuli\Videos_short_600ms_horflip\82.repeated_touch_with_cotton_bud_short_horflip_short_600ms.mp4	82.repeated_touch_with_cotton_bud_short_horflip_short_600ms.mp4	3853.703450253742	3854.311696107412	0.6082458536693593	n/a	n/a	n/a	n/a
166.41748046875	0.2	340823	135	33	1	0	0	37	307	stimuli\Videos_short_600ms_vertflip\43.touch_top_to_bottom_with_sharp_wooden_stick_short_vertflip_short_600ms.mp4	43.touch_top_to_bottom_with_sharp_wooden_stick_short_vertflip_short_600ms.mp4	3854.503384918906	3855.1116800376185	0.6082951187127037	n/a	n/a	n/a	n/a
167.21728515625	0.2	342461	136	33	1	0	0	38	217	stimuli\Videos_short_600ms_horvertflip\43.touch_top_to_bottom_with_sharp_wooden_stick_short_horvertflip_short_600ms.mp4	43.touch_top_to_bottom_with_sharp_wooden_stick_short_horvertflip_short_600ms.mp4	3855.303395534356	3855.91164432047	0.6082487861131085	n/a	n/a	n/a	n/a
168.01708984375	0.2	344099	137	33	1	0	0	39	1	stimuli\Videos_short_600ms\10.single_touch_with_knife_short_short_600ms.mp4	10.single_touch_with_knife_short_short_600ms.mp4	3856.103333425214	3856.711639687215	0.6083062620018609	n/a	n/a	n/a	n/a
168.8173828125	0.2	345738	138	33	1	0	0	40	179	stimuli\Videos_short_600ms_horflip\90.repeated_touch_with_sponge_short_horflip_short_600ms.mp4	90.repeated_touch_with_sponge_short_horflip_short_600ms.mp4	3856.9033155959623	3857.5116148200905	0.6082992241281318	n/a	n/a	n/a	n/a
169.6171875	0.2	347376	139	33	1	0	0	41	253	stimuli\Videos_short_600ms_horvertflip\76.tickle_with_fingers_from_top_to_bottom_short_horvertflip_short_600ms.mp4	76.tickle_with_fingers_from_top_to_bottom_short_horvertflip_short_600ms.mp4	3857.703266389566	3858.3115955246176	0.6083291350514628	n/a	n/a	n/a	n/a
170.4169921875	0.2	349014	140	33	1	0	0	42	5	stimuli\Videos_short_600ms\14.repeated_touch_with_pencil_short_short_600ms.mp4	14.repeated_touch_with_pencil_short_short_600ms.mp4	3858.503258823868	3859.1115750561585	0.6083162322902353	n/a	n/a	n/a	n/a
171.21728515625	0.2	350653	141	33	1	0	0	43	209	stimuli\Videos_short_600ms_horvertflip\36.single_slap_with_full_hand_short_horvertflip_short_600ms.mp4	36.single_slap_with_full_hand_short_horvertflip_short_600ms.mp4	3859.303274717706	3859.9115575201577	0.6082828024518676	n/a	n/a	n/a	n/a
172.01708984375	0.2	352291	142	33	1	0	0	44	160	stimuli\Videos_short_600ms_horflip\73.single_stroke_with_flat_hand_short_horflip_short_600ms.mp4	73.single_stroke_with_flat_hand_short_horflip_short_600ms.mp4	3860.1031964801223	3860.711539397657	0.6083429175341735	n/a	n/a	n/a	n/a
172.81689453125	0.2	353929	143	33	1	0	0	45	32	stimuli\Videos_short_600ms\39.single_stab_with_scissors_short_short_600ms.mp4	39.single_stab_with_scissors_short_short_600ms.mp4	3860.9031771846494	3861.5115203954338	0.6083432107843691	n/a	n/a	n/a	n/a
173.6171875	0.2	355568	144	33	1	0	0	46	309	stimuli\Videos_short_600ms_vertflip\45.scratching_with_finger_nails_short_vertflip_short_600ms.mp4	45.scratching_with_finger_nails_short_vertflip_short_600ms.mp4	3861.703183108184	3862.3115028594184	0.6083197512343759	n/a	n/a	n/a	n/a
174.4169921875	0.2	357206	145	33	1	0	0	47	132	stimuli\Videos_short_600ms_horflip\48.single_slap_with_hand_short_horflip_short_600ms.mp4	48.single_slap_with_hand_short_horflip_short_600ms.mp4	3862.503156774852	3863.1114844436815	0.6083276688295882	n/a	n/a	n/a	n/a
175.216796875	0.2	358844	146	33	1	0	1	48	374	stimuli\Targets_short_600ms_horvertflip\chopstickwood-tap_short_vertflip_short_600ms.mp4	chopstickwood-tap_short_vertflip_short_600ms.mp4	3863.303102290054	3863.9114651482087	0.6083628581545781	n/a	n/a	n/a	n/a
176.01708984375	0.2	360483	147	33	1	0	0	49	50	stimuli\Videos_short_600ms\55.touch_top_to_bottom_with_nail_file_short_short_600ms.mp4	55.touch_top_to_bottom_with_nail_file_short_short_600ms.mp4	3864.1031266879872	3864.711443213528	0.608316525540431	n/a	n/a	n/a	n/a
176.81689453125	0.2	362121	148	33	1	0	0	50	237	stimuli\Videos_short_600ms_horvertflip\61.single_hit_with_rolling_pin_short_horvertflip_short_600ms.mp4	61.single_hit_with_rolling_pin_short_horvertflip_short_600ms.mp4	3864.903071616703	3865.511401631491	0.6083300147874979	n/a	n/a	n/a	n/a
177.61669921875	0.2	363759	149	33	1	0	0	51	96	stimuli\Videos_short_600ms_horflip\15.single_stroke_top_to_bottom_with_a_plastic_whisk_short_horflip_short_600ms.mp4	15.single_stroke_top_to_bottom_with_a_plastic_whisk_short_horflip_short_600ms.mp4	3865.7032397043367	3866.3113623953977	0.6081226910609985	n/a	n/a	n/a	n/a
178.4169921875	0.2	365398	150	33	1	0	0	52	281	stimuli\Videos_short_600ms_vertflip\2.single_touch_with_finger_short_vertflip_short_600ms.mp4	2.single_touch_with_finger_short_vertflip_short_600ms.mp4	3866.503575527706	3867.1113436864102	0.6077681587048573	n/a	n/a	n/a	n/a
179.216796875	0.2	367036	151	33	1	0	0	53	350	stimuli\Videos_short_600ms_vertflip\82.repeated_touch_with_cotton_bud_short_vertflip_short_600ms.mp4	82.repeated_touch_with_cotton_bud_short_vertflip_short_600ms.mp4	3867.3035474349017	3867.9113264436455	0.6077790087438188	n/a	n/a	n/a	n/a
180.0166015625	0.2	368674	152	33	1	0	0	54	141	stimuli\Videos_short_600ms_horflip\56.repeated_touch_with_nail_file_short_horflip_short_600ms.mp4	56.repeated_touch_with_nail_file_short_horflip_short_600ms.mp4	3868.103040180911	3868.711318291462	0.6082781105506001	n/a	n/a	n/a	n/a
180.81689453125	0.2	370313	153	33	1	0	0	55	233	stimuli\Videos_short_600ms_horvertflip\58.single_slap_with_pencil_short_horvertflip_short_600ms.mp4	58.single_slap_with_pencil_short_horvertflip_short_600ms.mp4	3868.903012967843	3869.511319816331	0.6083068484877003	n/a	n/a	n/a	n/a
181.61669921875	0.2	371951	154	33	1	0	0	56	128	stimuli\Videos_short_600ms_horflip\44.pushing_top_to_bottom_with_finger_short_horflip_short_600ms.mp4	44.pushing_top_to_bottom_with_finger_short_horflip_short_600ms.mp4	3869.703198650139	3870.311299347872	0.6081006977328798	n/a	n/a	n/a	n/a
182.41650390625	0.2	373589	155	33	1	0	0	57	338	stimuli\Videos_short_600ms_vertflip\71.single_stroke_with_finger_top_to_bottom_short_vertflip_short_600ms.mp4	71.single_stroke_with_finger_top_to_bottom_short_vertflip_short_600ms.mp4	3870.503047981212	3871.1113026322128	0.6082546510006068	n/a	n/a	n/a	n/a
183.216796875	0.2	375228	156	33	1	0	0	58	49	stimuli\Videos_short_600ms\54.repeated_touch_with_knife_short_short_600ms.mp4	54.repeated_touch_with_knife_short_short_600ms.mp4	3871.302955961146	3871.911294186779	0.608338225632906	n/a	n/a	n/a	n/a
184.0166015625	0.2	376866	157	33	1	0	0	59	46	stimuli\Videos_short_600ms\51.repeated_touch_with_hammer_short_short_600ms.mp4	51.repeated_touch_with_hammer_short_short_600ms.mp4	3872.102910273694	3872.711259349351	0.6083490756573156	n/a	n/a	n/a	n/a
184.81689453125	0.2	378505	158	33	1	0	0	60	83	stimuli\Videos_short_600ms\85.touch_top_to_bottom_with_fabric_short_short_600ms.mp4	85.touch_top_to_bottom_with_fabric_short_short_600ms.mp4	3872.9029185431864	3873.511238587656	0.6083200444700196	n/a	n/a	n/a	n/a
185.61669921875	0.2	380143	159	33	1	0	1	61	369	stimuli\Targets_short_600ms_horflip\finger-tap_short_horflip_short_600ms.mp4	finger-tap_short_horflip_short_600ms.mp4	3873.70297431825	3874.311221051656	0.6082467334053945	n/a	n/a	n/a	n/a
186.41650390625	0.2	381781	160	33	1	0	0	62	204	stimuli\Videos_short_600ms_horvertflip\31.hand_grabbing_wrist_short_horvertflip_short_600ms.mp4	31.hand_grabbing_wrist_short_horvertflip_short_600ms.mp4	3874.503057658279	3875.1112017561823	0.6081440979032777	n/a	n/a	n/a	n/a
187.216796875	0.2	383420	161	33	1	0	0	63	333	stimuli\Videos_short_600ms_vertflip\67.single_touch_with_sponge_short_vertflip_short_600ms.mp4	67.single_touch_with_sponge_short_vertflip_short_600ms.mp4	3875.3032363027014	3875.9111836336815	0.607947330980096	n/a	n/a	n/a	n/a
188.0166015625	0.2	385058	162	33	1	0	0	64	353	stimuli\Videos_short_600ms_vertflip\85.touch_top_to_bottom_with_fabric_short_vertflip_short_600ms.mp4	85.touch_top_to_bottom_with_fabric_short_vertflip_short_600ms.mp4	3876.102886520908	3876.7111658044305	0.608279283522279	n/a	n/a	n/a	n/a
188.81640625	0.2	386696	163	33	1	0	0	65	346	stimuli\Videos_short_600ms_vertflip\79.long_with_soft_brush_all_over_the_hand_short_vertflip_short_600ms.mp4	79.long_with_soft_brush_all_over_the_hand_short_vertflip_short_600ms.mp4	3876.9028311563743	3877.5111453359714	0.6083141795970732	n/a	n/a	n/a	n/a
189.61669921875	0.2	388335	164	33	1	0	0	66	157	stimuli\Videos_short_600ms_horflip\70.(long)stroke_with_finger_all_over_the_hand_short_horflip_short_600ms.mp4	70.(long)stroke_with_finger_all_over_the_hand_short_horflip_short_600ms.mp4	3877.70276435533	3878.3111260404985	0.6083616851683473	n/a	n/a	n/a	n/a
190.41650390625	0.2	389973	165	33	1	0	0	67	274	stimuli\Videos_short_600ms_vertflip\13.single_touch_with_pen_short_vertflip_short_600ms.mp4	13.single_touch_with_pen_short_vertflip_short_600ms.mp4	3878.502769105893	3879.111108211247	0.6083391053543892	n/a	n/a	n/a	n/a
191.21630859375	0.2	391611	166	33	1	0	0	68	98	stimuli\Videos_short_600ms_horflip\17.repeated_touch_with_rolling_pin_short_horflip_short_600ms.mp4	17.repeated_touch_with_rolling_pin_short_horflip_short_600ms.mp4	3879.30280787278	3879.911087742789	0.6082798700081185	n/a	n/a	n/a	n/a
192.0166015625	0.2	393250	167	33	1	0	0	69	145	stimuli\Videos_short_600ms_horflip\6.single_touch_with_flat_hand_short_horflip_short_600ms.mp4	6.single_touch_with_flat_hand_short_horflip_short_600ms.mp4	3880.1027868178353	3880.7110725527455	0.6082857349101687	n/a	n/a	n/a	n/a
192.81640625	0.2	394888	168	33	1	0	0	70	60	stimuli\Videos_short_600ms\64.repeated_touch_with_screwdriver_short_short_600ms.mp4	64.repeated_touch_with_screwdriver_short_short_600ms.mp4	3880.902721189763	3881.5110503248143	0.6083291350514628	n/a	n/a	n/a	n/a
193.6162109375	0.2	396526	169	33	1	0	0	71	70	stimuli\Videos_short_600ms\73.single_stroke_with_flat_hand_short_short_600ms.mp4	73.single_stroke_with_flat_hand_short_short_600ms.mp4	3881.702723301132	3882.311001998154	0.6082786970218876	n/a	n/a	n/a	n/a
194.41650390625	0.2	398165	170	33	1	0	0	72	263	stimuli\Videos_short_600ms_horvertflip\85.touch_top_to_bottom_with_fabric_short_horvertflip_short_600ms.mp4	85.touch_top_to_bottom_with_fabric_short_horvertflip_short_600ms.mp4	3882.5027265854583	3883.110972439142	0.6082458536839113	n/a	n/a	n/a	n/a
195.21630859375	0.2	399803	171	33	1	0	0	73	144	stimuli\Videos_short_600ms_horflip\59.single_push_with_long_side_pencil_short_horflip_short_600ms.mp4	59.single_push_with_long_side_pencil_short_horflip_short_600ms.mp4	3883.302662423608	3883.9109513841977	0.6082889605895616	n/a	n/a	n/a	n/a
196.01611328125	0.2	401441	172	33	1	0	0	74	293	stimuli\Videos_short_600ms_vertflip\30.finger_pulling_back_another_finger_short_vertflip_short_600ms.mp4	30.finger_pulling_back_another_finger_short_vertflip_short_600ms.mp4	3884.102657790354	3884.7109488036513	0.6082910132972756	n/a	n/a	n/a	n/a
196.81640625	0.2	403080	173	33	1	0	0	75	214	stimuli\Videos_short_600ms_horvertflip\40.repeated_push_with_finger_short_horvertflip_short_600ms.mp4	40.repeated_push_with_finger_short_horvertflip_short_600ms.mp4	3884.9031258668983	3885.5109427041607	0.6078168372623622	n/a	n/a	n/a	n/a
197.6162109375	0.2	404718	174	33	1	0	1	76	360	stimuli\Targets_short_600ms\brush-stroke_short_short_600ms.mp4	brush-stroke_short_short_600ms.mp4	3885.702619492644	3886.3109389506426	0.6083194579987321	n/a	n/a	n/a	n/a
198.416015625	0.2	406356	175	33	1	0	0	77	259	stimuli\Videos_short_600ms_horvertflip\81.single_stroke_top_to_bottom_with_cotton_pad_short_horvertflip_short_600ms.mp4	81.single_stroke_top_to_bottom_with_cotton_pad_short_horvertflip_short_600ms.mp4	3886.502913675329	3887.110922001113	0.6080083257838851	n/a	n/a	n/a	n/a
199.21630859375	0.2	407995	176	33	1	0	0	78	140	stimuli\Videos_short_600ms_horflip\55.touch_top_to_bottom_with_nail_file_short_horflip_short_600ms.mp4	55.touch_top_to_bottom_with_nail_file_short_horflip_short_600ms.mp4	3887.3025970301383	3887.910901825904	0.6083047957654344	n/a	n/a	n/a	n/a
200.01611328125	0.2	409633	177	33	1	0	0	79	328	stimuli\Videos_short_600ms_vertflip\62.touch_top_to_bottom_with_scissors_short_vertflip_short_600ms.mp4	62.touch_top_to_bottom_with_scissors_short_vertflip_short_600ms.mp4	3888.102563952183	3888.710889568305	0.6083256161218742	n/a	n/a	n/a	n/a
200.81591796875	0.2	411271	178	33	1	0	0	80	51	stimuli\Videos_short_600ms\56.repeated_touch_with_nail_file_short_short_600ms.mp4	56.repeated_touch_with_nail_file_short_short_600ms.mp4	3888.902521490396	3889.5108635282086	0.6083420378126903	n/a	n/a	n/a	n/a
201.6162109375	0.2	412910	179	33	1	0	0	81	94	stimuli\Videos_short_600ms_horflip\13.single_touch_with_pen_short_horflip_short_600ms.mp4	13.single_touch_with_pen_short_horflip_short_600ms.mp4	3889.702525361223	3890.3108454057074	0.6083200444845716	n/a	n/a	n/a	n/a
202.416015625	0.2	414548	180	33	1	0	0	82	230	stimuli\Videos_short_600ms_horvertflip\55.touch_top_to_bottom_with_nail_file_short_horvertflip_short_600ms.mp4	55.touch_top_to_bottom_with_nail_file_short_horvertflip_short_600ms.mp4	3890.502487591366	3891.1108252304984	0.6083376391325146	n/a	n/a	n/a	n/a
203.21630859375	0.2	416187	181	33	1	0	0	83	324	stimuli\Videos_short_600ms_vertflip\59.single_push_with_long_side_pencil_short_vertflip_short_600ms.mp4	59.single_push_with_long_side_pencil_short_vertflip_short_600ms.mp4	3891.302507004133	3891.910810040441	0.608303036307916	n/a	n/a	n/a	n/a
204.01611328125	0.2	417825	182	33	1	0	0	84	183	stimuli\Videos_short_600ms_horvertflip\12.repeated_touch_with_nail_file_short_horvertflip_short_600ms.mp4	12.repeated_touch_with_nail_file_short_horvertflip_short_600ms.mp4	3892.1024407895743	3892.7108086328662	0.6083678432914894	n/a	n/a	n/a	n/a
204.81591796875	0.2	419463	183	33	1	0	0	85	24	stimuli\Videos_short_600ms\31.hand_grabbing_wrist_short_short_600ms.mp4	31.hand_grabbing_wrist_short_short_600ms.mp4	3892.9024305846688	3893.510772035981	0.6083414513122989	n/a	n/a	n/a	n/a
205.6162109375	0.2	421102	184	33	1	0	0	86	52	stimuli\Videos_short_600ms\57.single_touch_with_nail_file_short_short_600ms.mp4	57.single_touch_with_nail_file_short_short_600ms.mp4	3893.702445305534	3894.310752740508	0.6083074349735398	n/a	n/a	n/a	n/a
206.416015625	0.2	422740	185	33	1	0	0	87	107	stimuli\Videos_short_600ms_horflip\25.single_touch_with_stanley_knife_short_horflip_short_600ms.mp4	25.single_touch_with_stanley_knife_short_horflip_short_600ms.mp4	3894.502372639603	3895.1107308058417	0.6083581662387587	n/a	n/a	n/a	n/a
207.2158203125	0.2	424378	186	33	1	0	0	88	26	stimuli\Videos_short_600ms\33.scratch_top_to_bottom_with_scissors_short_short_600ms.mp4	33.scratch_top_to_bottom_with_scissors_short_short_600ms.mp4	3895.30245392691	3895.9107103373826	0.6082564104726771	n/a	n/a	n/a	n/a
208.01611328125	0.2	426017	187	33	1	0	0	89	352	stimuli\Videos_short_600ms_vertflip\84.single_touch_with_cotton_bud_short_vertflip_short_600ms.mp4	84.single_touch_with_cotton_bud_short_vertflip_short_600ms.mp4	3896.102548410228	3896.710677552677	0.6081291424488882	n/a	n/a	n/a	n/a
208.81591796875	0.2	427655	188	33	1	0	0	90	166	stimuli\Videos_short_600ms_horflip\79.long_with_soft_brush_all_over_the_hand_short_horflip_short_600ms.mp4	79.long_with_soft_brush_all_over_the_hand_short_horflip_short_600ms.mp4	3896.902444367151	3897.510688754599	0.6082443874474848	n/a	n/a	n/a	n/a
209.61572265625	0.2	429293	189	33	1	0	0	91	276	stimuli\Videos_short_600ms_vertflip\15.single_stroke_top_to_bottom_with_a_plastic_whisk_short_vertflip_short_600ms.mp4	15.single_stroke_top_to_bottom_with_a_plastic_whisk_short_vertflip_short_600ms.mp4	3897.702921241027	3898.310612276487	0.6076910354604479	n/a	n/a	n/a	n/a
210.416015625	0.2	430932	190	33	1	0	0	92	40	stimuli\Videos_short_600ms\46.scratching_top_to_bottom_with_finger_nails_short_short_600ms.mp4	46.scratching_top_to_bottom_with_finger_nails_short_short_600ms.mp4	3898.5024421385024	3899.110613801357	0.6081716628541471	n/a	n/a	n/a	n/a
211.2158203125	0.2	432570	191	33	1	0	0	93	86	stimuli\Videos_short_600ms\88.repeated_stroke_with_plastic_brush_short_short_600ms.mp4	88.repeated_stroke_with_plastic_brush_short_short_600ms.mp4	3899.302359795503	3899.910632627653	0.6082728321489412	n/a	n/a	n/a	n/a
212.015625	0.2	434208	192	33	1	0	0	94	207	stimuli\Videos_short_600ms_horvertflip\34.repeated_punch_with_hand_short_horvertflip_short_600ms.mp4	34.repeated_punch_with_hand_short_horvertflip_short_600ms.mp4	3900.1023155742582	3900.71058224827	0.6082666740112472	5.0	9.0	2.9716236291569658	0.0
246.1064453125	0.2	504026	193	33	2	0	0	0	232	stimuli\Videos_short_600ms_horvertflip\57.single_touch_with_nail_file_short_horvertflip_short_600ms.mp4	57.single_touch_with_nail_file_short_horvertflip_short_600ms.mp4	3934.1931271747744	3934.8014636409207	0.6083364661462838	n/a	n/a	n/a	n/a
246.90625	0.2	505664	194	33	2	0	0	1	35	stimuli\Videos_short_600ms\41.injection_with_blunt_syringe_short_short_600ms.mp4	41.injection_with_blunt_syringe_short_short_600ms.mp4	3934.9931286996434	3935.601445518434	0.6083168187906267	n/a	n/a	n/a	n/a
247.70654296875	0.2	507303	195	33	2	0	0	2	82	stimuli\Videos_short_600ms\84.single_touch_with_cotton_bud_short_short_600ms.mp4	84.single_touch_with_cotton_bud_short_short_600ms.mp4	3935.793197377454	3936.4014256364608	0.6082282590068644	n/a	n/a	n/a	n/a
248.50634765625	0.2	508941	196	33	2	0	0	3	329	stimuli\Videos_short_600ms_vertflip\63.stroke_top_to_bottom_with_screwdriver_short_vertflip_short_600ms.mp4	63.stroke_top_to_bottom_with_screwdriver_short_vertflip_short_600ms.mp4	3936.593131162896	3937.201404874766	0.6082737118704244	n/a	n/a	n/a	n/a
249.30615234375	0.2	510579	197	33	2	0	0	4	246	stimuli\Videos_short_600ms_horvertflip\7.repeated_touch_with_hairbrush_short_horvertflip_short_600ms.mp4	7.repeated_touch_with_hairbrush_short_horvertflip_short_600ms.mp4	3937.3930705199746	3938.0013788346696	0.608308314695023	n/a	n/a	n/a	n/a
250.1064453125	0.2	512218	198	33	2	0	0	5	14	stimuli\Videos_short_600ms\22.single_touch_with_metal_chopstick_short_short_600ms.mp4	22.single_touch_with_metal_chopstick_short_short_600ms.mp4	3938.193096090865	3938.801388863634	0.6082927727693459	n/a	n/a	n/a	n/a
250.90625	0.2	513856	199	33	2	0	0	6	22	stimuli\Videos_short_600ms\3.single_push_with_finger_short_short_600ms.mp4	3.single_push_with_finger_short_short_600ms.mp4	3938.993036034444	3939.6013299801702	0.6082939457264729	n/a	n/a	n/a	n/a
251.7060546875	0.2	515494	200	33	2	0	0	7	334	stimuli\Videos_short_600ms_vertflip\68.stroke_top_to_bottom_with_shawl_short_vertflip_short_600ms.mp4	68.stroke_top_to_bottom_with_shawl_short_vertflip_short_600ms.mp4	3939.7930105808337	3940.401309511726	0.608298930892488	n/a	n/a	n/a	n/a
252.50634765625	0.2	517133	201	33	2	0	0	8	348	stimuli\Videos_short_600ms_vertflip\80.stroke_with_sharp_stick_all_over_the_hand_short_vertflip_short_600ms.mp4	80.stroke_with_sharp_stick_all_over_the_hand_short_vertflip_short_600ms.mp4	3940.5930088800233	3941.201292562211	0.6082836821879027	n/a	n/a	n/a	n/a
253.30615234375	0.2	518771	202	33	2	0	0	9	99	stimuli\Videos_short_600ms_horflip\18.single_stroke_from_top_to_bottom_with_rolling_pin_short_horflip_short_600ms.mp4	18.single_stroke_from_top_to_bottom_with_rolling_pin_short_horflip_short_600ms.mp4	3941.3929755088175	3942.0012803045975	0.6083047957799863	n/a	n/a	n/a	n/a
254.10595703125	0.2	520409	203	33	2	0	1	10	383	stimuli\Targets_short_600ms_vertflip\hand-stroke_short_horvertflip_short_600ms.mp4	hand-stroke_short_horvertflip_short_600ms.mp4	3942.1929614917462	3942.80126130236	0.6082998106139712	n/a	n/a	n/a	n/a
254.90625	0.2	522048	204	33	2	0	0	11	275	stimuli\Videos_short_600ms_vertflip\14.repeated_touch_with_pencil_short_vertflip_short_600ms.mp4	14.repeated_touch_with_pencil_short_vertflip_short_600ms.mp4	3942.992941023287	3943.601261947493	0.6083209242060548	n/a	n/a	n/a	n/a
255.7060546875	0.2	523686	205	33	2	0	0	12	206	stimuli\Videos_short_600ms_horvertflip\33.scratch_top_to_bottom_with_scissors_short_horvertflip_short_600ms.mp4	33.scratch_top_to_bottom_with_scissors_short_horvertflip_short_600ms.mp4	3943.792987121298	3944.401240306077	0.6082531847787322	n/a	n/a	n/a	n/a
256.505859375	0.2	525324	206	33	2	0	0	13	71	stimuli\Videos_short_600ms\74.fingers_walking_from_top_to_bottom_short_short_600ms.mp4	74.fingers_walking_from_top_to_bottom_short_short_600ms.mp4	3944.59295961498	3945.201226875477	0.6082672604970867	n/a	n/a	n/a	n/a
257.30615234375	0.2	526963	207	33	2	0	0	14	222	stimuli\Videos_short_600ms_horvertflip\48.single_slap_with_hand_short_horvertflip_short_600ms.mp4	48.single_slap_with_hand_short_horvertflip_short_600ms.mp4	3945.3928819638822	3946.001197609701	0.6083156458189478	n/a	n/a	n/a	n/a
258.10595703125	0.2	528601	208	33	2	0	0	15	294	stimuli\Videos_short_600ms_vertflip\31.hand_grabbing_wrist_short_vertflip_short_600ms.mp4	31.hand_grabbing_wrist_short_vertflip_short_600ms.mp4	3946.1929304078512	3946.8011794872	0.6082490793487523	n/a	n/a	n/a	n/a
258.90576171875	0.2	530239	209	33	2	0	0	16	127	stimuli\Videos_short_600ms_horflip\43.touch_top_to_bottom_with_sharp_wooden_stick_short_horflip_short_600ms.mp4	43.touch_top_to_bottom_with_sharp_wooden_stick_short_horflip_short_600ms.mp4	3946.992834575605	3947.6011707485304	0.6083361729251919	n/a	n/a	n/a	n/a
259.7060546875	0.2	531878	210	33	2	0	0	17	36	stimuli\Videos_short_600ms\42.single_slap_with_plastic_whisk_short_short_600ms.mp4	42.single_slap_with_plastic_whisk_short_short_600ms.mp4	3947.7929419616703	3948.401120955648	0.608178993978072	n/a	n/a	n/a	n/a
260.505859375	0.2	533516	211	33	2	0	0	18	53	stimuli\Videos_short_600ms\58.single_slap_with_pencil_short_short_600ms.mp4	58.single_slap_with_pencil_short_short_600ms.mp4	3948.5933725029463	3949.2011239467392	0.6077514437929494	n/a	n/a	n/a	n/a
261.3056640625	0.2	535154	212	33	2	0	1	19	376	stimuli\Targets_short_600ms_horvertflip\hand-pinch_short_vertflip_short_600ms.mp4	hand-pinch_short_vertflip_short_600ms.mp4	3949.392826833966	3950.001111982361	0.6082851483952254	n/a	n/a	n/a	n/a
262.10595703125	0.2	536793	213	33	2	0	0	20	231	stimuli\Videos_short_600ms_horvertflip\56.repeated_touch_with_nail_file_short_horvertflip_short_600ms.mp4	56.repeated_touch_with_nail_file_short_horvertflip_short_600ms.mp4	3950.193067059692	3950.8010900476943	0.6080229880026309	n/a	n/a	n/a	n/a
262.90576171875	0.2	538431	214	33	2	0	0	21	124	stimuli\Videos_short_600ms_horflip\40.repeated_push_with_finger_short_horflip_short_600ms.mp4	40.repeated_push_with_finger_short_horflip_short_600ms.mp4	3950.992733992811	3951.60104963863	0.6083156458189478	n/a	n/a	n/a	n/a
263.70556640625	0.2	540069	215	33	2	0	0	22	247	stimuli\Videos_short_600ms_horvertflip\70.(long)stroke_with_finger_all_over_the_hand_short_horvertflip_short_600ms.mp4	70.(long)stroke_with_finger_all_over_the_hand_short_horvertflip_short_600ms.mp4	3951.792724960891	3952.401052922971	0.6083279620797839	n/a	n/a	n/a	n/a
264.505859375	0.2	541708	216	33	2	0	0	23	126	stimuli\Videos_short_600ms_horflip\42.single_slap_with_plastic_whisk_short_horflip_short_600ms.mp4	42.single_slap_with_plastic_whisk_short_horflip_short_600ms.mp4	3952.59270713164	3953.201009874698	0.6083027430577204	n/a	n/a	n/a	n/a
265.3056640625	0.2	543346	217	33	2	0	0	24	340	stimuli\Videos_short_600ms_vertflip\73.single_stroke_with_flat_hand_short_vertflip_short_600ms.mp4	73.single_stroke_with_flat_hand_short_vertflip_short_600ms.mp4	3953.392705137579	3954.001013452289	0.6083083147095749	n/a	n/a	n/a	n/a
266.10546875	0.2	544984	218	33	2	0	0	25	182	stimuli\Videos_short_600ms_horvertflip\11.single_touch_with_lighter_short_horvertflip_short_600ms.mp4	11.single_touch_with_lighter_short_horvertflip_short_600ms.mp4	3954.192701677297	3954.800985945971	0.6082842686737422	n/a	n/a	n/a	n/a
266.90576171875	0.2	546623	219	33	2	0	0	26	320	stimuli\Videos_short_600ms_vertflip\55.touch_top_to_bottom_with_nail_file_short_vertflip_short_600ms.mp4	55.touch_top_to_bottom_with_nail_file_short_vertflip_short_600ms.mp4	3954.9926466060137	3955.600952868015	0.6083062620018609	n/a	n/a	n/a	n/a
267.70556640625	0.2	548261	220	33	2	0	0	27	156	stimuli\Videos_short_600ms_horflip\7.repeated_touch_with_hairbrush_short_horflip_short_600ms.mp4	7.repeated_touch_with_hairbrush_short_horflip_short_600ms.mp4	3955.792617633473	3956.40091627113	0.6082986376568442	n/a	n/a	n/a	n/a
268.505859375	0.2	549900	221	33	2	0	0	28	296	stimuli\Videos_short_600ms_vertflip\33.scratch_top_to_bottom_with_scissors_short_vertflip_short_600ms.mp4	33.scratch_top_to_bottom_with_scissors_short_vertflip_short_600ms.mp4	3956.5926593328186	3957.200917502749	0.6082581699301954	n/a	n/a	n/a	n/a
269.3056640625	0.2	551538	222	33	2	0	0	29	265	stimuli\Videos_short_600ms_horvertflip\87.single_stroke_top_to_bottom_with_plastic_brush_short_horvertflip_short_600ms.mp4	87.single_stroke_top_to_bottom_with_plastic_brush_short_horvertflip_short_600ms.mp4	3957.392589599316	3958.0008987937617	0.60830919444561	n/a	n/a	n/a	n/a
270.10546875	0.2	553176	223	33	2	0	0	30	190	stimuli\Videos_short_600ms_horvertflip\19.single_touch_with_rolling_pin_short_horvertflip_short_600ms.mp4	19.single_touch_with_rolling_pin_short_horvertflip_short_600ms.mp4	3958.192695225924	3958.8009035443247	0.6082083184010116	n/a	n/a	n/a	n/a
270.90576171875	0.2	554815	224	33	2	0	0	31	146	stimuli\Videos_short_600ms_horflip\60.single_push_with_tip_of_pencil_short_horflip_short_600ms.mp4	60.single_push_with_tip_of_pencil_short_horflip_short_600ms.mp4	3958.992590303111	3959.600875451521	0.6082851484097773	n/a	n/a	n/a	n/a
271.70556640625	0.2	556453	225	33	2	0	0	32	349	stimuli\Videos_short_600ms_vertflip\81.single_stroke_top_to_bottom_with_cotton_pad_short_vertflip_short_600ms.mp4	81.single_stroke_top_to_bottom_with_cotton_pad_short_vertflip_short_600ms.mp4	3959.792776571892	3960.400867592573	0.6080910206801491	n/a	n/a	n/a	n/a
272.50537109375	0.2	558091	226	33	2	0	0	33	241	stimuli\Videos_short_600ms_horvertflip\65.stroke_top_to_bottom_with_stanley_knife_short_horvertflip_short_600ms.mp4	65.stroke_top_to_bottom_with_stanley_knife_short_horvertflip_short_600ms.mp4	3960.592514470132	3961.2008374470606	0.6083229769283207	n/a	n/a	n/a	n/a
273.3056640625	0.2	559730	227	33	2	0	0	34	326	stimuli\Videos_short_600ms_vertflip\60.single_push_with_tip_of_pencil_short_vertflip_short_600ms.mp4	60.single_push_with_tip_of_pencil_short_vertflip_short_600ms.mp4	3961.3924813921767	3962.000780029819	0.6082986376422923	n/a	n/a	n/a	n/a
274.10546875	0.2	561368	228	33	2	0	0	35	0	stimuli\Videos_short_600ms\1.repeated_touch_with_finger_fast_short_short_600ms.mp4	1.repeated_touch_with_finger_fast_short_short_600ms.mp4	3962.192667367708	3962.800808826418	0.6081414587097242	n/a	n/a	n/a	n/a
274.9052734375	0.2	563006	229	33	2	0	0	36	351	stimuli\Videos_short_600ms_vertflip\83.single_stroke_top_to_bottom_with_cotton_bud_short_vertflip_short_600ms.mp4	83.single_stroke_top_to_bottom_with_cotton_bud_short_vertflip_short_600ms.mp4	3962.9925005703553	3963.600789824181	0.6082892538252054	n/a	n/a	n/a	n/a
275.70556640625	0.2	564645	230	33	2	0	0	37	75	stimuli\Videos_short_600ms\78.single_stroke_top_to_bottom_with_soft_brush_short_short_600ms.mp4	78.single_stroke_top_to_bottom_with_soft_brush_short_short_600ms.mp4	3963.792423212508	3964.400761731376	0.6083385188685497	n/a	n/a	n/a	n/a
276.50537109375	0.2	566283	231	33	2	0	1	38	382	stimuli\Targets_short_600ms_vertflip\hand-pinch_short_horvertflip_short_600ms.mp4	hand-pinch_short_horvertflip_short_600ms.mp4	3964.592547020249	3965.2007532859425	0.6082062656932976	n/a	n/a	n/a	n/a
277.30517578125	0.2	567921	232	33	2	0	0	39	270	stimuli\Videos_short_600ms_vertflip\1.repeated_touch_with_finger_fast_short_vertflip_short_600ms.mp4	1.repeated_touch_with_finger_fast_short_vertflip_short_600ms.mp4	3965.3923764107167	3966.000729005318	0.6083525946014561	n/a	n/a	n/a	n/a
278.10546875	0.2	569560	233	33	2	0	0	40	335	stimuli\Videos_short_600ms_vertflip\69.stroke_with_soft_sock_short_vertflip_short_600ms.mp4	69.stroke_with_soft_sock_short_vertflip_short_600ms.mp4	3966.192438050668	3966.8007152814826	0.608277230814565	n/a	n/a	n/a	n/a
278.9052734375	0.2	571198	234	33	2	0	0	41	236	stimuli\Videos_short_600ms_horvertflip\60.single_push_with_tip_of_pencil_short_horvertflip_short_600ms.mp4	60.single_push_with_tip_of_pencil_short_horvertflip_short_600ms.mp4	3966.9924158227514	3967.600699211689	0.6082833889377071	n/a	n/a	n/a	n/a
279.705078125	0.2	572836	235	33	2	0	0	42	123	stimuli\Videos_short_600ms_horflip\4.repeated_tap_with_finger_slow_short_horflip_short_600ms.mp4	4.repeated_tap_with_finger_slow_short_horflip_short_600ms.mp4	3967.7923314270447	3968.400680502702	0.6083490756573156	n/a	n/a	n/a	n/a
280.50537109375	0.2	574475	236	33	2	0	0	43	199	stimuli\Videos_short_600ms_horvertflip\27.single_push_with_a_plastic_whisk_short_horvertflip_short_600ms.mp4	27.single_push_with_a_plastic_whisk_short_horvertflip_short_600ms.mp4	3968.592352012798	3969.20067381674	0.6083218039420899	n/a	n/a	n/a	n/a
281.30517578125	0.2	576113	237	33	2	0	0	44	81	stimuli\Videos_short_600ms\83.single_stroke_top_to_bottom_with_cotton_bud_short_short_600ms.mp4	83.single_stroke_top_to_bottom_with_cotton_bud_short_short_600ms.mp4	3969.392374944495	3970.000614933291	0.608239988796413	n/a	n/a	n/a	n/a
282.10498046875	0.2	577751	238	33	2	0	0	45	85	stimuli\Videos_short_600ms\87.single_stroke_top_to_bottom_with_plastic_brush_short_short_600ms.mp4	87.single_stroke_top_to_bottom_with_plastic_brush_short_short_600ms.mp4	3970.1923257380986	3970.800591239138	0.6082655010395683	n/a	n/a	n/a	n/a
282.9052734375	0.2	579390	239	33	2	0	0	46	205	stimuli\Videos_short_600ms_horvertflip\32.single_(long)pinch_with_fingers_short_horvertflip_short_600ms.mp4	32.single_(long)pinch_with_fingers_short_horvertflip_short_600ms.mp4	3970.992301750725	3971.600571063944	0.6082693132193526	n/a	n/a	n/a	n/a
283.705078125	0.2	581028	240	33	2	0	0	47	318	stimuli\Videos_short_600ms_vertflip\53.touch_top_to_bottom_with_knife_short_vertflip_short_600ms.mp4	53.touch_top_to_bottom_with_knife_short_vertflip_short_600ms.mp4	3971.79225752948	3972.4005784537	0.6083209242206067	n/a	n/a	n/a	n/a
284.5048828125	0.2	582666	241	33	2	0	0	48	115	stimuli\Videos_short_600ms_horflip\32.single_(long)pinch_with_fingers_short_horflip_short_600ms.mp4	32.single_(long)pinch_with_fingers_short_horflip_short_600ms.mp4	3972.592367261502	3973.200538924357	0.6081716628541471	n/a	n/a	n/a	n/a
285.30517578125	0.2	584305	242	33	2	0	0	49	287	stimuli\Videos_short_600ms_vertflip\25.single_touch_with_stanley_knife_short_vertflip_short_600ms.mp4	25.single_touch_with_stanley_knife_short_vertflip_short_600ms.mp4	3973.3922465034993	3974.00054396817	0.6082974646706134	n/a	n/a	n/a	n/a
286.10498046875	0.2	585943	243	33	2	0	0	50	277	stimuli\Videos_short_600ms_vertflip\16.repeated_touch_with_plastic_brush_short_vertflip_short_600ms.mp4	16.repeated_touch_with_plastic_brush_short_vertflip_short_600ms.mp4	3974.192198763325	3974.800519101045	0.6083203377202153	n/a	n/a	n/a	n/a
286.9052734375	0.2	587582	244	33	2	0	0	51	143	stimuli\Videos_short_600ms_horflip\58.single_slap_with_pencil_short_horflip_short_600ms.mp4	58.single_slap_with_pencil_short_horflip_short_600ms.mp4	3974.992173016479	3975.6005021515302	0.6083291350514628	n/a	n/a	n/a	n/a
287.705078125	0.2	589220	245	33	2	0	0	52	120	stimuli\Videos_short_600ms_horflip\37.single_stab_with_nail_file_short_horflip_short_600ms.mp4	37.single_stab_with_nail_file_short_horflip_short_600ms.mp4	3975.792145510161	3976.4004796303634	0.608334120202926	n/a	n/a	n/a	n/a
288.5048828125	0.2	590858	246	33	2	0	0	53	258	stimuli\Videos_short_600ms_horvertflip\80.stroke_with_sharp_stick_all_over_the_hand_short_horvertflip_short_600ms.mp4	80.stroke_with_sharp_stick_all_over_the_hand_short_horvertflip_short_600ms.mp4	3976.5921408769063	3977.200459161919	0.6083182850125013	n/a	n/a	n/a	n/a
289.30517578125	0.2	592497	247	33	2	0	0	54	337	stimuli\Videos_short_600ms_vertflip\70.(long)stroke_with_finger_all_over_the_hand_short_vertflip_short_600ms.mp4	70.(long)stroke_with_finger_all_over_the_hand_short_vertflip_short_600ms.mp4	3977.3922447440273	3978.0004392799456	0.608194535918301	n/a	n/a	n/a	n/a
290.10498046875	0.2	594135	248	33	2	0	0	55	138	stimuli\Videos_short_600ms_horflip\53.touch_top_to_bottom_with_knife_short_horflip_short_600ms.mp4	53.touch_top_to_bottom_with_knife_short_horflip_short_600ms.mp4	3978.192102285946	3978.800422916917	0.608320630970411	n/a	n/a	n/a	n/a
290.90478515625	0.2	595773	249	33	2	0	0	56	62	stimuli\Videos_short_600ms\66.stroke_top_to_bottom_with_sponge_short_short_600ms.mp4	66.stroke_top_to_bottom_with_sponge_short_short_600ms.mp4	3978.99211583384	3979.600401861971	0.6082860281312605	n/a	n/a	n/a	n/a
291.705078125	0.2	597412	250	33	2	0	0	57	129	stimuli\Videos_short_600ms_horflip\45.scratching_with_finger_nails_short_horflip_short_600ms.mp4	45.scratching_with_finger_nails_short_horflip_short_600ms.mp4	3979.792097711339	3980.400390777344	0.6082930660049897	n/a	n/a	n/a	n/a
292.5048828125	0.2	599050	251	33	2	0	0	58	323	stimuli\Videos_short_600ms_vertflip\58.single_slap_with_pencil_short_vertflip_short_600ms.mp4	58.single_slap_with_pencil_short_vertflip_short_600ms.mp4	3980.59205788876	3981.2003515412503	0.6082936524908291	n/a	n/a	n/a	n/a
293.3046875	0.2	600688	252	33	2	0	0	59	266	stimuli\Videos_short_600ms_horvertflip\88.repeated_stroke_with_plastic_brush_short_horvertflip_short_600ms.mp4	88.repeated_stroke_with_plastic_brush_short_horvertflip_short_600ms.mp4	3981.3919793579407	3982.000351599912	0.6083722419716651	n/a	n/a	n/a	n/a
294.10498046875	0.2	602327	253	33	2	0	1	60	361	stimuli\Targets_short_600ms\chopstick-silver-tap_short_short_600ms.mp4	chopstick-silver-tap_short_short_600ms.mp4	3982.192031027589	3982.800312363819	0.608281336229993	n/a	n/a	n/a	n/a
294.90478515625	0.2	603965	254	33	2	0	0	61	327	stimuli\Videos_short_600ms_vertflip\61.single_hit_with_rolling_pin_short_vertflip_short_600ms.mp4	61.single_hit_with_rolling_pin_short_vertflip_short_600ms.mp4	3982.991951030548	3983.60031564816	0.6083646176120965	n/a	n/a	n/a	n/a
295.70458984375	0.2	605603	255	33	2	0	1	62	368	stimuli\Targets_short_600ms_horflip\chopstickwood-tap_short_horflip_short_600ms.mp4	chopstickwood-tap_short_horflip_short_600ms.mp4	3983.79215254802	3984.400269374208	0.6081168261880521	n/a	n/a	n/a	n/a
296.5048828125	0.2	607242	256	33	2	0	0	63	169	stimuli\Videos_short_600ms_horflip\81.single_stroke_top_to_bottom_with_cotton_pad_short_horflip_short_600ms.mp4	81.single_stroke_top_to_bottom_with_cotton_pad_short_horflip_short_600ms.mp4	3984.591968742505	3985.2002503719705	0.6082816294656368	n/a	n/a	n/a	n/a
297.3046875	0.2	608880	257	33	2	0	0	64	58	stimuli\Videos_short_600ms\62.touch_top_to_bottom_with_scissors_short_short_600ms.mp4	62.touch_top_to_bottom_with_scissors_short_short_600ms.mp4	3985.3919327321055	3986.000240460314	0.6083077282091836	n/a	n/a	n/a	n/a
298.1044921875	0.2	610518	258	33	2	0	0	65	187	stimuli\Videos_short_600ms_horvertflip\16.repeated_touch_with_plastic_brush_short_horvertflip_short_600ms.mp4	16.repeated_touch_with_plastic_brush_short_horvertflip_short_600ms.mp4	3986.191964754369	3986.800215006718	0.608250252349535	n/a	n/a	n/a	n/a
298.90478515625	0.2	612157	259	33	2	0	0	66	210	stimuli\Videos_short_600ms_horvertflip\37.single_stab_with_nail_file_short_horvertflip_short_600ms.mp4	37.single_stab_with_nail_file_short_horvertflip_short_600ms.mp4	3986.991848395046	3987.600200696397	0.6083523013512604	n/a	n/a	n/a	n/a
299.70458984375	0.2	613795	260	33	2	0	0	67	7	stimuli\Videos_short_600ms\16.repeated_touch_with_plastic_brush_short_short_600ms.mp4	16.repeated_touch_with_plastic_brush_short_short_600ms.mp4	3987.791879537588	3988.40017788198	0.6082983443920966	n/a	n/a	n/a	n/a
300.50439453125	0.2	615433	261	33	2	0	0	68	347	stimuli\Videos_short_600ms_vertflip\8.single_touch_with_hairbrush_short_vertflip_short_600ms.mp4	8.single_touch_with_hairbrush_short_vertflip_short_600ms.mp4	3988.591886047609	3989.200173541976	0.608287494367687	n/a	n/a	n/a	n/a
301.3046875	0.2	617072	262	33	2	0	0	69	306	stimuli\Videos_short_600ms_vertflip\42.single_slap_with_plastic_whisk_short_vertflip_short_600ms.mp4	42.single_slap_with_plastic_whisk_short_vertflip_short_600ms.mp4	3989.3919526727113	3990.0001674424857	0.6082147697743494	n/a	n/a	n/a	n/a
302.1044921875	0.2	618710	263	33	2	0	0	70	159	stimuli\Videos_short_600ms_horflip\72.(short)stroke_with_finger_all_over_the_hand_short_horflip_short_600ms.mp4	72.(short)stroke_with_finger_all_over_the_hand_short_horflip_short_600ms.mp4	3990.191911970396	3990.8001399361674	0.6082279657712206	n/a	n/a	n/a	n/a
302.904296875	0.2	620348	264	33	2	0	0	71	282	stimuli\Videos_short_600ms_vertflip\20.single_touch_with_screwdriver_short_vertflip_short_600ms.mp4	20.single_touch_with_screwdriver_short_vertflip_short_600ms.mp4	3990.99182816119	3991.6001235731383	0.6082954119483475	n/a	n/a	n/a	n/a
303.70458984375	0.2	621987	265	33	2	0	0	72	242	stimuli\Videos_short_600ms_horvertflip\66.stroke_top_to_bottom_with_sponge_short_horvertflip_short_600ms.mp4	66.stroke_top_to_bottom_with_sponge_short_horvertflip_short_600ms.mp4	3991.791856371288	3992.4001051574014	0.6082487861131085	n/a	n/a	n/a	n/a
304.50439453125	0.2	623625	266	33	2	0	0	73	74	stimuli\Videos_short_600ms\77.tapping_with_all_fingers_short_short_600ms.mp4	77.tapping_with_all_fingers_short_short_600ms.mp4	3992.5917693363735	3993.2000835159706	0.6083141795970732	n/a	n/a	n/a	n/a
305.3046875	0.2	625264	267	33	2	0	0	74	4	stimuli\Videos_short_600ms\13.single_touch_with_pen_short_short_600ms.mp4	13.single_touch_with_pen_short_short_600ms.mp4	3993.391752973344	3994.000070671871	0.6083176985266618	n/a	n/a	n/a	n/a
306.1044921875	0.2	626902	268	33	2	0	0	75	78	stimuli\Videos_short_600ms\80.stroke_with_sharp_stick_all_over_the_hand_short_short_600ms.mp4	80.stroke_with_sharp_stick_all_over_the_hand_short_short_600ms.mp4	3994.1917131507657	3994.800053135856	0.6083399850904243	n/a	n/a	n/a	n/a
306.904296875	0.2	628540	269	33	2	0	0	76	186	stimuli\Videos_short_600ms_horvertflip\15.single_stroke_top_to_bottom_with_a_plastic_whisk_short_horvertflip_short_600ms.mp4	15.single_stroke_top_to_bottom_with_a_plastic_whisk_short_horvertflip_short_600ms.mp4	3994.991714382398	3995.6000253363018	0.6083109539031284	n/a	n/a	n/a	n/a
307.70458984375	0.2	630179	270	33	2	0	0	77	110	stimuli\Videos_short_600ms_horflip\28.single_injection_with_sharp_needle_short_horflip_short_600ms.mp4	28.single_injection_with_sharp_needle_short_horflip_short_600ms.mp4	3995.7917252910847	3996.40001102598	0.6082857348956168	n/a	n/a	n/a	n/a
308.50439453125	0.2	631817	271	33	2	0	0	78	219	stimuli\Videos_short_600ms_horvertflip\45.scratching_with_finger_nails_short_horvertflip_short_600ms.mp4	45.scratching_with_finger_nails_short_horvertflip_short_600ms.mp4	3996.5916989577527	3997.1999940764654	0.6082951187127037	n/a	n/a	n/a	n/a
309.30419921875	0.2	633455	272	33	2	0	0	79	90	stimuli\Videos_short_600ms_horflip\1.repeated_touch_with_finger_fast_short_horflip_short_600ms.mp4	1.repeated_touch_with_finger_fast_short_horflip_short_600ms.mp4	3997.39164857837	3997.999975074228	0.6083264958579093	n/a	n/a	n/a	n/a
310.1044921875	0.2	635094	273	33	2	0	0	80	112	stimuli\Videos_short_600ms_horflip\3.single_push_with_finger_short_horflip_short_600ms.mp4	3.single_push_with_finger_short_horflip_short_600ms.mp4	3998.191596732781	3998.799938477343	0.6083417445624946	n/a	n/a	n/a	n/a
310.904296875	0.2	636732	274	33	2	0	0	81	271	stimuli\Videos_short_600ms_vertflip\10.single_touch_with_knife_short_vertflip_short_600ms.mp4	10.single_touch_with_knife_short_vertflip_short_600ms.mp4	3998.9917428270855	3999.5999270994657	0.6081842723797308	n/a	n/a	n/a	n/a
311.7041015625	0.2	638370	275	33	2	0	0	82	250	stimuli\Videos_short_600ms_horvertflip\73.single_stroke_with_flat_hand_short_horvertflip_short_600ms.mp4	73.single_stroke_with_flat_hand_short_horvertflip_short_600ms.mp4	3999.791587759508	4000.399886983636	0.6082992241281318	n/a	n/a	n/a	n/a
312.50439453125	0.2	640009	276	33	2	0	0	83	319	stimuli\Videos_short_600ms_vertflip\54.repeated_touch_with_knife_short_vertflip_short_600ms.mp4	54.repeated_touch_with_knife_short_vertflip_short_600ms.mp4	4000.591563772119	4001.199874139536	0.6083103674172889	n/a	n/a	n/a	n/a
313.30419921875	0.2	641647	277	33	2	0	0	84	16	stimuli\Videos_short_600ms\24.single_stroke_top_to_bottom_with_a_spoon_short_short_600ms.mp4	24.single_stroke_top_to_bottom_with_a_spoon_short_short_600ms.mp4	4001.39167174467	4001.999830211542	0.6081584668718278	n/a	n/a	n/a	n/a
314.10400390625	0.2	643285	278	33	2	0	0	85	100	stimuli\Videos_short_600ms_horflip\19.single_touch_with_rolling_pin_short_horflip_short_600ms.mp4	19.single_touch_with_rolling_pin_short_horflip_short_600ms.mp4	4002.191557144805	4002.7998373080623	0.6082801632583141	n/a	n/a	n/a	n/a
314.904296875	0.2	644924	279	33	2	0	0	86	341	stimuli\Videos_short_600ms_vertflip\74.fingers_walking_from_top_to_bottom_short_vertflip_short_600ms.mp4	74.fingers_walking_from_top_to_bottom_short_vertflip_short_600ms.mp4	4002.991558962923	4003.5998206517834	0.608261688859784	n/a	n/a	n/a	n/a
315.7041015625	0.2	646562	280	33	2	0	0	87	155	stimuli\Videos_short_600ms_horflip\69.stroke_with_soft_sock_short_horflip_short_600ms.mp4	69.stroke_with_soft_sock_short_horflip_short_600ms.mp4	4003.791479845604	4004.399825109096	0.6083452634920832	n/a	n/a	n/a	n/a
316.50390625	0.2	648200	281	33	2	0	0	88	113	stimuli\Videos_short_600ms_horflip\30.finger_pulling_back_another_finger_short_horflip_short_600ms.mp4	30.finger_pulling_back_another_finger_short_horflip_short_600ms.mp4	4004.591427413528	4005.199807279845	0.6083798663166817	n/a	n/a	n/a	n/a
317.30419921875	0.2	649839	282	33	2	0	0	89	268	stimuli\Videos_short_600ms_horvertflip\9.single_touch_with_hammer_short_horvertflip_short_600ms.mp4	9.single_touch_with_hammer_short_horvertflip_short_600ms.mp4	4005.391437149243	4005.999780066777	0.6083429175341735	n/a	n/a	n/a	n/a
318.10400390625	0.2	651477	283	33	2	0	0	90	9	stimuli\Videos_short_600ms\18.single_stroke_from_top_to_bottom_with_rolling_pin_short_short_600ms.mp4	18.single_stroke_from_top_to_bottom_with_rolling_pin_short_short_600ms.mp4	4006.191369175213	4006.79976106454	0.6083918893273221	n/a	n/a	n/a	n/a
318.90380859375	0.2	653115	284	33	2	0	0	91	261	stimuli\Videos_short_600ms_horvertflip\83.single_stroke_top_to_bottom_with_cotton_bud_short_horvertflip_short_600ms.mp4	83.single_stroke_top_to_bottom_with_cotton_bud_short_horvertflip_short_600ms.mp4	4006.991355744627	4007.5997423555527	0.6083866109256633	n/a	n/a	n/a	n/a
319.7041015625	0.2	654754	285	33	2	0	0	92	10	stimuli\Videos_short_600ms\19.single_touch_with_rolling_pin_short_short_600ms.mp4	19.single_touch_with_rolling_pin_short_short_600ms.mp4	4007.7913326369744	4008.3997227668297	0.6083901298552519	n/a	n/a	n/a	n/a
320.50390625	0.2	656392	286	33	2	0	0	93	164	stimuli\Videos_short_600ms_horflip\77.tapping_with_all_fingers_short_horflip_short_600ms.mp4	77.tapping_with_all_fingers_short_horflip_short_600ms.mp4	4008.591314514473	4009.199702005135	0.6083874906616984	n/a	n/a	n/a	n/a
321.3037109375	0.2	658030	287	33	2	0	0	94	325	stimuli\Videos_short_600ms_vertflip\6.single_touch_with_flat_hand_short_vertflip_short_600ms.mp4	6.single_touch_with_flat_hand_short_vertflip_short_600ms.mp4	4009.3913148663705	4009.999686228592	0.608371362221078	5.0	5.0	2.272866163897561	1.0
355.5361328125	0.2	728138	288	33	3	0	0	0	355	stimuli\Videos_short_600ms_vertflip\87.single_stroke_top_to_bottom_with_plastic_brush_short_vertflip_short_600ms.mp4	87.single_stroke_top_to_bottom_with_plastic_brush_short_vertflip_short_600ms.mp4	4043.623891903102	4044.23220285702	0.6083109539176803	n/a	n/a	n/a	n/a
356.3359375	0.2	729776	289	33	3	0	0	1	202	stimuli\Videos_short_600ms_horvertflip\3.single_push_with_finger_short_horvertflip_short_600ms.mp4	3.single_push_with_finger_short_horvertflip_short_600ms.mp4	4044.423905157746	4045.0321841480327	0.6082789902866352	n/a	n/a	n/a	n/a
357.13623046875	0.2	731415	290	33	3	0	1	2	380	stimuli\Targets_short_600ms_vertflip\chopstickwood-tap_short_horvertflip_short_600ms.mp4	chopstickwood-tap_short_horvertflip_short_600ms.mp4	4045.223835717508	4045.832167491754	0.6083317742450163	n/a	n/a	n/a	n/a
357.93603515625	0.2	733053	291	33	3	0	0	3	135	stimuli\Videos_short_600ms_horflip\50.single_(long)hard_push_with_thumb_short_horflip_short_600ms.mp4	50.single_(long)hard_push_with_thumb_short_horflip_short_600ms.mp4	4046.023874484395	4046.632090720392	0.608216235996224	n/a	n/a	n/a	n/a
358.744140625	0.2	734708	292	33	3	0	1	4	381	stimuli\Targets_short_600ms_vertflip\finger-tap_short_horvertflip_short_600ms.mp4	finger-tap_short_horvertflip_short_600ms.mp4	4046.8321463781617	4047.440466129395	0.6083197512343759	n/a	n/a	n/a	n/a
359.54443359375	0.2	736347	293	33	3	0	0	5	102	stimuli\Videos_short_600ms_horflip\20.single_touch_with_screwdriver_short_horflip_short_600ms.mp4	20.single_touch_with_screwdriver_short_horflip_short_600ms.mp4	4047.632143211129	4048.2404374501057	0.6082942389766686	n/a	n/a	n/a	n/a
360.34423828125	0.2	737985	294	33	3	0	0	6	336	stimuli\Videos_short_600ms_vertflip\7.repeated_touch_with_hairbrush_short_vertflip_short_600ms.mp4	7.repeated_touch_with_hairbrush_short_vertflip_short_600ms.mp4	4048.4321573454945	4049.040414928939	0.608257583444356	n/a	n/a	n/a	n/a
361.14453125	0.2	739624	295	33	3	0	0	7	161	stimuli\Videos_short_600ms_horflip\74.fingers_walking_from_top_to_bottom_short_horflip_short_600ms.mp4	74.fingers_walking_from_top_to_bottom_short_horflip_short_600ms.mp4	4049.232083799827	4049.840396806452	0.6083130066253943	n/a	n/a	n/a	n/a
361.9443359375	0.2	741262	296	33	3	0	0	8	154	stimuli\Videos_short_600ms_horflip\68.stroke_top_to_bottom_with_shawl_short_horflip_short_600ms.mp4	68.stroke_top_to_bottom_with_shawl_short_horflip_short_600ms.mp4	4050.032137522183	4050.640378390701	0.6082408685178962	n/a	n/a	n/a	n/a
362.744140625	0.2	742900	297	33	3	0	0	9	139	stimuli\Videos_short_600ms_horflip\54.repeated_touch_with_knife_short_horflip_short_600ms.mp4	54.repeated_touch_with_knife_short_horflip_short_600ms.mp4	4050.832069254917	4051.4403608547	0.6082915997831151	n/a	n/a	n/a	n/a
363.54443359375	0.2	744539	298	33	3	0	0	10	68	stimuli\Videos_short_600ms\71.single_stroke_with_finger_top_to_bottom_short_short_600ms.mp4	71.single_stroke_with_finger_top_to_bottom_short_short_600ms.mp4	4051.632092479864	4052.2403439051704	0.608251425306662	n/a	n/a	n/a	n/a
364.34423828125	0.2	746177	299	33	3	0	0	11	15	stimuli\Videos_short_600ms\23.single_push_with_a_spoon_short_short_600ms.mp4	23.single_push_with_a_spoon_short_short_600ms.mp4	4052.432023919347	4053.040321384018	0.6082974646706134	n/a	n/a	n/a	n/a
365.14404296875	0.2	747815	300	33	3	0	0	12	6	stimuli\Videos_short_600ms\15.single_stroke_top_to_bottom_with_a_plastic_whisk_short_short_600ms.mp4	15.single_stroke_top_to_bottom_with_a_plastic_whisk_short_short_600ms.mp4	4053.231967381842	4053.840301795295	0.6083344134531217	n/a	n/a	n/a	n/a
365.9443359375	0.2	749454	301	33	3	0	0	13	292	stimuli\Videos_short_600ms_vertflip\3.single_push_with_finger_short_vertflip_short_600ms.mp4	3.single_push_with_finger_short_vertflip_short_600ms.mp4	4054.032020517712	4054.640263145702	0.6082426279899664	n/a	n/a	n/a	n/a
366.744140625	0.2	751092	302	33	3	0	0	14	97	stimuli\Videos_short_600ms_horflip\16.repeated_touch_with_plastic_brush_short_horflip_short_600ms.mp4	16.repeated_touch_with_plastic_brush_short_horflip_short_600ms.mp4	4054.832032012884	4055.4402670165146	0.6082350036303978	n/a	n/a	n/a	n/a
367.5439453125	0.2	752730	303	33	3	0	0	15	67	stimuli\Videos_short_600ms\70.(long)stroke_with_finger_all_over_the_hand_short_short_600ms.mp4	70.(long)stroke_with_finger_all_over_the_hand_short_short_600ms.mp4	4055.631998055193	4056.240202561428	0.6082045062357793	n/a	n/a	n/a	n/a
368.34423828125	0.2	754369	304	33	3	0	0	16	69	stimuli\Videos_short_600ms\72.(short)stroke_with_finger_all_over_the_hand_short_short_600ms.mp4	72.(short)stroke_with_finger_all_over_the_hand_short_short_600ms.mp4	4056.431981398928	4057.040204966034	0.6082235671055969	n/a	n/a	n/a	n/a
369.14404296875	0.2	756007	305	33	3	0	0	17	3	stimuli\Videos_short_600ms\12.repeated_touch_with_nail_file_short_short_600ms.mp4	12.repeated_touch_with_nail_file_short_short_600ms.mp4	4057.231900228901	4057.840166316426	0.6082660875254078	n/a	n/a	n/a	n/a
369.94384765625	0.2	757645	306	33	3	0	0	18	125	stimuli\Videos_short_600ms_horflip\41.injection_with_blunt_syringe_short_horflip_short_600ms.mp4	41.injection_with_blunt_syringe_short_horflip_short_600ms.mp4	4058.0318700833886	4058.640153765577	0.6082836821879027	n/a	n/a	n/a	n/a
370.744140625	0.2	759284	307	33	3	0	0	19	255	stimuli\Videos_short_600ms_horvertflip\78.single_stroke_top_to_bottom_with_soft_brush_short_horvertflip_short_600ms.mp4	78.single_stroke_top_to_bottom_with_soft_brush_short_horvertflip_short_600ms.mp4	4058.831850787916	4059.4401482525864	0.6082974646706134	n/a	n/a	n/a	n/a
371.5439453125	0.2	760922	308	33	3	0	1	20	365	stimuli\Targets_short_600ms\hand-stroke_short_short_600ms.mp4	hand-stroke_short_short_600ms.mp4	4059.6320631554263	4060.240125731419	0.6080625759932445	n/a	n/a	n/a	n/a
372.34375	0.2	762560	309	33	3	0	0	21	357	stimuli\Videos_short_600ms_vertflip\89.single_touch_with_plastic_brush_short_vertflip_short_600ms.mp4	89.single_touch_with_plastic_brush_short_vertflip_short_600ms.mp4	4060.4320277315273	4061.040135173884	0.6081074423564132	n/a	n/a	n/a	n/a
373.14404296875	0.2	764199	310	33	3	0	0	22	269	stimuli\Videos_short_600ms_horvertflip\90.repeated_touch_with_sponge_short_horvertflip_short_600ms.mp4	90.repeated_touch_with_sponge_short_horvertflip_short_600ms.mp4	4061.231815481297	4061.8401094270375	0.6082939457410248	n/a	n/a	n/a	n/a
373.94384765625	0.2	765837	311	33	3	0	0	23	304	stimuli\Videos_short_600ms_vertflip\40.repeated_push_with_finger_short_vertflip_short_600ms.mp4	40.repeated_push_with_finger_short_vertflip_short_600ms.mp4	4062.031821111595	4062.6401024478255	0.608281336229993	n/a	n/a	n/a	n/a
374.74365234375	0.2	767475	312	33	3	0	0	24	213	stimuli\Videos_short_600ms_horvertflip\4.repeated_tap_with_finger_slow_short_horvertflip_short_600ms.mp4	4.repeated_tap_with_finger_slow_short_horvertflip_short_600ms.mp4	4062.831818237799	4063.4400705428416	0.6082523050426971	n/a	n/a	n/a	n/a
375.5439453125	0.2	769114	313	33	3	0	0	25	288	stimuli\Videos_short_600ms_vertflip\26.single_touch_with_a_blunt_syringe_short_vertflip_short_600ms.mp4	26.single_touch_with_a_blunt_syringe_short_vertflip_short_600ms.mp4	4063.6317004122393	4064.2400424500374	0.6083420377981383	n/a	n/a	n/a	n/a
376.34375	0.2	770752	314	33	3	0	0	26	273	stimuli\Videos_short_600ms_vertflip\12.repeated_touch_with_nail_file_short_vertflip_short_600ms.mp4	12.repeated_touch_with_nail_file_short_vertflip_short_600ms.mp4	4064.431696951957	4065.040034884339	0.6083379323827103	n/a	n/a	n/a	n/a
377.1435546875	0.2	772390	315	33	3	0	0	27	203	stimuli\Videos_short_600ms_horvertflip\30.finger_pulling_back_another_finger_short_horvertflip_short_600ms.mp4	30.finger_pulling_back_another_finger_short_horvertflip_short_600ms.mp4	4065.2317565392	4065.840015295617	0.6082587564160349	n/a	n/a	n/a	n/a
377.94384765625	0.2	774029	316	33	3	0	0	28	224	stimuli\Videos_short_600ms_horvertflip\5.repeated_tap_with_finger_moving_from_top_to_bottom_short_horvertflip_short_600ms.mp4	5.repeated_tap_with_finger_moving_from_top_to_bottom_short_horvertflip_short_600ms.mp4	4066.0317401761567	4066.6399957068934	0.608255530736642	n/a	n/a	n/a	n/a
378.74365234375	0.2	775667	317	33	3	0	0	29	95	stimuli\Videos_short_600ms_horflip\14.repeated_touch_with_pencil_short_horflip_short_600ms.mp4	14.repeated_touch_with_pencil_short_horflip_short_600ms.mp4	4066.8319361220056	4067.4399787573784	0.6080426353728399	n/a	n/a	n/a	n/a
379.5439453125	0.2	777306	318	33	3	0	0	30	162	stimuli\Videos_short_600ms_horflip\75.(long)stroke_with_fingers_all_over_the_hand_short_horflip_short_600ms.mp4	75.(long)stroke_with_fingers_all_over_the_hand_short_horflip_short_600ms.mp4	4067.631981633516	4068.2402881887538	0.6083065552375047	n/a	n/a	n/a	n/a
380.34375	0.2	778944	319	33	3	0	0	31	64	stimuli\Videos_short_600ms\68.stroke_top_to_bottom_with_shawl_short_short_600ms.mp4	68.stroke_top_to_bottom_with_shawl_short_short_600ms.mp4	4068.431701937108	4069.0399392866966	0.6082373495883076	n/a	n/a	n/a	n/a
381.1435546875	0.2	780582	320	33	3	0	0	32	315	stimuli\Videos_short_600ms_vertflip\50.single_(long)hard_push_with_thumb_short_vertflip_short_600ms.mp4	50.single_(long)hard_push_with_thumb_short_vertflip_short_600ms.mp4	4069.231586457506	4069.839928495305	0.6083420377981383	n/a	n/a	n/a	n/a
381.94384765625	0.2	782221	321	33	3	0	0	33	150	stimuli\Videos_short_600ms_horflip\64.repeated_touch_with_screwdriver_short_horflip_short_600ms.mp4	64.repeated_touch_with_screwdriver_short_horflip_short_600ms.mp4	4070.0315865161538	4070.639896883571	0.6083103674172889	n/a	n/a	n/a	n/a
382.74365234375	0.2	783859	322	33	3	0	1	34	375	stimuli\Targets_short_600ms_horvertflip\finger-tap_short_vertflip_short_600ms.mp4	finger-tap_short_vertflip_short_600ms.mp4	4070.8315566638776	4071.439839466344	0.6082828024664195	n/a	n/a	n/a	n/a
383.54345703125	0.2	785497	323	33	3	0	0	35	256	stimuli\Videos_short_600ms_horvertflip\79.long_with_soft_brush_all_over_the_hand_short_horvertflip_short_600ms.mp4	79.long_with_soft_brush_all_over_the_hand_short_horvertflip_short_600ms.mp4	4071.6315878064343	4072.2398210505926	0.6082332441583276	n/a	n/a	n/a	n/a
384.34375	0.2	787136	324	33	3	0	0	36	87	stimuli\Videos_short_600ms\89.single_touch_with_plastic_brush_short_short_600ms.mp4	89.single_touch_with_plastic_brush_short_short_600ms.mp4	4072.431527749999	4073.039800875384	0.608273125384585	n/a	n/a	n/a	n/a
385.1435546875	0.2	788774	325	33	3	0	0	37	264	stimuli\Videos_short_600ms_horvertflip\86.touch_top_to_bottom_with_hair_brush_short_horvertflip_short_600ms.mp4	86.touch_top_to_bottom_with_hair_brush_short_horvertflip_short_600ms.mp4	4073.2315565465833	4073.8397874447983	0.6082308982149698	n/a	n/a	n/a	n/a
385.943359375	0.2	790412	326	33	3	0	0	38	297	stimuli\Videos_short_600ms_vertflip\34.repeated_punch_with_hand_short_vertflip_short_600ms.mp4	34.repeated_punch_with_hand_short_vertflip_short_600ms.mp4	4074.0315246415994	4074.6397880899312	0.6082634483318543	n/a	n/a	n/a	n/a
386.74365234375	0.2	792051	327	33	3	0	0	39	18	stimuli\Videos_short_600ms\26.single_touch_with_a_blunt_syringe_short_short_600ms.mp4	26.single_touch_with_a_blunt_syringe_short_short_600ms.mp4	4074.832037584536	4075.439772899888	0.607735315352329	n/a	n/a	n/a	n/a
387.54345703125	0.2	793689	328	33	3	0	0	40	225	stimuli\Videos_short_600ms_horvertflip\50.single_(long)hard_push_with_thumb_short_horvertflip_short_600ms.mp4	50.single_(long)hard_push_with_thumb_short_horvertflip_short_600ms.mp4	4075.631855245229	4076.239773838257	0.6079185930284439	n/a	n/a	n/a	n/a
388.34326171875	0.2	795327	329	33	3	0	0	41	234	stimuli\Videos_short_600ms_horvertflip\59.single_push_with_long_side_pencil_short_horvertflip_short_600ms.mp4	59.single_push_with_long_side_pencil_short_horvertflip_short_600ms.mp4	4076.431456784878	4077.039745452217	0.6082886673393659	n/a	n/a	n/a	n/a
389.1435546875	0.2	796966	330	33	3	0	0	42	181	stimuli\Videos_short_600ms_horvertflip\10.single_touch_with_knife_short_horvertflip_short_600ms.mp4	10.single_touch_with_knife_short_horvertflip_short_600ms.mp4	4077.231604638655	4077.839729382424	0.6081247437687125	n/a	n/a	n/a	n/a
389.943359375	0.2	798604	331	33	3	0	0	43	122	stimuli\Videos_short_600ms_horflip\39.single_stab_with_scissors_short_horflip_short_600ms.mp4	39.single_stab_with_scissors_short_horflip_short_600ms.mp4	4078.031402358727	4078.639709500465	0.608307141737896	n/a	n/a	n/a	n/a
390.7431640625	0.2	800242	332	33	3	0	0	44	354	stimuli\Videos_short_600ms_vertflip\86.touch_top_to_bottom_with_hair_brush_short_vertflip_short_600ms.mp4	86.touch_top_to_bottom_with_hair_brush_short_vertflip_short_600ms.mp4	4078.831393913293	4079.439690204992	0.6082962916989345	n/a	n/a	n/a	n/a
391.54345703125	0.2	801881	333	33	3	0	0	45	240	stimuli\Videos_short_600ms_horvertflip\64.repeated_touch_with_screwdriver_short_horvertflip_short_600ms.mp4	64.repeated_touch_with_screwdriver_short_horvertflip_short_600ms.mp4	4079.6313537974784	4080.239670909519	0.6083171120408224	n/a	n/a	n/a	n/a
392.34326171875	0.2	803519	334	33	3	0	0	46	191	stimuli\Videos_short_600ms_horvertflip\2.single_touch_with_finger_short_horvertflip_short_600ms.mp4	2.single_touch_with_finger_short_horvertflip_short_600ms.mp4	4080.4315646987816	4081.039652200532	0.6080875017505605	n/a	n/a	n/a	n/a
393.14306640625	0.2	805157	335	33	3	0	0	47	220	stimuli\Videos_short_600ms_horvertflip\46.scratching_top_to_bottom_with_finger_nails_short_horvertflip_short_600ms.mp4	46.scratching_top_to_bottom_with_finger_nails_short_horvertflip_short_600ms.mp4	4081.231325176835	4081.839632611809	0.6083074349735398	n/a	n/a	n/a	n/a
393.943359375	0.2	806796	336	33	3	0	0	48	185	stimuli\Videos_short_600ms_horvertflip\14.repeated_touch_with_pencil_short_horvertflip_short_600ms.mp4	14.repeated_touch_with_pencil_short_horvertflip_short_600ms.mp4	4082.031498836106	4082.639611556864	0.6081127207580721	n/a	n/a	n/a	n/a
394.7431640625	0.2	808434	337	33	3	0	0	49	188	stimuli\Videos_short_600ms_horvertflip\17.repeated_touch_with_rolling_pin_short_horvertflip_short_600ms.mp4	17.repeated_touch_with_rolling_pin_short_horvertflip_short_600ms.mp4	4082.831346407722	4083.439593727613	0.6082473198912339	n/a	n/a	n/a	n/a
395.54296875	0.2	810072	338	33	3	0	0	50	148	stimuli\Videos_short_600ms_horflip\62.touch_top_to_bottom_with_scissors_short_horflip_short_600ms.mp4	62.touch_top_to_bottom_with_scissors_short_horflip_short_600ms.mp4	4083.63121128075	4084.239553318548	0.6083420377981383	n/a	n/a	n/a	n/a
396.34326171875	0.2	811711	339	33	3	0	0	51	25	stimuli\Videos_short_600ms\32.single_(long)pinch_with_fingers_short_short_600ms.mp4	32.single_(long)pinch_with_fingers_short_short_600ms.mp4	4084.431247115208	4085.0397548360343	0.6085077208263101	n/a	n/a	n/a	n/a
397.14306640625	0.2	813349	340	33	3	0	0	52	212	stimuli\Videos_short_600ms_horvertflip\39.single_stab_with_scissors_short_horvertflip_short_600ms.mp4	39.single_stab_with_scissors_short_horvertflip_short_600ms.mp4	4085.231207879114	4085.839518246532	0.6083103674172889	n/a	n/a	n/a	n/a
397.94287109375	0.2	814987	341	33	3	0	0	53	180	stimuli\Videos_short_600ms_horvertflip\1.repeated_touch_with_finger_fast_short_horvertflip_short_600ms.mp4	1.repeated_touch_with_finger_fast_short_horvertflip_short_600ms.mp4	4086.031226705396	4086.639525929538	0.6082992241426837	n/a	n/a	n/a	n/a
398.7431640625	0.2	816626	342	33	3	0	0	54	28	stimuli\Videos_short_600ms\35.single_punch_with_hand_short_short_600ms.mp4	35.single_punch_with_hand_short_short_600ms.mp4	4086.831229110001	4087.439457075772	0.6082279657712206	n/a	n/a	n/a	n/a
399.54296875	0.2	818264	343	33	3	0	0	55	43	stimuli\Videos_short_600ms\49.repeated_slap_with_hand_short_short_600ms.mp4	49.repeated_slap_with_hand_short_short_600ms.mp4	4087.6311960320454	4088.2394131477777	0.6082171157322591	n/a	n/a	n/a	n/a
400.34326171875	0.2	819903	344	33	3	0	0	56	117	stimuli\Videos_short_600ms_horflip\34.repeated_punch_with_hand_short_horflip_short_600ms.mp4	34.repeated_punch_with_hand_short_horflip_short_600ms.mp4	4088.431181721724	4089.0394387186825	0.6082569969585165	n/a	n/a	n/a	n/a
401.14306640625	0.2	821541	345	33	3	0	0	57	314	stimuli\Videos_short_600ms_vertflip\5.repeated_tap_with_finger_moving_from_top_to_bottom_short_vertflip_short_600ms.mp4	5.repeated_tap_with_finger_moving_from_top_to_bottom_short_vertflip_short_600ms.mp4	4089.2311342748	4089.839421769167	0.608287494367687	n/a	n/a	n/a	n/a
401.94287109375	0.2	823179	346	33	3	0	0	58	221	stimuli\Videos_short_600ms_horvertflip\47.(long)scratching_with_finger_nails_short_horvertflip_short_600ms.mp4	47.(long)scratching_with_finger_nails_short_horvertflip_short_600ms.mp4	4090.031105009024	4090.639401007458	0.6082959984341869	n/a	n/a	n/a	n/a
402.7431640625	0.2	824818	347	33	3	0	0	59	290	stimuli\Videos_short_600ms_vertflip\28.single_injection_with_sharp_needle_short_vertflip_short_600ms.mp4	28.single_injection_with_sharp_needle_short_vertflip_short_600ms.mp4	4090.8310689986247	4091.4394098634366	0.6083408648119075	n/a	n/a	n/a	n/a
403.54296875	0.2	826456	348	33	3	0	1	60	362	stimuli\Targets_short_600ms\chopstickwood-tap_short_short_600ms.mp4	chopstickwood-tap_short_short_600ms.mp4	4091.6311323980335	4092.23957824432	0.6084458462864859	n/a	n/a	n/a	n/a
404.3427734375	0.2	828094	349	33	3	0	0	61	168	stimuli\Videos_short_600ms_horflip\80.stroke_with_sharp_stick_all_over_the_hand_short_horflip_short_600ms.mp4	80.stroke_with_sharp_stick_all_over_the_hand_short_horflip_short_600ms.mp4	4092.431184947418	4093.039370099519	0.608185152101214	n/a	n/a	n/a	n/a
405.14306640625	0.2	829733	350	33	3	0	0	62	193	stimuli\Videos_short_600ms_horvertflip\21.repeated_touch_with_metal_chopstick_short_horvertflip_short_600ms.mp4	21.repeated_touch_with_metal_chopstick_short_horvertflip_short_600ms.mp4	4093.231099965211	4093.839351390532	0.6082514253212139	n/a	n/a	n/a	n/a
405.94287109375	0.2	831371	351	33	3	0	0	63	201	stimuli\Videos_short_600ms_horvertflip\29.single_pinch_with_tweezers_short_horvertflip_short_600ms.mp4	29.single_pinch_with_tweezers_short_horvertflip_short_600ms.mp4	4094.031013516797	4094.639324177464	0.6083106606674846	n/a	n/a	n/a	n/a
406.74267578125	0.2	833009	352	33	3	0	0	64	167	stimuli\Videos_short_600ms_horflip\8.single_touch_with_hairbrush_short_horflip_short_600ms.mp4	8.single_touch_with_hairbrush_short_horflip_short_600ms.mp4	4094.831044072853	4095.4393075211847	0.6082634483318543	n/a	n/a	n/a	n/a
407.54296875	0.2	834648	353	33	3	0	0	65	54	stimuli\Videos_short_600ms\59.single_push_with_long_side_pencil_short_short_600ms.mp4	59.single_push_with_long_side_pencil_short_short_600ms.mp4	4095.631013047605	4096.239275029715	0.6082619821099797	n/a	n/a	n/a	n/a
408.3427734375	0.2	836286	354	33	3	0	0	66	84	stimuli\Videos_short_600ms\86.touch_top_to_bottom_with_hair_brush_short_short_600ms.mp4	86.touch_top_to_bottom_with_hair_brush_short_short_600ms.mp4	4096.430940088423	4097.039268050503	0.6083279620797839	n/a	n/a	n/a	n/a
409.142578125	0.2	837924	355	33	3	0	1	67	373	stimuli\Targets_short_600ms_horvertflip\chopstick-silver-tap_short_vertflip_short_600ms.mp4	chopstick-silver-tap_short_vertflip_short_600ms.mp4	4097.230978268839	4097.839246409072	0.6082681402331218	n/a	n/a	n/a	n/a
409.94287109375	0.2	839563	356	33	3	0	0	68	339	stimuli\Videos_short_600ms_vertflip\72.(short)stroke_with_finger_all_over_the_hand_short_vertflip_short_600ms.mp4	72.(short)stroke_with_finger_all_over_the_hand_short_vertflip_short_600ms.mp4	4098.030952815228	4098.639228873057	0.6082760578283342	n/a	n/a	n/a	n/a
410.74267578125	0.2	841201	357	33	3	0	0	69	177	stimuli\Videos_short_600ms_horflip\89.single_touch_with_plastic_brush_short_horflip_short_600ms.mp4	89.single_touch_with_plastic_brush_short_horflip_short_600ms.mp4	4098.830851411345	4099.439208404612	0.6083569932670798	n/a	n/a	n/a	n/a
411.54248046875	0.2	842839	358	33	3	0	1	70	363	stimuli\Targets_short_600ms\finger-tap_short_short_600ms.mp4	finger-tap_short_short_600ms.mp4	4099.630910705353	4100.239183537487	0.6082728321343893	n/a	n/a	n/a	n/a
412.3427734375	0.2	844478	359	33	3	0	0	71	89	stimuli\Videos_short_600ms\90.repeated_touch_with_sponge_short_short_600ms.mp4	90.repeated_touch_with_sponge_short_short_600ms.mp4	4100.43084800971	4101.03917245286	0.6083244431501953	n/a	n/a	n/a	n/a
