onset	duration	onsetsample	eventnumber	subjectnr	sequencenumber	blocksequencenumber	istarget	presentationnumber	stimnumber	stim	stimname	time_stimon	time_stimoff	stimdur	cresp	resp	rt	correct
5.22607421875	0.2	10703	0	52	0	0	0	0	124	stimuli\Videos_short_600ms_horflip\40.repeated_push_with_finger_short_horflip_short_600ms.mp4	40.repeated_push_with_finger_short_horflip_short_600ms.mp4	71.43726652193982	72.04506296997897	0.6077964480391529				
6.02587890625	0.2	12341	1	52	0	0	0	1	347	stimuli\Videos_short_600ms_vertflip\8.single_touch_with_hairbrush_short_vertflip_short_600ms.mp4	8.single_touch_with_hairbrush_short_vertflip_short_600ms.mp4	72.23701767417333	72.8450630872776	0.6080454131042643				
6.826171875	0.2	13980	2	52	0	0	1	2	379	stimuli\Targets_short_600ms_vertflip\chopstick-silver-tap_short_horvertflip_short_600ms.mp4	chopstick-silver-tap_short_horvertflip_short_600ms.mp4	73.03715415042825	73.64504736934214	0.6078932189138868				
7.6259765625	0.2	15618	3	52	0	0	0	3	222	stimuli\Videos_short_600ms_horvertflip\48.single_slap_with_hand_short_horvertflip_short_600ms.mp4	48.single_slap_with_hand_short_horvertflip_short_600ms.mp4	73.83673287456077	74.4450304784259	0.6082976038651395				
8.42626953125	0.2	17257	4	52	0	0	0	4	119	stimuli\Videos_short_600ms_horflip\36.single_slap_with_full_hand_short_horflip_short_600ms.mp4	36.single_slap_with_full_hand_short_horflip_short_600ms.mp4	74.63670014841045	75.24502091863542	0.6083207702249638				
9.22607421875	0.2	18895	5	52	0	0	0	5	134	stimuli\Videos_short_600ms_horflip\5.repeated_tap_with_finger_moving_from_top_to_bottom_short_horflip_short_600ms.mp4	5.repeated_tap_with_finger_moving_from_top_to_bottom_short_horflip_short_600ms.mp4	75.43667504663244	76.04499464387845	0.6083195972460089				
10.02587890625	0.2	20533	6	52	0	0	1	6	370	stimuli\Targets_short_600ms_horflip\hand-pinch_short_horflip_short_600ms.mp4	hand-pinch_short_horflip_short_600ms.mp4	76.23665698273544	76.84498889627503	0.6083319135395868				
10.826171875	0.2	22172	7	52	0	0	0	7	357	stimuli\Videos_short_600ms_vertflip\89.single_touch_with_plastic_brush_short_vertflip_short_600ms.mp4	89.single_touch_with_plastic_brush_short_vertflip_short_600ms.mp4	77.03667293526814	77.64496320800572	0.6082902727375767				
11.6259765625	0.2	23810	8	52	0	0	0	8	73	stimuli\Videos_short_600ms\76.tickle_with_fingers_from_top_to_bottom_short_short_600ms.mp4	76.tickle_with_fingers_from_top_to_bottom_short_short_600ms.mp4	77.83668272965406	78.44494514411053	0.6082624144564761				
12.42578125	0.2	25448	9	52	0	0	0	9	30	stimuli\Videos_short_600ms\37.single_stab_with_nail_file_short_short_600ms.mp4	37.single_stab_with_nail_file_short_short_600ms.mp4	78.63667991449984	79.24492737345827	0.6082474589584308				
13.22607421875	0.2	27087	10	52	0	0	0	10	0	stimuli\Videos_short_600ms\1.repeated_touch_with_finger_fast_short_short_600ms.mp4	1.repeated_touch_with_finger_fast_short_short_600ms.mp4	79.43664542888109	80.0449137082378	0.6082682793567074				
14.02587890625	0.2	28725	11	52	0	0	0	11	77	stimuli\Videos_short_600ms\8.single_touch_with_hairbrush_short_short_600ms.mp4	8.single_touch_with_hairbrush_short_short_600ms.mp4	80.23656724974535	80.84489564434261	0.6083283945972653				
14.82568359375	0.2	30363	12	52	0	0	0	12	213	stimuli\Videos_short_600ms_horvertflip\4.repeated_tap_with_finger_slow_short_horvertflip_short_600ms.mp4	4.repeated_tap_with_finger_slow_short_horvertflip_short_600ms.mp4	81.03725649295848	81.6448761142201	0.6076196212616196				
15.6259765625	0.2	32002	13	52	0	0	0	13	57	stimuli\Videos_short_600ms\61.single_hit_with_rolling_pin_short_short_600ms.mp4	61.single_hit_with_rolling_pin_short_short_600ms.mp4	81.83702553314106	82.4448601030399	0.6078345698988414				
16.42578125	0.2	33640	14	52	0	0	0	14	287	stimuli\Videos_short_600ms_vertflip\25.single_touch_with_stanley_knife_short_vertflip_short_600ms.mp4	25.single_touch_with_stanley_knife_short_vertflip_short_600ms.mp4	82.63721684622396	83.24484497159392	0.6076281253699563				
17.2255859375	0.2	35278	15	52	0	0	0	15	123	stimuli\Videos_short_600ms_horflip\4.repeated_tap_with_finger_slow_short_horflip_short_600ms.mp4	4.repeated_tap_with_finger_slow_short_horflip_short_600ms.mp4	83.43663545854724	84.04482573471796	0.608190276170717				
18.02587890625	0.2	36917	16	52	0	0	0	16	232	stimuli\Videos_short_600ms_horvertflip\57.single_touch_with_nail_file_short_horvertflip_short_600ms.mp4	57.single_touch_with_nail_file_short_horvertflip_short_600ms.mp4	84.23654965504102	84.84481764115299	0.6082679861119686				
18.82568359375	0.2	38555	17	52	0	0	0	17	315	stimuli\Videos_short_600ms_vertflip\50.single_(long)hard_push_with_thumb_short_vertflip_short_600ms.mp4	50.single_(long)hard_push_with_thumb_short_vertflip_short_600ms.mp4	85.03655768995486	85.6447989907665	0.6082413008116418				
19.62548828125	0.2	40193	18	52	0	0	0	18	45	stimuli\Videos_short_600ms\50.single_(long)hard_push_with_thumb_short_short_600ms.mp4	50.single_(long)hard_push_with_thumb_short_short_600ms.mp4	85.83646514181055	86.44478444581182	0.6083193040012702				
20.42578125	0.2	41832	19	52	0	0	0	19	215	stimuli\Videos_short_600ms_horvertflip\41.injection_with_blunt_syringe_short_horvertflip_short_600ms.mp4	41.injection_with_blunt_syringe_short_horvertflip_short_600ms.mp4	86.63651452428167	87.24474086959344	0.6082263453117775				
21.2255859375	0.2	43470	20	52	0	0	0	20	298	stimuli\Videos_short_600ms_vertflip\35.single_punch_with_hand_short_vertflip_short_600ms.mp4	35.single_punch_with_hand_short_vertflip_short_600ms.mp4	87.43642285587157	88.04474978424332	0.6083269283717527				
22.025390625	0.2	45108	21	52	0	0	0	21	67	stimuli\Videos_short_600ms\70.(long)stroke_with_finger_all_over_the_hand_short_short_600ms.mp4	70.(long)stroke_with_finger_all_over_the_hand_short_short_600ms.mp4	88.23641417581712	88.84472673518212	0.6083125593650038				
22.82568359375	0.2	46747	22	52	0	0	1	22	365	stimuli\Targets_short_600ms\hand-stroke_short_short_600ms.mp4	hand-stroke_short_short_600ms.mp4	89.03639376596038	89.64471717539163	0.6083234094312502				
23.62548828125	0.2	48385	23	52	0	0	0	23	95	stimuli\Videos_short_600ms_horflip\14.repeated_touch_with_pencil_short_horflip_short_600ms.mp4	14.repeated_touch_with_pencil_short_horflip_short_600ms.mp4	89.83637188987814	90.44470526964324	0.6083333797650994				
24.42529296875	0.2	50023	24	52	0	0	0	24	79	stimuli\Videos_short_600ms\81.single_stroke_top_to_bottom_with_cotton_pad_short_short_600ms.mp4	81.single_stroke_top_to_bottom_with_cotton_pad_short_short_600ms.mp4	90.63644414546434	91.24468779223572	0.6082436467713705				
25.2255859375	0.2	51662	25	52	0	0	0	25	259	stimuli\Videos_short_600ms_horvertflip\81.single_stroke_top_to_bottom_with_cotton_pad_short_horvertflip_short_600ms.mp4	81.single_stroke_top_to_bottom_with_cotton_pad_short_horvertflip_short_600ms.mp4	91.4364105395798	92.04466503641925	0.6082544968394359				
26.025390625	0.2	53300	26	52	0	0	0	26	89	stimuli\Videos_short_600ms\90.repeated_touch_with_sponge_short_short_600ms.mp4	90.repeated_touch_with_sponge_short_short_600ms.mp4	92.23632004415047	92.84464345358174	0.6083234094312502				
26.8251953125	0.2	54938	27	52	0	0	0	27	319	stimuli\Videos_short_600ms_vertflip\54.repeated_touch_with_knife_short_vertflip_short_600ms.mp4	54.repeated_touch_with_knife_short_vertflip_short_600ms.mp4	93.036303446479	93.64462685591025	0.6083234094312502				
27.62548828125	0.2	56577	28	52	0	0	0	28	24	stimuli\Videos_short_600ms\31.hand_grabbing_wrist_short_short_600ms.mp4	31.hand_grabbing_wrist_short_short_600ms.mp4	93.83634755053754	94.4446090852598	0.60826153472226				
28.42529296875	0.2	58215	29	52	0	0	0	29	151	stimuli\Videos_short_600ms_horflip\65.stroke_top_to_bottom_with_stanley_knife_short_horflip_short_600ms.mp4	65.stroke_top_to_bottom_with_stanley_knife_short_horflip_short_600ms.mp4	94.63625148345272	95.24459160785229	0.6083401243995468				
29.2255859375	0.2	59854	30	52	0	0	0	30	212	stimuli\Videos_short_600ms_horvertflip\39.single_stab_with_scissors_short_horvertflip_short_600ms.mp4	39.single_stab_with_scissors_short_horvertflip_short_600ms.mp4	95.43625423995582	96.04458028859337	0.6083260486375366				
30.025390625	0.2	61492	31	52	0	0	0	31	280	stimuli\Videos_short_600ms_vertflip\19.single_touch_with_rolling_pin_short_vertflip_short_600ms.mp4	19.single_touch_with_rolling_pin_short_vertflip_short_600ms.mp4	96.2362352963246	96.84456369092186	0.6083283945972653				
30.8251953125	0.2	63130	32	52	0	0	0	32	275	stimuli\Videos_short_600ms_vertflip\14.repeated_touch_with_pencil_short_vertflip_short_600ms.mp4	14.repeated_touch_with_pencil_short_vertflip_short_600ms.mp4	97.0362471434255	97.64454240133092	0.6082952579054108				
31.62548828125	0.2	64769	33	52	0	0	0	33	331	stimuli\Videos_short_600ms_vertflip\65.stroke_top_to_bottom_with_stanley_knife_short_vertflip_short_600ms.mp4	65.stroke_top_to_bottom_with_stanley_knife_short_vertflip_short_600ms.mp4	97.83618216031756	98.44452521716994	0.6083430568523909				
32.42529296875	0.2	66407	34	52	0	0	0	34	314	stimuli\Videos_short_600ms_vertflip\5.repeated_tap_with_finger_moving_from_top_to_bottom_short_vertflip_short_600ms.mp4	5.repeated_tap_with_finger_moving_from_top_to_bottom_short_vertflip_short_600ms.mp4	98.6361922479482	99.24450832625372	0.6083160783055064				
33.22509765625	0.2	68045	35	52	0	0	0	35	56	stimuli\Videos_short_600ms\60.single_push_with_tip_of_pencil_short_short_600ms.mp4	60.single_push_with_tip_of_pencil_short_short_600ms.mp4	99.43619119226604	100.04449143533748	0.6083002430714259				
34.025390625	0.2	69684	36	52	0	0	1	36	367	stimuli\Targets_short_600ms_horflip\chopstick-silver-tap_short_horflip_short_600ms.mp4	chopstick-silver-tap_short_horflip_short_600ms.mp4	100.23616462426251	100.84447952958726	0.6083149053247325				
34.8251953125	0.2	71322	37	52	0	0	0	37	252	stimuli\Videos_short_600ms_horvertflip\75.(long)stroke_with_fingers_all_over_the_hand_short_horvertflip_short_600ms.mp4	75.(long)stroke_with_fingers_all_over_the_hand_short_horvertflip_short_600ms.mp4	101.03611459665444	101.64443331416442	0.6083187175099738				
35.625	0.2	72960	38	52	0	0	0	38	162	stimuli\Videos_short_600ms_horflip\75.(long)stroke_with_fingers_all_over_the_hand_short_horflip_short_600ms.mp4	75.(long)stroke_with_fingers_all_over_the_hand_short_horflip_short_600ms.mp4	101.83612321805958	102.44443724364828	0.6083140255886974				
36.42529296875	0.2	74599	39	52	0	0	0	39	53	stimuli\Videos_short_600ms\58.single_slap_with_pencil_short_short_600ms.mp4	58.single_slap_with_pencil_short_short_600ms.mp4	102.63611219204358	103.24442504465333	0.6083128526097425				
37.22509765625	0.2	76237	40	52	0	0	0	40	332	stimuli\Videos_short_600ms_vertflip\66.stroke_top_to_bottom_with_sponge_short_vertflip_short_600ms.mp4	66.stroke_top_to_bottom_with_sponge_short_vertflip_short_600ms.mp4	103.43608679702083	104.0444040483053	0.6083172512844612				
38.02490234375	0.2	77875	41	52	0	0	0	41	135	stimuli\Videos_short_600ms_horflip\50.single_(long)hard_push_with_thumb_short_horflip_short_600ms.mp4	50.single_(long)hard_push_with_thumb_short_horflip_short_600ms.mp4	104.2360740115364	104.84439302229111	0.6083190107547125				
38.8251953125	0.2	79514	42	52	0	0	0	42	233	stimuli\Videos_short_600ms_horvertflip\58.single_slap_with_pencil_short_horvertflip_short_600ms.mp4	58.single_slap_with_pencil_short_horvertflip_short_600ms.mp4	105.03625242183624	105.64437935707063	0.6081269352343952				
39.625	0.2	81152	43	52	0	0	0	43	122	stimuli\Videos_short_600ms_horflip\39.single_stab_with_scissors_short_horflip_short_600ms.mp4	39.single_stab_with_scissors_short_horflip_short_600ms.mp4	105.83608421646386	106.444367744567	0.6082835281031294				
40.4248046875	0.2	82790	44	52	0	0	1	44	364	stimuli\Targets_short_600ms\hand-pinch_short_short_600ms.mp4	hand-pinch_short_short_600ms.mp4	106.63607494991992	107.24434176305294	0.6082668131330138				
41.22509765625	0.2	84429	45	52	0	0	0	45	336	stimuli\Videos_short_600ms_vertflip\7.repeated_touch_with_hairbrush_short_vertflip_short_600ms.mp4	7.repeated_touch_with_hairbrush_short_vertflip_short_600ms.mp4	107.4363521838095	108.04432633836224	0.6079741545527213				
42.02490234375	0.2	86067	46	52	0	0	1	46	361	stimuli\Targets_short_600ms\chopstick-silver-tap_short_short_600ms.mp4	chopstick-silver-tap_short_short_600ms.mp4	108.2362388152651	108.84430622175024	0.6080674064851337				
42.82470703125	0.2	87705	47	52	0	0	0	47	83	stimuli\Videos_short_600ms\85.touch_top_to_bottom_with_fabric_short_short_600ms.mp4	85.touch_top_to_bottom_with_fabric_short_short_600ms.mp4	109.0360843924118	109.64429314302106	0.6082087506092648				
43.625	0.2	89344	48	52	0	0	0	48	96	stimuli\Videos_short_600ms_horflip\15.single_stroke_top_to_bottom_with_a_plastic_whisk_short_horflip_short_600ms.mp4	15.single_stroke_top_to_bottom_with_a_plastic_whisk_short_horflip_short_600ms.mp4	109.83598070095468	110.4442753723688	0.6082946714141144				
44.4248046875	0.2	90982	49	52	0	0	0	49	221	stimuli\Videos_short_600ms_horvertflip\47.(long)scratching_with_finger_nails_short_horvertflip_short_600ms.mp4	47.(long)scratching_with_finger_nails_short_horvertflip_short_600ms.mp4	110.635913371887	111.24425965443334	0.6083462825463357				
45.224609375	0.2	92620	50	52	0	0	1	50	380	stimuli\Targets_short_600ms_vertflip\chopstickwood-tap_short_horvertflip_short_600ms.mp4	chopstickwood-tap_short_horvertflip_short_600ms.mp4	111.43592551223264	112.04424774868312	0.6083222364504763				
46.02490234375	0.2	94259	51	52	0	0	0	51	313	stimuli\Videos_short_600ms_vertflip\49.repeated_slap_with_hand_short_vertflip_short_600ms.mp4	49.repeated_slap_with_hand_short_vertflip_short_600ms.mp4	112.23588193601428	112.84422587260087	0.608343936586607				
46.82470703125	0.2	95897	52	52	0	0	0	52	84	stimuli\Videos_short_600ms\86.touch_top_to_bottom_with_hair_brush_short_short_600ms.mp4	86.touch_top_to_bottom_with_hair_brush_short_short_600ms.mp4	113.03588586549812	113.64420780870569	0.6083219432075566				
47.62451171875	0.2	97535	53	52	0	0	0	53	21	stimuli\Videos_short_600ms\29.single_pinch_with_tweezers_short_short_600ms.mp4	29.single_pinch_with_tweezers_short_short_600ms.mp4	113.83585284610308	114.44419179752369	0.6083389514205919				
48.4248046875	0.2	99174	54	52	0	0	0	54	34	stimuli\Videos_short_600ms\40.repeated_push_with_finger_short_short_600ms.mp4	40.repeated_push_with_finger_short_short_600ms.mp4	114.6358564823422	115.24417490660744	0.6083184242652351				
49.224609375	0.2	100812	55	52	0	0	0	55	14	stimuli\Videos_short_600ms\22.single_touch_with_metal_chopstick_short_short_600ms.mp4	22.single_touch_with_metal_chopstick_short_short_600ms.mp4	115.43584428334724	116.0441586021825	0.6083143188352551				
50.02490234375	0.2	102451	56	52	0	0	0	56	64	stimuli\Videos_short_600ms\68.stroke_top_to_bottom_with_shawl_short_short_600ms.mp4	68.stroke_top_to_bottom_with_shawl_short_short_600ms.mp4	116.23600685841484	116.84413731258974	0.6081304541748977				
50.82470703125	0.2	104089	57	52	0	0	0	57	112	stimuli\Videos_short_600ms_horflip\3.single_push_with_finger_short_horflip_short_600ms.mp4	3.single_push_with_finger_short_horflip_short_600ms.mp4	117.03585390178704	117.6441306852521	0.608276783465044				
51.62451171875	0.2	105727	58	52	0	0	0	58	317	stimuli\Videos_short_600ms_vertflip\52.touch_top_to_bottom_with_hammer_short_vertflip_short_600ms.mp4	52.touch_top_to_bottom_with_hammer_short_vertflip_short_600ms.mp4	117.8358000619919	118.4441196592361	0.6083195972441899				
52.4248046875	0.2	107366	59	52	0	0	0	59	265	stimuli\Videos_short_600ms_horvertflip\87.single_stroke_top_to_bottom_with_plastic_brush_short_horvertflip_short_600ms.mp4	87.single_stroke_top_to_bottom_with_plastic_brush_short_horvertflip_short_600ms.mp4	118.63579460763322	119.24408751957708	0.6082929119438631				
53.224609375	0.2	109004	60	52	0	0	0	60	188	stimuli\Videos_short_600ms_horvertflip\17.repeated_touch_with_rolling_pin_short_horvertflip_short_600ms.mp4	17.repeated_touch_with_rolling_pin_short_horvertflip_short_600ms.mp4	119.43575367062112	120.0440764935629	0.6083228229417728				
54.0244140625	0.2	110642	61	52	0	0	0	61	249	stimuli\Videos_short_600ms_horvertflip\72.(short)stroke_with_finger_all_over_the_hand_short_horvertflip_short_600ms.mp4	72.(short)stroke_with_finger_all_over_the_hand_short_horvertflip_short_600ms.mp4	120.23573560672412	120.84406018913614	0.608324582412024				
54.82470703125	0.2	112281	62	52	0	0	0	62	65	stimuli\Videos_short_600ms\69.stroke_with_soft_sock_short_short_600ms.mp4	69.stroke_with_soft_sock_short_short_600ms.mp4	121.03572047527996	121.644052095573	0.6083316202930291				
55.62451171875	0.2	113919	63	52	0	0	0	63	160	stimuli\Videos_short_600ms_horflip\73.single_stroke_with_flat_hand_short_horflip_short_600ms.mp4	73.single_stroke_with_flat_hand_short_horflip_short_600ms.mp4	121.83570651681292	122.44402640730368	0.6083198904907476				
56.42431640625	0.2	115557	64	52	0	0	0	64	258	stimuli\Videos_short_600ms_horvertflip\80.stroke_with_sharp_stick_all_over_the_hand_short_horvertflip_short_600ms.mp4	80.stroke_with_sharp_stick_all_over_the_hand_short_horvertflip_short_600ms.mp4	122.63568874616249	123.2440083434085	0.6083195972460089				
57.224609375	0.2	117196	65	52	0	0	0	65	86	stimuli\Videos_short_600ms\88.repeated_stroke_with_plastic_brush_short_short_600ms.mp4	88.repeated_stroke_with_plastic_brush_short_short_600ms.mp4	123.43568505127404	124.04399350520724	0.6083084539332049				
58.0244140625	0.2	118834	66	52	0	0	0	66	78	stimuli\Videos_short_600ms\80.stroke_with_sharp_stick_all_over_the_hand_short_short_600ms.mp4	80.stroke_with_sharp_stick_all_over_the_hand_short_short_600ms.mp4	124.23565115214478	124.8439777872718	0.608326635127014				
58.82421875	0.2	120472	67	52	0	0	0	67	18	stimuli\Videos_short_600ms\26.single_touch_with_a_blunt_syringe_short_short_600ms.mp4	26.single_touch_with_a_blunt_syringe_short_short_600ms.mp4	125.03563748692432	125.64395796390454	0.6083204769802251				
59.62451171875	0.2	122111	68	52	0	0	0	68	291	stimuli\Videos_short_600ms_vertflip\29.single_pinch_with_tweezers_short_vertflip_short_600ms.mp4	29.single_pinch_with_tweezers_short_vertflip_short_600ms.mp4	125.83567103415952	126.4438985524539	0.6082275182943704				
60.42431640625	0.2	123749	69	52	0	0	0	69	155	stimuli\Videos_short_600ms_horflip\69.stroke_with_soft_sock_short_horflip_short_600ms.mp4	69.stroke_with_soft_sock_short_horflip_short_600ms.mp4	126.63563948099	127.2439235955826	0.6082841145926068				
61.22412109375	0.2	125387	70	52	0	0	1	70	362	stimuli\Targets_short_600ms\chopstickwood-tap_short_short_600ms.mp4	chopstickwood-tap_short_short_600ms.mp4	127.43576803962968	128.04390729115585	0.6081392515261541				
62.0244140625	0.2	127026	71	52	0	0	0	71	307	stimuli\Videos_short_600ms_vertflip\43.touch_top_to_bottom_with_sharp_wooden_stick_short_vertflip_short_600ms.mp4	43.touch_top_to_bottom_with_sharp_wooden_stick_short_vertflip_short_600ms.mp4	128.23554646365483	128.84389040024143	0.608343936586607				
62.82421875	0.2	128664	72	52	0	0	0	72	322	stimuli\Videos_short_600ms_vertflip\57.single_touch_with_nail_file_short_vertflip_short_600ms.mp4	57.single_touch_with_nail_file_short_vertflip_short_600ms.mp4	129.03555919048995	129.64387585528493	0.6083166647949838				
63.6240234375	0.2	130302	73	52	0	0	0	73	290	stimuli\Videos_short_600ms_vertflip\28.single_injection_with_sharp_needle_short_vertflip_short_600ms.mp4	28.single_injection_with_sharp_needle_short_vertflip_short_600ms.mp4	129.83556399970985	130.4438589643687	0.6082949646588531				
64.42431640625	0.2	131941	74	52	0	0	0	74	179	stimuli\Videos_short_600ms_horflip\90.repeated_touch_with_sponge_short_horflip_short_600ms.mp4	90.repeated_touch_with_sponge_short_horflip_short_600ms.mp4	130.636087852703	131.2438423666972	0.6077545139942231				
65.22412109375	0.2	133579	75	52	0	0	0	75	145	stimuli\Videos_short_600ms_horflip\6.single_touch_with_flat_hand_short_horflip_short_600ms.mp4	6.single_touch_with_flat_hand_short_horflip_short_600ms.mp4	131.4360413440354	132.0438289947233	0.6077876506878965				
66.02392578125	0.2	135217	76	52	0	0	0	76	113	stimuli\Videos_short_600ms_horflip\30.finger_pulling_back_another_finger_short_horflip_short_600ms.mp4	30.finger_pulling_back_another_finger_short_horflip_short_600ms.mp4	132.23597137576144	132.8438150362581	0.6078436604966555				
66.82421875	0.2	136856	77	52	0	0	0	77	257	stimuli\Videos_short_600ms_horvertflip\8.single_touch_with_hairbrush_short_horvertflip_short_600ms.mp4	8.single_touch_with_hairbrush_short_horvertflip_short_600ms.mp4	133.0354976090257	133.64378700202906	0.6082893930033606				
67.6240234375	0.2	138494	78	52	0	0	0	78	306	stimuli\Videos_short_600ms_vertflip\42.single_slap_with_plastic_whisk_short_vertflip_short_600ms.mp4	42.single_slap_with_plastic_whisk_short_vertflip_short_600ms.mp4	133.83545608552413	134.4437706976023	0.6083146120781748				
68.42431640625	0.2	140133	79	52	0	0	0	79	70	stimuli\Videos_short_600ms\73.single_stroke_with_flat_hand_short_short_600ms.mp4	73.single_stroke_with_flat_hand_short_short_600ms.mp4	134.63541514851204	135.24375937834338	0.6083442298313457				
69.22412109375	0.2	141771	80	52	0	0	0	80	192	stimuli\Videos_short_600ms_horvertflip\20.single_touch_with_screwdriver_short_horvertflip_short_600ms.mp4	20.single_touch_with_screwdriver_short_horvertflip_short_600ms.mp4	135.43542289018114	136.04374659285713	0.6083237026759889				
70.02392578125	0.2	143409	81	52	0	0	0	81	342	stimuli\Videos_short_600ms_vertflip\75.(long)stroke_with_fingers_all_over_the_hand_short_vertflip_short_600ms.mp4	75.(long)stroke_with_fingers_all_over_the_hand_short_vertflip_short_600ms.mp4	136.2353801936988	136.84372882220669	0.6083486285078834				
70.82421875	0.2	145048	82	52	0	0	0	82	16	stimuli\Videos_short_600ms\24.single_stroke_top_to_bottom_with_a_spoon_short_short_600ms.mp4	24.single_stroke_top_to_bottom_with_a_spoon_short_short_600ms.mp4	137.03548558597686	137.64370753261392	0.6082219466370589				
71.6240234375	0.2	146686	83	52	0	0	0	83	309	stimuli\Videos_short_600ms_vertflip\45.scratching_with_finger_nails_short_vertflip_short_600ms.mp4	45.scratching_with_finger_nails_short_vertflip_short_600ms.mp4	137.83536811200247	138.44370471746151	0.6083366054590442				
72.423828125	0.2	148324	84	52	0	0	0	84	278	stimuli\Videos_short_600ms_vertflip\17.repeated_touch_with_rolling_pin_short_vertflip_short_600ms.mp4	17.repeated_touch_with_rolling_pin_short_vertflip_short_600ms.mp4	138.63539843354192	139.24367902919403	0.6082805956521042				
73.22412109375	0.2	149963	85	52	0	0	0	85	350	stimuli\Videos_short_600ms_vertflip\82.repeated_touch_with_cotton_bud_short_vertflip_short_600ms.mp4	82.repeated_touch_with_cotton_bud_short_vertflip_short_600ms.mp4	139.435336382885	140.04365715311178	0.6083207702267828				
74.02392578125	0.2	151601	86	52	0	0	1	86	373	stimuli\Targets_short_600ms_horvertflip\chopstick-silver-tap_short_vertflip_short_600ms.mp4	chopstick-silver-tap_short_vertflip_short_600ms.mp4	140.2353189054793	140.84364172842106	0.6083228229417728				
74.82373046875	0.2	153239	87	52	0	0	0	87	126	stimuli\Videos_short_600ms_horflip\42.single_slap_with_plastic_whisk_short_horflip_short_600ms.mp4	42.single_slap_with_plastic_whisk_short_horflip_short_600ms.mp4	141.03530465376934	141.6436260104856	0.6083213567162602				
75.6240234375	0.2	154878	88	52	0	0	0	88	227	stimuli\Videos_short_600ms_horvertflip\52.touch_top_to_bottom_with_hammer_short_horvertflip_short_600ms.mp4	52.touch_top_to_bottom_with_hammer_short_horvertflip_short_600ms.mp4	141.83526723569776	142.44360911956937	0.608341883871617				
76.423828125	0.2	156516	89	52	0	0	0	89	101	stimuli\Videos_short_600ms_horflip\2.single_touch_with_finger_short_horflip_short_600ms.mp4	2.single_touch_with_finger_short_horflip_short_600ms.mp4	142.63525327723255	143.2435913489171	0.6083380716845568				
77.2236328125	0.2	158154	90	52	0	0	0	90	22	stimuli\Videos_short_600ms\3.single_push_with_finger_short_short_600ms.mp4	3.single_push_with_finger_short_short_600ms.mp4	143.435281546057	144.04357621747295	0.6082946714159334				
78.02392578125	0.2	159793	91	52	0	0	0	91	99	stimuli\Videos_short_600ms_horflip\18.single_stroke_from_top_to_bottom_with_rolling_pin_short_horflip_short_600ms.mp4	18.single_stroke_from_top_to_bottom_with_rolling_pin_short_horflip_short_600ms.mp4	144.23523884957467	144.84356167251644	0.6083228229417728				
78.82373046875	0.2	161431	92	52	0	0	0	92	237	stimuli\Videos_short_600ms_horvertflip\61.single_hit_with_rolling_pin_short_horvertflip_short_600ms.mp4	61.single_hit_with_rolling_pin_short_horvertflip_short_600ms.mp4	145.0355081658472	145.64354155590445	0.6080333900572441				
79.6318359375	0.2	163086	93	52	0	0	0	93	341	stimuli\Videos_short_600ms_vertflip\74.fingers_walking_from_top_to_bottom_short_vertflip_short_600ms.mp4	74.fingers_walking_from_top_to_bottom_short_vertflip_short_600ms.mp4	145.84353997238213	146.45185693042183	0.6083169580397225				
80.43212890625	0.2	164725	94	52	0	0	0	94	245	stimuli\Videos_short_600ms_horvertflip\69.stroke_with_soft_sock_short_horvertflip_short_600ms.mp4	69.stroke_with_soft_sock_short_horvertflip_short_600ms.mp4	146.6434987421253	147.25184649089715	0.6083477487718483				
81.23193359375	0.2	166363	95	52	0	0	0	95	220	stimuli\Videos_short_600ms_horvertflip\46.scratching_top_to_bottom_with_finger_nails_short_horvertflip_short_600ms.mp4	46.scratching_top_to_bottom_with_finger_nails_short_horvertflip_short_600ms.mp4	147.44348595663905	148.05182725401937	0.6083412973803206				
82.03173828125	0.2	168001	96	52	0	0	0	96	318	stimuli\Videos_short_600ms_vertflip\53.touch_top_to_bottom_with_knife_short_vertflip_short_600ms.mp4	53.touch_top_to_bottom_with_knife_short_vertflip_short_600ms.mp4	148.2434661332718	148.85180948336892	0.6083433500971296				
82.83203125	0.2	169640	97	52	0	0	0	97	333	stimuli\Videos_short_600ms_vertflip\67.single_touch_with_sponge_short_vertflip_short_600ms.mp4	67.single_touch_with_sponge_short_vertflip_short_600ms.mp4	149.04344836262135	149.65179435192294	0.608345989301597				
83.6318359375	0.2	171278	98	52	0	0	0	98	139	stimuli\Videos_short_600ms_horflip\54.repeated_touch_with_knife_short_horflip_short_600ms.mp4	54.repeated_touch_with_knife_short_horflip_short_600ms.mp4	149.8434279527646	150.4517774610067	0.6083495082420995	9.0	7.0	3.887463392018617	0.0
119.92236328125	0.2	245601	99	52	1	0	0	0	161	stimuli\Videos_short_600ms_horflip\74.fingers_walking_from_top_to_bottom_short_horflip_short_600ms.mp4	74.fingers_walking_from_top_to_bottom_short_horflip_short_600ms.mp4	186.13451591250305	186.74268683449736	0.608170921994315				
120.72216796875	0.2	247239	100	52	1	0	0	1	109	stimuli\Videos_short_600ms_horflip\27.single_push_with_a_plastic_whisk_short_horflip_short_600ms.mp4	27.single_push_with_a_plastic_whisk_short_horflip_short_600ms.mp4	186.93476294214997	187.54266935709165	0.6079064149416809				
121.5224609375	0.2	248878	101	52	1	0	0	2	136	stimuli\Videos_short_600ms_horflip\51.repeated_touch_with_hammer_short_horflip_short_600ms.mp4	51.repeated_touch_with_hammer_short_horflip_short_600ms.mp4	187.73433932032097	188.34265334591143	0.6083140255905164				
122.322265625	0.2	250516	102	52	1	0	0	3	163	stimuli\Videos_short_600ms_horflip\76.tickle_with_fingers_from_top_to_bottom_short_horflip_short_600ms.mp4	76.tickle_with_fingers_from_top_to_bottom_short_horflip_short_600ms.mp4	188.5344502842563	189.14263880095496	0.6081885166986467				
123.1220703125	0.2	252154	103	52	1	0	0	4	118	stimuli\Videos_short_600ms_horflip\35.single_punch_with_hand_short_horflip_short_600ms.mp4	35.single_punch_with_hand_short_horflip_short_600ms.mp4	189.33470787072656	189.94262249653	0.6079146258034598				
123.92236328125	0.2	253793	104	52	1	0	0	5	351	stimuli\Videos_short_600ms_vertflip\83.single_stroke_top_to_bottom_with_cotton_bud_short_vertflip_short_600ms.mp4	83.single_stroke_top_to_bottom_with_cotton_bud_short_vertflip_short_600ms.mp4	190.13426196227192	190.7426020866733	0.6083401244013658				
124.72216796875	0.2	255431	105	52	1	0	0	6	310	stimuli\Videos_short_600ms_vertflip\46.scratching_top_to_bottom_with_finger_nails_short_vertflip_short_600ms.mp4	46.scratching_top_to_bottom_with_finger_nails_short_vertflip_short_600ms.mp4	190.93426237281528	191.5425904741678	0.6083281013525266				
125.5224609375	0.2	257070	106	52	1	0	0	7	210	stimuli\Videos_short_600ms_horvertflip\37.single_stab_with_nail_file_short_horvertflip_short_600ms.mp4	37.single_stab_with_nail_file_short_horvertflip_short_600ms.mp4	191.7345440053814	192.34257006431108	0.6080260589296813				
126.322265625	0.2	258708	107	52	1	0	0	8	195	stimuli\Videos_short_600ms_horvertflip\23.single_push_with_a_spoon_short_horvertflip_short_600ms.mp4	23.single_push_with_a_spoon_short_horvertflip_short_600ms.mp4	192.53425732899996	193.14255317339484	0.6082958443948883				
127.1220703125	0.2	260346	108	52	1	0	0	9	63	stimuli\Videos_short_600ms\67.single_touch_with_sponge_short_short_600ms.mp4	67.single_touch_with_sponge_short_short_600ms.mp4	193.33422401636017	193.94253364327233	0.6083096269121597				
127.92236328125	0.2	261985	109	52	1	0	0	10	23	stimuli\Videos_short_600ms\30.finger_pulling_back_another_finger_short_short_600ms.mp4	30.finger_pulling_back_another_finger_short_short_600ms.mp4	194.13419803484612	194.74249622520256	0.608298190356436				
128.72216796875	0.2	263623	110	52	1	0	0	11	117	stimuli\Videos_short_600ms_horflip\34.repeated_punch_with_hand_short_horflip_short_600ms.mp4	34.repeated_punch_with_hand_short_horflip_short_600ms.mp4	194.93419404671295	195.54251423045025	0.6083201837373053				
129.52197265625	0.2	265261	111	52	1	0	0	12	260	stimuli\Videos_short_600ms_horvertflip\82.repeated_touch_with_cotton_bud_short_horvertflip_short_600ms.mp4	82.repeated_touch_with_cotton_bud_short_horvertflip_short_600ms.mp4	195.7341416731433	196.3424832637702	0.6083415906268783				
130.322265625	0.2	266900	112	52	1	0	0	13	281	stimuli\Videos_short_600ms_vertflip\2.single_touch_with_finger_short_vertflip_short_600ms.mp4	2.single_touch_with_finger_short_vertflip_short_600ms.mp4	196.534150587795	197.14247194450945	0.6083213567144412				
131.1220703125	0.2	268538	113	52	1	0	0	14	133	stimuli\Videos_short_600ms_horflip\49.repeated_slap_with_hand_short_horflip_short_600ms.mp4	49.repeated_slap_with_hand_short_horflip_short_600ms.mp4	197.33413017793828	197.94245651981873	0.6083263418804563				
131.921875	0.2	270176	114	52	1	0	0	15	235	stimuli\Videos_short_600ms_horvertflip\6.single_touch_with_flat_hand_short_horvertflip_short_600ms.mp4	6.single_touch_with_flat_hand_short_horvertflip_short_600ms.mp4	198.1341150464923	198.74245018572583	0.6083351392335317				
132.72216796875	0.2	271815	115	52	1	0	0	16	74	stimuli\Videos_short_600ms\77.tapping_with_all_fingers_short_short_600ms.mp4	77.tapping_with_all_fingers_short_short_600ms.mp4	198.93444447800357	199.54241921904577	0.6079747410421987				
133.52197265625	0.2	273453	116	52	1	0	0	17	269	stimuli\Videos_short_600ms_horvertflip\90.repeated_touch_with_sponge_short_horvertflip_short_600ms.mp4	90.repeated_touch_with_sponge_short_horvertflip_short_600ms.mp4	199.7341164540685	200.3424131781976	0.6082967241291044				
134.32177734375	0.2	275091	117	52	1	0	0	18	304	stimuli\Videos_short_600ms_vertflip\40.repeated_push_with_finger_short_vertflip_short_600ms.mp4	40.repeated_push_with_finger_short_vertflip_short_600ms.mp4	200.5340643737436	201.14238924940037	0.6083248756567627				
135.1220703125	0.2	276730	118	52	1	0	0	19	211	stimuli\Videos_short_600ms_horvertflip\38.double_slap_with_pencil_short_horvertflip_short_600ms.mp4	38.double_slap_with_pencil_short_horvertflip_short_600ms.mp4	201.33402314348675	201.94237059901388	0.6083474555271096				
135.921875	0.2	278368	119	52	1	0	0	20	12	stimuli\Videos_short_600ms\20.single_touch_with_screwdriver_short_short_600ms.mp4	20.single_touch_with_screwdriver_short_short_600ms.mp4	202.13403205813665	202.74235253511688	0.6083204769802251				
136.7216796875	0.2	280006	120	52	1	0	0	21	141	stimuli\Videos_short_600ms_horflip\56.repeated_touch_with_nail_file_short_horflip_short_600ms.mp4	56.repeated_touch_with_nail_file_short_horflip_short_600ms.mp4	202.9340142874862	203.54233711042616	0.6083228229399538				
137.52197265625	0.2	281645	121	52	1	0	0	22	127	stimuli\Videos_short_600ms_horflip\43.touch_top_to_bottom_with_sharp_wooden_stick_short_horflip_short_600ms.mp4	43.touch_top_to_bottom_with_sharp_wooden_stick_short_horflip_short_600ms.mp4	203.73399446411895	204.342321978982	0.6083275148630491				
138.32177734375	0.2	283283	122	52	1	0	0	23	206	stimuli\Videos_short_600ms_horvertflip\33.scratch_top_to_bottom_with_scissors_short_horvertflip_short_600ms.mp4	33.scratch_top_to_bottom_with_scissors_short_horvertflip_short_600ms.mp4	204.53397669346668	205.14230626104472	0.6083295675780391				
139.12158203125	0.2	284921	123	52	1	0	0	24	308	stimuli\Videos_short_600ms_vertflip\44.pushing_top_to_bottom_with_finger_short_vertflip_short_600ms.mp4	44.pushing_top_to_bottom_with_finger_short_vertflip_short_600ms.mp4	205.33396742692275	205.94228761065824	0.6083201837354864				
139.921875	0.2	286560	124	52	1	0	0	25	296	stimuli\Videos_short_600ms_vertflip\33.scratch_top_to_bottom_with_scissors_short_vertflip_short_600ms.mp4	33.scratch_top_to_bottom_with_scissors_short_vertflip_short_600ms.mp4	206.13488657427297	206.742270719742	0.607384145469041				
140.7216796875	0.2	288198	125	52	1	0	0	26	302	stimuli\Videos_short_600ms_vertflip\39.single_stab_with_scissors_short_vertflip_short_600ms.mp4	39.single_stab_with_scissors_short_vertflip_short_600ms.mp4	206.93487789421852	207.54225294909156	0.6073750548730459				
141.521484375	0.2	289836	126	52	1	0	1	27	372	stimuli\Targets_short_600ms_horvertflip\brush-stroke_short_vertflip_short_600ms.mp4	brush-stroke_short_vertflip_short_600ms.mp4	207.7340707078365	208.34222374188175	0.6081530340452446				
142.32177734375	0.2	291475	127	52	1	0	0	28	243	stimuli\Videos_short_600ms_horvertflip\67.single_touch_with_sponge_short_horvertflip_short_600ms.mp4	67.single_touch_with_sponge_short_horvertflip_short_600ms.mp4	208.5339036754449	209.1422226861996	0.6083190107547125				
143.12158203125	0.2	293113	128	52	1	0	0	29	270	stimuli\Videos_short_600ms_vertflip\1.repeated_touch_with_finger_fast_short_vertflip_short_600ms.mp4	1.repeated_touch_with_finger_fast_short_vertflip_short_600ms.mp4	209.33388267909868	209.94220755475544	0.6083248756567627				
143.921875	0.2	294752	129	52	1	0	0	30	49	stimuli\Videos_short_600ms\54.repeated_touch_with_knife_short_short_600ms.mp4	54.repeated_touch_with_knife_short_short_600ms.mp4	210.13387282606345	210.74216368529233	0.6082908592288732				
144.7216796875	0.2	296390	130	52	1	0	0	31	262	stimuli\Videos_short_600ms_horvertflip\84.single_touch_with_cotton_bud_short_horvertflip_short_600ms.mp4	84.single_touch_with_cotton_bud_short_horvertflip_short_600ms.mp4	210.93391927608351	211.54216438908043	0.6082451129968831				
145.521484375	0.2	298028	131	52	1	0	0	32	335	stimuli\Videos_short_600ms_vertflip\69.stroke_with_soft_sock_short_vertflip_short_600ms.mp4	69.stroke_with_soft_sock_short_vertflip_short_600ms.mp4	211.73383112661395	212.34215629551545	0.6083251689015015				
146.32177734375	0.2	299667	132	52	1	0	0	33	172	stimuli\Videos_short_600ms_horflip\84.single_touch_with_cotton_bud_short_horflip_short_600ms.mp4	84.single_touch_with_cotton_bud_short_horflip_short_600ms.mp4	212.5338127694722	213.14214438976703	0.6083316202948481				
147.12158203125	0.2	301305	133	52	1	0	0	34	230	stimuli\Videos_short_600ms_horvertflip\55.touch_top_to_bottom_with_nail_file_short_horvertflip_short_600ms.mp4	55.touch_top_to_bottom_with_nail_file_short_horvertflip_short_600ms.mp4	213.3338252030644	213.94213101779133	0.6083058147269185				
147.92138671875	0.2	302943	134	52	1	0	0	35	323	stimuli\Videos_short_600ms_vertflip\58.single_slap_with_pencil_short_vertflip_short_600ms.mp4	58.single_slap_with_pencil_short_vertflip_short_600ms.mp4	214.1337813336013	214.74210532952384	0.6083239959225466				
148.7216796875	0.2	304582	135	52	1	0	0	36	158	stimuli\Videos_short_600ms_horflip\71.single_stroke_with_finger_top_to_bottom_short_horflip_short_600ms.mp4	71.single_stroke_with_finger_top_to_bottom_short_horflip_short_600ms.mp4	214.9337632697043	215.54208902509708	0.6083257553927979				
149.521484375	0.2	306220	136	52	1	0	0	37	326	stimuli\Videos_short_600ms_vertflip\60.single_push_with_tip_of_pencil_short_vertflip_short_600ms.mp4	60.single_push_with_tip_of_pencil_short_vertflip_short_600ms.mp4	215.73375019097512	216.3420738936511	0.6083237026759889				
150.3212890625	0.2	307858	137	52	1	0	0	38	334	stimuli\Videos_short_600ms_vertflip\68.stroke_top_to_bottom_with_shawl_short_vertflip_short_600ms.mp4	68.stroke_top_to_bottom_with_shawl_short_vertflip_short_600ms.mp4	216.5337060282673	217.1420543635304	0.6083483352631447				
151.12158203125	0.2	309497	138	52	1	0	0	39	152	stimuli\Videos_short_600ms_horflip\66.stroke_top_to_bottom_with_sponge_short_horflip_short_600ms.mp4	66.stroke_top_to_bottom_with_sponge_short_horflip_short_600ms.mp4	217.33372491324917	217.9420398185739	0.6083149053247325				
151.92138671875	0.2	311135	139	52	1	0	0	40	311	stimuli\Videos_short_600ms_vertflip\47.(long)scratching_with_finger_nails_short_vertflip_short_600ms.mp4	47.(long)scratching_with_finger_nails_short_vertflip_short_600ms.mp4	218.1337306022051	218.74201911547243	0.6082885132673255				
152.72119140625	0.2	312773	140	52	1	0	0	41	330	stimuli\Videos_short_600ms_vertflip\64.repeated_touch_with_screwdriver_short_vertflip_short_600ms.mp4	64.repeated_touch_with_screwdriver_short_vertflip_short_600ms.mp4	218.93371195181865	219.54200310429223	0.6082911524736119				
153.521484375	0.2	314412	141	52	1	0	0	42	165	stimuli\Videos_short_600ms_horflip\78.single_stroke_top_to_bottom_with_soft_brush_short_horflip_short_600ms.mp4	78.single_stroke_top_to_bottom_with_soft_brush_short_horflip_short_600ms.mp4	219.733671601296	220.34198767960152	0.6083160783055064				
154.3212890625	0.2	316050	142	52	1	0	0	43	205	stimuli\Videos_short_600ms_horvertflip\32.single_(long)pinch_with_fingers_short_horvertflip_short_600ms.mp4	32.single_(long)pinch_with_fingers_short_horvertflip_short_600ms.mp4	220.53368022270115	221.14197049544055	0.6082902727393957				
155.12109375	0.2	317688	143	52	1	0	0	44	295	stimuli\Videos_short_600ms_vertflip\32.single_(long)pinch_with_fingers_short_vertflip_short_600ms.mp4	32.single_(long)pinch_with_fingers_short_vertflip_short_600ms.mp4	221.3336082017122	221.94195653697352	0.6083483352613257				
155.92138671875	0.2	319327	144	52	1	0	0	45	125	stimuli\Videos_short_600ms_horflip\41.injection_with_blunt_syringe_short_horflip_short_600ms.mp4	41.injection_with_blunt_syringe_short_horflip_short_600ms.mp4	222.13359219053015	222.7419381798336	0.608345989303416				
156.72119140625	0.2	320965	145	52	1	0	1	46	377	stimuli\Targets_short_600ms_horvertflip\hand-stroke_short_vertflip_short_600ms.mp4	hand-stroke_short_vertflip_short_600ms.mp4	222.93357823206497	223.54191718348557	0.6083389514205919				
157.52099609375	0.2	322603	146	52	1	0	0	47	197	stimuli\Videos_short_600ms_horvertflip\25.single_touch_with_stanley_knife_short_horvertflip_short_600ms.mp4	25.single_touch_with_stanley_knife_short_horvertflip_short_600ms.mp4	223.73358480075512	224.3419041047564	0.6083193040012702				
158.3212890625	0.2	324242	147	52	1	0	0	48	358	stimuli\Videos_short_600ms_vertflip\9.single_touch_with_hammer_short_vertflip_short_600ms.mp4	9.single_touch_with_hammer_short_vertflip_short_600ms.mp4	224.53356351116236	225.14188838681912	0.6083248756567627				
159.12109375	0.2	325880	148	52	1	0	0	49	142	stimuli\Videos_short_600ms_horflip\57.single_touch_with_nail_file_short_horflip_short_600ms.mp4	57.single_touch_with_nail_file_short_horflip_short_600ms.mp4	225.3335662676673	225.9418638715324	0.6082976038651395				
159.9208984375	0.2	327518	149	52	1	0	0	50	182	stimuli\Videos_short_600ms_horvertflip\11.single_touch_with_lighter_short_horvertflip_short_600ms.mp4	11.single_touch_with_lighter_short_horvertflip_short_600ms.mp4	226.1337681375735	226.7418595901545	0.6080914525809931				
160.72119140625	0.2	329157	150	52	1	0	0	51	52	stimuli\Videos_short_600ms\57.single_touch_with_nail_file_short_short_600ms.mp4	57.single_touch_with_nail_file_short_short_600ms.mp4	226.93351547761995	227.54184181950225	0.6083263418822753				
161.52099609375	0.2	330795	151	52	1	0	0	52	69	stimuli\Videos_short_600ms\72.(short)stroke_with_finger_all_over_the_hand_short_short_600ms.mp4	72.(short)stroke_with_finger_all_over_the_hand_short_short_600ms.mp4	227.73349682723347	228.34182258262624	0.6083257553927979				
162.3212890625	0.2	332434	152	52	1	0	0	53	190	stimuli\Videos_short_600ms_horvertflip\19.single_touch_with_rolling_pin_short_horvertflip_short_600ms.mp4	19.single_touch_with_rolling_pin_short_horvertflip_short_600ms.mp4	228.5334802295638	229.14181126336553	0.6083310338017327				
163.12109375	0.2	334072	153	52	1	0	0	54	82	stimuli\Videos_short_600ms\84.single_touch_with_cotton_bud_short_short_600ms.mp4	84.single_touch_with_cotton_bud_short_short_600ms.mp4	229.33346392513704	229.94178704132355	0.6083231161865115				
163.9208984375	0.2	335710	154	52	1	0	0	55	154	stimuli\Videos_short_600ms_horflip\68.stroke_top_to_bottom_with_shawl_short_horflip_short_600ms.mp4	68.stroke_top_to_bottom_with_shawl_short_horflip_short_600ms.mp4	230.13350626972533	230.74178217345616	0.6082759037308278				
164.72119140625	0.2	337349	155	52	1	0	1	56	382	stimuli\Targets_short_600ms_vertflip\hand-pinch_short_horvertflip_short_600ms.mp4	hand-pinch_short_horvertflip_short_600ms.mp4	230.93344803125365	231.54175208651031	0.6083040552566672				
165.52099609375	0.2	338987	156	52	1	0	0	57	353	stimuli\Videos_short_600ms_vertflip\85.touch_top_to_bottom_with_fabric_short_vertflip_short_600ms.mp4	85.touch_top_to_bottom_with_fabric_short_vertflip_short_600ms.mp4	231.73347600683337	232.34173783480037	0.6082618279669987				
166.32080078125	0.2	340625	157	52	1	0	0	58	264	stimuli\Videos_short_600ms_horvertflip\86.touch_top_to_bottom_with_hair_brush_short_horvertflip_short_600ms.mp4	86.touch_top_to_bottom_with_hair_brush_short_horvertflip_short_600ms.mp4	232.5335382920875	233.14172006414992	0.6081817720623803				
167.12109375	0.2	342264	158	52	1	0	0	59	90	stimuli\Videos_short_600ms_horflip\1.repeated_touch_with_finger_fast_short_horflip_short_600ms.mp4	1.repeated_touch_with_finger_fast_short_horflip_short_600ms.mp4	233.33337859082167	233.9417043462145	0.6083257553927979				
167.9208984375	0.2	343902	159	52	1	0	0	60	51	stimuli\Videos_short_600ms\56.repeated_touch_with_nail_file_short_short_600ms.mp4	56.repeated_touch_with_nail_file_short_short_600ms.mp4	234.1333763621587	234.7416880417877	0.6083116796289687				
168.720703125	0.2	345540	160	52	1	0	0	61	352	stimuli\Videos_short_600ms_vertflip\84.single_touch_with_cotton_bud_short_vertflip_short_600ms.mp4	84.single_touch_with_cotton_bud_short_vertflip_short_600ms.mp4	234.93333043998064	235.54166880491175	0.6083383649311145				
169.52099609375	0.2	347179	161	52	1	0	0	62	337	stimuli\Videos_short_600ms_vertflip\70.(long)stroke_with_finger_all_over_the_hand_short_vertflip_short_600ms.mp4	70.(long)stroke_with_finger_all_over_the_hand_short_vertflip_short_600ms.mp4	235.73333173026003	236.34165367346577	0.6083219432057376				
170.32080078125	0.2	348817	162	52	1	0	0	63	239	stimuli\Videos_short_600ms_horvertflip\63.stroke_top_to_bottom_with_screwdriver_short_horvertflip_short_600ms.mp4	63.stroke_top_to_bottom_with_screwdriver_short_horvertflip_short_600ms.mp4	236.53338316544432	237.14163560956877	0.6082524441244459				
171.12060546875	0.2	350455	163	52	1	0	0	64	297	stimuli\Videos_short_600ms_vertflip\34.repeated_punch_with_hand_short_vertflip_short_600ms.mp4	34.repeated_punch_with_hand_short_vertflip_short_600ms.mp4	237.33327712802748	237.9416184254078	0.6083412973803206				
171.9208984375	0.2	352094	164	52	1	0	0	65	343	stimuli\Videos_short_600ms_vertflip\76.tickle_with_fingers_from_top_to_bottom_short_vertflip_short_600ms.mp4	76.tickle_with_fingers_from_top_to_bottom_short_vertflip_short_600ms.mp4	238.13328662916683	238.7416024142276	0.6083157850607677				
172.720703125	0.2	353732	165	52	1	0	0	66	54	stimuli\Videos_short_600ms\59.single_push_with_long_side_pencil_short_short_600ms.mp4	59.single_push_with_long_side_pencil_short_short_600ms.mp4	238.93324363943975	239.5415822976156	0.6083386581758532				
173.5205078125	0.2	355370	166	52	1	0	0	67	234	stimuli\Videos_short_600ms_horvertflip\59.single_push_with_long_side_pencil_short_horvertflip_short_600ms.mp4	59.single_push_with_long_side_pencil_short_horvertflip_short_600ms.mp4	239.73325548654063	240.34157655001215	0.6083210634715215				
174.32080078125	0.2	357009	167	52	1	0	1	68	376	stimuli\Targets_short_600ms_horvertflip\hand-pinch_short_vertflip_short_600ms.mp4	hand-pinch_short_vertflip_short_600ms.mp4	240.53322891853713	241.14155262121497	0.6083237026778079				
175.12060546875	0.2	358647	168	52	1	0	0	69	93	stimuli\Videos_short_600ms_horflip\12.repeated_touch_with_nail_file_short_horflip_short_600ms.mp4	12.repeated_touch_with_nail_file_short_horflip_short_600ms.mp4	241.33358562184185	241.94154658036496	0.6079609585231083				
175.92041015625	0.2	360285	169	52	1	0	1	70	378	stimuli\Targets_short_600ms_vertflip\brush-stroke_short_horvertflip_short_600ms.mp4	brush-stroke_short_horvertflip_short_600ms.mp4	242.13319982862595	242.74151883938248	0.6083190107565315				
176.720703125	0.2	361924	170	52	1	0	0	71	9	stimuli\Videos_short_600ms\18.single_stroke_from_top_to_bottom_with_rolling_pin_short_short_600ms.mp4	18.single_stroke_from_top_to_bottom_with_rolling_pin_short_short_600ms.mp4	242.93318088499473	243.54150546740675	0.608324582412024				
177.5205078125	0.2	363562	171	52	1	0	0	72	204	stimuli\Videos_short_600ms_horvertflip\31.hand_grabbing_wrist_short_horvertflip_short_600ms.mp4	31.hand_grabbing_wrist_short_horvertflip_short_600ms.mp4	243.73325607303195	244.34148593728605	0.6082298642540991				
178.3203125	0.2	365200	172	52	1	0	0	73	339	stimuli\Videos_short_600ms_vertflip\72.(short)stroke_with_finger_all_over_the_hand_short_vertflip_short_600ms.mp4	72.(short)stroke_with_finger_all_over_the_hand_short_vertflip_short_600ms.mp4	244.5332042859518	245.1414702193488	0.6082659333969787				
179.12060546875	0.2	366839	173	52	1	0	1	74	369	stimuli\Targets_short_600ms_horflip\finger-tap_short_horflip_short_600ms.mp4	finger-tap_short_horflip_short_600ms.mp4	245.3331507394014	245.94145420816855	0.6083034687671898				
179.92041015625	0.2	368477	174	52	1	0	0	75	203	stimuli\Videos_short_600ms_horvertflip\30.finger_pulling_back_another_finger_short_horvertflip_short_600ms.mp4	30.finger_pulling_back_another_finger_short_horvertflip_short_600ms.mp4	246.1331106821253	246.7414355577821	0.6083248756567627				
180.72021484375	0.2	370115	175	52	1	0	0	76	266	stimuli\Videos_short_600ms_horvertflip\88.repeated_stroke_with_plastic_brush_short_horvertflip_short_600ms.mp4	88.repeated_stroke_with_plastic_brush_short_horvertflip_short_600ms.mp4	246.93309555067935	247.54141485468065	0.6083193040012702				
181.5205078125	0.2	371754	176	52	1	0	0	77	132	stimuli\Videos_short_600ms_horflip\48.single_slap_with_hand_short_horflip_short_600ms.mp4	48.single_slap_with_hand_short_horflip_short_600ms.mp4	247.7330771935376	248.34140206919437	0.6083248756567627				
182.3203125	0.2	373392	177	52	1	0	0	78	80	stimuli\Videos_short_600ms\82.repeated_touch_with_cotton_bud_short_short_600ms.mp4	82.repeated_touch_with_cotton_bud_short_short_600ms.mp4	248.53319636833476	249.1413884039739	0.6081920356391493				
183.12060546875	0.2	375031	178	52	1	0	0	79	106	stimuli\Videos_short_600ms_horflip\24.single_stroke_top_to_bottom_with_a_spoon_short_horflip_short_600ms.mp4	24.single_stroke_top_to_bottom_with_a_spoon_short_horflip_short_600ms.mp4	249.33310440668177	249.941370046834	0.6082656401522399				
183.92041015625	0.2	376669	179	52	1	0	0	80	60	stimuli\Videos_short_600ms\64.repeated_touch_with_screwdriver_short_short_600ms.mp4	64.repeated_touch_with_screwdriver_short_short_600ms.mp4	250.13303355867177	250.74135168969224	0.6083181310204964				
184.72021484375	0.2	378307	180	52	1	0	0	81	189	stimuli\Videos_short_600ms_horvertflip\18.single_stroke_from_top_to_bottom_with_rolling_pin_short_horvertflip_short_600ms.mp4	18.single_stroke_from_top_to_bottom_with_rolling_pin_short_horvertflip_short_600ms.mp4	250.9331181305497	251.54131573784616	0.6081976072964608				
185.5205078125	0.2	379946	181	52	1	0	0	82	174	stimuli\Videos_short_600ms_horflip\86.touch_top_to_bottom_with_hair_brush_short_horflip_short_600ms.mp4	86.touch_top_to_bottom_with_hair_brush_short_horflip_short_600ms.mp4	251.73329390164508	252.3413202538195	0.60802635217442				
186.3203125	0.2	381584	182	52	1	0	0	83	185	stimuli\Videos_short_600ms_horvertflip\14.repeated_touch_with_pencil_short_horvertflip_short_600ms.mp4	14.repeated_touch_with_pencil_short_horvertflip_short_600ms.mp4	252.53297731426755	253.1413033629051	0.6083260486375366				
187.1201171875	0.2	383222	183	52	1	0	0	84	193	stimuli\Videos_short_600ms_horvertflip\21.repeated_touch_with_metal_chopstick_short_horvertflip_short_600ms.mp4	21.repeated_touch_with_metal_chopstick_short_horvertflip_short_600ms.mp4	253.3329742058704	253.94128588549756	0.6083116796271497				
187.92041015625	0.2	384861	184	52	1	0	0	85	231	stimuli\Videos_short_600ms_horvertflip\56.repeated_touch_with_nail_file_short_horvertflip_short_600ms.mp4	56.repeated_touch_with_nail_file_short_horvertflip_short_600ms.mp4	254.1329561419734	254.74126958107263	0.60831343909922				
188.72021484375	0.2	386499	185	52	1	0	1	86	371	stimuli\Targets_short_600ms_horflip\hand-stroke_short_horflip_short_600ms.mp4	hand-stroke_short_horflip_short_600ms.mp4	254.93294599569344	255.5412523969117	0.6083064012182149				
189.52001953125	0.2	388137	186	52	1	0	0	87	279	stimuli\Videos_short_600ms_vertflip\18.single_stroke_from_top_to_bottom_with_rolling_pin_short_vertflip_short_600ms.mp4	18.single_stroke_from_top_to_bottom_with_rolling_pin_short_vertflip_short_600ms.mp4	255.73291151007288	256.34123169380837	0.6083201837354864				
190.3203125	0.2	389776	187	52	1	0	0	88	36	stimuli\Videos_short_600ms\42.single_slap_with_plastic_whisk_short_short_600ms.mp4	42.single_slap_with_plastic_whisk_short_short_600ms.mp4	256.5328934461777	257.14121187044293	0.6083184242652351				
191.1201171875	0.2	391414	188	52	1	0	0	89	71	stimuli\Videos_short_600ms\74.fingers_walking_from_top_to_bottom_short_short_600ms.mp4	74.fingers_walking_from_top_to_bottom_short_short_600ms.mp4	257.33285221592087	257.941199671448	0.6083474555271096				
191.919921875	0.2	393052	189	52	1	0	0	90	229	stimuli\Videos_short_600ms_horvertflip\54.repeated_touch_with_knife_short_horvertflip_short_600ms.mp4	54.repeated_touch_with_knife_short_horvertflip_short_600ms.mp4	258.1328356182494	258.741187472453	0.6083518542036472				
192.72021484375	0.2	394691	190	52	1	0	0	91	236	stimuli\Videos_short_600ms_horvertflip\60.single_push_with_tip_of_pencil_short_horvertflip_short_600ms.mp4	60.single_push_with_tip_of_pencil_short_horvertflip_short_600ms.mp4	258.9328219530289	259.54116970180075	0.6083477487718483				
193.52001953125	0.2	396329	191	52	1	0	0	92	255	stimuli\Videos_short_600ms_horvertflip\78.single_stroke_top_to_bottom_with_soft_brush_short_horvertflip_short_600ms.mp4	78.single_stroke_top_to_bottom_with_soft_brush_short_horvertflip_short_600ms.mp4	259.73294024809	260.3411610217463	0.608220773656285				
194.31982421875	0.2	397967	192	52	1	0	0	93	129	stimuli\Videos_short_600ms_horflip\45.scratching_with_finger_nails_short_horflip_short_600ms.mp4	45.scratching_with_finger_nails_short_horflip_short_600ms.mp4	260.5328101645773	261.1411353334788	0.6083251689015015				
195.1201171875	0.2	399606	193	52	1	0	0	94	261	stimuli\Videos_short_600ms_horvertflip\83.single_stroke_top_to_bottom_with_cotton_bud_short_horvertflip_short_600ms.mp4	83.single_stroke_top_to_bottom_with_cotton_bud_short_horvertflip_short_600ms.mp4	261.33279239392505	261.9411298791201	0.6083374851950794				
195.919921875	0.2	401244	194	52	1	0	0	95	157	stimuli\Videos_short_600ms_horflip\70.(long)stroke_with_finger_all_over_the_hand_short_horflip_short_600ms.mp4	70.(long)stroke_with_finger_all_over_the_hand_short_horflip_short_600ms.mp4	262.1328394304346	262.74110155164635	0.6082621212117374				
196.7197265625	0.2	402882	195	52	1	0	0	96	200	stimuli\Videos_short_600ms_horvertflip\28.single_injection_with_sharp_needle_short_horvertflip_short_600ms.mp4	28.single_injection_with_sharp_needle_short_horvertflip_short_600ms.mp4	262.93274307010506	263.54108055530014	0.6083374851950794	7.0	7.0	3.084689469598743	1.0
236.02685546875	0.2	483383	196	52	2	0	0	0	42	stimuli\Videos_short_600ms\48.single_slap_with_hand_short_short_600ms.mp4	48.single_slap_with_hand_short_short_600ms.mp4	302.2402457159078	302.8485902389857	0.6083445230779034				
236.8271484375	0.2	485022	197	52	2	0	0	1	164	stimuli\Videos_short_600ms_horflip\77.tapping_with_all_fingers_short_horflip_short_600ms.mp4	77.tapping_with_all_fingers_short_horflip_short_600ms.mp4	303.04022999797235	303.64857686701	0.6083468690376321				
237.626953125	0.2	486660	198	52	2	0	0	2	328	stimuli\Videos_short_600ms_vertflip\62.touch_top_to_bottom_with_scissors_short_vertflip_short_600ms.mp4	62.touch_top_to_bottom_with_scissors_short_vertflip_short_600ms.mp4	303.84021809222213	304.4485555774172	0.6083374851950794				
238.4267578125	0.2	488298	199	52	2	0	0	3	273	stimuli\Videos_short_600ms_vertflip\12.repeated_touch_with_nail_file_short_vertflip_short_600ms.mp4	12.repeated_touch_with_nail_file_short_vertflip_short_600ms.mp4	304.64027597879976	305.248539566237	0.60826358743725				
239.22705078125	0.2	489937	200	52	2	0	0	4	256	stimuli\Videos_short_600ms_horvertflip\79.long_with_soft_brush_all_over_the_hand_short_horvertflip_short_600ms.mp4	79.long_with_soft_brush_all_over_the_hand_short_horvertflip_short_600ms.mp4	305.4403470614052	306.04852854022283	0.6081814788176416				
240.03515625	0.2	491592	201	52	2	0	0	5	137	stimuli\Videos_short_600ms_horflip\52.touch_top_to_bottom_with_hammer_short_horflip_short_600ms.mp4	52.touch_top_to_bottom_with_hammer_short_horflip_short_600ms.mp4	306.24851903908166	306.8568383430829	0.6083193040012702				
240.8349609375	0.2	493230	202	52	2	0	1	6	375	stimuli\Targets_short_600ms_horvertflip\finger-tap_short_vertflip_short_600ms.mp4	finger-tap_short_vertflip_short_600ms.mp4	307.0484962832652	307.65682262514747	0.6083263418822753				
241.63525390625	0.2	494869	203	52	2	0	0	7	250	stimuli\Videos_short_600ms_horvertflip\73.single_stroke_with_flat_hand_short_horvertflip_short_600ms.mp4	73.single_stroke_with_flat_hand_short_horvertflip_short_600ms.mp4	307.84853012374515	308.4568095464165	0.6082794226713304				
242.43505859375	0.2	496507	204	52	2	0	0	8	50	stimuli\Videos_short_600ms\55.touch_top_to_bottom_with_nail_file_short_short_600ms.mp4	55.touch_top_to_bottom_with_nail_file_short_short_600ms.mp4	308.6484443202389	309.25679001629396	0.6083456960550393				
243.23486328125	0.2	498145	205	52	2	0	0	9	11	stimuli\Videos_short_600ms\2.single_touch_with_finger_short_short_600ms.mp4	2.single_touch_with_finger_short_short_600ms.mp4	309.4484485429675	310.05677253888825	0.6083239959207276				
244.03515625	0.2	499784	206	52	2	0	1	10	381	stimuli\Targets_short_600ms_vertflip\finger-tap_short_horvertflip_short_600ms.mp4	finger-tap_short_horvertflip_short_600ms.mp4	310.24843429125576	310.85675036956127	0.6083160783055064				
244.8349609375	0.2	501422	207	52	2	0	0	11	254	stimuli\Videos_short_600ms_horvertflip\77.tapping_with_all_fingers_short_horvertflip_short_600ms.mp4	77.tapping_with_all_fingers_short_horvertflip_short_600ms.mp4	311.0484030313328	311.656720575862	0.6083175445292				
245.63525390625	0.2	503061	208	52	2	0	1	12	366	stimuli\Targets_short_600ms_horflip\brush-stroke_short_horflip_short_600ms.mp4	brush-stroke_short_horflip_short_600ms.mp4	311.8484037351209	312.4567186404438	0.6083149053229135				
246.43505859375	0.2	504699	209	52	2	0	0	13	25	stimuli\Videos_short_600ms\32.single_(long)pinch_with_fingers_short_short_600ms.mp4	32.single_(long)pinch_with_fingers_short_short_600ms.mp4	312.6489762667952	313.25670996039116	0.6077336935959465				
247.23486328125	0.2	506337	210	52	2	0	0	14	228	stimuli\Videos_short_600ms_horvertflip\53.touch_top_to_bottom_with_knife_short_horvertflip_short_600ms.mp4	53.touch_top_to_bottom_with_knife_short_horvertflip_short_600ms.mp4	313.4484330009782	314.05666110576203	0.6082281047838478				
248.03515625	0.2	507976	211	52	2	0	0	15	348	stimuli\Videos_short_600ms_vertflip\80.stroke_with_sharp_stick_all_over_the_hand_short_vertflip_short_600ms.mp4	80.stroke_with_sharp_stick_all_over_the_hand_short_vertflip_short_600ms.mp4	314.2484158168172	314.85667852451843	0.6082627077012148				
248.8349609375	0.2	509614	212	52	2	0	0	16	274	stimuli\Videos_short_600ms_vertflip\13.single_touch_with_pen_short_vertflip_short_600ms.mp4	13.single_touch_with_pen_short_vertflip_short_600ms.mp4	315.0484024448415	315.6566387604871	0.6082363156456267				
249.634765625	0.2	511252	213	52	2	0	1	17	368	stimuli\Targets_short_600ms_horflip\chopstickwood-tap_short_horflip_short_600ms.mp4	chopstickwood-tap_short_horflip_short_600ms.mp4	315.8483157615992	316.456647675137	0.6083319135377678				
250.43505859375	0.2	512891	214	52	2	0	0	18	186	stimuli\Videos_short_600ms_horvertflip\15.single_stroke_top_to_bottom_with_a_plastic_whisk_short_horvertflip_short_600ms.mp4	15.single_stroke_top_to_bottom_with_a_plastic_whisk_short_horvertflip_short_600ms.mp4	316.6482982841935	317.256620520644	0.6083222364504763				
251.23486328125	0.2	514529	215	52	2	0	0	19	286	stimuli\Videos_short_600ms_vertflip\24.single_stroke_top_to_bottom_with_a_spoon_short_vertflip_short_600ms.mp4	24.single_stroke_top_to_bottom_with_a_spoon_short_vertflip_short_600ms.mp4	317.4482799270518	318.05660274999354	0.6083228229417728				
252.03466796875	0.2	516167	216	52	2	0	0	20	355	stimuli\Videos_short_600ms_vertflip\87.single_stroke_top_to_bottom_with_plastic_brush_short_vertflip_short_600ms.mp4	87.single_stroke_top_to_bottom_with_plastic_brush_short_vertflip_short_600ms.mp4	318.2482668483208	318.8565855658326	0.6083187175117928				
252.8349609375	0.2	517806	217	52	2	0	0	21	32	stimuli\Videos_short_600ms\39.single_stab_with_scissors_short_short_600ms.mp4	39.single_stab_with_scissors_short_short_600ms.mp4	319.0482848535685	319.6565683816698	0.6082835281013104				
253.634765625	0.2	519444	218	52	2	0	0	22	166	stimuli\Videos_short_600ms_horflip\79.long_with_soft_brush_all_over_the_hand_short_horflip_short_600ms.mp4	79.long_with_soft_brush_all_over_the_hand_short_horflip_short_600ms.mp4	319.84839053909127	320.4565511975088	0.6081606584175461				
254.4345703125	0.2	521082	219	52	2	0	0	23	111	stimuli\Videos_short_600ms_horflip\29.single_pinch_with_tweezers_short_horflip_short_600ms.mp4	29.single_pinch_with_tweezers_short_horflip_short_600ms.mp4	320.64821646881865	321.25653342685837	0.6083169580397225				
255.23486328125	0.2	522721	220	52	2	0	0	24	33	stimuli\Videos_short_600ms\4.repeated_tap_with_finger_slow_short_short_600ms.mp4	4.repeated_tap_with_finger_slow_short_short_600ms.mp4	321.44818168995334	322.0565174156782	0.6083357257248281				
256.03466796875	0.2	524359	221	52	2	0	0	25	312	stimuli\Videos_short_600ms_vertflip\48.single_slap_with_hand_short_vertflip_short_600ms.mp4	48.single_slap_with_hand_short_vertflip_short_600ms.mp4	322.24828121732935	322.85650052476194	0.6082193074325914				
256.83447265625	0.2	525997	222	52	2	0	0	26	97	stimuli\Videos_short_600ms_horflip\16.repeated_touch_with_plastic_brush_short_horflip_short_600ms.mp4	16.repeated_touch_with_plastic_brush_short_horflip_short_600ms.mp4	323.0481675555402	323.65648656629673	0.6083190107565315				
257.634765625	0.2	527636	223	52	2	0	0	27	28	stimuli\Videos_short_600ms\35.single_punch_with_hand_short_short_600ms.mp4	35.single_punch_with_hand_short_short_600ms.mp4	323.84814362674297	324.4564649834592	0.6083213567162602				
258.4345703125	0.2	529274	224	52	2	0	0	28	183	stimuli\Videos_short_600ms_horvertflip\12.repeated_touch_with_nail_file_short_horvertflip_short_600ms.mp4	12.repeated_touch_with_nail_file_short_horvertflip_short_600ms.mp4	324.6481223371502	325.25645190472824	0.6083295675780391				
259.234375	0.2	530912	225	52	2	0	0	29	316	stimuli\Videos_short_600ms_vertflip\51.repeated_touch_with_hammer_short_vertflip_short_600ms.mp4	51.repeated_touch_with_hammer_short_vertflip_short_600ms.mp4	325.44814826001493	326.05642973540125	0.6082814753863204				
260.03466796875	0.2	532551	226	52	2	0	0	30	218	stimuli\Videos_short_600ms_horvertflip\44.pushing_top_to_bottom_with_finger_short_horvertflip_short_600ms.mp4	44.pushing_top_to_bottom_with_finger_short_horvertflip_short_600ms.mp4	326.24815394896905	326.8564195891213	0.6082656401522399				
260.83447265625	0.2	534189	227	52	2	0	0	31	47	stimuli\Videos_short_600ms\52.touch_top_to_bottom_with_hammer_short_short_600ms.mp4	52.touch_top_to_bottom_with_hammer_short_short_600ms.mp4	327.04805025751193	327.6563980062838	0.6083477487718483				
261.63427734375	0.2	535827	228	52	2	0	1	32	360	stimuli\Targets_short_600ms\brush-stroke_short_short_600ms.mp4	brush-stroke_short_short_600ms.mp4	327.8480653303086	328.4563799423886	0.6083146120799938				
262.4345703125	0.2	537466	229	52	2	0	0	33	178	stimuli\Videos_short_600ms_horflip\9.single_touch_with_hammer_short_horflip_short_600ms.mp4	9.single_touch_with_hammer_short_horflip_short_600ms.mp4	328.6480903734373	329.2563639312066	0.6082735577692802				
263.234375	0.2	539104	230	52	2	0	0	34	140	stimuli\Videos_short_600ms_horflip\55.touch_top_to_bottom_with_nail_file_short_horflip_short_600ms.mp4	55.touch_top_to_bottom_with_nail_file_short_horflip_short_600ms.mp4	329.4480312552314	330.056380176984	0.6083489217526221				
264.0341796875	0.2	540742	231	52	2	0	0	35	58	stimuli\Videos_short_600ms\62.touch_top_to_bottom_with_scissors_short_short_600ms.mp4	62.touch_top_to_bottom_with_scissors_short_short_600ms.mp4	330.2481609868519	330.85633923997193	0.6081782531200588				
264.83447265625	0.2	542381	232	52	2	0	0	36	91	stimuli\Videos_short_600ms_horflip\10.single_touch_with_knife_short_horflip_short_600ms.mp4	10.single_touch_with_knife_short_horflip_short_600ms.mp4	331.04817693938276	331.65631707064495	0.6081401312621892				
265.63427734375	0.2	544019	233	52	2	0	0	37	116	stimuli\Videos_short_600ms_horflip\33.scratch_top_to_bottom_with_scissors_short_horflip_short_600ms.mp4	33.scratch_top_to_bottom_with_scissors_short_horflip_short_600ms.mp4	331.84797589056325	332.4563022324437	0.6083263418804563				
266.4345703125	0.2	545658	234	52	2	0	0	38	114	stimuli\Videos_short_600ms_horflip\31.hand_grabbing_wrist_short_horflip_short_600ms.mp4	31.hand_grabbing_wrist_short_horflip_short_600ms.mp4	332.64796046587253	333.2562800631167	0.6083195972441899				
267.234375	0.2	547296	235	52	2	0	0	39	121	stimuli\Videos_short_600ms_horflip\38.double_slap_with_pencil_short_horflip_short_600ms.mp4	38.double_slap_with_pencil_short_horflip_short_600ms.mp4	333.44794328170974	334.0562640519365	0.6083207702267828				
268.0341796875	0.2	548934	236	52	2	0	0	40	61	stimuli\Videos_short_600ms\65.stroke_top_to_bottom_with_stanley_knife_short_short_600ms.mp4	65.stroke_top_to_bottom_with_stanley_knife_short_short_600ms.mp4	334.2479255110593	334.85624892049054	0.6083234094312502				
268.83447265625	0.2	550573	237	52	2	0	0	41	191	stimuli\Videos_short_600ms_horvertflip\2.single_touch_with_finger_short_horvertflip_short_600ms.mp4	2.single_touch_with_finger_short_horvertflip_short_600ms.mp4	335.04790774040885	335.6562320295743	0.6083242891654663				
269.63427734375	0.2	552211	238	52	2	0	0	42	283	stimuli\Videos_short_600ms_vertflip\21.repeated_touch_with_metal_chopstick_short_vertflip_short_600ms.mp4	21.repeated_touch_with_metal_chopstick_short_vertflip_short_600ms.mp4	335.8478929022076	336.4562160183941	0.6083231161865115				
270.43408203125	0.2	553849	239	52	2	0	0	43	153	stimuli\Videos_short_600ms_horflip\67.single_touch_with_sponge_short_horflip_short_600ms.mp4	67.single_touch_with_sponge_short_horflip_short_600ms.mp4	336.64785577738076	337.25619472880135	0.6083389514205919				
271.234375	0.2	555488	240	52	2	0	0	44	15	stimuli\Videos_short_600ms\23.single_push_with_a_spoon_short_short_600ms.mp4	23.single_push_with_a_spoon_short_short_600ms.mp4	337.4478415256708	338.0561834095424	0.608341883871617				
272.0341796875	0.2	557126	241	52	2	0	0	45	180	stimuli\Videos_short_600ms_horvertflip\1.repeated_touch_with_finger_fast_short_horvertflip_short_600ms.mp4	1.repeated_touch_with_finger_fast_short_horvertflip_short_600ms.mp4	338.2478190630991	338.8561624131944	0.6083433500953106				
272.833984375	0.2	558764	242	52	2	0	0	46	301	stimuli\Videos_short_600ms_vertflip\38.double_slap_with_pencil_short_vertflip_short_600ms.mp4	38.double_slap_with_pencil_short_vertflip_short_600ms.mp4	339.0478449859638	339.6561458155247	0.6083008295609034				
273.63427734375	0.2	560403	243	52	2	0	0	47	199	stimuli\Videos_short_600ms_horvertflip\27.single_push_with_a_plastic_whisk_short_horvertflip_short_600ms.mp4	27.single_push_with_a_plastic_whisk_short_horvertflip_short_600ms.mp4	339.84788762379685	340.45612657864694	0.6082389548500942				
274.43408203125	0.2	562041	244	52	2	0	0	48	246	stimuli\Videos_short_600ms_horvertflip\7.repeated_touch_with_hairbrush_short_horvertflip_short_600ms.mp4	7.repeated_touch_with_hairbrush_short_horvertflip_short_600ms.mp4	340.6479264494428	341.2560900403114	0.6081635908685712				
275.23388671875	0.2	563679	245	52	2	0	0	49	39	stimuli\Videos_short_600ms\45.scratching_with_finger_nails_short_short_600ms.mp4	45.scratching_with_finger_nails_short_short_600ms.mp4	341.4477802374513	342.0560916238355	0.60831138638423				
276.0341796875	0.2	565318	246	52	2	0	0	50	27	stimuli\Videos_short_600ms\34.repeated_punch_with_hand_short_short_600ms.mp4	34.repeated_punch_with_hand_short_short_600ms.mp4	342.2477551356733	342.8560829437811	0.6083278081077879				
276.833984375	0.2	566956	247	52	2	0	0	51	13	stimuli\Videos_short_600ms\21.repeated_touch_with_metal_chopstick_short_short_600ms.mp4	21.repeated_touch_with_metal_chopstick_short_short_600ms.mp4	343.0477405907186	343.6560587217373	0.6083181310186774				
277.6337890625	0.2	568594	248	52	2	0	0	52	202	stimuli\Videos_short_600ms_horvertflip\3.single_push_with_finger_short_horvertflip_short_600ms.mp4	3.single_push_with_finger_short_horvertflip_short_600ms.mp4	343.84772164708556	344.45603479294005	0.6083131458544813				
278.4423828125	0.2	570250	249	52	2	0	0	53	88	stimuli\Videos_short_600ms\9.single_touch_with_hammer_short_short_600ms.mp4	9.single_touch_with_hammer_short_short_600ms.mp4	344.65606136094357	345.26435925805345	0.6082978971098782				
279.2421875	0.2	571888	250	52	2	0	0	54	194	stimuli\Videos_short_600ms_horvertflip\22.single_touch_with_metal_chopstick_short_horvertflip_short_600ms.mp4	22.single_touch_with_metal_chopstick_short_horvertflip_short_600ms.mp4	345.45602863479326	346.06434412660747	0.60831549181421				
280.0419921875	0.2	573526	251	52	2	0	0	55	285	stimuli\Videos_short_600ms_vertflip\23.single_push_with_a_spoon_short_vertflip_short_600ms.mp4	23.single_push_with_a_spoon_short_vertflip_short_600ms.mp4	346.25600646546627	346.86432782218253	0.6083213567162602				
280.84228515625	0.2	575165	252	52	2	0	0	56	40	stimuli\Videos_short_600ms\46.scratching_top_to_bottom_with_finger_nails_short_short_600ms.mp4	46.scratching_top_to_bottom_with_finger_nails_short_short_600ms.mp4	347.0559948529626	347.664306239345	0.608311386382411				
281.64208984375	0.2	576803	253	52	2	0	0	57	214	stimuli\Videos_short_600ms_horvertflip\40.repeated_push_with_finger_short_horvertflip_short_600ms.mp4	40.repeated_push_with_finger_short_horvertflip_short_600ms.mp4	347.85594717131244	348.464271167235	0.6083239959225466				
282.4423828125	0.2	578442	254	52	2	0	1	58	374	stimuli\Targets_short_600ms_horvertflip\chopstickwood-tap_short_vertflip_short_600ms.mp4	chopstickwood-tap_short_vertflip_short_600ms.mp4	348.65598277126446	349.2642504641335	0.6082676928690489				
283.2421875	0.2	580080	255	52	2	0	0	59	247	stimuli\Videos_short_600ms_horvertflip\70.(long)stroke_with_finger_all_over_the_hand_short_horvertflip_short_600ms.mp4	70.(long)stroke_with_finger_all_over_the_hand_short_horvertflip_short_600ms.mp4	349.45618346819174	350.0642593787834	0.6080759105916513				
284.0419921875	0.2	581718	256	52	2	0	0	60	159	stimuli\Videos_short_600ms_horflip\72.(short)stroke_with_finger_all_over_the_hand_short_horflip_short_600ms.mp4	72.(short)stroke_with_finger_all_over_the_hand_short_horflip_short_600ms.mp4	350.256224933044	350.8642518717097	0.6080269386657164				
284.84228515625	0.2	583357	257	52	2	0	0	61	68	stimuli\Videos_short_600ms\71.single_stroke_with_finger_top_to_bottom_short_short_600ms.mp4	71.single_stroke_with_finger_top_to_bottom_short_short_600ms.mp4	351.05592769984105	351.6642323415872	0.6083046417461446				
285.64208984375	0.2	584995	258	52	2	0	0	62	146	stimuli\Videos_short_600ms_horflip\60.single_push_with_tip_of_pencil_short_horflip_short_600ms.mp4	60.single_push_with_tip_of_pencil_short_horflip_short_600ms.mp4	351.85593456177594	352.4642092925242	0.608274730748235				
286.44189453125	0.2	586633	259	52	2	0	0	63	196	stimuli\Videos_short_600ms_horvertflip\24.single_stroke_top_to_bottom_with_a_spoon_short_horvertflip_short_600ms.mp4	24.single_stroke_top_to_bottom_with_a_spoon_short_horvertflip_short_600ms.mp4	352.655864593502	353.2641926948545	0.6083281013525266				
287.2421875	0.2	588272	260	52	2	0	1	64	363	stimuli\Targets_short_600ms\finger-tap_short_short_600ms.mp4	finger-tap_short_short_600ms.mp4	353.455856499937	354.0641857742703	0.6083292743333004				
288.0419921875	0.2	589910	261	52	2	0	0	65	324	stimuli\Videos_short_600ms_vertflip\59.single_push_with_long_side_pencil_short_vertflip_short_600ms.mp4	59.single_push_with_long_side_pencil_short_vertflip_short_600ms.mp4	354.25583315762924	354.86415539408154	0.6083222364522953				
288.841796875	0.2	591548	262	52	2	0	0	66	130	stimuli\Videos_short_600ms_horflip\46.scratching_top_to_bottom_with_finger_nails_short_horflip_short_600ms.mp4	46.scratching_top_to_bottom_with_finger_nails_short_horflip_short_600ms.mp4	355.0566420448322	355.66414172886107	0.6074996840288804				
289.64208984375	0.2	593187	263	52	2	0	0	67	150	stimuli\Videos_short_600ms_horflip\64.repeated_touch_with_screwdriver_short_horflip_short_600ms.mp4	64.repeated_touch_with_screwdriver_short_horflip_short_600ms.mp4	355.85586242348836	356.46412278522985	0.6082603617414861				
290.44189453125	0.2	594825	264	52	2	0	0	68	2	stimuli\Videos_short_600ms\11.single_touch_with_lighter_short_short_600ms.mp4	11.single_touch_with_lighter_short_short_600ms.mp4	356.6558030120359	357.26410677404783	0.6083037620119285				
291.24169921875	0.2	596463	265	52	2	0	0	69	19	stimuli\Videos_short_600ms\27.single_push_with_a_plastic_whisk_short_short_600ms.mp4	27.single_push_with_a_plastic_whisk_short_short_600ms.mp4	357.45576852641716	358.06409369531866	0.6083251689015015				
292.0419921875	0.2	598102	266	52	2	0	0	70	76	stimuli\Videos_short_600ms\79.long_with_soft_brush_all_over_the_hand_short_short_600ms.mp4	79.long_with_soft_brush_all_over_the_hand_short_short_600ms.mp4	358.25579151682905	358.8640814963237	0.608289979494657				
292.841796875	0.2	599740	267	52	2	0	0	71	282	stimuli\Videos_short_600ms_vertflip\20.single_touch_with_screwdriver_short_vertflip_short_600ms.mp4	20.single_touch_with_screwdriver_short_vertflip_short_600ms.mp4	359.0557335716039	359.66405668779043	0.6083231161865115				
293.6416015625	0.2	601378	268	52	2	0	0	72	198	stimuli\Videos_short_600ms_horvertflip\26.single_touch_with_a_blunt_syringe_short_horvertflip_short_600ms.mp4	26.single_touch_with_a_blunt_syringe_short_horvertflip_short_600ms.mp4	359.8557509903603	360.4640380374039	0.6082870470436319				
294.44189453125	0.2	603017	269	52	2	0	0	73	37	stimuli\Videos_short_600ms\43.touch_top_to_bottom_with_sharp_wooden_stick_short_short_600ms.mp4	43.touch_top_to_bottom_with_sharp_wooden_stick_short_short_600ms.mp4	360.65572882103334	361.264020853243	0.608292032209647				
295.24169921875	0.2	604655	270	52	2	0	0	74	276	stimuli\Videos_short_600ms_vertflip\15.single_stroke_top_to_bottom_with_a_plastic_whisk_short_vertflip_short_600ms.mp4	15.single_stroke_top_to_bottom_with_a_plastic_whisk_short_vertflip_short_600ms.mp4	361.45568993673805	362.0639863676224	0.6082964308843657				
296.04150390625	0.2	606293	271	52	2	0	0	75	43	stimuli\Videos_short_600ms\49.repeated_slap_with_hand_short_short_600ms.mp4	49.repeated_slap_with_hand_short_short_600ms.mp4	362.2557680572245	362.863992643066	0.6082245858415263				
296.841796875	0.2	607932	272	52	2	0	0	76	46	stimuli\Videos_short_600ms\51.repeated_touch_with_hammer_short_short_600ms.mp4	51.repeated_touch_with_hammer_short_short_600ms.mp4	363.0556505832483	363.663970473739	0.6083198904907476				
297.6416015625	0.2	609570	273	52	2	0	0	77	338	stimuli\Videos_short_600ms_vertflip\71.single_stroke_with_finger_top_to_bottom_short_vertflip_short_600ms.mp4	71.single_stroke_with_finger_top_to_bottom_short_vertflip_short_600ms.mp4	363.85560788676594	364.4639494773928	0.6083415906268783				
298.44140625	0.2	611208	274	52	2	0	0	78	251	stimuli\Videos_short_600ms_horvertflip\74.fingers_walking_from_top_to_bottom_short_horvertflip_short_600ms.mp4	74.fingers_walking_from_top_to_bottom_short_horvertflip_short_600ms.mp4	364.6556138689666	365.2639369851531	0.6083231161865115				
299.24169921875	0.2	612847	275	52	2	0	0	79	176	stimuli\Videos_short_600ms_horflip\88.repeated_stroke_with_plastic_brush_short_horflip_short_600ms.mp4	88.repeated_stroke_with_plastic_brush_short_horflip_short_600ms.mp4	365.4556456567316	366.0639230266879	0.6082773699563404				
300.04150390625	0.2	614485	276	52	2	0	1	80	383	stimuli\Targets_short_600ms_vertflip\hand-stroke_short_horvertflip_short_600ms.mp4	hand-stroke_short_horvertflip_short_600ms.mp4	366.2555803803789	366.8639055492804	0.6083251689015015				
300.84130859375	0.2	616123	277	52	2	0	0	81	170	stimuli\Videos_short_600ms_horflip\82.repeated_touch_with_cotton_bud_short_horflip_short_600ms.mp4	82.repeated_touch_with_cotton_bud_short_horflip_short_600ms.mp4	367.0555629029732	367.6638936435302	0.608330740556994				
301.6416015625	0.2	617762	278	52	2	0	0	82	156	stimuli\Videos_short_600ms_horflip\7.repeated_touch_with_hairbrush_short_horflip_short_600ms.mp4	7.repeated_touch_with_hairbrush_short_horflip_short_600ms.mp4	367.8555762162996	368.4638682485074	0.608292032207828				
302.44140625	0.2	619400	279	52	2	0	0	83	29	stimuli\Videos_short_600ms\36.single_slap_with_full_hand_short_short_600ms.mp4	36.single_slap_with_full_hand_short_short_600ms.mp4	368.6555314671005	369.26385311706144	0.6083216499609989				
303.24169921875	0.2	621039	280	52	2	0	0	84	263	stimuli\Videos_short_600ms_horvertflip\85.touch_top_to_bottom_with_fabric_short_horvertflip_short_600ms.mp4	85.touch_top_to_bottom_with_fabric_short_horvertflip_short_600ms.mp4	369.45551340320526	370.0638388653515	0.6083254621462402				
304.04150390625	0.2	622677	281	52	2	0	0	85	149	stimuli\Videos_short_600ms_horflip\63.stroke_top_to_bottom_with_screwdriver_short_horflip_short_600ms.mp4	63.stroke_top_to_bottom_with_screwdriver_short_horflip_short_600ms.mp4	370.2554950460635	370.86381757576055	0.608322529697034				
304.84130859375	0.2	624315	282	52	2	0	0	86	241	stimuli\Videos_short_600ms_horvertflip\65.stroke_top_to_bottom_with_stanley_knife_short_horvertflip_short_600ms.mp4	65.stroke_top_to_bottom_with_stanley_knife_short_horvertflip_short_600ms.mp4	371.05547932812806	371.66380215106983	0.6083228229417728				
305.6416015625	0.2	625954	283	52	2	0	0	87	223	stimuli\Videos_short_600ms_horvertflip\49.repeated_slap_with_hand_short_horvertflip_short_600ms.mp4	49.repeated_slap_with_hand_short_horvertflip_short_600ms.mp4	371.8554427897925	372.46378291419205	0.6083401243995468				
306.44140625	0.2	627592	284	52	2	0	0	88	181	stimuli\Videos_short_600ms_horvertflip\10.single_touch_with_knife_short_horvertflip_short_600ms.mp4	10.single_touch_with_knife_short_horvertflip_short_600ms.mp4	372.6554537571574	373.2637660232758	0.6083122661184461				
307.2412109375	0.2	629230	285	52	2	0	0	89	272	stimuli\Videos_short_600ms_vertflip\11.single_touch_with_lighter_short_vertflip_short_600ms.mp4	11.single_touch_with_lighter_short_vertflip_short_600ms.mp4	373.4554324675664	374.0637488391149	0.6083163715484261				
308.04150390625	0.2	630869	286	52	2	0	0	90	103	stimuli\Videos_short_600ms_horflip\21.repeated_touch_with_metal_chopstick_short_horflip_short_600ms.mp4	21.repeated_touch_with_metal_chopstick_short_horflip_short_600ms.mp4	374.25584371445257	374.86373400091543	0.6078902864628617				
308.84130859375	0.2	632507	287	52	2	0	0	91	207	stimuli\Videos_short_600ms_horvertflip\34.repeated_punch_with_hand_short_horvertflip_short_600ms.mp4	34.repeated_punch_with_hand_short_horvertflip_short_600ms.mp4	375.05542243858326	375.66371535052895	0.6082929119456821				
309.64111328125	0.2	634145	288	52	2	0	0	92	173	stimuli\Videos_short_600ms_horflip\85.touch_top_to_bottom_with_fabric_short_horflip_short_600ms.mp4	85.touch_top_to_bottom_with_fabric_short_horflip_short_600ms.mp4	375.8553627338879	376.46371136239577	0.6083486285078834				
310.44140625	0.2	635784	289	52	2	0	0	93	300	stimuli\Videos_short_600ms_vertflip\37.single_stab_with_nail_file_short_vertflip_short_600ms.mp4	37.single_stab_with_nail_file_short_vertflip_short_600ms.mp4	376.655361384961	377.2636710118731	0.6083096269121597				
311.2412109375	0.2	637422	290	52	2	0	0	94	55	stimuli\Videos_short_600ms\6.single_touch_with_flat_hand_short_short_600ms.mp4	6.single_touch_with_flat_hand_short_short_600ms.mp4	377.45535270490655	378.0636497222822	0.6082970173756621				
312.041015625	0.2	639060	291	52	2	0	0	95	143	stimuli\Videos_short_600ms_horflip\58.single_slap_with_pencil_short_horflip_short_600ms.mp4	58.single_slap_with_pencil_short_horflip_short_600ms.mp4	378.2553698304182	378.8636231542787	0.608253323860481				
312.84130859375	0.2	640699	292	52	2	0	0	96	87	stimuli\Videos_short_600ms\89.single_touch_with_plastic_brush_short_short_600ms.mp4	89.single_touch_with_plastic_brush_short_short_600ms.mp4	379.05531862982934	379.66360626336245	0.6082876335331093				
313.64111328125	0.2	642337	293	52	2	0	0	97	284	stimuli\Videos_short_600ms_vertflip\22.single_touch_with_metal_chopstick_short_vertflip_short_600ms.mp4	22.single_touch_with_metal_chopstick_short_vertflip_short_600ms.mp4	379.85532695798975	380.46361605774655	0.6082890997568029	8.0	8.0	3.2087306681842165	1.0
349.1064453125	0.2	714970	294	52	3	0	0	0	187	stimuli\Videos_short_600ms_horvertflip\16.repeated_touch_with_plastic_brush_short_horvertflip_short_600ms.mp4	16.repeated_touch_with_plastic_brush_short_horvertflip_short_600ms.mp4	415.32121185284814	415.9295276379071	0.6083157850589487				
349.90673828125	0.2	716609	295	52	3	0	0	1	349	stimuli\Videos_short_600ms_vertflip\81.single_stroke_top_to_bottom_with_cotton_pad_short_vertflip_short_600ms.mp4	81.single_stroke_top_to_bottom_with_cotton_pad_short_vertflip_short_600ms.mp4	416.1215981739042	416.7295095740101	0.607911400105877				
350.70654296875	0.2	718247	296	52	3	0	0	2	41	stimuli\Videos_short_600ms\47.(long)scratching_with_finger_nails_short_short_600ms.mp4	47.(long)scratching_with_finger_nails_short_short_600ms.mp4	416.9212373065202	417.5294915101149	0.6082542035946972				
351.50634765625	0.2	719885	297	52	3	0	0	3	184	stimuli\Videos_short_600ms_horvertflip\13.single_touch_with_pen_short_horvertflip_short_600ms.mp4	13.single_touch_with_pen_short_horvertflip_short_600ms.mp4	417.7212110317614	418.32946904754135	0.6082580157799384				
352.306640625	0.2	721524	298	52	3	0	0	4	144	stimuli\Videos_short_600ms_horflip\59.single_push_with_long_side_pencil_short_horflip_short_600ms.mp4	59.single_push_with_long_side_pencil_short_horflip_short_600ms.mp4	418.5212310897241	419.12943016324607	0.6081990735219733				
353.1064453125	0.2	723162	299	52	3	0	1	5	362	stimuli\Targets_short_600ms\chopstickwood-tap_short_short_600ms.mp4	chopstickwood-tap_short_short_600ms.mp4	419.3211552565499	419.9294173777598	0.6082621212099184				
353.90625	0.2	724800	300	52	3	0	0	6	120	stimuli\Videos_short_600ms_horflip\37.single_stab_with_nail_file_short_horflip_short_600ms.mp4	37.single_stab_with_nail_file_short_horflip_short_600ms.mp4	420.121104349204	420.72942394645	0.6083195972460089				
354.70654296875	0.2	726439	301	52	3	0	0	7	238	stimuli\Videos_short_600ms_horvertflip\62.touch_top_to_bottom_with_scissors_short_horvertflip_short_600ms.mp4	62.touch_top_to_bottom_with_scissors_short_horvertflip_short_600ms.mp4	420.92108481908326	421.529406762289	0.6083219432057376				
355.50634765625	0.2	728077	302	52	3	0	0	8	108	stimuli\Videos_short_600ms_horflip\26.single_touch_with_a_blunt_syringe_short_horflip_short_600ms.mp4	26.single_touch_with_a_blunt_syringe_short_horflip_short_600ms.mp4	421.7210655822073	422.32939309706853	0.6083275148612302				
356.306640625	0.2	729716	303	52	3	0	0	9	217	stimuli\Videos_short_600ms_horvertflip\43.touch_top_to_bottom_with_sharp_wooden_stick_short_horvertflip_short_600ms.mp4	43.touch_top_to_bottom_with_sharp_wooden_stick_short_horvertflip_short_600ms.mp4	422.5210296303612	423.1293788453586	0.6083492149973608				
357.1064453125	0.2	731354	304	52	3	0	0	10	329	stimuli\Videos_short_600ms_vertflip\63.stroke_top_to_bottom_with_screwdriver_short_vertflip_short_600ms.mp4	63.stroke_top_to_bottom_with_screwdriver_short_vertflip_short_600ms.mp4	423.32106728302824	423.9293572625211	0.608289979492838				
357.90625	0.2	732992	305	52	3	0	0	11	253	stimuli\Videos_short_600ms_horvertflip\76.tickle_with_fingers_from_top_to_bottom_short_horvertflip_short_600ms.mp4	76.tickle_with_fingers_from_top_to_bottom_short_horvertflip_short_600ms.mp4	424.1210726787376	424.72933831888986	0.6082656401522399				
358.70654296875	0.2	734631	306	52	3	0	0	12	72	stimuli\Videos_short_600ms\75.(long)stroke_with_fingers_all_over_the_hand_short_short_600ms.mp4	75.(long)stroke_with_fingers_all_over_the_hand_short_short_600ms.mp4	424.921075141996	425.52932084148415	0.6082456994881795				
359.50634765625	0.2	736269	307	52	3	0	0	13	100	stimuli\Videos_short_600ms_horflip\19.single_touch_with_rolling_pin_short_horflip_short_600ms.mp4	19.single_touch_with_rolling_pin_short_horflip_short_600ms.mp4	425.721067048431	426.3293036573232	0.6082366088921844				
360.30615234375	0.2	737907	308	52	3	0	0	14	303	stimuli\Videos_short_600ms_vertflip\4.repeated_tap_with_finger_slow_short_vertflip_short_600ms.mp4	4.repeated_tap_with_finger_slow_short_vertflip_short_600ms.mp4	426.52094019061406	427.1292899921027	0.6083498014886572				
361.1064453125	0.2	739546	309	52	3	0	0	15	293	stimuli\Videos_short_600ms_vertflip\30.finger_pulling_back_another_finger_short_vertflip_short_600ms.mp4	30.finger_pulling_back_another_finger_short_vertflip_short_600ms.mp4	427.3209265253936	427.9292719282057	0.6083454028121196				
361.90625	0.2	741184	310	52	3	0	0	16	20	stimuli\Videos_short_600ms\28.single_injection_with_sharp_needle_short_short_600ms.mp4	28.single_injection_with_sharp_needle_short_short_600ms.mp4	428.1209055290474	428.729253571064	0.608348042016587				
362.7060546875	0.2	742822	311	52	3	0	0	17	147	stimuli\Videos_short_600ms_horflip\61.single_hit_with_rolling_pin_short_horflip_short_600ms.mp4	61.single_hit_with_rolling_pin_short_horflip_short_600ms.mp4	428.92091033826546	429.52923697339247	0.608326635127014				
363.50634765625	0.2	744461	312	52	3	0	0	18	289	stimuli\Videos_short_600ms_vertflip\27.single_push_with_a_plastic_whisk_short_vertflip_short_600ms.mp4	27.single_push_with_a_plastic_whisk_short_vertflip_short_600ms.mp4	429.7209676383536	430.32921656353574	0.6082489251821244				
364.30615234375	0.2	746099	313	52	3	0	1	19	380	stimuli\Targets_short_600ms_vertflip\chopstickwood-tap_short_horvertflip_short_600ms.mp4	chopstickwood-tap_short_horvertflip_short_600ms.mp4	430.52125513582	431.12920348480657	0.6079483489866107				
365.10595703125	0.2	747737	314	52	3	0	0	20	224	stimuli\Videos_short_600ms_horvertflip\5.repeated_tap_with_finger_moving_from_top_to_bottom_short_horvertflip_short_600ms.mp4	5.repeated_tap_with_finger_moving_from_top_to_bottom_short_horvertflip_short_600ms.mp4	431.3209752040766	431.9291839546841	0.6082087506074458				
365.90625	0.2	749376	315	52	3	0	0	21	17	stimuli\Videos_short_600ms\25.single_touch_with_stanley_knife_short_short_600ms.mp4	25.single_touch_with_stanley_knife_short_short_600ms.mp4	432.1208943857346	432.7291691164846	0.608274730750054				
366.7060546875	0.2	751014	316	52	3	0	0	22	327	stimuli\Videos_short_600ms_vertflip\61.single_hit_with_rolling_pin_short_vertflip_short_600ms.mp4	61.single_hit_with_rolling_pin_short_vertflip_short_600ms.mp4	432.9208115146775	433.5291472404024	0.6083357257248281				
367.505859375	0.2	752652	317	52	3	0	0	23	35	stimuli\Videos_short_600ms\41.injection_with_blunt_syringe_short_short_600ms.mp4	41.injection_with_blunt_syringe_short_short_600ms.mp4	433.7207937440253	434.3291362143864	0.6083424703610945				
368.30615234375	0.2	754291	318	52	3	0	0	24	209	stimuli\Videos_short_600ms_horvertflip\36.single_slap_with_full_hand_short_horvertflip_short_600ms.mp4	36.single_slap_with_full_hand_short_horvertflip_short_600ms.mp4	434.5208284642431	435.1291114058549	0.6082829416118329				
369.10595703125	0.2	755929	319	52	3	0	0	25	320	stimuli\Videos_short_600ms_vertflip\55.touch_top_to_bottom_with_nail_file_short_vertflip_short_600ms.mp4	55.touch_top_to_bottom_with_nail_file_short_vertflip_short_600ms.mp4	435.32075996219464	435.92907545400885	0.60831549181421				
369.90576171875	0.2	757567	320	52	3	0	0	26	345	stimuli\Videos_short_600ms_vertflip\78.single_stroke_top_to_bottom_with_soft_brush_short_vertflip_short_600ms.mp4	78.single_stroke_top_to_bottom_with_soft_brush_short_vertflip_short_600ms.mp4	436.1207609592275	436.72908231594374	0.6083213567162602				
370.7060546875	0.2	759206	321	52	3	0	0	27	5	stimuli\Videos_short_600ms\14.repeated_touch_with_pencil_short_short_600ms.mp4	14.repeated_touch_with_pencil_short_short_600ms.mp4	436.9208467040862	437.52906571827225	0.6082190141860337				
371.505859375	0.2	760844	322	52	3	0	0	28	177	stimuli\Videos_short_600ms_horflip\89.single_touch_with_plastic_brush_short_horflip_short_600ms.mp4	89.single_touch_with_plastic_brush_short_horflip_short_600ms.mp4	437.7207450653441	438.3290514665623	0.6083064012182149				
372.3056640625	0.2	762482	323	52	3	0	0	29	10	stimuli\Videos_short_600ms\19.single_touch_with_rolling_pin_short_short_600ms.mp4	19.single_touch_with_rolling_pin_short_short_600ms.mp4	438.5207938613239	439.1290401473016	0.608246285977657				
373.10595703125	0.2	764121	324	52	3	0	0	30	148	stimuli\Videos_short_600ms_horflip\62.touch_top_to_bottom_with_scissors_short_horflip_short_600ms.mp4	62.touch_top_to_bottom_with_scissors_short_horflip_short_600ms.mp4	439.32068987662205	439.9290168049938	0.6083269283717527				
373.90576171875	0.2	765759	325	52	3	0	0	31	62	stimuli\Videos_short_600ms\66.stroke_top_to_bottom_with_sponge_short_short_600ms.mp4	66.stroke_top_to_bottom_with_sponge_short_short_600ms.mp4	440.120651872061	440.7289972748731	0.6083454028121196				
374.70556640625	0.2	767397	326	52	3	0	0	32	169	stimuli\Videos_short_600ms_horflip\81.single_stroke_top_to_bottom_with_cotton_pad_short_horflip_short_600ms.mp4	81.single_stroke_top_to_bottom_with_cotton_pad_short_horflip_short_600ms.mp4	440.9206560947896	441.5289815569377	0.6083254621480592				
375.505859375	0.2	769036	327	52	3	0	0	33	31	stimuli\Videos_short_600ms\38.double_slap_with_pencil_short_short_600ms.mp4	38.double_slap_with_pencil_short_short_600ms.mp4	441.72098523305795	442.32896349304065	0.6079782599827013				
376.3056640625	0.2	770674	328	52	3	0	0	34	115	stimuli\Videos_short_600ms_horflip\32.single_(long)pinch_with_fingers_short_horflip_short_600ms.mp4	32.single_(long)pinch_with_fingers_short_horflip_short_600ms.mp4	442.5207193770766	443.12894601563494	0.6082266385583353				
377.10595703125	0.2	772313	329	52	3	0	1	35	383	stimuli\Targets_short_600ms_vertflip\hand-stroke_short_horvertflip_short_600ms.mp4	hand-stroke_short_horvertflip_short_600ms.mp4	443.3206145126387	443.9289270720037	0.6083125593650038				
377.90576171875	0.2	773951	330	52	3	0	0	36	107	stimuli\Videos_short_600ms_horflip\25.single_touch_with_stanley_knife_short_horflip_short_600ms.mp4	25.single_touch_with_stanley_knife_short_horflip_short_600ms.mp4	444.1205735756266	444.72891076757696	0.6083371919503406				
378.70556640625	0.2	775589	331	52	3	0	0	37	248	stimuli\Videos_short_600ms_horvertflip\71.single_stroke_with_finger_top_to_bottom_short_horvertflip_short_600ms.mp4	71.single_stroke_with_finger_top_to_bottom_short_horvertflip_short_600ms.mp4	444.9207382034092	445.52889534288624	0.6081571394770435				
379.505859375	0.2	777228	332	52	3	0	0	38	85	stimuli\Videos_short_600ms\87.single_stroke_top_to_bottom_with_plastic_brush_short_short_600ms.mp4	87.single_stroke_top_to_bottom_with_plastic_brush_short_short_600ms.mp4	445.7205535763133	446.3288807979315	0.6083272216183104				
380.3056640625	0.2	778866	333	52	3	0	0	39	3	stimuli\Videos_short_600ms\12.repeated_touch_with_nail_file_short_short_600ms.mp4	12.repeated_touch_with_nail_file_short_short_600ms.mp4	446.52053551241625	447.1288595083388	0.6083239959225466				
381.10546875	0.2	780504	334	52	3	0	0	40	305	stimuli\Videos_short_600ms_vertflip\41.injection_with_blunt_syringe_short_vertflip_short_600ms.mp4	41.injection_with_blunt_syringe_short_vertflip_short_600ms.mp4	447.3205253661381	447.92884261742256	0.6083172512844612				
381.90576171875	0.2	782143	335	52	3	0	0	41	92	stimuli\Videos_short_600ms_horflip\11.single_touch_with_lighter_short_horflip_short_600ms.mp4	11.single_touch_with_lighter_short_horflip_short_600ms.mp4	448.1205073022411	448.7288254332616	0.6083181310204964				
382.70556640625	0.2	783781	336	52	3	0	0	42	344	stimuli\Videos_short_600ms_vertflip\77.tapping_with_all_fingers_short_vertflip_short_600ms.mp4	77.tapping_with_all_fingers_short_vertflip_short_600ms.mp4	448.92058688895304	449.52881323426664	0.6082263453135965				
383.50537109375	0.2	785419	337	52	3	0	0	43	354	stimuli\Videos_short_600ms_vertflip\86.touch_top_to_bottom_with_hair_brush_short_vertflip_short_600ms.mp4	86.touch_top_to_bottom_with_hair_brush_short_vertflip_short_600ms.mp4	449.7205714642623	450.3287872527526	0.6082157884902699				
384.3056640625	0.2	787058	338	52	3	0	0	44	6	stimuli\Videos_short_600ms\15.single_stroke_top_to_bottom_with_a_plastic_whisk_short_short_600ms.mp4	15.single_stroke_top_to_bottom_with_a_plastic_whisk_short_short_600ms.mp4	450.5204525240624	451.1287747605129	0.6083222364504763				
385.10546875	0.2	788696	339	52	3	0	0	45	105	stimuli\Videos_short_600ms_horflip\23.single_push_with_a_spoon_short_horflip_short_600ms.mp4	23.single_push_with_a_spoon_short_horflip_short_600ms.mp4	451.32041100056085	451.9287531776754	0.6083421771145368				
385.9052734375	0.2	790334	340	52	3	0	0	46	242	stimuli\Videos_short_600ms_horvertflip\66.stroke_top_to_bottom_with_sponge_short_horvertflip_short_600ms.mp4	66.stroke_top_to_bottom_with_sponge_short_horvertflip_short_600ms.mp4	452.1204175692492	452.72874391113146	0.6083263418822753				
386.70556640625	0.2	791973	341	52	3	0	0	47	48	stimuli\Videos_short_600ms\53.touch_top_to_bottom_with_knife_short_short_600ms.mp4	53.touch_top_to_bottom_with_knife_short_short_600ms.mp4	452.9203974526372	453.5287246742555	0.6083272216183104				
387.50537109375	0.2	793611	342	52	3	0	0	48	59	stimuli\Videos_short_600ms\63.stroke_top_to_bottom_with_screwdriver_short_short_600ms.mp4	63.stroke_top_to_bottom_with_screwdriver_short_short_600ms.mp4	453.7204148713954	454.3287165806905	0.6083017092951195				
388.30517578125	0.2	795249	343	52	3	0	0	49	346	stimuli\Videos_short_600ms_vertflip\79.long_with_soft_brush_all_over_the_hand_short_vertflip_short_600ms.mp4	79.long_with_soft_brush_all_over_the_hand_short_vertflip_short_600ms.mp4	454.5203648437855	455.1286917721591	0.6083269283735717				
389.10546875	0.2	796888	344	52	3	0	0	50	110	stimuli\Videos_short_600ms_horflip\28.single_injection_with_sharp_needle_short_horflip_short_600ms.mp4	28.single_injection_with_sharp_needle_short_horflip_short_600ms.mp4	455.3203464866456	455.9286719487918	0.6083254621462402				
389.9052734375	0.2	798526	345	52	3	0	0	51	44	stimuli\Videos_short_600ms\5.repeated_tap_with_finger_moving_from_top_to_bottom_short_short_600ms.mp4	5.repeated_tap_with_finger_moving_from_top_to_bottom_short_short_600ms.mp4	456.12037768792106	456.72865329840533	0.6082756104842701				
390.705078125	0.2	800164	346	52	3	0	0	52	321	stimuli\Videos_short_600ms_vertflip\56.repeated_touch_with_nail_file_short_vertflip_short_600ms.mp4	56.repeated_touch_with_nail_file_short_vertflip_short_600ms.mp4	456.9203270738217	457.52863728722514	0.6083102134034561				
391.50537109375	0.2	801803	347	52	3	0	0	53	292	stimuli\Videos_short_600ms_vertflip\3.single_push_with_finger_short_vertflip_short_600ms.mp4	3.single_push_with_finger_short_vertflip_short_600ms.mp4	457.72029698687766	458.3286236220046	0.608326635127014				
392.30517578125	0.2	803441	348	52	3	0	0	54	7	stimuli\Videos_short_600ms\16.repeated_touch_with_plastic_brush_short_short_600ms.mp4	16.repeated_touch_with_plastic_brush_short_short_600ms.mp4	458.52026308774657	459.1286035053927	0.6083404176461045				
393.10498046875	0.2	805079	349	52	3	0	0	55	94	stimuli\Videos_short_600ms_horflip\13.single_touch_with_pen_short_horflip_short_600ms.mp4	13.single_touch_with_pen_short_horflip_short_600ms.mp4	459.3202626185539	459.9285872009659	0.608324582412024				
393.9052734375	0.2	806718	350	52	3	0	0	56	356	stimuli\Videos_short_600ms_vertflip\88.repeated_stroke_with_plastic_brush_short_vertflip_short_600ms.mp4	88.repeated_stroke_with_plastic_brush_short_vertflip_short_600ms.mp4	460.1202234410139	460.72857001680495	0.6083465757910744				
394.705078125	0.2	808356	351	52	3	0	0	57	81	stimuli\Videos_short_600ms\83.single_stroke_top_to_bottom_with_cotton_bud_short_short_600ms.mp4	83.single_stroke_top_to_bottom_with_cotton_bud_short_short_600ms.mp4	460.9202056703616	461.5285525393992	0.6083468690376321				
395.50537109375	0.2	809995	352	52	3	0	0	58	225	stimuli\Videos_short_600ms_horvertflip\50.single_(long)hard_push_with_thumb_short_horvertflip_short_600ms.mp4	50.single_(long)hard_push_with_thumb_short_horvertflip_short_600ms.mp4	461.7202351121669	462.3285353552383	0.6083002430714259				
396.30517578125	0.2	811633	353	52	3	0	0	59	208	stimuli\Videos_short_600ms_horvertflip\35.single_punch_with_hand_short_horvertflip_short_600ms.mp4	35.single_punch_with_hand_short_horvertflip_short_600ms.mp4	462.5201935886653	463.12852081028177	0.6083272216164914				
397.10498046875	0.2	813271	354	52	3	0	0	60	244	stimuli\Videos_short_600ms_horvertflip\68.stroke_top_to_bottom_with_shawl_short_horvertflip_short_600ms.mp4	68.stroke_top_to_bottom_with_shawl_short_horvertflip_short_600ms.mp4	463.32017200582777	463.9284743016142	0.6083022957864159				
397.9052734375	0.2	814910	355	52	3	0	0	61	294	stimuli\Videos_short_600ms_vertflip\31.hand_grabbing_wrist_short_vertflip_short_600ms.mp4	31.hand_grabbing_wrist_short_vertflip_short_600ms.mp4	464.1203216781123	464.7284870284493	0.6081653503370035				
398.705078125	0.2	816548	356	52	3	0	0	62	216	stimuli\Videos_short_600ms_horvertflip\42.single_slap_with_plastic_whisk_short_horvertflip_short_600ms.mp4	42.single_slap_with_plastic_whisk_short_horvertflip_short_600ms.mp4	464.92014350240606	465.5284701375349	0.608326635128833				
399.5048828125	0.2	818186	357	52	3	0	0	63	167	stimuli\Videos_short_600ms_horflip\8.single_touch_with_hairbrush_short_horflip_short_600ms.mp4	8.single_touch_with_hairbrush_short_horflip_short_600ms.mp4	465.7202811516436	466.3284353586696	0.6081542070260184				
400.30517578125	0.2	819825	358	52	3	0	0	64	66	stimuli\Videos_short_600ms\7.repeated_touch_with_hairbrush_short_short_600ms.mp4	7.repeated_touch_with_hairbrush_short_short_600ms.mp4	466.520188017008	467.1284111366258	0.6082231196178327				
401.10498046875	0.2	821463	359	52	3	0	0	65	8	stimuli\Videos_short_600ms\17.repeated_touch_with_rolling_pin_short_short_600ms.mp4	17.repeated_touch_with_rolling_pin_short_short_600ms.mp4	467.3200617456805	467.9284273824032	0.6083656367227377				
401.90478515625	0.2	823101	360	52	3	0	0	66	219	stimuli\Videos_short_600ms_horvertflip\45.scratching_with_finger_nails_short_horvertflip_short_600ms.mp4	45.scratching_with_finger_nails_short_horvertflip_short_600ms.mp4	468.120073886028	468.7283993481742	0.6083254621462402				
402.705078125	0.2	824740	361	52	3	0	0	67	288	stimuli\Videos_short_600ms_vertflip\26.single_touch_with_a_blunt_syringe_short_vertflip_short_600ms.mp4	26.single_touch_with_a_blunt_syringe_short_vertflip_short_600ms.mp4	468.9200499572289	469.5283886154048	0.6083386581758532				
403.5048828125	0.2	826378	362	52	3	0	0	68	359	stimuli\Videos_short_600ms_vertflip\90.repeated_touch_with_sponge_short_vertflip_short_600ms.mp4	90.repeated_touch_with_sponge_short_vertflip_short_600ms.mp4	469.7200398109508	470.328365273097	0.6083254621462402				
404.3046875	0.2	828016	363	52	3	0	0	69	268	stimuli\Videos_short_600ms_horvertflip\9.single_touch_with_hammer_short_horvertflip_short_600ms.mp4	9.single_touch_with_hammer_short_horvertflip_short_600ms.mp4	470.520021453809	471.1283498484063	0.6083283945972653				
405.10498046875	0.2	829655	364	52	3	0	0	70	38	stimuli\Videos_short_600ms\44.pushing_top_to_bottom_with_finger_short_short_600ms.mp4	44.pushing_top_to_bottom_with_finger_short_short_600ms.mp4	471.3200051493822	471.9283311980198	0.6083260486375366				
405.90478515625	0.2	831293	365	52	3	0	0	71	299	stimuli\Videos_short_600ms_vertflip\36.single_slap_with_full_hand_short_vertflip_short_600ms.mp4	36.single_slap_with_full_hand_short_vertflip_short_600ms.mp4	472.1199882584661	472.72831284087806	0.608324582412024				
406.70458984375	0.2	832931	366	52	3	0	0	72	75	stimuli\Videos_short_600ms\78.single_stroke_top_to_bottom_with_soft_brush_short_short_600ms.mp4	78.single_stroke_top_to_bottom_with_soft_brush_short_short_600ms.mp4	472.9205030208632	473.52829624320657	0.6077932223433891				
407.5048828125	0.2	834570	367	52	3	0	0	73	226	stimuli\Videos_short_600ms_horvertflip\51.repeated_touch_with_hammer_short_horvertflip_short_600ms.mp4	51.repeated_touch_with_hammer_short_horvertflip_short_600ms.mp4	473.7200858504257	474.3282775928201	0.6081917423944105				
408.3046875	0.2	836208	368	52	3	0	0	74	102	stimuli\Videos_short_600ms_horflip\20.single_touch_with_screwdriver_short_horflip_short_600ms.mp4	20.single_touch_with_screwdriver_short_horflip_short_600ms.mp4	474.5199387586981	475.1282601154144	0.6083213567162602				
409.1044921875	0.2	837846	369	52	3	0	0	75	168	stimuli\Videos_short_600ms_horflip\80.stroke_with_sharp_stick_all_over_the_hand_short_horflip_short_600ms.mp4	80.stroke_with_sharp_stick_all_over_the_hand_short_horflip_short_600ms.mp4	475.319937703016	475.9282435177429	0.6083058147269185				
409.90478515625	0.2	839485	370	52	3	0	0	76	171	stimuli\Videos_short_600ms_horflip\83.single_stroke_top_to_bottom_with_cotton_bud_short_horflip_short_600ms.mp4	83.single_stroke_top_to_bottom_with_cotton_bud_short_horflip_short_600ms.mp4	476.1198823969953	476.7282277998074	0.6083454028121196				
410.70458984375	0.2	841123	371	52	3	0	0	77	131	stimuli\Videos_short_600ms_horflip\47.(long)scratching_with_finger_nails_short_horflip_short_600ms.mp4	47.(long)scratching_with_finger_nails_short_horflip_short_600ms.mp4	476.91990831986	477.5282117886272	0.6083034687671898				
411.50439453125	0.2	842761	372	52	3	0	0	78	201	stimuli\Videos_short_600ms_horvertflip\29.single_pinch_with_tweezers_short_horvertflip_short_600ms.mp4	29.single_pinch_with_tweezers_short_horvertflip_short_600ms.mp4	477.7198720747692	478.3281916720152	0.6083195972460089				
412.3046875	0.2	844400	373	52	3	0	0	79	175	stimuli\Videos_short_600ms_horflip\87.single_stroke_top_to_bottom_with_plastic_brush_short_horflip_short_600ms.mp4	87.single_stroke_top_to_bottom_with_plastic_brush_short_horflip_short_600ms.mp4	478.51985283789327	479.12815337420943	0.6083005363161647				
413.1044921875	0.2	846038	374	52	3	0	0	80	1	stimuli\Videos_short_600ms\10.single_touch_with_knife_short_short_600ms.mp4	10.single_touch_with_knife_short_short_600ms.mp4	479.3198432781046	479.9281338440869	0.6082905659823155				
413.904296875	0.2	847676	375	52	3	0	0	81	277	stimuli\Videos_short_600ms_vertflip\16.repeated_touch_with_plastic_brush_short_vertflip_short_600ms.mp4	16.repeated_touch_with_plastic_brush_short_vertflip_short_600ms.mp4	480.1201319485517	480.728126630258	0.6079946817062591				
