onset	duration	onsetsample	eventnumber	subjectnr	sequencenumber	blocksequencenumber	istarget	presentationnumber	stimnumber	stim	stimname	time_stimon	time_stimoff	stimdur	cresp	resp	rt	correct
28.498046875	0.2	58364	0	6	0	0	0	0	199	stimuli\Videos_short_600ms_horvertflip\27.single_push_with_a_plastic_whisk_short_horvertflip_short_600ms.mp4	27.single_push_with_a_plastic_whisk_short_horvertflip_short_600ms.mp4	68.05787623600236	68.66620118489664	0.6083249488942784				
29.2978515625	0.2	60002	1	6	0	0	0	1	243	stimuli\Videos_short_600ms_horvertflip\67.single_touch_with_sponge_short_horvertflip_short_600ms.mp4	67.single_touch_with_sponge_short_horvertflip_short_600ms.mp4	68.858103033735	69.46620364817682	0.6081006144418097				
30.09814453125	0.2	61641	2	6	0	0	0	2	67	stimuli\Videos_short_600ms\70.(long)stroke_with_finger_all_over_the_hand_short_short_600ms.mp4	70.(long)stroke_with_finger_all_over_the_hand_short_short_600ms.mp4	69.65790843459445	70.26618059891143	0.6082721643169862				
30.89794921875	0.2	63279	3	6	0	0	0	3	53	stimuli\Videos_short_600ms\58.single_slap_with_pencil_short_short_600ms.mp4	58.single_slap_with_pencil_short_short_600ms.mp4	70.45788274610004	71.06616869305708	0.6082859469570394				
31.69775390625	0.2	64917	4	6	0	0	0	4	250	stimuli\Videos_short_600ms_horvertflip\73.single_stroke_with_flat_hand_short_horvertflip_short_600ms.mp4	73.single_stroke_with_flat_hand_short_horvertflip_short_600ms.mp4	71.25786468204478	71.8661617724124	0.6082970903676141				
32.498046875	0.2	66556	5	6	0	0	0	5	107	stimuli\Videos_short_600ms_horflip\25.single_touch_with_stanley_knife_short_horflip_short_600ms.mp4	25.single_touch_with_stanley_knife_short_horflip_short_600ms.mp4	72.05785043020887	72.66615015980551	0.6082997295966379				
33.2978515625	0.2	68194	6	6	0	0	0	6	92	stimuli\Videos_short_600ms_horflip\11.single_touch_with_lighter_short_horflip_short_600ms.mp4	11.single_touch_with_lighter_short_horflip_short_600ms.mp4	72.85786843561482	73.46614001343687	0.6082715778220518				
34.09765625	0.2	69832	7	6	0	0	1	7	369	stimuli\Targets_short_600ms_horflip\finger-tap_short_horflip_short_600ms.mp4	finger-tap_short_horflip_short_600ms.mp4	73.65807939797423	74.2661278143346	0.6080484163603614				
34.89794921875	0.2	71471	8	6	0	0	0	8	76	stimuli\Videos_short_600ms\79.long_with_soft_brush_all_over_the_hand_short_short_600ms.mp4	79.long_with_soft_brush_all_over_the_hand_short_short_600ms.mp4	74.45790034095899	75.06611796121342	0.608217620254436				
35.69775390625	0.2	73109	9	6	0	0	0	9	331	stimuli\Videos_short_600ms_vertflip\65.stroke_top_to_bottom_with_stanley_knife_short_vertflip_short_600ms.mp4	65.stroke_top_to_bottom_with_stanley_knife_short_vertflip_short_600ms.mp4	75.25842713103793	75.8660905132333	0.6076633821953692				
36.49755859375	0.2	74747	10	6	0	0	1	10	363	stimuli\Targets_short_600ms\finger-tap_short_short_600ms.mp4	finger-tap_short_short_600ms.mp4	76.05822226822966	76.66609972120932	0.6078774529796647				
37.2978515625	0.2	76386	11	6	0	0	0	11	51	stimuli\Videos_short_600ms\56.repeated_touch_with_nail_file_short_short_600ms.mp4	56.repeated_touch_with_nail_file_short_short_600ms.mp4	76.85776873141367	77.46609661278444	0.6083278813707693				
38.09765625	0.2	78024	12	6	0	0	0	12	191	stimuli\Videos_short_600ms_horvertflip\2.single_touch_with_finger_short_horvertflip_short_600ms.mp4	2.single_touch_with_finger_short_horvertflip_short_600ms.mp4	77.65780609116428	78.2660612471177	0.6082551559534295				
38.8974609375	0.2	79662	13	6	0	0	0	13	14	stimuli\Videos_short_600ms\22.single_touch_with_metal_chopstick_short_short_600ms.mp4	22.single_touch_with_metal_chopstick_short_short_600ms.mp4	78.457739347999	79.06604963451082	0.6083102865118235				
39.69775390625	0.2	81301	14	6	0	0	0	14	347	stimuli\Videos_short_600ms_vertflip\8.single_touch_with_hairbrush_short_vertflip_short_600ms.mp4	8.single_touch_with_hairbrush_short_vertflip_short_600ms.mp4	79.25773711931697	79.86605268428639	0.6083155649694163				
40.49755859375	0.2	82939	15	6	0	0	0	15	274	stimuli\Videos_short_600ms_vertflip\13.single_touch_with_pen_short_vertflip_short_600ms.mp4	13.single_touch_with_pen_short_vertflip_short_600ms.mp4	80.05778532923068	80.6660434176606	0.6082580884299205				
41.29736328125	0.2	84577	16	6	0	0	1	16	373	stimuli\Targets_short_600ms_horvertflip\chopstick-silver-tap_short_vertflip_short_600ms.mp4	chopstick-silver-tap_short_vertflip_short_600ms.mp4	80.8577707841473	81.46604265521682	0.608271871069519				
42.09765625	0.2	86216	17	6	0	0	0	17	153	stimuli\Videos_short_600ms_horflip\67.single_touch_with_sponge_short_horflip_short_600ms.mp4	67.single_touch_with_sponge_short_horflip_short_600ms.mp4	81.65774714838653	82.26604658473525	0.608299436348716				
42.8974609375	0.2	87854	18	6	0	0	1	18	375	stimuli\Targets_short_600ms_horvertflip\finger-tap_short_vertflip_short_600ms.mp4	finger-tap_short_vertflip_short_600ms.mp4	82.4576903756415	83.06602646794636	0.6083360923048531				
43.697265625	0.2	89492	19	6	0	0	0	19	52	stimuli\Videos_short_600ms\57.single_touch_with_nail_file_short_short_600ms.mp4	57.single_touch_with_nail_file_short_short_600ms.mp4	83.25777729424499	83.86600899038649	0.6082316961415017				
44.49755859375	0.2	91131	20	6	0	0	0	20	32	stimuli\Videos_short_600ms\39.single_stab_with_scissors_short_short_600ms.mp4	39.single_stab_with_scissors_short_short_600ms.mp4	84.05772374722392	84.66601086717128	0.608287119947363				
45.29736328125	0.2	92769	21	6	0	0	0	21	305	stimuli\Videos_short_600ms_vertflip\41.injection_with_blunt_syringe_short_vertflip_short_600ms.mp4	41.injection_with_blunt_syringe_short_vertflip_short_600ms.mp4	84.85770099120646	85.46598781790635	0.6082868266998958				
46.09716796875	0.2	94407	22	6	0	0	0	22	358	stimuli\Videos_short_600ms_vertflip\9.single_touch_with_hammer_short_vertflip_short_600ms.mp4	9.single_touch_with_hammer_short_vertflip_short_600ms.mp4	85.65764979016649	86.26597620529901	0.6083264151325238				
46.8974609375	0.2	96046	23	6	0	0	0	23	211	stimuli\Videos_short_600ms_horvertflip\38.double_slap_with_pencil_short_horvertflip_short_600ms.mp4	38.double_slap_with_pencil_short_horvertflip_short_600ms.mp4	86.45773582902711	87.0659657656829	0.6082299366557891				
47.697265625	0.2	97684	24	6	0	0	0	24	7	stimuli\Videos_short_600ms\16.repeated_touch_with_plastic_brush_short_short_600ms.mp4	16.repeated_touch_with_plastic_brush_short_short_600ms.mp4	87.25780896499145	87.86595737879998	0.6081484138085216				
48.4970703125	0.2	99322	25	6	0	0	0	25	262	stimuli\Videos_short_600ms_horvertflip\84.single_touch_with_cotton_bud_short_horvertflip_short_600ms.mp4	84.single_touch_with_cotton_bud_short_horvertflip_short_600ms.mp4	88.05761993755596	88.66594811217419	0.6083281746182365				
49.29736328125	0.2	100961	26	6	0	0	0	26	294	stimuli\Videos_short_600ms_vertflip\31.hand_grabbing_wrist_short_vertflip_short_600ms.mp4	31.hand_grabbing_wrist_short_vertflip_short_600ms.mp4	88.8577851532823	89.4659364995673	0.6081513462850126				
50.09716796875	0.2	102599	27	6	0	0	0	27	115	stimuli\Videos_short_600ms_horflip\32.single_(long)pinch_with_fingers_short_horflip_short_600ms.mp4	32.single_(long)pinch_with_fingers_short_horflip_short_600ms.mp4	89.65764715093792	90.26592781943693	0.6082806684989919				
50.8974609375	0.2	104238	28	6	0	0	1	28	370	stimuli\Targets_short_600ms_horflip\hand-pinch_short_horflip_short_600ms.mp4	hand-pinch_short_horflip_short_600ms.mp4	90.45760621356568	91.06591620683002	0.6083099932643563				
51.697265625	0.2	105876	29	6	0	0	0	29	110	stimuli\Videos_short_600ms_horflip\28.single_injection_with_sharp_needle_short_horflip_short_600ms.mp4	28.single_injection_with_sharp_needle_short_horflip_short_600ms.mp4	91.25761014308456	91.86590840644249	0.6082982633579377				
52.4970703125	0.2	107514	30	6	0	0	0	30	97	stimuli\Videos_short_600ms_horflip\16.repeated_touch_with_plastic_brush_short_horflip_short_600ms.mp4	16.repeated_touch_with_plastic_brush_short_horflip_short_600ms.mp4	92.05762550926148	92.6658962073402	0.6082706980787407				
53.29736328125	0.2	109153	31	6	0	0	0	31	240	stimuli\Videos_short_600ms_horvertflip\64.repeated_touch_with_screwdriver_short_horvertflip_short_600ms.mp4	64.repeated_touch_with_screwdriver_short_horvertflip_short_600ms.mp4	92.85761184392096	93.46586670662646	0.6082548627055075				
54.09716796875	0.2	110791	32	6	0	0	0	32	239	stimuli\Videos_short_600ms_horvertflip\63.stroke_top_to_bottom_with_screwdriver_short_horvertflip_short_600ms.mp4	63.stroke_top_to_bottom_with_screwdriver_short_horvertflip_short_600ms.mp4	93.65758850140764	94.26584981556198	0.6082613141543334				
54.89697265625	0.2	112429	33	6	0	0	0	33	289	stimuli\Videos_short_600ms_vertflip\27.single_push_with_a_plastic_whisk_short_vertflip_short_600ms.mp4	27.single_push_with_a_plastic_whisk_short_vertflip_short_600ms.mp4	94.4575713170957	95.06586254250988	0.6082912254141775				
55.697265625	0.2	114068	34	6	0	0	0	34	120	stimuli\Videos_short_600ms_horflip\37.single_stab_with_nail_file_short_horflip_short_600ms.mp4	37.single_stab_with_nail_file_short_horflip_short_600ms.mp4	95.25760398488364	95.86585386237948	0.6082498774958367				
56.4970703125	0.2	115706	35	6	0	0	1	35	383	stimuli\Targets_short_600ms_vertflip\hand-stroke_short_horvertflip_short_600ms.mp4	hand-stroke_short_horvertflip_short_600ms.mp4	96.05753049702253	96.6658560324122	0.6083255353896675				
57.296875	0.2	117344	36	6	0	0	0	36	158	stimuli\Videos_short_600ms_horflip\71.single_stroke_with_finger_top_to_bottom_short_horflip_short_600ms.mp4	71.single_stroke_with_finger_top_to_bottom_short_horflip_short_600ms.mp4	96.85756081882982	97.46583679536616	0.6082759765363335				
58.09716796875	0.2	118983	37	6	0	0	0	37	271	stimuli\Videos_short_600ms_vertflip\10.single_touch_with_knife_short_vertflip_short_600ms.mp4	10.single_touch_with_knife_short_vertflip_short_600ms.mp4	97.65757149304407	98.26583691266524	0.6082654196211479				
58.89697265625	0.2	120621	38	6	0	0	0	38	34	stimuli\Videos_short_600ms\40.repeated_push_with_finger_short_short_600ms.mp4	40.repeated_push_with_finger_short_short_600ms.mp4	98.45749214023	99.06581738237172	0.6083252421417455				
59.69677734375	0.2	122259	39	6	0	0	0	39	263	stimuli\Videos_short_600ms_horvertflip\85.touch_top_to_bottom_with_fabric_short_horvertflip_short_600ms.mp4	85.touch_top_to_bottom_with_fabric_short_horvertflip_short_600ms.mp4	99.25750691991152	99.86581661992795	0.6083097000164344				
60.4970703125	0.2	123898	40	6	0	0	0	40	165	stimuli\Videos_short_600ms_horflip\78.single_stroke_top_to_bottom_with_soft_brush_short_horflip_short_600ms.mp4	78.single_stroke_top_to_bottom_with_soft_brush_short_horflip_short_600ms.mp4	100.0575316700133	100.66579943561555	0.6082677656022497				
61.296875	0.2	125536	41	6	0	0	0	41	327	stimuli\Videos_short_600ms_vertflip\61.single_hit_with_rolling_pin_short_vertflip_short_600ms.mp4	61.single_hit_with_rolling_pin_short_vertflip_short_600ms.mp4	100.85746052813327	101.46579075548516	0.6083302273518711				
62.0966796875	0.2	127174	42	6	0	0	0	42	154	stimuli\Videos_short_600ms_horflip\68.stroke_top_to_bottom_with_shawl_short_horflip_short_600ms.mp4	68.stroke_top_to_bottom_with_shawl_short_horflip_short_600ms.mp4	101.65745155475496	102.26577826313542	0.6083267083804458				
62.89697265625	0.2	128813	43	6	0	0	0	43	304	stimuli\Videos_short_600ms_vertflip\40.repeated_push_with_finger_short_vertflip_short_600ms.mp4	40.repeated_push_with_finger_short_vertflip_short_600ms.mp4	102.4574783575904	103.06576665052852	0.6082882929381412				
63.69677734375	0.2	130451	44	6	0	0	0	44	23	stimuli\Videos_short_600ms\30.finger_pulling_back_another_finger_short_short_600ms.mp4	30.finger_pulling_back_another_finger_short_short_600ms.mp4	103.2574336079988	103.86576002313132	0.6083264151325238				
64.49658203125	0.2	132089	45	6	0	0	0	45	313	stimuli\Videos_short_600ms_vertflip\49.repeated_slap_with_hand_short_vertflip_short_600ms.mp4	49.repeated_slap_with_hand_short_vertflip_short_600ms.mp4	104.05740674651406	104.66574841052444	0.6083416640103678				
65.296875	0.2	133728	46	6	0	0	0	46	202	stimuli\Videos_short_600ms_horvertflip\3.single_push_with_finger_short_horvertflip_short_600ms.mp4	3.single_push_with_finger_short_horvertflip_short_600ms.mp4	104.85745671591394	105.46573914389865	0.6082824279847046				
66.0966796875	0.2	135366	47	6	0	0	0	47	228	stimuli\Videos_short_600ms_horvertflip\53.touch_top_to_bottom_with_knife_short_horvertflip_short_600ms.mp4	53.touch_top_to_bottom_with_knife_short_horvertflip_short_600ms.mp4	105.65743366664856	106.26572606505351	0.6082923984049557				
66.896484375	0.2	137004	48	6	0	0	0	48	270	stimuli\Videos_short_600ms_vertflip\1.repeated_touch_with_finger_fast_short_vertflip_short_600ms.mp4	1.repeated_touch_with_finger_fast_short_vertflip_short_600ms.mp4	106.45745489777846	107.06571738492312	0.6082624871446569				
67.69677734375	0.2	138643	49	6	0	0	1	49	371	stimuli\Targets_short_600ms_horflip\hand-stroke_short_horflip_short_600ms.mp4	hand-stroke_short_horflip_short_600ms.mp4	107.25740281699564	107.8657031330872	0.6083003160915723				
68.49658203125	0.2	140281	50	6	0	0	0	50	74	stimuli\Videos_short_600ms\77.tapping_with_all_fingers_short_short_600ms.mp4	77.tapping_with_all_fingers_short_short_600ms.mp4	108.05757331117957	108.66569386646142	0.6081205552818574				
69.29638671875	0.2	141919	51	6	0	0	0	51	139	stimuli\Videos_short_600ms_horflip\54.repeated_touch_with_knife_short_horflip_short_600ms.mp4	54.repeated_touch_with_knife_short_horflip_short_600ms.mp4	108.8573977731362	109.4656916377794	0.6082938646432012				
70.0966796875	0.2	143558	52	6	0	0	0	52	319	stimuli\Videos_short_600ms_vertflip\54.repeated_touch_with_knife_short_vertflip_short_600ms.mp4	54.repeated_touch_with_knife_short_vertflip_short_600ms.mp4	109.6573744306229	110.26567357372414	0.6082991431012488				
70.896484375	0.2	145196	53	6	0	0	0	53	58	stimuli\Videos_short_600ms\62.touch_top_to_bottom_with_scissors_short_short_600ms.mp4	62.touch_top_to_bottom_with_scissors_short_short_600ms.mp4	110.4573390649566	111.0656742775186	0.6083352125619967				
71.69677734375	0.2	146835	54	6	0	0	1	54	365	stimuli\Targets_short_600ms\hand-stroke_short_short_600ms.mp4	hand-stroke_short_short_600ms.mp4	111.25772480291562	111.86565650671082	0.6079317037952023				
72.49658203125	0.2	148473	55	6	0	0	0	55	36	stimuli\Videos_short_600ms\42.single_slap_with_plastic_whisk_short_short_600ms.mp4	42.single_slap_with_plastic_whisk_short_short_600ms.mp4	112.05733578058287	112.66565251854264	0.6083167379597398				
73.29638671875	0.2	150111	56	6	0	0	0	56	293	stimuli\Videos_short_600ms_vertflip\30.finger_pulling_back_another_finger_short_vertflip_short_600ms.mp4	30.finger_pulling_back_another_finger_short_vertflip_short_600ms.mp4	112.85734234933034	113.46565762105185	0.6083152717214944				
74.0966796875	0.2	151750	57	6	0	0	0	57	341	stimuli\Videos_short_600ms_vertflip\74.fingers_walking_from_top_to_bottom_short_vertflip_short_600ms.mp4	74.fingers_walking_from_top_to_bottom_short_vertflip_short_600ms.mp4	113.65739349172054	114.26562929332886	0.6082358016083163				
74.896484375	0.2	153388	58	6	0	0	0	58	227	stimuli\Videos_short_600ms_horvertflip\52.touch_top_to_bottom_with_hammer_short_horvertflip_short_600ms.mp4	52.touch_top_to_bottom_with_hammer_short_horvertflip_short_600ms.mp4	114.4572903858466	115.06562207943672	0.6083316935901166				
75.6962890625	0.2	155026	59	6	0	0	0	59	84	stimuli\Videos_short_600ms\86.touch_top_to_bottom_with_hair_brush_short_short_600ms.mp4	86.touch_top_to_bottom_with_hair_brush_short_short_600ms.mp4	115.25732393337783	115.86560929383904	0.6082853604611955				
76.49658203125	0.2	156665	60	6	0	0	0	60	292	stimuli\Videos_short_600ms_vertflip\3.single_push_with_finger_short_vertflip_short_600ms.mp4	3.single_push_with_finger_short_vertflip_short_600ms.mp4	116.05730323009357	116.66559826772756	0.6082950376339795				
77.29638671875	0.2	158303	61	6	0	0	0	61	41	stimuli\Videos_short_600ms\47.(long)scratching_with_finger_nails_short_short_600ms.mp4	47.(long)scratching_with_finger_nails_short_short_600ms.mp4	116.85726082648353	117.4655881213589	0.6083272948753802				
78.09619140625	0.2	159941	62	6	0	0	1	62	361	stimuli\Targets_short_600ms\chopstick-silver-tap_short_short_600ms.mp4	chopstick-silver-tap_short_short_600ms.mp4	117.65725126660982	118.26557680199949	0.6083255353896675				
78.896484375	0.2	161580	63	6	0	0	0	63	86	stimuli\Videos_short_600ms\88.repeated_stroke_with_plastic_brush_short_short_600ms.mp4	88.repeated_stroke_with_plastic_brush_short_short_600ms.mp4	118.4572414134891	119.06556782862162	0.6083264151325238				
79.6962890625	0.2	163218	64	6	0	0	0	64	152	stimuli\Videos_short_600ms_horflip\66.stroke_top_to_bottom_with_sponge_short_horflip_short_600ms.mp4	66.stroke_top_to_bottom_with_sponge_short_horflip_short_600ms.mp4	119.25726440410472	119.86555738900506	0.6082929849003449				
80.49609375	0.2	164856	65	6	0	0	0	65	42	stimuli\Videos_short_600ms\48.single_slap_with_hand_short_short_600ms.mp4	48.single_slap_with_hand_short_short_600ms.mp4	120.05733959280224	120.66554988186545	0.6082102890632086				
81.29638671875	0.2	166495	66	6	0	0	0	66	142	stimuli\Videos_short_600ms_horflip\57.single_touch_with_nail_file_short_horflip_short_600ms.mp4	57.single_touch_with_nail_file_short_horflip_short_600ms.mp4	120.85760539247258	121.46553914900142	0.607933756528837				
82.09619140625	0.2	168133	67	6	0	0	0	67	101	stimuli\Videos_short_600ms_horflip\2.single_touch_with_finger_short_horflip_short_600ms.mp4	2.single_touch_with_finger_short_horflip_short_600ms.mp4	121.65718235341228	122.2655301756231	0.608347822210817				
82.89599609375	0.2	169771	68	6	0	0	0	68	339	stimuli\Videos_short_600ms_vertflip\72.(short)stroke_with_finger_all_over_the_hand_short_vertflip_short_600ms.mp4	72.(short)stroke_with_finger_all_over_the_hand_short_vertflip_short_600ms.mp4	122.45724962442318	123.065505366872	0.6082557424488186				
83.6962890625	0.2	171410	69	6	0	0	0	69	282	stimuli\Videos_short_600ms_vertflip\20.single_touch_with_screwdriver_short_vertflip_short_600ms.mp4	20.single_touch_with_screwdriver_short_vertflip_short_600ms.mp4	123.2571582484552	123.86549170153148	0.6083334530762841				
84.49609375	0.2	173048	70	6	0	0	0	70	184	stimuli\Videos_short_600ms_horvertflip\13.single_touch_with_pen_short_horvertflip_short_600ms.mp4	13.single_touch_with_pen_short_horvertflip_short_600ms.mp4	124.05738797866434	124.6654742239716	0.6080862453072768				
85.2958984375	0.2	174686	71	6	0	0	0	71	334	stimuli\Videos_short_600ms_vertflip\68.stroke_top_to_bottom_with_shawl_short_vertflip_short_600ms.mp4	68.stroke_top_to_bottom_with_shawl_short_vertflip_short_600ms.mp4	124.85746023488537	125.46547346152738	0.6080132266420151				
86.1044921875	0.2	176342	72	6	0	0	0	72	39	stimuli\Videos_short_600ms\45.scratching_with_finger_nails_short_short_600ms.mp4	45.scratching_with_finger_nails_short_short_600ms.mp4	125.66547656995272	126.27381207576218	0.6083355058094639				
86.904296875	0.2	177980	73	6	0	0	0	73	35	stimuli\Videos_short_600ms\41.injection_with_blunt_syringe_short_short_600ms.mp4	41.injection_with_blunt_syringe_short_short_600ms.mp4	126.46548900365316	127.07380134289816	0.6083123392450034				
87.70458984375	0.2	179619	74	6	0	0	0	74	193	stimuli\Videos_short_600ms_horvertflip\21.repeated_touch_with_metal_chopstick_short_horvertflip_short_600ms.mp4	21.repeated_touch_with_metal_chopstick_short_horvertflip_short_600ms.mp4	127.2654756315601	127.87378855730094	0.6083129257408473				
88.50439453125	0.2	181257	75	6	0	0	0	75	1	stimuli\Videos_short_600ms\10.single_touch_with_knife_short_short_600ms.mp4	10.single_touch_with_knife_short_short_600ms.mp4	128.06550712635772	128.6737813434088	0.6082742170510755				
89.30419921875	0.2	182895	76	6	0	0	0	76	150	stimuli\Videos_short_600ms_horflip\64.repeated_touch_with_screwdriver_short_horflip_short_600ms.mp4	64.repeated_touch_with_screwdriver_short_horflip_short_600ms.mp4	128.8654875960642	129.47377471601158	0.608287119947363				
90.1044921875	0.2	184534	77	6	0	0	0	77	353	stimuli\Videos_short_600ms_vertflip\85.touch_top_to_bottom_with_fabric_short_vertflip_short_600ms.mp4	85.touch_top_to_bottom_with_fabric_short_vertflip_short_600ms.mp4	129.66543991399658	130.27375987768073	0.6083199636841528				
90.904296875	0.2	186172	78	6	0	0	0	78	85	stimuli\Videos_short_600ms\87.single_stroke_top_to_bottom_with_plastic_brush_short_short_600ms.mp4	87.single_stroke_top_to_bottom_with_plastic_brush_short_short_600ms.mp4	130.46545615991636	131.07375852874156	0.6083023688252069				
91.7041015625	0.2	187810	79	6	0	0	0	79	320	stimuli\Videos_short_600ms_vertflip\55.touch_top_to_bottom_with_nail_file_short_vertflip_short_600ms.mp4	55.touch_top_to_bottom_with_nail_file_short_vertflip_short_600ms.mp4	131.26545158525278	131.87373987819092	0.6082882929381412				
92.50439453125	0.2	189449	80	6	0	0	0	80	63	stimuli\Videos_short_600ms\67.single_touch_with_sponge_short_short_600ms.mp4	67.single_touch_with_sponge_short_short_600ms.mp4	132.06540595591832	132.67373794275636	0.6083319868380386				
93.30419921875	0.2	191087	81	6	0	0	0	81	71	stimuli\Videos_short_600ms\74.fingers_walking_from_top_to_bottom_short_short_600ms.mp4	74.fingers_walking_from_top_to_bottom_short_short_600ms.mp4	132.8653955163022	133.47372662339694	0.6083311070947275				
94.10400390625	0.2	192725	82	6	0	0	0	82	108	stimuli\Videos_short_600ms_horflip\26.single_touch_with_a_blunt_syringe_short_horflip_short_600ms.mp4	26.single_touch_with_a_blunt_syringe_short_horflip_short_600ms.mp4	133.66542407862335	134.27372351497206	0.608299436348716				
94.904296875	0.2	194364	83	6	0	0	0	83	285	stimuli\Videos_short_600ms_vertflip\23.single_push_with_a_spoon_short_vertflip_short_600ms.mp4	23.single_push_with_a_spoon_short_vertflip_short_600ms.mp4	134.46544472325786	135.07370809014537	0.6082633668875133				
95.7041015625	0.2	196002	84	6	0	0	0	84	73	stimuli\Videos_short_600ms\76.tickle_with_fingers_from_top_to_bottom_short_short_600ms.mp4	76.tickle_with_fingers_from_top_to_bottom_short_short_600ms.mp4	135.2654319376602	135.87369559779563	0.6082636601354352				
96.50390625	0.2	197640	85	6	0	0	0	85	186	stimuli\Videos_short_600ms_horvertflip\15.single_stroke_top_to_bottom_with_a_plastic_whisk_short_horvertflip_short_600ms.mp4	15.single_stroke_top_to_bottom_with_a_plastic_whisk_short_horvertflip_short_600ms.mp4	136.06538161636354	136.67368515817952	0.6083035418159852				
97.30419921875	0.2	199279	86	6	0	0	0	86	149	stimuli\Videos_short_600ms_horflip\63.stroke_top_to_bottom_with_screwdriver_short_horflip_short_600ms.mp4	63.stroke_top_to_bottom_with_screwdriver_short_horflip_short_600ms.mp4	136.86533686677194	137.47367559830582	0.6083387315338769				
98.10400390625	0.2	200917	87	6	0	0	0	87	48	stimuli\Videos_short_600ms\53.touch_top_to_bottom_with_knife_short_short_600ms.mp4	53.touch_top_to_bottom_with_knife_short_short_600ms.mp4	137.66533669082355	138.2736680911662	0.6083314003426494				
98.90380859375	0.2	202555	88	6	0	0	0	88	146	stimuli\Videos_short_600ms_horflip\60.single_push_with_tip_of_pencil_short_horflip_short_600ms.mp4	60.single_push_with_tip_of_pencil_short_horflip_short_600ms.mp4	138.4653324094079	139.07365471907315	0.6083223096652546				
99.7041015625	0.2	204194	89	6	0	0	0	89	252	stimuli\Videos_short_600ms_horvertflip\75.(long)stroke_with_fingers_all_over_the_hand_short_horvertflip_short_600ms.mp4	75.(long)stroke_with_fingers_all_over_the_hand_short_horvertflip_short_600ms.mp4	139.26533106046872	139.87364310646626	0.6083120459975362				
100.50390625	0.2	205832	90	6	0	0	0	90	296	stimuli\Videos_short_600ms_vertflip\33.scratch_top_to_bottom_with_scissors_short_vertflip_short_600ms.mp4	33.scratch_top_to_bottom_with_scissors_short_vertflip_short_600ms.mp4	140.0653467198931	140.67363442633587	0.6082877064427521				
101.3037109375	0.2	207470	91	6	0	0	0	91	203	stimuli\Videos_short_600ms_horvertflip\30.finger_pulling_back_another_finger_short_horvertflip_short_600ms.mp4	30.finger_pulling_back_another_finger_short_horvertflip_short_600ms.mp4	140.86533745326733	141.47362369347184	0.6082862402045066				
102.10400390625	0.2	209109	92	6	0	0	0	92	345	stimuli\Videos_short_600ms_vertflip\78.single_stroke_top_to_bottom_with_soft_brush_short_vertflip_short_600ms.mp4	78.single_stroke_top_to_bottom_with_soft_brush_short_vertflip_short_600ms.mp4	141.66534226252907	142.27361970530364	0.608277442774579				
102.90380859375	0.2	210747	93	6	0	0	0	93	126	stimuli\Videos_short_600ms_horflip\42.single_slap_with_plastic_whisk_short_horflip_short_600ms.mp4	42.single_slap_with_plastic_whisk_short_horflip_short_600ms.mp4	142.46530865634804	143.07358463288483	0.6082759765367882				
103.70361328125	0.2	212385	94	6	0	0	0	94	177	stimuli\Videos_short_600ms_horflip\89.single_touch_with_plastic_brush_short_horflip_short_600ms.mp4	89.single_touch_with_plastic_brush_short_horflip_short_600ms.mp4	143.26541639553488	143.87358123121203	0.6081648356771439				
104.50390625	0.2	214024	95	6	0	0	0	95	284	stimuli\Videos_short_600ms_vertflip\22.single_touch_with_metal_chopstick_short_vertflip_short_600ms.mp4	22.single_touch_with_metal_chopstick_short_vertflip_short_600ms.mp4	144.06529921377387	144.6735737240724	0.6082745102985427				
105.3037109375	0.2	215662	96	6	0	0	0	96	204	stimuli\Videos_short_600ms_horvertflip\31.hand_grabbing_wrist_short_horvertflip_short_600ms.mp4	31.hand_grabbing_wrist_short_horvertflip_short_600ms.mp4	144.86525915614493	145.47357648060006	0.608317324455129				
106.10400390625	0.2	217301	97	6	0	0	0	97	173	stimuli\Videos_short_600ms_horflip\85.touch_top_to_bottom_with_fabric_short_horflip_short_600ms.mp4	85.touch_top_to_bottom_with_fabric_short_horflip_short_600ms.mp4	145.6652416785846	146.27354140818125	0.6082997295966379				
106.90380859375	0.2	218939	98	6	0	0	0	98	232	stimuli\Videos_short_600ms_horvertflip\57.single_touch_with_nail_file_short_horvertflip_short_600ms.mp4	57.single_touch_with_nail_file_short_horvertflip_short_600ms.mp4	146.4653538164862	147.0735579473485	0.6082041308623047	9.0	9.0	4.110315367320254	1.0
149.6025390625	0.2	306386	99	6	1	0	0	0	216	stimuli\Videos_short_600ms_horvertflip\42.single_slap_with_plastic_whisk_short_horvertflip_short_600ms.mp4	42.single_slap_with_plastic_whisk_short_horvertflip_short_600ms.mp4	189.1646849479207	189.7730304241504	0.6083454762297151				
150.40234375	0.2	308024	100	6	1	0	1	1	382	stimuli\Targets_short_600ms_vertflip\hand-pinch_short_horvertflip_short_600ms.mp4	hand-pinch_short_horvertflip_short_600ms.mp4	189.96469914110685	190.5730173453053	0.6083182041984401				
151.2021484375	0.2	309662	101	6	1	0	0	2	247	stimuli\Videos_short_600ms_horvertflip\70.(long)stroke_with_finger_all_over_the_hand_short_horvertflip_short_600ms.mp4	70.(long)stroke_with_finger_all_over_the_hand_short_horvertflip_short_600ms.mp4	190.76469456644372	191.3730080786795	0.6083135122357817				
152.00244140625	0.2	311301	102	6	1	0	0	3	287	stimuli\Videos_short_600ms_vertflip\25.single_touch_with_stanley_knife_short_vertflip_short_600ms.mp4	25.single_touch_with_stanley_knife_short_vertflip_short_600ms.mp4	191.5646715171783	192.172980044204	0.6083085270256561				
152.80224609375	0.2	312939	103	6	1	0	0	4	307	stimuli\Videos_short_600ms_vertflip\43.touch_top_to_bottom_with_sharp_wooden_stick_short_vertflip_short_600ms.mp4	43.touch_top_to_bottom_with_sharp_wooden_stick_short_vertflip_short_600ms.mp4	192.3647428936565	192.9730001023436	0.6082572086870641				
153.60205078125	0.2	314577	104	6	1	0	0	5	337	stimuli\Videos_short_600ms_vertflip\70.(long)stroke_with_finger_all_over_the_hand_short_vertflip_short_600ms.mp4	70.(long)stroke_with_finger_all_over_the_hand_short_vertflip_short_600ms.mp4	193.16469462509303	193.7729908357178	0.6082962106247578				
154.40234375	0.2	316216	105	6	1	0	0	6	244	stimuli\Videos_short_600ms_horvertflip\68.stroke_top_to_bottom_with_shawl_short_horvertflip_short_600ms.mp4	68.stroke_top_to_bottom_with_shawl_short_horvertflip_short_600ms.mp4	193.9646275886803	194.5729774636247	0.6083498749444516				
155.2021484375	0.2	317854	106	6	1	0	1	7	368	stimuli\Targets_short_600ms_horflip\chopstickwood-tap_short_horflip_short_600ms.mp4	chopstickwood-tap_short_horflip_short_600ms.mp4	194.76467785132763	195.37297670118096	0.6082988498533268				
156.001953125	0.2	319492	107	6	1	0	0	8	338	stimuli\Videos_short_600ms_vertflip\71.single_stroke_with_finger_top_to_bottom_short_vertflip_short_600ms.mp4	71.single_stroke_with_finger_top_to_bottom_short_vertflip_short_600ms.mp4	195.5647040676677	196.17295541140177	0.6082513437340822				
156.80224609375	0.2	321131	108	6	1	0	0	9	283	stimuli\Videos_short_600ms_vertflip\21.repeated_touch_with_metal_chopstick_short_vertflip_short_600ms.mp4	21.repeated_touch_with_metal_chopstick_short_vertflip_short_600ms.mp4	196.36468072515436	196.9729449717852	0.6082642466308243				
157.60205078125	0.2	322769	109	6	1	0	0	10	125	stimuli\Videos_short_600ms_horflip\41.injection_with_blunt_syringe_short_horflip_short_600ms.mp4	41.injection_with_blunt_syringe_short_horflip_short_600ms.mp4	197.1646309903531	197.77293599840732	0.6083050080542307				
158.40185546875	0.2	324407	110	6	1	0	0	11	324	stimuli\Videos_short_600ms_vertflip\59.single_push_with_long_side_pencil_short_vertflip_short_600ms.mp4	59.single_push_with_long_side_pencil_short_vertflip_short_600ms.mp4	197.96467714753317	198.57292614528615	0.6082489977529804				
159.2021484375	0.2	326046	111	6	1	0	0	12	112	stimuli\Videos_short_600ms_horflip\3.single_push_with_finger_short_horflip_short_600ms.mp4	3.single_push_with_finger_short_horflip_short_600ms.mp4	198.76468987448104	199.3729242098516	0.6082343353705255				
160.001953125	0.2	327684	112	6	1	0	1	13	367	stimuli\Targets_short_600ms_horflip\chopstick-silver-tap_short_horflip_short_600ms.mp4	chopstick-silver-tap_short_horflip_short_600ms.mp4	199.5645580303376	200.1729064390438	0.6083484087062061				
160.8017578125	0.2	329322	113	6	1	0	0	14	350	stimuli\Videos_short_600ms_vertflip\82.repeated_touch_with_cotton_bud_short_vertflip_short_600ms.mp4	82.repeated_touch_with_cotton_bud_short_vertflip_short_600ms.mp4	200.3645745695053	200.97289922515165	0.6083246556463564				
161.60205078125	0.2	330961	114	6	1	0	0	15	143	stimuli\Videos_short_600ms_horflip\58.single_slap_with_pencil_short_horflip_short_600ms.mp4	58.single_slap_with_pencil_short_horflip_short_600ms.mp4	201.16459726687344	201.77288614630652	0.6082888794330756				
162.40185546875	0.2	332599	115	6	1	0	0	16	148	stimuli\Videos_short_600ms_horflip\62.touch_top_to_bottom_with_scissors_short_horflip_short_600ms.mp4	62.touch_top_to_bottom_with_scissors_short_horflip_short_600ms.mp4	201.96454753207172	202.5728780526715	0.6083305205997931				
163.2021484375	0.2	334238	116	6	1	0	0	17	321	stimuli\Videos_short_600ms_vertflip\56.repeated_touch_with_nail_file_short_vertflip_short_600ms.mp4	56.repeated_touch_with_nail_file_short_vertflip_short_600ms.mp4	202.76456260500115	203.3728667333121	0.6083041283109196				
164.001953125	0.2	335876	117	6	1	0	0	18	127	stimuli\Videos_short_600ms_horflip\43.touch_top_to_bottom_with_sharp_wooden_stick_short_horflip_short_600ms.mp4	43.touch_top_to_bottom_with_sharp_wooden_stick_short_horflip_short_600ms.mp4	203.5646454181374	204.17285717343884	0.6082117553014541				
164.8017578125	0.2	337514	118	6	1	0	0	19	330	stimuli\Videos_short_600ms_vertflip\64.repeated_touch_with_screwdriver_short_vertflip_short_600ms.mp4	64.repeated_touch_with_screwdriver_short_vertflip_short_600ms.mp4	204.36451679971788	204.9728470270702	0.6083302273523259				
165.60205078125	0.2	339153	119	6	1	0	0	20	201	stimuli\Videos_short_600ms_horvertflip\29.single_pinch_with_tweezers_short_horvertflip_short_600ms.mp4	29.single_pinch_with_tweezers_short_horvertflip_short_600ms.mp4	205.16457732603297	205.77283365497715	0.6082563289442078				
166.40185546875	0.2	340791	120	6	1	0	0	21	40	stimuli\Videos_short_600ms\46.scratching_top_to_bottom_with_finger_nails_short_short_600ms.mp4	46.scratching_top_to_bottom_with_finger_nails_short_short_600ms.mp4	205.9645243655073	206.57283083979976	0.6083064742924762				
167.20166015625	0.2	342429	121	6	1	0	0	22	103	stimuli\Videos_short_600ms_horflip\21.repeated_touch_with_metal_chopstick_short_horflip_short_600ms.mp4	21.repeated_touch_with_metal_chopstick_short_horflip_short_600ms.mp4	206.76458694455596	207.37281424198272	0.6082272974267653				
168.001953125	0.2	344068	122	6	1	0	1	23	366	stimuli\Targets_short_600ms_horflip\brush-stroke_short_horflip_short_600ms.mp4	brush-stroke_short_horflip_short_600ms.mp4	207.56449087662577	208.17278415477404	0.6082932781482668				
168.8017578125	0.2	345706	123	6	1	0	0	24	298	stimuli\Videos_short_600ms_vertflip\35.single_punch_with_hand_short_vertflip_short_600ms.mp4	35.single_punch_with_hand_short_vertflip_short_600ms.mp4	208.36501414773284	208.97279512223577	0.6077809745029299				
169.6015625	0.2	347344	124	6	1	0	0	25	15	stimuli\Videos_short_600ms\23.single_push_with_a_spoon_short_short_600ms.mp4	23.single_push_with_a_spoon_short_short_600ms.mp4	209.16443539417017	209.7727914273155	0.6083560331453555				
170.40185546875	0.2	348983	125	6	1	0	0	26	19	stimuli\Videos_short_600ms\27.single_push_with_a_plastic_whisk_short_short_600ms.mp4	27.single_push_with_a_plastic_whisk_short_short_600ms.mp4	209.96451380859207	210.5727856796616	0.608271871069519				
171.20166015625	0.2	350621	126	6	1	0	0	27	26	stimuli\Videos_short_600ms\33.scratch_top_to_bottom_with_scissors_short_short_600ms.mp4	33.scratch_top_to_bottom_with_scissors_short_short_600ms.mp4	210.7644793226682	211.37277524004503	0.6082959173768359				
172.00146484375	0.2	352259	127	6	1	0	0	28	135	stimuli\Videos_short_600ms_horflip\50.single_(long)hard_push_with_thumb_short_horflip_short_600ms.mp4	50.single_(long)hard_push_with_thumb_short_horflip_short_600ms.mp4	211.56443340008627	212.1727627476953	0.6083293476090148				
172.8017578125	0.2	353898	128	6	1	0	0	29	261	stimuli\Videos_short_600ms_horvertflip\83.single_stroke_top_to_bottom_with_cotton_bud_short_horvertflip_short_600ms.mp4	83.single_stroke_top_to_bottom_with_cotton_bud_short_horvertflip_short_600ms.mp4	212.3644135765453	212.97275817303216	0.6083445964868588				
173.6015625	0.2	355536	129	6	1	0	0	30	102	stimuli\Videos_short_600ms_horflip\20.single_touch_with_screwdriver_short_horflip_short_600ms.mp4	20.single_touch_with_screwdriver_short_horflip_short_600ms.mp4	213.1644394996374	213.772742454958	0.6083029553205961				
174.4013671875	0.2	357174	130	6	1	0	1	31	376	stimuli\Targets_short_600ms_horvertflip\hand-pinch_short_vertflip_short_600ms.mp4	hand-pinch_short_vertflip_short_600ms.mp4	213.96444724137564	214.57272878961749	0.6082815482418482				
175.20166015625	0.2	358813	131	6	1	0	0	32	217	stimuli\Videos_short_600ms_horvertflip\43.touch_top_to_bottom_with_sharp_wooden_stick_short_horvertflip_short_600ms.mp4	43.touch_top_to_bottom_with_sharp_wooden_stick_short_horvertflip_short_600ms.mp4	214.76440601075592	215.37271922974423	0.6083132189883145				
176.00146484375	0.2	360451	132	6	1	0	0	33	121	stimuli\Videos_short_600ms_horflip\38.double_slap_with_pencil_short_horflip_short_600ms.mp4	38.double_slap_with_pencil_short_horflip_short_600ms.mp4	215.564429294619	216.17270673739404	0.6082774427750337				
176.80126953125	0.2	362089	133	6	1	0	0	34	163	stimuli\Videos_short_600ms_horflip\76.tickle_with_fingers_from_top_to_bottom_short_horflip_short_600ms.mp4	76.tickle_with_fingers_from_top_to_bottom_short_horflip_short_600ms.mp4	216.3644326376425	216.9726971775208	0.6082645398782915				
177.6015625	0.2	363728	134	6	1	0	0	35	357	stimuli\Videos_short_600ms_vertflip\89.single_touch_with_plastic_brush_short_vertflip_short_600ms.mp4	89.single_touch_with_plastic_brush_short_vertflip_short_600ms.mp4	217.16435387132375	217.77269201636227	0.6083381450384877				
178.4013671875	0.2	365366	135	6	1	0	0	36	89	stimuli\Videos_short_600ms\90.repeated_touch_with_sponge_short_short_600ms.mp4	90.repeated_touch_with_sponge_short_short_600ms.mp4	217.96434255196436	218.57268040375493	0.6083378517905658				
179.201171875	0.2	367004	136	6	1	0	0	37	275	stimuli\Videos_short_600ms_vertflip\14.repeated_touch_with_pencil_short_vertflip_short_600ms.mp4	14.repeated_touch_with_pencil_short_vertflip_short_600ms.mp4	218.76457022943987	219.37267201687249	0.608101787432588				
180.00146484375	0.2	368643	137	6	1	0	0	38	336	stimuli\Videos_short_600ms_vertflip\7.repeated_touch_with_hairbrush_short_vertflip_short_600ms.mp4	7.repeated_touch_with_hairbrush_short_vertflip_short_600ms.mp4	219.5643615544118	220.17265893802733	0.6082973836155361				
180.80126953125	0.2	370281	138	6	1	0	0	39	56	stimuli\Videos_short_600ms\60.single_push_with_tip_of_pencil_short_short_600ms.mp4	60.single_push_with_tip_of_pencil_short_short_600ms.mp4	220.3643197372971	220.9726534836209	0.6083337463237513				
181.60107421875	0.2	371919	139	6	1	0	0	40	182	stimuli\Videos_short_600ms_horvertflip\11.single_touch_with_lighter_short_horvertflip_short_600ms.mp4	11.single_touch_with_lighter_short_horvertflip_short_600ms.mp4	221.1643746919067	221.77264099127115	0.608266299364459				
182.4013671875	0.2	373558	140	6	1	0	0	41	245	stimuli\Videos_short_600ms_horvertflip\69.stroke_with_soft_sock_short_horvertflip_short_600ms.mp4	69.stroke_with_soft_sock_short_horvertflip_short_600ms.mp4	221.96430824198933	222.572625273197	0.6083170312076618				
183.201171875	0.2	375196	141	6	1	0	1	42	372	stimuli\Targets_short_600ms_horvertflip\brush-stroke_short_vertflip_short_600ms.mp4	brush-stroke_short_vertflip_short_600ms.mp4	222.76429780237277	223.3726165930666	0.6083187906938292				
184.00146484375	0.2	376835	142	6	1	0	0	43	208	stimuli\Videos_short_600ms_horvertflip\35.single_punch_with_hand_short_horvertflip_short_600ms.mp4	35.single_punch_with_hand_short_horvertflip_short_600ms.mp4	223.56428237754653	224.17260644669796	0.608324069151422				
184.80126953125	0.2	378473	143	6	1	0	0	44	78	stimuli\Videos_short_600ms\80.stroke_with_sharp_stick_all_over_the_hand_short_short_600ms.mp4	80.stroke_with_sharp_stick_all_over_the_hand_short_short_600ms.mp4	224.3644343971282	224.972603924768	0.6081695276398023				
185.60107421875	0.2	380111	144	6	1	0	0	45	234	stimuli\Videos_short_600ms_horvertflip\59.single_push_with_long_side_pencil_short_horvertflip_short_600ms.mp4	59.single_push_with_long_side_pencil_short_horvertflip_short_600ms.mp4	225.16424243721667	225.77259377839937	0.6083513411826971				
186.4013671875	0.2	381750	145	6	1	0	0	46	105	stimuli\Videos_short_600ms_horflip\23.single_push_with_a_spoon_short_horflip_short_600ms.mp4	23.single_push_with_a_spoon_short_horflip_short_600ms.mp4	225.96427363876637	226.57259448219384	0.6083208434274638				
187.201171875	0.2	383388	146	6	1	0	0	47	31	stimuli\Videos_short_600ms\38.double_slap_with_pencil_short_short_600ms.mp4	38.double_slap_with_pencil_short_short_600ms.mp4	226.764250589501	227.37257319241417	0.6083226029131765				
188.0009765625	0.2	385026	147	6	1	0	0	48	351	stimuli\Videos_short_600ms_vertflip\83.single_stroke_top_to_bottom_with_cotton_bud_short_vertflip_short_600ms.mp4	83.single_stroke_top_to_bottom_with_cotton_bud_short_vertflip_short_600ms.mp4	227.5642694746498	228.17256509877916	0.6082956241293687				
188.80126953125	0.2	386665	148	6	1	0	0	49	344	stimuli\Videos_short_600ms_vertflip\77.tapping_with_all_fingers_short_vertflip_short_600ms.mp4	77.tapping_with_all_fingers_short_vertflip_short_600ms.mp4	228.3642763366447	228.97255084694325	0.6082745102985427				
189.60107421875	0.2	388303	149	6	1	0	0	50	22	stimuli\Videos_short_600ms\3.single_push_with_finger_short_short_600ms.mp4	3.single_push_with_finger_short_short_600ms.mp4	229.16430577870915	229.77254246006032	0.6082366813511726				
190.40087890625	0.2	389941	150	6	1	0	0	51	343	stimuli\Videos_short_600ms_vertflip\76.tickle_with_fingers_from_top_to_bottom_short_vertflip_short_600ms.mp4	76.tickle_with_fingers_from_top_to_bottom_short_vertflip_short_600ms.mp4	229.9642234934181	230.5725317271963	0.6083082337781889				
191.201171875	0.2	391580	151	6	1	0	0	52	57	stimuli\Videos_short_600ms\61.single_hit_with_rolling_pin_short_short_600ms.mp4	61.single_hit_with_rolling_pin_short_short_600ms.mp4	230.7642171592688	231.3725224605705	0.6083053013016979				
192.0009765625	0.2	393218	152	6	1	0	0	53	281	stimuli\Videos_short_600ms_vertflip\2.single_touch_with_finger_short_vertflip_short_600ms.mp4	2.single_touch_with_finger_short_vertflip_short_600ms.mp4	231.56418032736428	232.1725137804401	0.6083334530758293				
192.80078125	0.2	394856	153	6	1	0	0	54	28	stimuli\Videos_short_600ms\35.single_punch_with_hand_short_short_600ms.mp4	35.single_punch_with_hand_short_short_600ms.mp4	232.36420683695175	232.97250363407147	0.6082967971196922				
193.60107421875	0.2	396495	154	6	1	0	0	55	214	stimuli\Videos_short_600ms_horvertflip\40.repeated_push_with_finger_short_horvertflip_short_600ms.mp4	40.repeated_push_with_finger_short_horvertflip_short_600ms.mp4	233.16420255553612	233.7724946606936	0.6082921051574885				
194.40087890625	0.2	398133	155	6	1	0	0	56	147	stimuli\Videos_short_600ms_horflip\61.single_hit_with_rolling_pin_short_horflip_short_600ms.mp4	61.single_hit_with_rolling_pin_short_horflip_short_600ms.mp4	233.96414314356207	234.5724833413342	0.6083401977721223				
195.20068359375	0.2	399771	156	6	1	0	0	57	355	stimuli\Videos_short_600ms_vertflip\87.single_stroke_top_to_bottom_with_plastic_brush_short_vertflip_short_600ms.mp4	87.single_stroke_top_to_bottom_with_plastic_brush_short_vertflip_short_600ms.mp4	234.76415117854776	235.3724687962508	0.6083176177030509				
196.0009765625	0.2	401410	157	6	1	0	0	58	128	stimuli\Videos_short_600ms_horflip\44.pushing_top_to_bottom_with_finger_short_horflip_short_600ms.mp4	44.pushing_top_to_bottom_with_finger_short_horflip_short_600ms.mp4	235.56416625147676	236.17245864988217	0.6082923984054105				
196.80078125	0.2	403048	158	6	1	0	0	59	18	stimuli\Videos_short_600ms\26.single_touch_with_a_blunt_syringe_short_short_600ms.mp4	26.single_touch_with_a_blunt_syringe_short_short_600ms.mp4	236.3641349912773	236.97243706685504	0.6083020755777397				
197.6005859375	0.2	404686	159	6	1	0	0	60	332	stimuli\Videos_short_600ms_vertflip\66.stroke_top_to_bottom_with_sponge_short_vertflip_short_600ms.mp4	66.stroke_top_to_bottom_with_sponge_short_vertflip_short_600ms.mp4	237.16416355359843	237.77243923688775	0.608275683289321				
198.40087890625	0.2	406325	160	6	1	0	0	61	62	stimuli\Videos_short_600ms\66.stroke_top_to_bottom_with_sponge_short_short_600ms.mp4	66.stroke_top_to_bottom_with_sponge_short_short_600ms.mp4	237.9641372786091	238.5724311432523	0.6082938646432012				
199.20068359375	0.2	407963	161	6	1	0	1	62	360	stimuli\Targets_short_600ms\brush-stroke_short_short_600ms.mp4	brush-stroke_short_short_600ms.mp4	238.76453269374088	239.37242158337904	0.6078888896381613				
200.00048828125	0.2	409601	162	6	1	0	0	63	46	stimuli\Videos_short_600ms\51.repeated_touch_with_hammer_short_short_600ms.mp4	51.repeated_touch_with_hammer_short_short_600ms.mp4	239.56413487397825	240.1724243399071	0.6082894659289195				
200.80078125	0.2	411240	163	6	1	0	0	64	79	stimuli\Videos_short_600ms\81.single_stroke_top_to_bottom_with_cotton_pad_short_short_600ms.mp4	81.single_stroke_top_to_bottom_with_cotton_pad_short_short_600ms.mp4	240.36412326137133	240.97240656909935	0.6082833077280156				
201.6005859375	0.2	412878	164	6	1	0	0	65	219	stimuli\Videos_short_600ms_horvertflip\45.scratching_with_finger_nails_short_horvertflip_short_600ms.mp4	45.scratching_with_finger_nails_short_horvertflip_short_600ms.mp4	241.1640905349336	241.7724017011883	0.6083111662546798				
202.40087890625	0.2	414517	165	6	1	0	0	66	269	stimuli\Videos_short_600ms_horvertflip\90.repeated_touch_with_sponge_short_horvertflip_short_600ms.mp4	90.repeated_touch_with_sponge_short_horvertflip_short_600ms.mp4	241.96408361428897	242.57238481012385	0.6083011958348834				
203.20068359375	0.2	416155	166	6	1	0	0	67	16	stimuli\Videos_short_600ms\24.single_stroke_top_to_bottom_with_a_spoon_short_short_600ms.mp4	24.single_stroke_top_to_bottom_with_a_spoon_short_short_600ms.mp4	242.76408871679817	243.37237319751696	0.6082844807187939				
204.00048828125	0.2	417793	167	6	1	0	0	68	312	stimuli\Videos_short_600ms_vertflip\48.single_slap_with_hand_short_vertflip_short_600ms.mp4	48.single_slap_with_hand_short_vertflip_short_600ms.mp4	243.56406390804705	244.172364810634	0.6083009025869615				
204.80078125	0.2	419432	168	6	1	0	0	69	33	stimuli\Videos_short_600ms\4.repeated_tap_with_finger_slow_short_short_600ms.mp4	4.repeated_tap_with_finger_slow_short_short_600ms.mp4	244.36412590060036	244.972356716999	0.6082308163986454				
205.6005859375	0.2	421070	169	6	1	0	0	70	170	stimuli\Videos_short_600ms_horflip\82.repeated_touch_with_cotton_bud_short_horflip_short_600ms.mp4	82.repeated_touch_with_cotton_bud_short_horflip_short_600ms.mp4	245.1642705889908	245.7723448111442	0.608074222153391				
206.400390625	0.2	422708	170	6	1	0	0	71	309	stimuli\Videos_short_600ms_vertflip\45.scratching_with_finger_nails_short_vertflip_short_600ms.mp4	45.scratching_with_finger_nails_short_vertflip_short_600ms.mp4	245.96406777891616	246.57233583776588	0.6082680588497169				
207.20068359375	0.2	424347	171	6	1	0	0	72	106	stimuli\Videos_short_600ms_horflip\24.single_stroke_top_to_bottom_with_a_spoon_short_horflip_short_600ms.mp4	24.single_stroke_top_to_bottom_with_a_spoon_short_horflip_short_600ms.mp4	246.76400162224627	247.37232598464516	0.6083243623988892				
208.00048828125	0.2	425985	172	6	1	0	0	73	168	stimuli\Videos_short_600ms_horflip\80.stroke_with_sharp_stick_all_over_the_hand_short_horflip_short_600ms.mp4	80.stroke_with_sharp_stick_all_over_the_hand_short_horflip_short_600ms.mp4	247.5639647903413	248.17231466528577	0.6083498749444516				
208.80029296875	0.2	427623	173	6	1	0	0	74	354	stimuli\Videos_short_600ms_vertflip\86.touch_top_to_bottom_with_hair_brush_short_vertflip_short_600ms.mp4	86.touch_top_to_bottom_with_hair_brush_short_vertflip_short_600ms.mp4	248.36400625555916	248.9723051054125	0.6082988498533268				
209.6005859375	0.2	429262	174	6	1	0	0	75	189	stimuli\Videos_short_600ms_horvertflip\18.single_stroke_from_top_to_bottom_with_rolling_pin_short_horvertflip_short_600ms.mp4	18.single_stroke_from_top_to_bottom_with_rolling_pin_short_horvertflip_short_600ms.mp4	249.16394772332796	249.77229994425352	0.6083522209255534				
210.400390625	0.2	430900	175	6	1	0	0	76	137	stimuli\Videos_short_600ms_horflip\52.touch_top_to_bottom_with_hammer_short_horflip_short_600ms.mp4	52.touch_top_to_bottom_with_hammer_short_horflip_short_600ms.mp4	249.9639792181256	250.57228862489455	0.6083094067689672				
211.2001953125	0.2	432538	176	6	1	0	0	77	61	stimuli\Videos_short_600ms\65.stroke_top_to_bottom_with_stanley_knife_short_short_600ms.mp4	65.stroke_top_to_bottom_with_stanley_knife_short_short_600ms.mp4	250.76398490713015	251.37225443221817	0.6082695250879624				
212.00048828125	0.2	434177	177	6	1	0	0	78	156	stimuli\Videos_short_600ms_horflip\7.repeated_touch_with_hairbrush_short_horflip_short_600ms.mp4	7.repeated_touch_with_hairbrush_short_horflip_short_600ms.mp4	251.5640254926047	252.172247218326	0.6082217257212506				
212.80029296875	0.2	435815	178	6	1	0	0	79	30	stimuli\Videos_short_600ms\37.single_stab_with_nail_file_short_short_600ms.mp4	37.single_stab_with_nail_file_short_short_600ms.mp4	252.3639044986244	252.9722361922145	0.6083316935901166				
213.60009765625	0.2	437453	179	6	1	0	0	80	167	stimuli\Videos_short_600ms_horflip\8.single_touch_with_hairbrush_short_horflip_short_600ms.mp4	8.single_touch_with_hairbrush_short_horflip_short_600ms.mp4	253.16391839856303	253.7722219403786	0.6083035418155305				
214.400390625	0.2	439092	180	6	1	0	0	81	311	stimuli\Videos_short_600ms_vertflip\47.(long)scratching_with_finger_nails_short_vertflip_short_600ms.mp4	47.(long)scratching_with_finger_nails_short_vertflip_short_600ms.mp4	253.96396690172423	254.57223378758363	0.6082668858593934				
215.2001953125	0.2	440730	181	6	1	0	0	82	352	stimuli\Videos_short_600ms_vertflip\84.single_touch_with_cotton_bud_short_vertflip_short_600ms.mp4	84.single_touch_with_cotton_bud_short_vertflip_short_600ms.mp4	254.76389898556863	255.37223507787348	0.6083360923048531				
216.0	0.2	442368	182	6	1	0	1	83	381	stimuli\Targets_short_600ms_vertflip\finger-tap_short_horvertflip_short_600ms.mp4	finger-tap_short_horvertflip_short_600ms.mp4	255.56391728422204	256.1722305032099	0.6083132189878597				
216.80029296875	0.2	444007	183	6	1	0	0	84	251	stimuli\Videos_short_600ms_horvertflip\74.fingers_walking_from_top_to_bottom_short_horvertflip_short_600ms.mp4	74.fingers_walking_from_top_to_bottom_short_horvertflip_short_600ms.mp4	256.3639505385054	256.9722183041076	0.6082677656022497				
217.60009765625	0.2	445645	184	6	1	0	0	85	9	stimuli\Videos_short_600ms\18.single_stroke_from_top_to_bottom_with_rolling_pin_short_short_600ms.mp4	18.single_stroke_from_top_to_bottom_with_rolling_pin_short_short_600ms.mp4	257.1638688397102	257.7721993603095	0.6083305205993383				
218.39990234375	0.2	447283	185	6	1	0	1	86	380	stimuli\Targets_short_600ms_vertflip\chopstickwood-tap_short_horvertflip_short_600ms.mp4	chopstickwood-tap_short_horvertflip_short_600ms.mp4	257.9638654380374	258.5721889206934	0.6083234826560329				
219.2001953125	0.2	448922	186	6	1	0	0	87	88	stimuli\Videos_short_600ms\9.single_touch_with_hammer_short_short_600ms.mp4	9.single_touch_with_hammer_short_short_600ms.mp4	258.7645769741357	259.37217672159113	0.6075997474554242				
220.0	0.2	450560	187	6	1	0	0	88	164	stimuli\Videos_short_600ms_horflip\77.tapping_with_all_fingers_short_horflip_short_600ms.mp4	77.tapping_with_all_fingers_short_horflip_short_600ms.mp4	259.56407710419126	260.17216745496535	0.6080903507740913				
220.7998046875	0.2	452198	188	6	1	0	0	89	256	stimuli\Videos_short_600ms_horvertflip\79.long_with_soft_brush_all_over_the_hand_short_horvertflip_short_600ms.mp4	79.long_with_soft_brush_all_over_the_hand_short_horvertflip_short_600ms.mp4	260.3638300137213	260.97215877483495	0.6083287611136257				
221.60009765625	0.2	453837	189	6	1	0	0	90	249	stimuli\Videos_short_600ms_horvertflip\72.(short)stroke_with_finger_all_over_the_hand_short_horvertflip_short_600ms.mp4	72.(short)stroke_with_finger_all_over_the_hand_short_horvertflip_short_600ms.mp4	261.1638952319986	261.77214628248475	0.6082510504861602				
222.39990234375	0.2	455475	190	6	1	0	0	91	200	stimuli\Videos_short_600ms_horvertflip\28.single_injection_with_sharp_needle_short_horvertflip_short_600ms.mp4	28.single_injection_with_sharp_needle_short_horvertflip_short_600ms.mp4	261.96410883358703	262.57213818884975	0.6080293552627154				
223.2001953125	0.2	457114	191	6	1	0	0	92	295	stimuli\Videos_short_600ms_vertflip\32.single_(long)pinch_with_fingers_short_vertflip_short_600ms.mp4	32.single_(long)pinch_with_fingers_short_vertflip_short_600ms.mp4	262.7638045598251	263.37212774923364	0.6083231894085657				
224.0	0.2	458752	192	6	1	0	0	93	87	stimuli\Videos_short_600ms\89.single_touch_with_plastic_brush_short_short_600ms.mp4	89.single_touch_with_plastic_brush_short_short_600ms.mp4	263.5638011581523	264.17211760286455	0.6083164447122726				
224.7998046875	0.2	460390	193	6	1	0	0	94	346	stimuli\Videos_short_600ms_vertflip\79.long_with_soft_brush_all_over_the_hand_short_vertflip_short_600ms.mp4	79.long_with_soft_brush_all_over_the_hand_short_vertflip_short_600ms.mp4	264.36403000861856	264.9721086294867	0.6080786208681275				
225.60009765625	0.2	462029	194	6	1	0	0	95	224	stimuli\Videos_short_600ms_horvertflip\5.repeated_tap_with_finger_moving_from_top_to_bottom_short_horvertflip_short_600ms.mp4	5.repeated_tap_with_finger_moving_from_top_to_bottom_short_horvertflip_short_600ms.mp4	265.16377822618597	265.772095843889	0.6083176177030509				
226.39990234375	0.2	463667	195	6	1	0	0	96	159	stimuli\Videos_short_600ms_horflip\72.(short)stroke_with_finger_all_over_the_hand_short_horflip_short_600ms.mp4	72.(short)stroke_with_finger_all_over_the_hand_short_horflip_short_600ms.mp4	265.9638015100495	266.572087750254	0.6082862402045066				
227.19970703125	0.2	465305	196	6	1	0	0	97	209	stimuli\Videos_short_600ms_horvertflip\36.single_slap_with_full_hand_short_horvertflip_short_600ms.mp4	36.single_slap_with_full_hand_short_horvertflip_short_600ms.mp4	266.76376379840167	267.37207731063745	0.6083135122357817				
228.0	0.2	466944	197	6	1	0	0	98	64	stimuli\Videos_short_600ms\68.stroke_top_to_bottom_with_shawl_short_short_600ms.mp4	68.stroke_top_to_bottom_with_shawl_short_short_600ms.mp4	267.56374485460356	268.17207097648816	0.6083261218846019	9.0	9.0	3.0594480434078832	1.0
273.73974609375	0.2	560619	198	6	2	0	0	0	323	stimuli\Videos_short_600ms_vertflip\58.single_slap_with_pencil_short_vertflip_short_600ms.mp4	58.single_slap_with_pencil_short_vertflip_short_600ms.mp4	313.3048420758769	313.913167904514	0.6083258286371347				
274.5400390625	0.2	562258	199	6	2	0	1	1	379	stimuli\Targets_short_600ms_vertflip\chopstick-silver-tap_short_horvertflip_short_600ms.mp4	chopstick-silver-tap_short_horvertflip_short_600ms.mp4	314.10504863952156	314.7131595176311	0.6081108781095281				
275.33984375	0.2	563896	200	6	2	0	0	2	277	stimuli\Videos_short_600ms_vertflip\16.repeated_touch_with_plastic_brush_short_vertflip_short_600ms.mp4	16.repeated_touch_with_plastic_brush_short_vertflip_short_600ms.mp4	314.90487222173533	315.513149078015	0.6082768562796446				
276.14013671875	0.2	565535	201	6	2	0	0	3	255	stimuli\Videos_short_600ms_horvertflip\78.single_stroke_top_to_bottom_with_soft_brush_short_horvertflip_short_600ms.mp4	78.single_stroke_top_to_bottom_with_soft_brush_short_horvertflip_short_600ms.mp4	315.7048805499685	316.31313746540764	0.6082569154391422				
276.93994140625	0.2	567173	202	6	2	0	0	4	253	stimuli\Videos_short_600ms_horvertflip\76.tickle_with_fingers_from_top_to_bottom_short_horvertflip_short_600ms.mp4	76.tickle_with_fingers_from_top_to_bottom_short_horvertflip_short_600ms.mp4	316.5050357952746	317.113127319039	0.6080915237644149				
277.73974609375	0.2	568811	203	6	2	0	0	5	124	stimuli\Videos_short_600ms_horflip\40.repeated_push_with_finger_short_horflip_short_600ms.mp4	40.repeated_push_with_finger_short_horflip_short_600ms.mp4	317.3047998482152	317.91311658617497	0.6083167379597398				
278.5400390625	0.2	570450	204	6	2	0	0	6	141	stimuli\Videos_short_600ms_horflip\56.repeated_touch_with_nail_file_short_horflip_short_600ms.mp4	56.repeated_touch_with_nail_file_short_horflip_short_600ms.mp4	318.10477855843556	318.7131105452736	0.6083319868380386				
279.33984375	0.2	572088	205	6	2	0	0	7	310	stimuli\Videos_short_600ms_vertflip\46.scratching_top_to_bottom_with_finger_nails_short_vertflip_short_600ms.mp4	46.scratching_top_to_bottom_with_finger_nails_short_vertflip_short_600ms.mp4	318.9047769162489	319.5130986394188	0.6083217231698654				
280.1396484375	0.2	573726	206	6	2	0	1	8	364	stimuli\Targets_short_600ms\hand-pinch_short_short_600ms.mp4	hand-pinch_short_short_600ms.mp4	319.704760025184	320.31309113227917	0.6083311070951822				
280.93994140625	0.2	575365	207	6	2	0	0	9	132	stimuli\Videos_short_600ms_horflip\48.single_slap_with_hand_short_horflip_short_600ms.mp4	48.single_slap_with_hand_short_horflip_short_600ms.mp4	320.50479650519173	321.1130789331769	0.6082824279851593				
281.73974609375	0.2	577003	208	6	2	0	0	10	13	stimuli\Videos_short_600ms\21.repeated_touch_with_metal_chopstick_short_short_600ms.mp4	21.repeated_touch_with_metal_chopstick_short_short_600ms.mp4	321.30476700447844	321.91306614757923	0.608299143100794				
282.53955078125	0.2	578641	209	6	2	0	0	11	43	stimuli\Videos_short_600ms\49.repeated_slap_with_hand_short_short_600ms.mp4	49.repeated_slap_with_hand_short_short_600ms.mp4	322.10474982016603	322.71303957934197	0.608289759175932				
283.33984375	0.2	580280	210	6	2	0	0	12	29	stimuli\Videos_short_600ms\36.single_slap_with_full_hand_short_short_600ms.mp4	36.single_slap_with_full_hand_short_short_600ms.mp4	322.9047294101297	323.5130484940705	0.6083190839408417				
284.1396484375	0.2	581918	211	6	2	0	0	13	237	stimuli\Videos_short_600ms_horvertflip\61.single_hit_with_rolling_pin_short_horvertflip_short_600ms.mp4	61.single_hit_with_rolling_pin_short_horvertflip_short_600ms.mp4	323.7047702888517	324.31303424223506	0.6082639533833571				
284.939453125	0.2	583556	212	6	2	0	0	14	300	stimuli\Videos_short_600ms_vertflip\37.single_stab_with_nail_file_short_vertflip_short_600ms.mp4	37.single_stab_with_nail_file_short_vertflip_short_600ms.mp4	324.50470207944863	325.11302585535213	0.6083237759035001				
285.73974609375	0.2	585195	213	6	2	0	0	15	90	stimuli\Videos_short_600ms_horflip\1.repeated_touch_with_finger_fast_short_horflip_short_600ms.mp4	1.repeated_touch_with_finger_fast_short_horflip_short_600ms.mp4	325.3046884141081	325.913012776507	0.6083243623988892				
286.53955078125	0.2	586833	214	6	2	0	1	16	377	stimuli\Targets_short_600ms_horvertflip\hand-stroke_short_vertflip_short_600ms.mp4	hand-stroke_short_vertflip_short_600ms.mp4	326.1047782651881	326.71300849509134	0.6082302299032563				
287.33935546875	0.2	588471	215	6	2	0	0	17	231	stimuli\Videos_short_600ms_horvertflip\56.repeated_touch_with_nail_file_short_horvertflip_short_600ms.mp4	56.repeated_touch_with_nail_file_short_horvertflip_short_600ms.mp4	326.90477632975353	327.5130006947038	0.6082243649502743				
288.1396484375	0.2	590110	216	6	2	0	0	18	328	stimuli\Videos_short_600ms_vertflip\62.touch_top_to_bottom_with_scissors_short_vertflip_short_600ms.mp4	62.touch_top_to_bottom_with_scissors_short_vertflip_short_600ms.mp4	327.7047301139237	328.31299817277386	0.6082680588501717				
288.939453125	0.2	591748	217	6	2	0	0	19	195	stimuli\Videos_short_600ms_horvertflip\23.single_push_with_a_spoon_short_horvertflip_short_600ms.mp4	23.single_push_with_a_spoon_short_horvertflip_short_600ms.mp4	328.5046536935861	329.11298157495685	0.6083278813707693				
289.7392578125	0.2	593386	218	6	2	0	0	20	0	stimuli\Videos_short_600ms\1.repeated_touch_with_finger_fast_short_short_600ms.mp4	1.repeated_touch_with_finger_fast_short_short_600ms.mp4	329.3046763909542	329.9129802260177	0.6083038350634524				
290.53955078125	0.2	595025	219	6	2	0	0	21	279	stimuli\Videos_short_600ms_vertflip\18.single_stroke_from_top_to_bottom_with_rolling_pin_short_vertflip_short_600ms.mp4	18.single_stroke_from_top_to_bottom_with_rolling_pin_short_vertflip_short_600ms.mp4	330.1046471834884	330.7129580564956	0.6083108730072126				
291.33935546875	0.2	596663	220	6	2	0	0	22	100	stimuli\Videos_short_600ms_horflip\19.single_touch_with_rolling_pin_short_horflip_short_600ms.mp4	19.single_touch_with_rolling_pin_short_horflip_short_600ms.mp4	330.9046194422608	331.51294937636476	0.6083299341039492				
292.13916015625	0.2	598301	221	6	2	0	0	23	299	stimuli\Videos_short_600ms_vertflip\36.single_slap_with_full_hand_short_vertflip_short_600ms.mp4	36.single_slap_with_full_hand_short_vertflip_short_600ms.mp4	331.70460958913964	332.31294069623436	0.6083311070947275				
292.939453125	0.2	599940	222	6	2	0	0	24	236	stimuli\Videos_short_600ms_horvertflip\60.single_push_with_tip_of_pencil_short_horvertflip_short_600ms.mp4	60.single_push_with_tip_of_pencil_short_horvertflip_short_600ms.mp4	332.5046208498493	333.11292703089384	0.6083061810445543				
293.7392578125	0.2	601578	223	6	2	0	0	25	162	stimuli\Videos_short_600ms_horflip\75.(long)stroke_with_fingers_all_over_the_hand_short_horflip_short_600ms.mp4	75.(long)stroke_with_fingers_all_over_the_hand_short_horflip_short_600ms.mp4	333.30465146490405	333.91291835076345	0.6082668858593934				
294.53955078125	0.2	603217	224	6	2	0	0	26	290	stimuli\Videos_short_600ms_vertflip\28.single_injection_with_sharp_needle_short_vertflip_short_600ms.mp4	28.single_injection_with_sharp_needle_short_vertflip_short_600ms.mp4	334.1045873609678	334.71290908413766	0.6083217231698654				
295.33935546875	0.2	604855	225	6	2	0	0	27	235	stimuli\Videos_short_600ms_horvertflip\6.single_touch_with_flat_hand_short_horvertflip_short_600ms.mp4	6.single_touch_with_flat_hand_short_horvertflip_short_600ms.mp4	334.90457428212267	335.5128971782833	0.6083228961606437				
296.13916015625	0.2	606493	226	6	2	0	0	28	91	stimuli\Videos_short_600ms_horflip\10.single_touch_with_knife_short_horflip_short_600ms.mp4	10.single_touch_with_knife_short_horflip_short_600ms.mp4	335.7046377409142	336.3128879116575	0.6082501707433039				
296.939453125	0.2	608132	227	6	2	0	0	29	306	stimuli\Videos_short_600ms_vertflip\42.single_slap_with_plastic_whisk_short_vertflip_short_600ms.mp4	42.single_slap_with_plastic_whisk_short_vertflip_short_600ms.mp4	336.50458712636964	337.11288011127	0.6082929849003449				
297.7392578125	0.2	609770	228	6	2	0	0	30	55	stimuli\Videos_short_600ms\6.single_touch_with_flat_hand_short_short_600ms.mp4	6.single_touch_with_flat_hand_short_short_600ms.mp4	337.3045444295117	337.9128649796912	0.6083205501795419				
298.5390625	0.2	611408	229	6	2	0	0	31	316	stimuli\Videos_short_600ms_vertflip\51.repeated_touch_with_hammer_short_vertflip_short_600ms.mp4	51.repeated_touch_with_hammer_short_vertflip_short_600ms.mp4	338.1046316413631	338.7128571793037	0.6082255379405979				
299.33935546875	0.2	613047	230	6	2	0	0	32	318	stimuli\Videos_short_600ms_vertflip\53.touch_top_to_bottom_with_knife_short_vertflip_short_600ms.mp4	53.touch_top_to_bottom_with_knife_short_vertflip_short_600ms.mp4	338.9046085920977	339.5128473261825	0.6082387340848072				
300.1474609375	0.2	614702	231	6	2	0	0	33	83	stimuli\Videos_short_600ms\85.touch_top_to_bottom_with_fabric_short_short_600ms.mp4	85.touch_top_to_bottom_with_fabric_short_short_600ms.mp4	339.71284222367376	340.3211680523109	0.6083258286371347				
300.947265625	0.2	616340	232	6	2	0	0	34	180	stimuli\Videos_short_600ms_horvertflip\1.repeated_touch_with_finger_fast_short_horvertflip_short_600ms.mp4	1.repeated_touch_with_finger_fast_short_horvertflip_short_600ms.mp4	340.51285172489725	341.12115966542797	0.6083079405307217				
301.74755859375	0.2	617979	233	6	2	0	1	35	362	stimuli\Targets_short_600ms\chopstickwood-tap_short_short_600ms.mp4	chopstickwood-tap_short_short_600ms.mp4	341.3128169457259	341.92115069204965	0.6083337463237513				
302.54736328125	0.2	619617	234	6	2	0	0	36	81	stimuli\Videos_short_600ms\83.single_stroke_top_to_bottom_with_cotton_bud_short_short_600ms.mp4	83.single_stroke_top_to_bottom_with_cotton_bud_short_short_600ms.mp4	342.1128525459908	342.72113790645244	0.6082853604616503				
303.34716796875	0.2	621255	235	6	2	0	0	37	212	stimuli\Videos_short_600ms_horvertflip\39.single_stab_with_scissors_short_horvertflip_short_600ms.mp4	39.single_stab_with_scissors_short_horvertflip_short_600ms.mp4	342.91280955588536	343.52113567776996	0.6083261218846019				
304.1474609375	0.2	622894	236	6	2	0	0	38	326	stimuli\Videos_short_600ms_vertflip\60.single_push_with_tip_of_pencil_short_vertflip_short_600ms.mp4	60.single_push_with_tip_of_pencil_short_vertflip_short_600ms.mp4	343.7128903162884	344.3210964998839	0.6082061835954846				
304.947265625	0.2	624532	237	6	2	0	0	39	116	stimuli\Videos_short_600ms_horflip\33.scratch_top_to_bottom_with_scissors_short_horflip_short_600ms.mp4	33.scratch_top_to_bottom_with_scissors_short_horflip_short_600ms.mp4	344.5128291448282	345.12110864033684	0.6082794955086683				
305.7470703125	0.2	626170	238	6	2	0	0	40	317	stimuli\Videos_short_600ms_vertflip\52.touch_top_to_bottom_with_hammer_short_vertflip_short_600ms.mp4	52.touch_top_to_bottom_with_hammer_short_vertflip_short_600ms.mp4	345.31281078752545	345.92109761422535	0.6082868266998958				
306.54736328125	0.2	627809	239	6	2	0	0	41	187	stimuli\Videos_short_600ms_horvertflip\16.repeated_touch_with_plastic_brush_short_horvertflip_short_600ms.mp4	16.repeated_touch_with_plastic_brush_short_horvertflip_short_600ms.mp4	346.112817063025	346.72108746785625	0.6082704048312735				
307.34716796875	0.2	629447	240	6	2	0	0	42	213	stimuli\Videos_short_600ms_horvertflip\4.repeated_tap_with_finger_slow_short_horvertflip_short_600ms.mp4	4.repeated_tap_with_finger_slow_short_horvertflip_short_600ms.mp4	346.9127462143929	347.521080547212	0.6083343328191404				
308.14697265625	0.2	631085	241	6	2	0	0	43	82	stimuli\Videos_short_600ms\84.single_touch_with_cotton_bud_short_short_600ms.mp4	84.single_touch_with_cotton_bud_short_short_600ms.mp4	347.7127853336292	348.3210727468245	0.6082874131952849				
308.947265625	0.2	632724	242	6	2	0	0	44	104	stimuli\Videos_short_600ms_horflip\22.single_touch_with_metal_chopstick_short_horflip_short_600ms.mp4	22.single_touch_with_metal_chopstick_short_horflip_short_600ms.mp4	348.5133250266049	349.12105673550286	0.6077317088979726				
309.7470703125	0.2	634362	243	6	2	0	1	45	378	stimuli\Targets_short_600ms_vertflip\brush-stroke_short_horvertflip_short_600ms.mp4	brush-stroke_short_horvertflip_short_600ms.mp4	349.3127582961961	349.9210468823817	0.6082885861856084				
310.54736328125	0.2	636001	244	6	2	0	0	46	118	stimuli\Videos_short_600ms_horflip\35.single_punch_with_hand_short_horflip_short_600ms.mp4	35.single_punch_with_hand_short_horflip_short_600ms.mp4	350.1135715892292	350.72104260096603	0.607471011736834				
311.34716796875	0.2	637639	245	6	2	0	0	47	185	stimuli\Videos_short_600ms_horvertflip\14.repeated_touch_with_pencil_short_horvertflip_short_600ms.mp4	14.repeated_touch_with_pencil_short_horvertflip_short_600ms.mp4	350.91285618226175	351.52102805588265	0.6081718736209041				
312.14697265625	0.2	639277	246	6	2	0	0	48	72	stimuli\Videos_short_600ms\75.(long)stroke_with_fingers_all_over_the_hand_short_short_600ms.mp4	75.(long)stroke_with_fingers_all_over_the_hand_short_short_600ms.mp4	351.7127674455228	352.3210176162661	0.6082501707433039				
312.947265625	0.2	640916	247	6	2	0	0	49	96	stimuli\Videos_short_600ms_horflip\15.single_stroke_top_to_bottom_with_a_plastic_whisk_short_horflip_short_600ms.mp4	15.single_stroke_top_to_bottom_with_a_plastic_whisk_short_horflip_short_600ms.mp4	352.51297811463473	353.1210095226311	0.60803140799635				
313.7470703125	0.2	642554	248	6	2	0	0	50	221	stimuli\Videos_short_600ms_horvertflip\47.(long)scratching_with_finger_nails_short_horvertflip_short_600ms.mp4	47.(long)scratching_with_finger_nails_short_horvertflip_short_600ms.mp4	353.31308907954553	353.9209750367072	0.6078859571616704				
314.546875	0.2	644192	249	6	2	0	0	51	49	stimuli\Videos_short_600ms\54.repeated_touch_with_knife_short_short_600ms.mp4	54.repeated_touch_with_knife_short_short_600ms.mp4	354.1130842116345	354.7209904028841	0.60790619124964				
315.34716796875	0.2	645831	250	6	2	0	0	52	169	stimuli\Videos_short_600ms_horflip\81.single_stroke_top_to_bottom_with_cotton_pad_short_horflip_short_600ms.mp4	81.single_stroke_top_to_bottom_with_cotton_pad_short_horflip_short_600ms.mp4	354.9126523751447	355.520977324039	0.6083249488942784				
316.14697265625	0.2	647469	251	6	2	0	0	53	278	stimuli\Videos_short_600ms_vertflip\17.repeated_touch_with_rolling_pin_short_vertflip_short_600ms.mp4	17.repeated_touch_with_rolling_pin_short_vertflip_short_600ms.mp4	355.7126448680051	356.3209674709178	0.6083226029127218				
316.94677734375	0.2	649107	252	6	2	0	0	54	260	stimuli\Videos_short_600ms_horvertflip\82.repeated_touch_with_cotton_bud_short_horvertflip_short_600ms.mp4	82.repeated_touch_with_cotton_bud_short_horvertflip_short_600ms.mp4	356.5126622869152	357.12095908403535	0.608296797120147				
317.7470703125	0.2	650746	253	6	2	0	0	55	129	stimuli\Videos_short_600ms_horflip\45.scratching_with_finger_nails_short_horflip_short_600ms.mp4	45.scratching_with_finger_nails_short_horflip_short_600ms.mp4	357.31263131996366	357.9209468849331	0.6083155649694163				
318.546875	0.2	652384	254	6	2	0	0	56	175	stimuli\Videos_short_600ms_horflip\87.single_stroke_top_to_bottom_with_plastic_brush_short_horflip_short_600ms.mp4	87.single_stroke_top_to_bottom_with_plastic_brush_short_horflip_short_600ms.mp4	358.11262293308073	358.7209423102695	0.6083193771887636				
319.3466796875	0.2	654022	255	6	2	0	0	57	157	stimuli\Videos_short_600ms_horflip\70.(long)stroke_with_finger_all_over_the_hand_short_horflip_short_600ms.mp4	70.(long)stroke_with_finger_all_over_the_hand_short_horflip_short_600ms.mp4	358.9126110272259	359.52092923142436	0.6083182041984401				
320.14697265625	0.2	655661	256	6	2	0	0	58	273	stimuli\Videos_short_600ms_vertflip\12.repeated_touch_with_nail_file_short_vertflip_short_600ms.mp4	12.repeated_touch_with_nail_file_short_vertflip_short_600ms.mp4	359.7125900306942	360.3209152728364	0.6083252421422003				
320.94677734375	0.2	657299	257	6	2	0	0	59	114	stimuli\Videos_short_600ms_horflip\31.hand_grabbing_wrist_short_horflip_short_600ms.mp4	31.hand_grabbing_wrist_short_horflip_short_600ms.mp4	360.5127247486648	361.1209168563737	0.6081921077088737				
321.74658203125	0.2	658937	258	6	2	0	0	60	172	stimuli\Videos_short_600ms_horflip\84.single_touch_with_cotton_bud_short_horflip_short_600ms.mp4	84.single_touch_with_cotton_bud_short_horflip_short_600ms.mp4	361.31258997204486	361.9208961530894	0.6083061810445543				
322.546875	0.2	660576	259	6	2	0	0	61	266	stimuli\Videos_short_600ms_horvertflip\88.repeated_stroke_with_plastic_brush_short_horvertflip_short_600ms.mp4	88.repeated_stroke_with_plastic_brush_short_horvertflip_short_600ms.mp4	362.1125965407923	362.720890698683	0.6082941578906684				
323.3466796875	0.2	662214	260	6	2	0	0	62	11	stimuli\Videos_short_600ms\2.single_touch_with_finger_short_short_600ms.mp4	2.single_touch_with_finger_short_short_600ms.mp4	362.9126078015019	363.52088055231434	0.6082727508123753				
324.146484375	0.2	663852	261	6	2	0	0	63	122	stimuli\Videos_short_600ms_horflip\39.single_stab_with_scissors_short_horflip_short_600ms.mp4	39.single_stab_with_scissors_short_horflip_short_600ms.mp4	363.71253900560305	364.32087187218394	0.6083328665808949				
324.94677734375	0.2	665491	262	6	2	0	0	64	17	stimuli\Videos_short_600ms\25.single_touch_with_stanley_knife_short_short_600ms.mp4	25.single_touch_with_stanley_knife_short_short_600ms.mp4	364.5125699139053	365.1208558608623	0.6082859469570394				
325.74658203125	0.2	667129	263	6	2	0	0	65	145	stimuli\Videos_short_600ms_horflip\6.single_touch_with_flat_hand_short_horflip_short_600ms.mp4	6.single_touch_with_flat_hand_short_horflip_short_600ms.mp4	365.3124970125395	365.92084600774115	0.6083489952015952				
326.54638671875	0.2	668767	264	6	2	0	0	66	75	stimuli\Videos_short_600ms\78.single_stroke_top_to_bottom_with_soft_brush_short_short_600ms.mp4	78.single_stroke_top_to_bottom_with_soft_brush_short_short_600ms.mp4	366.1125091529925	366.7208399668398	0.6083308138472603				
327.3466796875	0.2	670406	265	6	2	0	0	67	286	stimuli\Videos_short_600ms_vertflip\24.single_stroke_top_to_bottom_with_a_spoon_short_vertflip_short_600ms.mp4	24.single_stroke_top_to_bottom_with_a_spoon_short_vertflip_short_600ms.mp4	366.9124987133759	367.5208048944205	0.6083061810445543				
328.146484375	0.2	672044	266	6	2	0	0	68	166	stimuli\Videos_short_600ms_horflip\79.long_with_soft_brush_all_over_the_hand_short_horflip_short_600ms.mp4	79.long_with_soft_brush_all_over_the_hand_short_horflip_short_600ms.mp4	367.7125079213524	368.32081498213984	0.6083070607874106				
328.9462890625	0.2	673682	267	6	2	0	0	69	69	stimuli\Videos_short_600ms\72.(short)stroke_with_finger_all_over_the_hand_short_short_600ms.mp4	72.(short)stroke_with_finger_all_over_the_hand_short_short_600ms.mp4	368.51258311004995	369.1207848949307	0.6082017848807482				
329.74658203125	0.2	675321	268	6	2	0	0	70	65	stimuli\Videos_short_600ms\69.stroke_with_soft_sock_short_short_600ms.mp4	69.stroke_with_soft_sock_short_short_600ms.mp4	369.3125195926086	369.9207973286311	0.6082777360225009				
330.54638671875	0.2	676959	269	6	2	0	0	71	348	stimuli\Videos_short_600ms_vertflip\80.stroke_with_sharp_stick_all_over_the_hand_short_vertflip_short_600ms.mp4	80.stroke_with_sharp_stick_all_over_the_hand_short_vertflip_short_600ms.mp4	370.1124546089295	370.7207874755104	0.6083328665808949				
331.3466796875	0.2	678598	270	6	2	0	0	72	50	stimuli\Videos_short_600ms\55.touch_top_to_bottom_with_nail_file_short_short_600ms.mp4	55.touch_top_to_bottom_with_nail_file_short_short_600ms.mp4	370.912432439407	371.5207767426464	0.6083443032393916				
332.146484375	0.2	680236	271	6	2	0	0	73	70	stimuli\Videos_short_600ms\73.single_stroke_with_flat_hand_short_short_600ms.mp4	73.single_stroke_with_flat_hand_short_short_600ms.mp4	371.71248944675017	372.32074196347503	0.6082525167248605				
332.9462890625	0.2	681874	272	6	2	0	0	74	198	stimuli\Videos_short_600ms_horvertflip\26.single_touch_with_a_blunt_syringe_short_horvertflip_short_600ms.mp4	26.single_touch_with_a_blunt_syringe_short_horvertflip_short_600ms.mp4	372.5124886843064	373.1207532241847	0.6082645398782915				
333.74658203125	0.2	683513	273	6	2	0	0	75	246	stimuli\Videos_short_600ms_horvertflip\7.repeated_touch_with_hairbrush_short_horvertflip_short_600ms.mp4	7.repeated_touch_with_hairbrush_short_horvertflip_short_600ms.mp4	373.3124758987087	373.92074483730175	0.608268938593028				
334.54638671875	0.2	685151	274	6	2	0	0	76	215	stimuli\Videos_short_600ms_horvertflip\41.injection_with_blunt_syringe_short_horvertflip_short_600ms.mp4	41.injection_with_blunt_syringe_short_horvertflip_short_600ms.mp4	374.1125109124782	374.72072354752254	0.6082126350443104				
335.34619140625	0.2	686789	275	6	2	0	0	77	333	stimuli\Videos_short_600ms_vertflip\67.single_touch_with_sponge_short_vertflip_short_600ms.mp4	67.single_touch_with_sponge_short_vertflip_short_600ms.mp4	374.91245238024703	375.52070167124793	0.6082492910009023				
336.146484375	0.2	688428	276	6	2	0	0	78	131	stimuli\Videos_short_600ms_horflip\47.(long)scratching_with_finger_nails_short_horflip_short_600ms.mp4	47.(long)scratching_with_finger_nails_short_horflip_short_600ms.mp4	375.71246012198526	376.32072524835894	0.6082651263736807				
336.9462890625	0.2	690066	277	6	2	0	0	79	80	stimuli\Videos_short_600ms\82.repeated_touch_with_cotton_bud_short_short_600ms.mp4	82.repeated_touch_with_cotton_bud_short_short_600ms.mp4	376.5124766611525	377.120737095564	0.608260434411477				
337.74609375	0.2	691704	278	6	2	0	0	80	2	stimuli\Videos_short_600ms\11.single_touch_with_lighter_short_short_600ms.mp4	11.single_touch_with_lighter_short_short_600ms.mp4	377.3123615321251	377.920700263659	0.6083387315338769				
338.54638671875	0.2	693343	279	6	2	0	0	81	301	stimuli\Videos_short_600ms_vertflip\38.double_slap_with_pencil_short_vertflip_short_600ms.mp4	38.double_slap_with_pencil_short_vertflip_short_600ms.mp4	378.1123654616435	378.7206857185756	0.6083202569320747				
339.34619140625	0.2	694981	280	6	2	0	0	82	151	stimuli\Videos_short_600ms_horflip\65.stroke_top_to_bottom_with_stanley_knife_short_horflip_short_600ms.mp4	65.stroke_top_to_bottom_with_stanley_knife_short_horflip_short_600ms.mp4	378.91239988891766	379.52068730211295	0.6082874131952849				
340.14599609375	0.2	696619	281	6	2	0	0	83	5	stimuli\Videos_short_600ms\14.repeated_touch_with_pencil_short_short_600ms.mp4	14.repeated_touch_with_pencil_short_short_600ms.mp4	379.7123618840224	380.320670411048	0.6083085270256561				
340.9462890625	0.2	698258	282	6	2	0	0	84	179	stimuli\Videos_short_600ms_horflip\90.repeated_touch_with_sponge_short_horflip_short_600ms.mp4	90.repeated_touch_with_sponge_short_horflip_short_600ms.mp4	380.5123605350832	381.1206543997264	0.6082938646432012				
341.74609375	0.2	699896	283	6	2	0	0	85	322	stimuli\Videos_short_600ms_vertflip\57.single_touch_with_nail_file_short_vertflip_short_600ms.mp4	57.single_touch_with_nail_file_short_vertflip_short_600ms.mp4	381.3124896813483	381.92064718583424	0.6081575044859164				
342.5458984375	0.2	701534	284	6	2	0	0	86	340	stimuli\Videos_short_600ms_vertflip\73.single_stroke_with_flat_hand_short_vertflip_short_600ms.mp4	73.single_stroke_with_flat_hand_short_vertflip_short_600ms.mp4	382.11360384647105	382.7206344002366	0.6070305537655258				
343.34619140625	0.2	703173	285	6	2	0	0	87	21	stimuli\Videos_short_600ms\29.single_pinch_with_tweezers_short_short_600ms.mp4	29.single_pinch_with_tweezers_short_short_600ms.mp4	382.913429481418	383.5206031400371	0.6071736586191037				
344.154296875	0.2	704828	286	6	2	0	0	88	349	stimuli\Videos_short_600ms_vertflip\81.single_stroke_top_to_bottom_with_cotton_pad_short_vertflip_short_600ms.mp4	81.single_stroke_top_to_bottom_with_cotton_pad_short_vertflip_short_600ms.mp4	383.720671935936	384.3289508449493	0.6082789090132792				
344.9541015625	0.2	706466	287	6	2	0	0	89	280	stimuli\Videos_short_600ms_vertflip\19.single_touch_with_rolling_pin_short_vertflip_short_600ms.mp4	19.single_touch_with_rolling_pin_short_vertflip_short_600ms.mp4	384.5206441947085	385.12892310372126	0.6082789090128244				
345.75439453125	0.2	708105	288	6	2	0	0	90	218	stimuli\Videos_short_600ms_horvertflip\44.pushing_top_to_bottom_with_finger_short_horvertflip_short_600ms.mp4	44.pushing_top_to_bottom_with_finger_short_horvertflip_short_600ms.mp4	385.32065222969413	385.9289041599231	0.6082519302290166				
346.55419921875	0.2	709743	289	6	2	0	0	91	259	stimuli\Videos_short_600ms_horvertflip\81.single_stroke_top_to_bottom_with_cotton_pad_short_horvertflip_short_600ms.mp4	81.single_stroke_top_to_bottom_with_cotton_pad_short_horvertflip_short_600ms.mp4	386.12063621837206	386.7288831633914	0.6082469450193457				
347.3544921875	0.2	711382	290	6	2	0	0	92	258	stimuli\Videos_short_600ms_horvertflip\80.stroke_with_sharp_stick_all_over_the_hand_short_horvertflip_short_600ms.mp4	80.stroke_with_sharp_stick_all_over_the_hand_short_horvertflip_short_600ms.mp4	386.9206378019094	387.5288692048034	0.6082314028940345				
348.154296875	0.2	713020	291	6	2	0	0	93	241	stimuli\Videos_short_600ms_horvertflip\65.stroke_top_to_bottom_with_stanley_knife_short_horvertflip_short_600ms.mp4	65.stroke_top_to_bottom_with_stanley_knife_short_horvertflip_short_600ms.mp4	387.7206153391394	388.3288473285288	0.6082319893894237				
348.9541015625	0.2	714658	292	6	2	0	0	94	254	stimuli\Videos_short_600ms_horvertflip\77.tapping_with_all_fingers_short_horvertflip_short_600ms.mp4	77.tapping_with_all_fingers_short_horvertflip_short_600ms.mp4	388.52058378569245	389.12882867797816	0.6082448922857111	5.0	5.0	2.4461938947597446	1.0
395.4609375	0.2	809904	293	6	3	0	0	0	233	stimuli\Videos_short_600ms_horvertflip\58.single_slap_with_pencil_short_horvertflip_short_600ms.mp4	58.single_slap_with_pencil_short_horvertflip_short_600ms.mp4	435.0283066091861	435.6366283323564	0.6083217231703202				
396.26123046875	0.2	811543	294	6	3	0	0	1	94	stimuli\Videos_short_600ms_horflip\13.single_touch_with_pen_short_horflip_short_600ms.mp4	13.single_touch_with_pen_short_horflip_short_600ms.mp4	435.8284721181599	436.43662053196886	0.6081484138089763				
397.06103515625	0.2	813181	295	6	3	0	0	2	230	stimuli\Videos_short_600ms_horvertflip\55.touch_top_to_bottom_with_nail_file_short_horvertflip_short_600ms.mp4	55.touch_top_to_bottom_with_nail_file_short_horvertflip_short_600ms.mp4	436.6283259048819	437.2366097991048	0.60828389422295				
397.86083984375	0.2	814819	296	6	3	0	0	3	181	stimuli\Videos_short_600ms_horvertflip\10.single_touch_with_knife_short_horvertflip_short_600ms.mp4	10.single_touch_with_knife_short_horvertflip_short_600ms.mp4	437.4283509482311	438.0365984797454	0.6082475315142801				
398.6611328125	0.2	816458	297	6	3	0	0	4	183	stimuli\Videos_short_600ms_horvertflip\12.repeated_touch_with_nail_file_short_horvertflip_short_600ms.mp4	12.repeated_touch_with_nail_file_short_horvertflip_short_600ms.mp4	438.2283589832168	438.83659185234865	0.6082328691318253				
399.4609375	0.2	818096	298	6	3	0	0	5	144	stimuli\Videos_short_600ms_horflip\59.single_push_with_long_side_pencil_short_horflip_short_600ms.mp4	59.single_push_with_long_side_pencil_short_horflip_short_600ms.mp4	439.0283523558196	439.6365781870081	0.6082258311885198				
400.2607421875	0.2	819734	299	6	3	0	0	6	210	stimuli\Videos_short_600ms_horvertflip\37.single_stab_with_nail_file_short_horvertflip_short_600ms.mp4	37.single_stab_with_nail_file_short_horvertflip_short_600ms.mp4	439.8282413322595	440.43656833388695	0.6083270016274582				
401.06103515625	0.2	821373	300	6	3	0	0	7	3	stimuli\Videos_short_600ms\12.repeated_touch_with_nail_file_short_short_600ms.mp4	12.repeated_touch_with_nail_file_short_short_600ms.mp4	440.6282364643485	441.23655848076623	0.6083220164177874				
401.86083984375	0.2	823011	301	6	3	0	0	8	178	stimuli\Videos_short_600ms_horflip\9.single_touch_with_hammer_short_horflip_short_600ms.mp4	9.single_touch_with_hammer_short_horflip_short_600ms.mp4	441.42861692384986	442.0365480411497	0.6079311172998132				
402.66064453125	0.2	824649	302	6	3	0	0	9	276	stimuli\Videos_short_600ms_vertflip\15.single_stroke_top_to_bottom_with_a_plastic_whisk_short_vertflip_short_600ms.mp4	15.single_stroke_top_to_bottom_with_a_plastic_whisk_short_vertflip_short_600ms.mp4	442.22842848290975	442.8365373082856	0.6081088253758935				
403.4609375	0.2	826288	303	6	3	0	0	10	192	stimuli\Videos_short_600ms_horvertflip\20.single_touch_with_screwdriver_short_horvertflip_short_600ms.mp4	20.single_touch_with_screwdriver_short_horvertflip_short_600ms.mp4	443.0282673140009	443.63652804165986	0.6082607276589442				
404.2607421875	0.2	827926	304	6	3	0	0	11	95	stimuli\Videos_short_600ms_horflip\14.repeated_touch_with_pencil_short_horflip_short_600ms.mp4	14.repeated_touch_with_pencil_short_horflip_short_600ms.mp4	443.8282084885227	444.4365202412723	0.6083117527496142				
405.060546875	0.2	829564	305	6	3	0	0	12	66	stimuli\Videos_short_600ms\7.repeated_touch_with_hairbrush_short_short_600ms.mp4	7.repeated_touch_with_hairbrush_short_short_600ms.mp4	444.6285575705256	445.2365036434553	0.6079460729297352				
405.86083984375	0.2	831203	306	6	3	0	0	13	98	stimuli\Videos_short_600ms_horflip\17.repeated_touch_with_rolling_pin_short_horflip_short_600ms.mp4	17.repeated_touch_with_rolling_pin_short_horflip_short_600ms.mp4	445.428245379077	446.0365046404977	0.6082592614206987				
406.66064453125	0.2	832841	307	6	3	0	0	14	113	stimuli\Videos_short_600ms_horflip\30.finger_pulling_back_another_finger_short_horflip_short_600ms.mp4	30.finger_pulling_back_another_finger_short_horflip_short_600ms.mp4	446.2281592815666	446.83646399637337	0.6083047148067635				
407.46044921875	0.2	834479	308	6	3	0	0	15	205	stimuli\Videos_short_600ms_horvertflip\32.single_(long)pinch_with_fingers_short_horvertflip_short_600ms.mp4	32.single_(long)pinch_with_fingers_short_horvertflip_short_600ms.mp4	447.0281596921136	447.6364761368259	0.6083164447122726				
408.2607421875	0.2	836118	309	6	3	0	0	16	174	stimuli\Videos_short_600ms_horflip\86.touch_top_to_bottom_with_hair_brush_short_horflip_short_600ms.mp4	86.touch_top_to_bottom_with_hair_brush_short_horflip_short_600ms.mp4	447.82823898627794	448.4364727351531	0.6082337488751364				
409.060546875	0.2	837756	310	6	3	0	0	17	119	stimuli\Videos_short_600ms_horflip\36.single_slap_with_full_hand_short_horflip_short_600ms.mp4	36.single_slap_with_full_hand_short_horflip_short_600ms.mp4	448.6284332335217	449.23646728074664	0.608034047224919				
409.8603515625	0.2	839394	311	6	3	0	0	18	60	stimuli\Videos_short_600ms\64.repeated_touch_with_screwdriver_short_short_600ms.mp4	64.repeated_touch_with_screwdriver_short_short_600ms.mp4	449.428179105108	450.03645273566326	0.6082736305552316				
410.66064453125	0.2	841033	312	6	3	0	0	19	20	stimuli\Videos_short_600ms\28.single_injection_with_sharp_needle_short_short_600ms.mp4	28.single_injection_with_sharp_needle_short_short_600ms.mp4	450.2281487246514	450.8364387770753	0.6082900524238539				
411.46044921875	0.2	842671	313	6	3	0	0	20	134	stimuli\Videos_short_600ms_horflip\5.repeated_tap_with_finger_moving_from_top_to_bottom_short_horflip_short_600ms.mp4	5.repeated_tap_with_finger_moving_from_top_to_bottom_short_horflip_short_600ms.mp4	451.02809341814464	451.63642745771585	0.6083340395712185				
412.26025390625	0.2	844309	314	6	3	0	0	21	267	stimuli\Videos_short_600ms_horvertflip\89.single_touch_with_plastic_brush_short_horvertflip_short_600ms.mp4	89.single_touch_with_plastic_brush_short_horvertflip_short_600ms.mp4	451.828126672428	452.43641877758546	0.6082921051574885				
413.060546875	0.2	845948	315	6	3	0	0	22	171	stimuli\Videos_short_600ms_horflip\83.single_stroke_top_to_bottom_with_cotton_bud_short_horflip_short_600ms.mp4	83.single_stroke_top_to_bottom_with_cotton_bud_short_horflip_short_600ms.mp4	452.6280880810373	453.2364059919878	0.6083179109505181				
413.8603515625	0.2	847586	316	6	3	0	0	23	44	stimuli\Videos_short_600ms\5.repeated_tap_with_finger_moving_from_top_to_bottom_short_short_600ms.mp4	5.repeated_tap_with_finger_moving_from_top_to_bottom_short_short_600ms.mp4	453.4280770549258	454.03639643211454	0.6083193771887636				
414.66015625	0.2	849224	317	6	3	0	0	24	10	stimuli\Videos_short_600ms\19.single_touch_with_rolling_pin_short_short_600ms.mp4	19.single_touch_with_rolling_pin_short_short_600ms.mp4	454.22810327126535	454.8364179564919	0.60831468522656				
415.46044921875	0.2	850863	318	6	3	0	0	25	27	stimuli\Videos_short_600ms\34.repeated_punch_with_hand_short_short_600ms.mp4	34.repeated_punch_with_hand_short_short_600ms.mp4	455.0280840342198	455.6363723271579	0.6082882929381412				
416.26025390625	0.2	852501	319	6	3	0	0	26	308	stimuli\Videos_short_600ms_vertflip\44.pushing_top_to_bottom_with_finger_short_vertflip_short_600ms.mp4	44.pushing_top_to_bottom_with_finger_short_vertflip_short_600ms.mp4	455.828485607552	456.436343706187	0.6078580986350062				
417.060546875	0.2	854140	320	6	3	0	0	27	288	stimuli\Videos_short_600ms_vertflip\26.single_touch_with_a_blunt_syringe_short_vertflip_short_600ms.mp4	26.single_touch_with_a_blunt_syringe_short_vertflip_short_600ms.mp4	456.6287349853538	457.23635379390635	0.6076188085526155				
417.8603515625	0.2	855778	321	6	3	0	0	28	222	stimuli\Videos_short_600ms_horvertflip\48.single_slap_with_hand_short_horvertflip_short_600ms.mp4	48.single_slap_with_hand_short_horvertflip_short_600ms.mp4	457.42832895465745	458.0363436475377	0.6080146928802606				
418.66015625	0.2	857416	322	6	3	0	0	29	161	stimuli\Videos_short_600ms_horflip\74.fingers_walking_from_top_to_bottom_short_horflip_short_600ms.mp4	74.fingers_walking_from_top_to_bottom_short_horflip_short_600ms.mp4	458.2280648558235	458.83633262142575	0.6082677656022497				
419.46044921875	0.2	859055	323	6	3	0	0	30	314	stimuli\Videos_short_600ms_vertflip\5.repeated_tap_with_finger_moving_from_top_to_bottom_short_vertflip_short_600ms.mp4	5.repeated_tap_with_finger_moving_from_top_to_bottom_short_vertflip_short_600ms.mp4	459.02800368436374	459.6363254075336	0.6083217231698654				
420.26025390625	0.2	860693	324	6	3	0	0	31	38	stimuli\Videos_short_600ms\44.pushing_top_to_bottom_with_finger_short_short_600ms.mp4	44.pushing_top_to_bottom_with_finger_short_short_600ms.mp4	459.8280316601895	460.4362926810959	0.6082610209064114				
421.06005859375	0.2	862331	325	6	3	0	0	32	194	stimuli\Videos_short_600ms_horvertflip\22.single_touch_with_metal_chopstick_short_horvertflip_short_600ms.mp4	22.single_touch_with_metal_chopstick_short_horvertflip_short_600ms.mp4	460.6280244462974	461.2363071675299	0.6082827212326265				
421.8603515625	0.2	863970	326	6	3	0	0	33	24	stimuli\Videos_short_600ms\31.hand_grabbing_wrist_short_short_600ms.mp4	31.hand_grabbing_wrist_short_short_600ms.mp4	461.4280113674522	462.03628763723646	0.6082762697842554				
422.66015625	0.2	865608	327	6	3	0	0	34	155	stimuli\Videos_short_600ms_horflip\69.stroke_with_soft_sock_short_horflip_short_600ms.mp4	69.stroke_with_soft_sock_short_horflip_short_600ms.mp4	462.22803553105814	462.8362552040462	0.6082196729880707				
423.4599609375	0.2	867246	328	6	3	0	0	35	272	stimuli\Videos_short_600ms_vertflip\11.single_touch_with_lighter_short_vertflip_short_600ms.mp4	11.single_touch_with_lighter_short_vertflip_short_600ms.mp4	463.02795705798735	463.63627467568995	0.6083176177025962				
424.26025390625	0.2	868885	329	6	3	0	0	36	54	stimuli\Videos_short_600ms\59.single_push_with_long_side_pencil_short_short_600ms.mp4	59.single_push_with_long_side_pencil_short_short_600ms.mp4	463.82790908267134	464.4362662888075	0.6083572061361338				
425.06005859375	0.2	870523	330	6	3	0	1	37	374	stimuli\Targets_short_600ms_horvertflip\chopstickwood-tap_short_vertflip_short_600ms.mp4	chopstickwood-tap_short_vertflip_short_600ms.mp4	464.6279168244096	465.23625966141026	0.6083428370006914				
425.85986328125	0.2	872161	331	6	3	0	0	38	176	stimuli\Videos_short_600ms_horflip\88.repeated_stroke_with_plastic_brush_short_horflip_short_600ms.mp4	88.repeated_stroke_with_plastic_brush_short_horflip_short_600ms.mp4	465.4279354163105	466.03624130410753	0.608305887797087				
426.66015625	0.2	873800	332	6	3	0	0	39	99	stimuli\Videos_short_600ms_horflip\18.single_stroke_from_top_to_bottom_with_rolling_pin_short_horflip_short_600ms.mp4	18.single_stroke_from_top_to_bottom_with_rolling_pin_short_horflip_short_600ms.mp4	466.2279018101299	466.8362308644914	0.6083290543615476				
427.4599609375	0.2	875438	333	6	3	0	0	40	197	stimuli\Videos_short_600ms_horvertflip\25.single_touch_with_stanley_knife_short_horvertflip_short_600ms.mp4	25.single_touch_with_stanley_knife_short_horvertflip_short_600ms.mp4	467.02790485990545	467.63622042487486	0.6083155649694163				
428.259765625	0.2	877076	334	6	3	0	0	41	77	stimuli\Videos_short_600ms\8.single_touch_with_hairbrush_short_short_600ms.mp4	8.single_touch_with_hairbrush_short_short_600ms.mp4	467.8279782891168	468.4362099852583	0.6082316961415017				
429.06005859375	0.2	878715	335	6	3	0	0	42	303	stimuli\Videos_short_600ms_vertflip\4.repeated_tap_with_finger_slow_short_vertflip_short_600ms.mp4	4.repeated_tap_with_finger_slow_short_vertflip_short_600ms.mp4	468.62789805655984	469.2361992523947	0.6083011958348834				
429.85986328125	0.2	880353	336	6	3	0	0	43	220	stimuli\Videos_short_600ms_horvertflip\46.scratching_top_to_bottom_with_finger_nails_short_horvertflip_short_600ms.mp4	46.scratching_top_to_bottom_with_finger_nails_short_horvertflip_short_600ms.mp4	469.42793600280584	470.0361891060256	0.6082531032197949				
430.65966796875	0.2	881991	337	6	3	0	0	44	130	stimuli\Videos_short_600ms_horflip\46.scratching_top_to_bottom_with_finger_nails_short_horflip_short_600ms.mp4	46.scratching_top_to_bottom_with_finger_nails_short_horflip_short_600ms.mp4	470.22798362622416	470.8361810123906	0.6081973861664665				
431.4599609375	0.2	883630	338	6	3	0	0	45	140	stimuli\Videos_short_600ms_horflip\55.touch_top_to_bottom_with_nail_file_short_horflip_short_600ms.mp4	55.touch_top_to_bottom_with_nail_file_short_horflip_short_600ms.mp4	471.0279066193912	471.6361702795266	0.6082636601354352				
432.259765625	0.2	885268	339	6	3	0	1	46	373	stimuli\Targets_short_600ms_horvertflip\chopstick-silver-tap_short_vertflip_short_600ms.mp4	chopstick-silver-tap_short_vertflip_short_600ms.mp4	471.8278369437494	472.4361580804243	0.608321136674931				
433.0595703125	0.2	886906	340	6	3	0	0	47	302	stimuli\Videos_short_600ms_vertflip\39.single_stab_with_scissors_short_vertflip_short_600ms.mp4	39.single_stab_with_scissors_short_vertflip_short_600ms.mp4	472.6278241581522	473.2361499867893	0.6083258286371347				
433.85986328125	0.2	888545	341	6	3	0	0	48	160	stimuli\Videos_short_600ms_horflip\73.single_stroke_with_flat_hand_short_horflip_short_600ms.mp4	73.single_stroke_with_flat_hand_short_horflip_short_600ms.mp4	473.42782427545126	474.0361372011917	0.6083129257403925				
434.65966796875	0.2	890183	342	6	3	0	0	49	136	stimuli\Videos_short_600ms_horflip\51.repeated_touch_with_hammer_short_horflip_short_600ms.mp4	51.repeated_touch_with_hammer_short_horflip_short_600ms.mp4	474.2278452133333	474.8361276413184	0.6082824279851593				
435.45947265625	0.2	891821	343	6	3	0	0	50	329	stimuli\Videos_short_600ms_vertflip\63.stroke_top_to_bottom_with_screwdriver_short_vertflip_short_600ms.mp4	63.stroke_top_to_bottom_with_screwdriver_short_vertflip_short_600ms.mp4	475.027812780143	475.6361160287115	0.608303248568518				
436.259765625	0.2	893460	344	6	3	0	0	51	93	stimuli\Videos_short_600ms_horflip\12.repeated_touch_with_nail_file_short_horflip_short_600ms.mp4	12.repeated_touch_with_nail_file_short_horflip_short_600ms.mp4	475.82781348393746	476.4360824225305	0.608268938593028				
437.0595703125	0.2	895098	345	6	3	0	0	52	206	stimuli\Videos_short_600ms_horvertflip\33.scratch_top_to_bottom_with_scissors_short_horvertflip_short_600ms.mp4	33.scratch_top_to_bottom_with_scissors_short_horvertflip_short_600ms.mp4	476.6278074430361	477.23609426973553	0.608286826699441				
437.85986328125	0.2	896737	346	6	3	0	0	53	226	stimuli\Videos_short_600ms_horvertflip\51.repeated_touch_with_hammer_short_horvertflip_short_600ms.mp4	51.repeated_touch_with_hammer_short_horvertflip_short_600ms.mp4	477.42780550760153	478.0360612500503	0.6082557424488186				
438.65966796875	0.2	898375	347	6	3	0	0	54	223	stimuli\Videos_short_600ms_horvertflip\49.repeated_slap_with_hand_short_horvertflip_short_600ms.mp4	49.repeated_slap_with_hand_short_horvertflip_short_600ms.mp4	478.2281381677358	478.8360672323024	0.6079290645666333				
439.45947265625	0.2	900013	348	6	3	0	0	55	291	stimuli\Videos_short_600ms_vertflip\29.single_pinch_with_tweezers_short_vertflip_short_600ms.mp4	29.single_pinch_with_tweezers_short_vertflip_short_600ms.mp4	479.02771336918977	479.63606764284896	0.608354273659188				
440.259765625	0.2	901652	349	6	3	0	0	56	8	stimuli\Videos_short_600ms\17.repeated_touch_with_rolling_pin_short_short_600ms.mp4	17.repeated_touch_with_rolling_pin_short_short_600ms.mp4	479.8278258003388	480.4360636546812	0.6082378543424056				
441.0595703125	0.2	903290	350	6	3	0	0	57	68	stimuli\Videos_short_600ms\71.single_stroke_with_finger_top_to_bottom_short_short_600ms.mp4	71.single_stroke_with_finger_top_to_bottom_short_short_600ms.mp4	480.62772152147454	481.2360558542937	0.6083343328191404				
441.859375	0.2	904928	351	6	3	0	0	58	297	stimuli\Videos_short_600ms_vertflip\34.repeated_punch_with_hand_short_vertflip_short_600ms.mp4	34.repeated_punch_with_hand_short_vertflip_short_600ms.mp4	481.4277791153131	482.0360351510094	0.6082560356962858				
442.65966796875	0.2	906567	352	6	3	0	0	59	190	stimuli\Videos_short_600ms_horvertflip\19.single_touch_with_rolling_pin_short_horvertflip_short_600ms.mp4	19.single_touch_with_rolling_pin_short_horvertflip_short_600ms.mp4	482.2277241020538	482.8360270573744	0.6083029553205961				
443.45947265625	0.2	908205	353	6	3	0	0	60	335	stimuli\Videos_short_600ms_vertflip\69.stroke_with_soft_sock_short_vertflip_short_600ms.mp4	69.stroke_with_soft_sock_short_vertflip_short_600ms.mp4	483.0278682039493	483.6360177907486	0.6081495867992999				
444.25927734375	0.2	909843	354	6	3	0	0	61	6	stimuli\Videos_short_600ms\15.single_stroke_top_to_bottom_with_a_plastic_whisk_short_short_600ms.mp4	15.single_stroke_top_to_bottom_with_a_plastic_whisk_short_short_600ms.mp4	483.8277149527271	484.4360064713892	0.6082915186620994				
445.0595703125	0.2	911482	355	6	3	0	0	62	188	stimuli\Videos_short_600ms_horvertflip\17.repeated_touch_with_rolling_pin_short_horvertflip_short_600ms.mp4	17.repeated_touch_with_rolling_pin_short_horvertflip_short_600ms.mp4	484.62772679993213	485.23599397903945	0.6082671791073153				
445.859375	0.2	913120	356	6	3	0	0	63	12	stimuli\Videos_short_600ms\20.single_touch_with_screwdriver_short_short_600ms.mp4	20.single_touch_with_screwdriver_short_short_600ms.mp4	485.4276668014627	486.0359861786519	0.6083193771892184				
446.6591796875	0.2	914758	357	6	3	0	0	64	196	stimuli\Videos_short_600ms_horvertflip\24.single_stroke_top_to_bottom_with_a_spoon_short_horvertflip_short_600ms.mp4	24.single_stroke_top_to_bottom_with_a_spoon_short_horvertflip_short_600ms.mp4	486.2277226358155	486.83597515254	0.6082525167244057				
447.45947265625	0.2	916397	358	6	3	0	0	65	242	stimuli\Videos_short_600ms_horvertflip\66.stroke_top_to_bottom_with_sponge_short_horvertflip_short_600ms.mp4	66.stroke_top_to_bottom_with_sponge_short_horvertflip_short_600ms.mp4	487.0277080907322	487.6359635399331	0.6082554492008967				
448.25927734375	0.2	918035	359	6	3	0	0	66	59	stimuli\Videos_short_600ms\63.stroke_top_to_bottom_with_screwdriver_short_short_600ms.mp4	63.stroke_top_to_bottom_with_screwdriver_short_short_600ms.mp4	487.82766187490233	488.4359539800598	0.6082921051574885				
449.05908203125	0.2	919673	360	6	3	0	0	67	123	stimuli\Videos_short_600ms_horflip\4.repeated_tap_with_finger_slow_short_horflip_short_600ms.mp4	4.repeated_tap_with_finger_slow_short_horflip_short_600ms.mp4	488.6277121375497	489.235942074205	0.6082299366553343				
449.859375	0.2	921312	361	6	3	0	0	68	117	stimuli\Videos_short_600ms_horflip\34.repeated_punch_with_hand_short_horflip_short_600ms.mp4	34.repeated_punch_with_hand_short_horflip_short_600ms.mp4	489.4277040439147	490.0359316345889	0.6082275906742325				
450.6591796875	0.2	922950	362	6	3	0	0	69	325	stimuli\Videos_short_600ms_vertflip\6.single_touch_with_flat_hand_short_vertflip_short_600ms.mp4	6.single_touch_with_flat_hand_short_vertflip_short_600ms.mp4	490.2276724904673	490.8359024271231	0.6082299366557891				
451.458984375	0.2	924588	363	6	3	0	0	70	133	stimuli\Videos_short_600ms_horflip\49.repeated_slap_with_hand_short_horflip_short_600ms.mp4	49.repeated_slap_with_hand_short_horflip_short_600ms.mp4	491.0276667428134	491.6359154473184	0.6082487045050584				
452.25927734375	0.2	926227	364	6	3	0	0	71	342	stimuli\Videos_short_600ms_vertflip\75.(long)stroke_with_fingers_all_over_the_hand_short_vertflip_short_600ms.mp4	75.(long)stroke_with_fingers_all_over_the_hand_short_vertflip_short_600ms.mp4	491.8275765398362	492.4359006089876	0.608324069151422				
453.05908203125	0.2	927865	365	6	3	0	0	72	268	stimuli\Videos_short_600ms_horvertflip\9.single_touch_with_hammer_short_horvertflip_short_600ms.mp4	9.single_touch_with_hammer_short_horvertflip_short_600ms.mp4	492.6276432243517	493.2358889963807	0.6082457720290222				
453.85888671875	0.2	929503	366	6	3	0	0	73	257	stimuli\Videos_short_600ms_horvertflip\8.single_touch_with_hairbrush_short_horvertflip_short_600ms.mp4	8.single_touch_with_hairbrush_short_horvertflip_short_600ms.mp4	493.4275964220269	494.03588031624986	0.60828389422295				
454.6591796875	0.2	931142	367	6	3	0	0	74	315	stimuli\Videos_short_600ms_vertflip\50.single_(long)hard_push_with_thumb_short_vertflip_short_600ms.mp4	50.single_(long)hard_push_with_thumb_short_vertflip_short_600ms.mp4	494.227582170191	494.83587222261485	0.6082900524238539				
455.458984375	0.2	932780	368	6	3	0	0	75	264	stimuli\Videos_short_600ms_horvertflip\86.touch_top_to_bottom_with_hair_brush_short_horvertflip_short_600ms.mp4	86.touch_top_to_bottom_with_hair_brush_short_horvertflip_short_600ms.mp4	495.0276080932831	495.63586647496095	0.6082583816778424				
456.2587890625	0.2	934418	369	6	3	0	1	76	374	stimuli\Targets_short_600ms_horvertflip\chopstickwood-tap_short_vertflip_short_600ms.mp4	chopstickwood-tap_short_vertflip_short_600ms.mp4	495.82752316876395	496.43584929064855	0.6083261218846019				
457.05908203125	0.2	936057	370	6	3	0	0	77	238	stimuli\Videos_short_600ms_horvertflip\62.touch_top_to_bottom_with_scissors_short_horvertflip_short_600ms.mp4	62.touch_top_to_bottom_with_scissors_short_horvertflip_short_600ms.mp4	496.6275678597058	497.2358409037661	0.6082730440602973				
457.85888671875	0.2	937695	371	6	3	0	0	78	111	stimuli\Videos_short_600ms_horflip\29.single_pinch_with_tweezers_short_horflip_short_600ms.mp4	29.single_pinch_with_tweezers_short_horflip_short_600ms.mp4	497.42754510368786	498.0358304641495	0.6082853604616503				
458.6591796875	0.2	939334	372	6	3	0	0	79	45	stimuli\Videos_short_600ms\50.single_(long)hard_push_with_thumb_short_short_600ms.mp4	50.single_(long)hard_push_with_thumb_short_short_600ms.mp4	498.2275384762911	498.8358185582947	0.6082800820036027				
459.458984375	0.2	940972	373	6	3	0	0	80	138	stimuli\Videos_short_600ms_horflip\53.touch_top_to_bottom_with_knife_short_horflip_short_600ms.mp4	53.touch_top_to_bottom_with_knife_short_horflip_short_600ms.mp4	499.02791307083953	499.6358110511551	0.6078979803155562				
460.2587890625	0.2	942610	374	6	3	0	0	81	47	stimuli\Videos_short_600ms\52.touch_top_to_bottom_with_hammer_short_short_600ms.mp4	52.touch_top_to_bottom_with_hammer_short_short_600ms.mp4	499.8275466285759	500.4358000250436	0.6082533964677168				
461.05908203125	0.2	944249	375	6	3	0	0	82	265	stimuli\Videos_short_600ms_horvertflip\87.single_stroke_top_to_bottom_with_plastic_brush_short_horvertflip_short_600ms.mp4	87.single_stroke_top_to_bottom_with_plastic_brush_short_horvertflip_short_600ms.mp4	500.62746170405626	501.23578665295054	0.6083249488942784				
461.85888671875	0.2	945887	376	6	3	0	0	83	248	stimuli\Videos_short_600ms_horvertflip\71.single_stroke_with_finger_top_to_bottom_short_horvertflip_short_600ms.mp4	71.single_stroke_with_finger_top_to_bottom_short_horvertflip_short_600ms.mp4	501.42745947537423	502.0357791458109	0.6083196704366856				
