onset	duration	onsetsample	eventnumber	subjectnr	sequencenumber	blocksequencenumber	istarget	presentationnumber	stimnumber	stim	stimname	time_stimon	time_stimoff	stimdur	cresp	resp	rt	correct
17.06640625	0.2	34952	0	41	0	0	0	0	283	stimuli\Videos_short_600ms_vertflip\21.repeated_touch_with_metal_chopstick_short_vertflip_short_600ms.mp4	21.repeated_touch_with_metal_chopstick_short_vertflip_short_600ms.mp4	56.730020964274445	57.338344740177945	0.6083237759035001				
17.86669921875	0.2	36591	1	41	0	0	0	1	63	stimuli\Videos_short_600ms\67.single_touch_with_sponge_short_short_600ms.mp4	67.single_touch_with_sponge_short_short_600ms.mp4	57.53000935166756	58.13833430056184	0.6083249488942784				
18.66650390625	0.2	38229	2	41	0	0	0	2	14	stimuli\Videos_short_600ms\22.single_touch_with_metal_chopstick_short_short_600ms.mp4	22.single_touch_with_metal_chopstick_short_short_600ms.mp4	58.32999920529892	58.93832562043144	0.6083264151325238				
19.46630859375	0.2	39867	3	41	0	0	0	3	83	stimuli\Videos_short_600ms\85.touch_top_to_bottom_with_fabric_short_short_600ms.mp4	85.touch_top_to_bottom_with_fabric_short_short_600ms.mp4	59.12997117082341	59.738317233548514	0.6083460627251043				
20.2666015625	0.2	41506	4	41	0	0	0	4	157	stimuli\Videos_short_600ms_horflip\70.(long)stroke_with_finger_all_over_the_hand_short_horflip_short_600ms.mp4	70.(long)stroke_with_finger_all_over_the_hand_short_horflip_short_600ms.mp4	59.92997715307547	60.5382622202892	0.6082850672137283				
21.06640625	0.2	43144	5	41	0	0	0	5	233	stimuli\Videos_short_600ms_horvertflip\58.single_slap_with_pencil_short_horvertflip_short_600ms.mp4	58.single_slap_with_pencil_short_horvertflip_short_600ms.mp4	60.72999545172888	61.33830779097434	0.6083123392454581				
21.8662109375	0.2	44782	6	41	0	0	0	6	50	stimuli\Videos_short_600ms\55.touch_top_to_bottom_with_nail_file_short_short_600ms.mp4	55.touch_top_to_bottom_with_nail_file_short_short_600ms.mp4	61.52998647835102	62.13828738093753	0.6083009025865067				
22.66650390625	0.2	46421	7	41	0	0	0	7	296	stimuli\Videos_short_600ms_vertflip\33.scratch_top_to_bottom_with_scissors_short_vertflip_short_600ms.mp4	33.scratch_top_to_bottom_with_scissors_short_vertflip_short_600ms.mp4	62.3302414278578	62.938271369615904	0.6080299417581045				
23.46630859375	0.2	48059	8	41	0	0	0	8	261	stimuli\Videos_short_600ms_horvertflip\83.single_stroke_top_to_bottom_with_cotton_bud_short_horvertflip_short_600ms.mp4	83.single_stroke_top_to_bottom_with_cotton_bud_short_horvertflip_short_600ms.mp4	63.13009580107473	63.73824861359845	0.6081528125237128				
24.26611328125	0.2	49697	9	41	0	0	0	9	76	stimuli\Videos_short_600ms\79.long_with_soft_brush_all_over_the_hand_short_short_600ms.mp4	79.long_with_soft_brush_all_over_the_hand_short_short_600ms.mp4	63.92990765338254	64.53825635533622	0.6083487019536733				
25.06640625	0.2	51336	10	41	0	0	0	10	2	stimuli\Videos_short_600ms\11.single_touch_with_lighter_short_short_600ms.mp4	11.single_touch_with_lighter_short_short_600ms.mp4	64.72993152374102	65.33824738195835	0.6083158582173382				
25.8662109375	0.2	52974	11	41	0	0	0	11	325	stimuli\Videos_short_600ms_vertflip\6.single_touch_with_flat_hand_short_vertflip_short_600ms.mp4	6.single_touch_with_flat_hand_short_vertflip_short_600ms.mp4	65.52991052720927	66.13823459636069	0.608324069151422				
26.666015625	0.2	54612	12	41	0	0	0	12	87	stimuli\Videos_short_600ms\89.single_touch_with_plastic_brush_short_short_600ms.mp4	89.single_touch_with_plastic_brush_short_short_600ms.mp4	66.33015022783866	66.93824116510814	0.6080909372694805				
27.46630859375	0.2	56251	13	41	0	0	0	13	53	stimuli\Videos_short_600ms\58.single_slap_with_pencil_short_short_600ms.mp4	58.single_slap_with_pencil_short_short_600ms.mp4	67.12995944091745	67.73821899558561	0.608259554668166				
28.26611328125	0.2	57889	14	41	0	0	0	14	82	stimuli\Videos_short_600ms\84.single_touch_with_cotton_bud_short_short_600ms.mp4	84.single_touch_with_cotton_bud_short_short_600ms.mp4	67.92994225660505	68.53821793989437	0.608275683289321				
29.06591796875	0.2	59527	15	41	0	0	0	15	79	stimuli\Videos_short_600ms\81.single_stroke_top_to_bottom_with_cotton_pad_short_short_600ms.mp4	81.single_stroke_top_to_bottom_with_cotton_pad_short_short_600ms.mp4	68.73020336431273	69.33819987583911	0.6079965115263803				
29.8662109375	0.2	61166	16	41	0	0	0	16	230	stimuli\Videos_short_600ms_horvertflip\55.touch_top_to_bottom_with_nail_file_short_horvertflip_short_600ms.mp4	55.touch_top_to_bottom_with_nail_file_short_horvertflip_short_600ms.mp4	69.53038588165055	70.13819002271794	0.6078041410673904				
30.666015625	0.2	62804	17	41	0	0	0	17	342	stimuli\Videos_short_600ms_vertflip\75.(long)stroke_with_fingers_all_over_the_hand_short_vertflip_short_600ms.mp4	75.(long)stroke_with_fingers_all_over_the_hand_short_vertflip_short_600ms.mp4	70.33050417775257	70.93818192908293	0.6076777513303568				
31.4658203125	0.2	64442	18	41	0	0	0	18	226	stimuli\Videos_short_600ms_horvertflip\51.repeated_touch_with_hammer_short_horvertflip_short_600ms.mp4	51.repeated_touch_with_hammer_short_horvertflip_short_600ms.mp4	71.13002718112466	71.73817060972351	0.6081434285988507				
32.26611328125	0.2	66081	19	41	0	0	0	19	62	stimuli\Videos_short_600ms\66.stroke_top_to_bottom_with_sponge_short_short_600ms.mp4	66.stroke_top_to_bottom_with_sponge_short_short_600ms.mp4	71.9298325819841	72.5381616363452	0.6083290543610929				
33.06591796875	0.2	67719	20	41	0	0	0	20	352	stimuli\Videos_short_600ms_vertflip\84.single_touch_with_cotton_bud_short_vertflip_short_600ms.mp4	84.single_touch_with_cotton_bud_short_vertflip_short_600ms.mp4	72.7298039610132	73.33815236971941	0.6083484087062061				
33.86572265625	0.2	69357	21	41	0	0	0	21	193	stimuli\Videos_short_600ms_horvertflip\21.repeated_touch_with_metal_chopstick_short_horvertflip_short_600ms.mp4	21.repeated_touch_with_metal_chopstick_short_horvertflip_short_600ms.mp4	73.52987357800566	74.13813899762681	0.6082654196211479				
34.666015625	0.2	70996	22	41	0	0	0	22	135	stimuli\Videos_short_600ms_horflip\50.single_(long)hard_push_with_thumb_short_horflip_short_600ms.mp4	50.single_(long)hard_push_with_thumb_short_horflip_short_600ms.mp4	74.32981152680259	74.93813149048674	0.6083199636841528				
35.4658203125	0.2	72634	23	41	0	0	0	23	147	stimuli\Videos_short_600ms_horflip\61.single_hit_with_rolling_pin_short_horflip_short_600ms.mp4	61.single_hit_with_rolling_pin_short_horflip_short_600ms.mp4	75.12981780230257	75.73812281035634	0.608305008053776				
36.265625	0.2	74272	24	41	0	0	0	24	179	stimuli\Videos_short_600ms_horflip\90.repeated_touch_with_sponge_short_horflip_short_600ms.mp4	90.repeated_touch_with_sponge_short_horflip_short_600ms.mp4	75.92979944499939	76.5381132504831	0.6083138054837036				
37.06591796875	0.2	75911	25	41	0	0	0	25	44	stimuli\Videos_short_600ms\5.repeated_tap_with_finger_moving_from_top_to_bottom_short_short_600ms.mp4	5.repeated_tap_with_finger_moving_from_top_to_bottom_short_short_600ms.mp4	76.7297793282105	77.33810515684809	0.6083258286375894				
37.86572265625	0.2	77549	26	41	0	0	1	26	380	stimuli\Targets_short_600ms_vertflip\chopstickwood-tap_short_horvertflip_short_600ms.mp4	chopstickwood-tap_short_horvertflip_short_600ms.mp4	77.5297498274972	78.13809237125042	0.6083425437532242				
38.666015625	0.2	79188	27	41	0	0	0	27	214	stimuli\Videos_short_600ms_horvertflip\40.repeated_push_with_finger_short_horvertflip_short_600ms.mp4	40.repeated_push_with_finger_short_horvertflip_short_600ms.mp4	78.32976783290269	78.93806199079381	0.6082941578911232				
39.4658203125	0.2	80826	28	41	0	0	0	28	346	stimuli\Videos_short_600ms_vertflip\79.long_with_soft_brush_all_over_the_hand_short_vertflip_short_600ms.mp4	79.long_with_soft_brush_all_over_the_hand_short_vertflip_short_600ms.mp4	79.1297453701327	79.73807471774171	0.6083293476090148				
40.265625	0.2	82464	29	41	0	0	0	29	49	stimuli\Videos_short_600ms\54.repeated_touch_with_knife_short_short_600ms.mp4	54.repeated_touch_with_knife_short_short_600ms.mp4	79.92981058840996	80.53804990899062	0.6082393205806511				
41.06591796875	0.2	84103	30	41	0	0	0	30	65	stimuli\Videos_short_600ms\69.stroke_with_soft_sock_short_short_600ms.mp4	69.stroke_with_soft_sock_short_short_600ms.mp4	80.7297280098719	81.33803155168744	0.6083035418155305				
41.86572265625	0.2	85741	31	41	0	0	0	31	173	stimuli\Videos_short_600ms_horflip\85.touch_top_to_bottom_with_fabric_short_horflip_short_600ms.mp4	85.touch_top_to_bottom_with_fabric_short_horflip_short_600ms.mp4	81.52977182107088	82.13804662461689	0.6082748035460099				
42.66552734375	0.2	87379	32	41	0	0	0	32	168	stimuli\Videos_short_600ms_horflip\80.stroke_with_sharp_stick_all_over_the_hand_short_horflip_short_600ms.mp4	80.stroke_with_sharp_stick_all_over_the_hand_short_horflip_short_600ms.mp4	82.32974261360505	82.93803941072474	0.6082967971196922				
43.4658203125	0.2	89018	33	41	0	0	0	33	318	stimuli\Videos_short_600ms_vertflip\53.touch_top_to_bottom_with_knife_short_vertflip_short_600ms.mp4	53.touch_top_to_bottom_with_knife_short_vertflip_short_600ms.mp4	83.12969786401345	83.73803952802382	0.6083416640103678				
44.265625	0.2	90656	34	41	0	0	0	34	182	stimuli\Videos_short_600ms_horvertflip\11.single_touch_with_lighter_short_horvertflip_short_600ms.mp4	11.single_touch_with_lighter_short_horvertflip_short_600ms.mp4	83.92972261411524	84.5380197044824	0.6082970903671594				
45.0654296875	0.2	92294	35	41	0	0	0	35	300	stimuli\Videos_short_600ms_vertflip\37.single_stab_with_nail_file_short_vertflip_short_600ms.mp4	37.single_stab_with_nail_file_short_vertflip_short_600ms.mp4	84.73004266460066	85.33800955811375	0.607966893513094				
45.86572265625	0.2	93933	36	41	0	0	0	36	127	stimuli\Videos_short_600ms_horflip\43.touch_top_to_bottom_with_sharp_wooden_stick_short_horflip_short_600ms.mp4	43.touch_top_to_bottom_with_sharp_wooden_stick_short_horflip_short_600ms.mp4	85.52971170530236	86.13799794550687	0.6082862402045066				
46.66552734375	0.2	95571	37	41	0	0	0	37	256	stimuli\Videos_short_600ms_horvertflip\79.long_with_soft_brush_all_over_the_hand_short_horvertflip_short_600ms.mp4	79.long_with_soft_brush_all_over_the_hand_short_horvertflip_short_600ms.mp4	86.3296590380246	86.93798926537647	0.6083302273518711				
47.46533203125	0.2	97209	38	41	0	0	0	38	299	stimuli\Videos_short_600ms_vertflip\36.single_slap_with_full_hand_short_vertflip_short_600ms.mp4	36.single_slap_with_full_hand_short_vertflip_short_600ms.mp4	87.1296503578942	87.73797765276959	0.6083272948753802				
48.265625	0.2	98848	39	41	0	0	0	39	317	stimuli\Videos_short_600ms_vertflip\52.touch_top_to_bottom_with_hammer_short_vertflip_short_600ms.mp4	52.touch_top_to_bottom_with_hammer_short_vertflip_short_600ms.mp4	87.92962554914266	88.53796985238205	0.6083443032393916				
49.0654296875	0.2	100486	40	41	0	0	0	40	241	stimuli\Videos_short_600ms_horvertflip\65.stroke_top_to_bottom_with_stanley_knife_short_horvertflip_short_600ms.mp4	65.stroke_top_to_bottom_with_stanley_knife_short_horvertflip_short_600ms.mp4	88.72966848059878	89.33796234524198	0.6082938646432012				
49.865234375	0.2	102124	41	41	0	0	1	41	376	stimuli\Targets_short_600ms_horvertflip\hand-pinch_short_vertflip_short_600ms.mp4	hand-pinch_short_vertflip_short_600ms.mp4	89.52960965512011	90.13795249212126	0.6083428370011461				
50.66552734375	0.2	103763	42	41	0	0	0	42	118	stimuli\Videos_short_600ms_horflip\35.single_punch_with_hand_short_horflip_short_600ms.mp4	35.single_punch_with_hand_short_horflip_short_600ms.mp4	90.32961123865744	90.9379397065236	0.6083284678661585				
51.46533203125	0.2	105401	43	41	0	0	0	43	200	stimuli\Videos_short_600ms_horvertflip\28.single_injection_with_sharp_needle_short_horvertflip_short_600ms.mp4	28.single_injection_with_sharp_needle_short_horvertflip_short_600ms.mp4	91.12958408392524	91.73793190613604	0.608347822210817				
52.26513671875	0.2	107039	44	41	0	0	0	44	207	stimuli\Videos_short_600ms_horvertflip\34.repeated_punch_with_hand_short_horvertflip_short_600ms.mp4	34.repeated_punch_with_hand_short_horvertflip_short_600ms.mp4	91.92959446489203	92.53792146651996	0.608327001627913				
53.0654296875	0.2	108678	45	41	0	0	0	45	287	stimuli\Videos_short_600ms_vertflip\25.single_touch_with_stanley_knife_short_vertflip_short_600ms.mp4	25.single_touch_with_stanley_knife_short_vertflip_short_600ms.mp4	92.7298039610132	93.33791425262734	0.608110291614139				
53.865234375	0.2	110316	46	41	0	0	0	46	286	stimuli\Videos_short_600ms_vertflip\24.single_stroke_top_to_bottom_with_a_spoon_short_vertflip_short_600ms.mp4	24.single_stroke_top_to_bottom_with_a_spoon_short_vertflip_short_600ms.mp4	93.52962050528322	94.13790088053474	0.6082803752515247				
54.6650390625	0.2	111954	47	41	0	0	0	47	192	stimuli\Videos_short_600ms_horvertflip\20.single_touch_with_screwdriver_short_horvertflip_short_600ms.mp4	20.single_touch_with_screwdriver_short_horvertflip_short_600ms.mp4	94.32956197305248	94.93789865185272	0.6083366788002422				
55.46533203125	0.2	113593	48	41	0	0	0	48	357	stimuli\Videos_short_600ms_vertflip\89.single_touch_with_plastic_brush_short_vertflip_short_600ms.mp4	89.single_touch_with_plastic_brush_short_vertflip_short_600ms.mp4	95.1296172209095	95.7378817607878	0.6082645398782915				
56.26513671875	0.2	115231	49	41	0	0	0	49	244	stimuli\Videos_short_600ms_horvertflip\68.stroke_top_to_bottom_with_shawl_short_horvertflip_short_600ms.mp4	68.stroke_top_to_bottom_with_shawl_short_horvertflip_short_600ms.mp4	95.92955839543085	96.5378763063818	0.6083179109509729				
57.0654296875	0.2	116870	50	41	0	0	0	50	321	stimuli\Videos_short_600ms_vertflip\56.repeated_touch_with_nail_file_short_vertflip_short_600ms.mp4	56.repeated_touch_with_nail_file_short_vertflip_short_600ms.mp4	96.729537692147	97.33786234779336	0.6083246556463564				
57.865234375	0.2	118508	51	41	0	0	0	51	169	stimuli\Videos_short_600ms_horflip\81.single_stroke_top_to_bottom_with_cotton_pad_short_horflip_short_600ms.mp4	81.single_stroke_top_to_bottom_with_cotton_pad_short_horflip_short_600ms.mp4	97.52952695928298	98.13786187859704	0.6083349193140748				
58.6650390625	0.2	120146	52	41	0	0	0	52	260	stimuli\Videos_short_600ms_horvertflip\82.repeated_touch_with_cotton_bud_short_horvertflip_short_600ms.mp4	82.repeated_touch_with_cotton_bud_short_horvertflip_short_600ms.mp4	98.33009216480376	98.93785613094316	0.6077639661393732				
59.46533203125	0.2	121785	53	41	0	0	0	53	251	stimuli\Videos_short_600ms_horvertflip\74.fingers_walking_from_top_to_bottom_short_horvertflip_short_600ms.mp4	74.fingers_walking_from_top_to_bottom_short_horvertflip_short_600ms.mp4	99.12963012380624	99.73783630740218	0.6082061835959394				
60.26513671875	0.2	123423	54	41	0	0	0	54	297	stimuli\Videos_short_600ms_vertflip\34.repeated_punch_with_hand_short_vertflip_short_600ms.mp4	34.repeated_punch_with_hand_short_vertflip_short_600ms.mp4	99.9294988661577	100.53782821376672	0.6083293476090148				
61.06494140625	0.2	125061	55	41	0	0	0	55	47	stimuli\Videos_short_600ms\52.touch_top_to_bottom_with_hammer_short_short_600ms.mp4	52.touch_top_to_bottom_with_hammer_short_short_600ms.mp4	100.72961393653576	101.337818360646	0.6082044241102267				
61.865234375	0.2	126700	56	41	0	0	0	56	177	stimuli\Videos_short_600ms_horflip\89.single_touch_with_plastic_brush_short_horflip_short_600ms.mp4	89.single_touch_with_plastic_brush_short_horflip_short_600ms.mp4	101.53052312155069	102.13781026701054	0.6072871454598499				
62.6650390625	0.2	128338	57	41	0	0	0	57	131	stimuli\Videos_short_600ms_horflip\47.(long)scratching_with_finger_nails_short_horflip_short_600ms.mp4	47.(long)scratching_with_finger_nails_short_horflip_short_600ms.mp4	102.33018512430908	102.9378001206419	0.6076149963328135				
63.46484375	0.2	129976	58	41	0	0	0	58	152	stimuli\Videos_short_600ms_horflip\66.stroke_top_to_bottom_with_sponge_short_horflip_short_600ms.mp4	66.stroke_top_to_bottom_with_sponge_short_horflip_short_600ms.mp4	103.13004418948822	103.73779202700688	0.6077478375186729				
64.26513671875	0.2	131615	59	41	0	0	0	59	95	stimuli\Videos_short_600ms_horflip\14.repeated_touch_with_pencil_short_horflip_short_600ms.mp4	14.repeated_touch_with_pencil_short_horflip_short_600ms.mp4	103.9295193934936	104.53778129414286	0.6082619006492678				
65.06494140625	0.2	133253	60	41	0	0	0	60	220	stimuli\Videos_short_600ms_horvertflip\46.scratching_top_to_bottom_with_finger_nails_short_horvertflip_short_600ms.mp4	46.scratching_top_to_bottom_with_finger_nails_short_horvertflip_short_600ms.mp4	104.72942508504912	105.33777261401248	0.6083475289633498				
65.86474609375	0.2	134891	61	41	0	0	1	61	377	stimuli\Targets_short_600ms_horvertflip\hand-stroke_short_vertflip_short_600ms.mp4	hand-stroke_short_vertflip_short_600ms.mp4	105.52944191746428	106.13776334738668	0.6083214299223982				
66.6650390625	0.2	136530	62	41	0	0	0	62	243	stimuli\Videos_short_600ms_horvertflip\67.single_touch_with_sponge_short_horvertflip_short_600ms.mp4	67.single_touch_with_sponge_short_horvertflip_short_600ms.mp4	106.32945347142186	106.93775232127518	0.6082988498533268				
67.46484375	0.2	138168	63	41	0	0	0	63	359	stimuli\Videos_short_600ms_vertflip\90.repeated_touch_with_sponge_short_vertflip_short_600ms.mp4	90.repeated_touch_with_sponge_short_vertflip_short_600ms.mp4	107.12947792827572	107.73774276140148	0.6082648331257587				
68.2646484375	0.2	139806	64	41	0	0	1	64	367	stimuli\Targets_short_600ms_horflip\chopstick-silver-tap_short_horflip_short_600ms.mp4	chopstick-silver-tap_short_horflip_short_600ms.mp4	107.92951763400742	108.53773935972912	0.6082217257217053				
69.06494140625	0.2	141445	65	41	0	0	0	65	275	stimuli\Videos_short_600ms_vertflip\14.repeated_touch_with_pencil_short_vertflip_short_600ms.mp4	14.repeated_touch_with_pencil_short_vertflip_short_600ms.mp4	108.72940661044731	109.337703407567	0.6082967971196922				
69.86474609375	0.2	143083	66	41	0	0	0	66	225	stimuli\Videos_short_600ms_horvertflip\50.single_(long)hard_push_with_thumb_short_horvertflip_short_600ms.mp4	50.single_(long)hard_push_with_thumb_short_horvertflip_short_600ms.mp4	109.52941259269936	110.13769091521726	0.60827832251789				
70.66455078125	0.2	144721	67	41	0	0	0	67	174	stimuli\Videos_short_600ms_horflip\86.touch_top_to_bottom_with_hair_brush_short_horflip_short_600ms.mp4	86.touch_top_to_bottom_with_hair_brush_short_horflip_short_600ms.mp4	110.32937927976629	110.93768311482972	0.6083038350634524				
71.46484375	0.2	146360	68	41	0	0	0	68	224	stimuli\Videos_short_600ms_horvertflip\5.repeated_tap_with_finger_moving_from_top_to_bottom_short_horvertflip_short_600ms.mp4	5.repeated_tap_with_finger_moving_from_top_to_bottom_short_horvertflip_short_600ms.mp4	111.12938232954184	111.73767062247953	0.6082882929376865				
72.2646484375	0.2	147998	69	41	0	0	0	69	307	stimuli\Videos_short_600ms_vertflip\43.touch_top_to_bottom_with_sharp_wooden_stick_short_vertflip_short_600ms.mp4	43.touch_top_to_bottom_with_sharp_wooden_stick_short_vertflip_short_600ms.mp4	111.9293630924958	112.5376868683993	0.6083237759035001				
73.064453125	0.2	149636	70	41	0	0	0	70	227	stimuli\Videos_short_600ms_horvertflip\52.touch_top_to_bottom_with_hammer_short_horvertflip_short_600ms.mp4	52.touch_top_to_bottom_with_hammer_short_horvertflip_short_600ms.mp4	112.72935235963178	113.3376902114228	0.6083378517910205				
73.86474609375	0.2	151275	71	41	0	0	0	71	358	stimuli\Videos_short_600ms_vertflip\9.single_touch_with_hammer_short_vertflip_short_600ms.mp4	9.single_touch_with_hammer_short_vertflip_short_600ms.mp4	113.52934367950138	114.13767654608228	0.6083328665808949				
74.66455078125	0.2	152913	72	41	0	0	0	72	319	stimuli\Videos_short_600ms_vertflip\54.repeated_touch_with_knife_short_vertflip_short_600ms.mp4	54.repeated_touch_with_knife_short_vertflip_short_600ms.mp4	114.3293338263802	114.93767050518044	0.6083366788002422				
75.46435546875	0.2	154551	73	41	0	0	0	73	265	stimuli\Videos_short_600ms_horvertflip\87.single_stroke_top_to_bottom_with_plastic_brush_short_horvertflip_short_600ms.mp4	87.single_stroke_top_to_bottom_with_plastic_brush_short_horvertflip_short_600ms.mp4	115.12932133403046	115.73764804241046	0.608326708379991				
76.2646484375	0.2	156190	74	41	0	0	0	74	105	stimuli\Videos_short_600ms_horflip\23.single_push_with_a_spoon_short_horflip_short_600ms.mp4	23.single_push_with_a_spoon_short_horflip_short_600ms.mp4	115.9293117741572	116.53763877578469	0.6083270016274582				
77.064453125	0.2	157828	75	41	0	0	0	75	280	stimuli\Videos_short_600ms_vertflip\19.single_touch_with_rolling_pin_short_vertflip_short_600ms.mp4	19.single_touch_with_rolling_pin_short_vertflip_short_600ms.mp4	116.72930162778812	117.33763478761692	0.6083331598288169				
77.86474609375	0.2	159467	76	41	0	0	0	76	155	stimuli\Videos_short_600ms_horflip\69.stroke_with_soft_sock_short_horflip_short_600ms.mp4	69.stroke_with_soft_sock_short_horflip_short_600ms.mp4	117.52929734637246	118.13762346825752	0.6083261218850566				
78.66455078125	0.2	161105	77	41	0	0	1	77	360	stimuli\Targets_short_600ms\brush-stroke_short_short_600ms.mp4	brush-stroke_short_short_600ms.mp4	118.32928632026096	118.93760950966951	0.6083231894085657				
79.46435546875	0.2	162743	78	41	0	0	0	78	272	stimuli\Videos_short_600ms_vertflip\11.single_touch_with_lighter_short_vertflip_short_600ms.mp4	11.single_touch_with_lighter_short_vertflip_short_600ms.mp4	119.12946971734164	119.73760229577738	0.6081325784357432				
80.2646484375	0.2	164382	79	41	0	0	0	79	145	stimuli\Videos_short_600ms_horflip\6.single_touch_with_flat_hand_short_horflip_short_600ms.mp4	6.single_touch_with_flat_hand_short_horflip_short_600ms.mp4	119.92926808025732	120.5375930291516	0.6083249488942784				
81.064453125	0.2	166020	80	41	0	0	0	80	21	stimuli\Videos_short_600ms\29.single_pinch_with_tweezers_short_short_600ms.mp4	29.single_pinch_with_tweezers_short_short_600ms.mp4	120.72923418082884	121.33758434902074	0.6083501681919188				
81.8642578125	0.2	167658	81	41	0	0	1	81	365	stimuli\Targets_short_600ms\hand-stroke_short_short_600ms.mp4	hand-stroke_short_short_600ms.mp4	121.52922374121226	122.13757684188111	0.6083531006688645				
82.66455078125	0.2	169297	82	41	0	0	0	82	42	stimuli\Videos_short_600ms\48.single_slap_with_hand_short_short_600ms.mp4	48.single_slap_with_hand_short_short_600ms.mp4	122.32921271510077	122.93756669551249	0.6083539804117208				
83.46435546875	0.2	170935	83	41	0	0	0	83	254	stimuli\Videos_short_600ms_horvertflip\77.tapping_with_all_fingers_short_horvertflip_short_600ms.mp4	77.tapping_with_all_fingers_short_horvertflip_short_600ms.mp4	123.12921048641874	123.73755273692404	0.6083422505053022				
84.26416015625	0.2	172573	84	41	0	0	0	84	347	stimuli\Videos_short_600ms_vertflip\8.single_touch_with_hairbrush_short_vertflip_short_600ms.mp4	8.single_touch_with_hairbrush_short_vertflip_short_600ms.mp4	123.92922350661412	124.53753144714484	0.6083079405307217				
85.064453125	0.2	174212	85	41	0	0	0	85	268	stimuli\Videos_short_600ms_horvertflip\9.single_touch_with_hammer_short_horvertflip_short_600ms.mp4	9.single_touch_with_hammer_short_horvertflip_short_600ms.mp4	124.72924503099192	125.33753625640612	0.6082912254141775				
85.8642578125	0.2	175850	86	41	0	0	0	86	313	stimuli\Videos_short_600ms_vertflip\49.repeated_slap_with_hand_short_vertflip_short_600ms.mp4	49.repeated_slap_with_hand_short_vertflip_short_600ms.mp4	125.52919940165748	126.13752317756098	0.6083237759035001				
86.6640625	0.2	177488	87	41	0	0	1	87	382	stimuli\Targets_short_600ms_vertflip\hand-pinch_short_horvertflip_short_600ms.mp4	hand-pinch_short_horvertflip_short_600ms.mp4	126.3292631536965	126.93749133086612	0.6082281771696216				
87.46435546875	0.2	179127	88	41	0	0	0	88	71	stimuli\Videos_short_600ms\74.fingers_walking_from_top_to_bottom_short_short_600ms.mp4	74.fingers_walking_from_top_to_bottom_short_short_600ms.mp4	127.12918526712065	127.73748558321222	0.6083003160915723				
88.26416015625	0.2	180765	89	41	0	0	0	89	148	stimuli\Videos_short_600ms_horflip\62.touch_top_to_bottom_with_scissors_short_horflip_short_600ms.mp4	62.touch_top_to_bottom_with_scissors_short_horflip_short_600ms.mp4	127.92917072203728	128.5375050548564	0.6083343328191404				
89.06396484375	0.2	182403	90	41	0	0	0	90	72	stimuli\Videos_short_600ms\75.(long)stroke_with_fingers_all_over_the_hand_short_short_600ms.mp4	75.(long)stroke_with_fingers_all_over_the_hand_short_short_600ms.mp4	128.72916233515434	129.33749901395458	0.6083366788002422				
89.8642578125	0.2	184042	91	41	0	0	0	91	189	stimuli\Videos_short_600ms_horvertflip\18.single_stroke_from_top_to_bottom_with_rolling_pin_short_horvertflip_short_600ms.mp4	18.single_stroke_from_top_to_bottom_with_rolling_pin_short_horvertflip_short_600ms.mp4	129.52912550324936	130.13749180006243	0.6083662968130739				
90.6640625	0.2	185680	92	41	0	0	0	92	154	stimuli\Videos_short_600ms_horflip\68.stroke_top_to_bottom_with_shawl_short_horflip_short_600ms.mp4	68.stroke_top_to_bottom_with_shawl_short_horflip_short_600ms.mp4	130.32912532730097	130.9374708035307	0.6083454762297151				
91.4638671875	0.2	187318	93	41	0	0	0	93	223	stimuli\Videos_short_600ms_horvertflip\49.repeated_slap_with_hand_short_horvertflip_short_600ms.mp4	49.repeated_slap_with_hand_short_horvertflip_short_600ms.mp4	131.12914421244977	131.737472387068	0.6083281746182365				
92.26416015625	0.2	188957	94	41	0	0	0	94	61	stimuli\Videos_short_600ms\65.stroke_top_to_bottom_with_stanley_knife_short_short_600ms.mp4	65.stroke_top_to_bottom_with_stanley_knife_short_short_600ms.mp4	131.9291067940494	132.53745315002243	0.6083463559730262				
93.06396484375	0.2	190595	95	41	0	0	0	95	170	stimuli\Videos_short_600ms_horflip\82.repeated_touch_with_cotton_bud_short_horflip_short_600ms.mp4	82.repeated_touch_with_cotton_bud_short_horflip_short_600ms.mp4	132.72923242134266	133.33744622937775	0.6082138080350887				
93.86376953125	0.2	192233	96	41	0	0	0	96	120	stimuli\Videos_short_600ms_horflip\37.single_stab_with_nail_file_short_horflip_short_600ms.mp4	37.single_stab_with_nail_file_short_horflip_short_600ms.mp4	133.52910526916185	134.13743637625657	0.6083311070947275	7.0	7.0	2.7034550731405034	1.0
128.25439453125	0.2	262665	97	41	1	0	0	0	54	stimuli\Videos_short_600ms\59.single_push_with_long_side_pencil_short_short_600ms.mp4	59.single_push_with_long_side_pencil_short_short_600ms.mp4	167.92039059414037	168.52869824142317	0.6083076472827997				
129.0546875	0.2	264304	98	41	1	0	0	1	26	stimuli\Videos_short_600ms\33.scratch_top_to_bottom_with_scissors_short_short_600ms.mp4	33.scratch_top_to_bottom_with_scissors_short_short_600ms.mp4	168.72036490564597	169.32869337351212	0.6083284678661585				
129.8544921875	0.2	265942	99	41	1	0	0	2	187	stimuli\Videos_short_600ms_horvertflip\16.repeated_touch_with_plastic_brush_short_horvertflip_short_600ms.mp4	16.repeated_touch_with_plastic_brush_short_horvertflip_short_600ms.mp4	169.52040167890118	170.12868322714348	0.608281548242303				
130.654296875	0.2	267580	100	41	1	0	0	3	334	stimuli\Videos_short_600ms_vertflip\68.stroke_top_to_bottom_with_shawl_short_vertflip_short_600ms.mp4	68.stroke_top_to_bottom_with_shawl_short_vertflip_short_600ms.mp4	170.3203463723944	170.92869126212918	0.6083448897347807				
131.45458984375	0.2	269219	101	41	1	0	0	4	255	stimuli\Videos_short_600ms_horvertflip\78.single_stroke_top_to_bottom_with_soft_brush_short_horvertflip_short_600ms.mp4	78.single_stroke_top_to_bottom_with_soft_brush_short_horvertflip_short_600ms.mp4	171.12033857200686	171.72867407781678	0.6083355058099187				
132.25439453125	0.2	270857	102	41	1	0	0	5	17	stimuli\Videos_short_600ms\25.single_touch_with_stanley_knife_short_short_600ms.mp4	25.single_touch_with_stanley_knife_short_short_600ms.mp4	171.9203642018515	172.5286527880371	0.6082885861856084				
133.05419921875	0.2	272495	103	41	1	0	0	6	197	stimuli\Videos_short_600ms_horvertflip\25.single_touch_with_stanley_knife_short_horvertflip_short_600ms.mp4	25.single_touch_with_stanley_knife_short_horvertflip_short_600ms.mp4	172.72072120154098	173.32864322816386	0.6079220266228731				
133.8544921875	0.2	274134	104	41	1	0	0	7	231	stimuli\Videos_short_600ms_horvertflip\56.repeated_touch_with_nail_file_short_horvertflip_short_600ms.mp4	56.repeated_touch_with_nail_file_short_horvertflip_short_600ms.mp4	173.5202961097475	174.12863748050995	0.6083413707624459				
134.654296875	0.2	275772	105	41	1	0	0	8	329	stimuli\Videos_short_600ms_vertflip\63.stroke_top_to_bottom_with_screwdriver_short_vertflip_short_600ms.mp4	63.stroke_top_to_bottom_with_screwdriver_short_vertflip_short_600ms.mp4	174.3202589845946	174.92862762738878	0.6083686427941757				
135.4541015625	0.2	277410	106	41	1	0	0	9	52	stimuli\Videos_short_600ms\57.single_touch_with_nail_file_short_short_600ms.mp4	57.single_touch_with_nail_file_short_short_600ms.mp4	175.12026291411348	175.72861689452475	0.6083539804112661				
136.25439453125	0.2	279049	107	41	1	0	0	10	354	stimuli\Videos_short_600ms_vertflip\86.touch_top_to_bottom_with_hair_brush_short_vertflip_short_600ms.mp4	86.touch_top_to_bottom_with_hair_brush_short_vertflip_short_600ms.mp4	175.92025247449692	176.52860645490864	0.6083539804117208				
137.05419921875	0.2	280687	108	41	1	0	0	11	324	stimuli\Videos_short_600ms_vertflip\59.single_push_with_long_side_pencil_short_vertflip_short_600ms.mp4	59.single_push_with_long_side_pencil_short_vertflip_short_600ms.mp4	176.72021916156382	177.3285986545211	0.6083794929572832				
137.8544921875	0.2	282326	109	41	1	0	0	12	10	stimuli\Videos_short_600ms\19.single_touch_with_rolling_pin_short_short_600ms.mp4	19.single_touch_with_rolling_pin_short_short_600ms.mp4	177.52020989493803	178.12858968114278	0.6083797862047504				
138.654296875	0.2	283964	110	41	1	0	0	13	24	stimuli\Videos_short_600ms\31.hand_grabbing_wrist_short_short_600ms.mp4	31.hand_grabbing_wrist_short_short_600ms.mp4	178.3202795119305	178.92858070776492	0.6083011958344287				
139.4541015625	0.2	285602	111	41	1	0	0	14	257	stimuli\Videos_short_600ms_horvertflip\8.single_touch_with_hairbrush_short_horvertflip_short_600ms.mp4	8.single_touch_with_hairbrush_short_horvertflip_short_600ms.mp4	179.1203107134802	179.72857144113914	0.6082607276589442				
140.25439453125	0.2	287241	112	41	1	0	0	15	331	stimuli\Videos_short_600ms_vertflip\65.stroke_top_to_bottom_with_stanley_knife_short_vertflip_short_600ms.mp4	65.stroke_top_to_bottom_with_stanley_knife_short_vertflip_short_600ms.mp4	179.9208882354028	180.52856217451335	0.6076739391105548				
141.05419921875	0.2	288879	113	41	1	0	0	16	167	stimuli\Videos_short_600ms_horflip\8.single_touch_with_hairbrush_short_horflip_short_600ms.mp4	8.single_touch_with_hairbrush_short_horflip_short_600ms.mp4	180.72028103681805	181.3285526146401	0.6082715778220518				
141.85400390625	0.2	290517	114	41	1	0	0	17	162	stimuli\Videos_short_600ms_horflip\75.(long)stroke_with_fingers_all_over_the_hand_short_horflip_short_600ms.mp4	75.(long)stroke_with_fingers_all_over_the_hand_short_horflip_short_600ms.mp4	181.52017235923904	182.1285383628042	0.6083660035651519				
142.654296875	0.2	292156	115	41	1	0	0	18	209	stimuli\Videos_short_600ms_horvertflip\36.single_slap_with_full_hand_short_horvertflip_short_600ms.mp4	36.single_slap_with_full_hand_short_horvertflip_short_600ms.mp4	182.32015576142203	182.92853672061756	0.6083809591955287				
143.4541015625	0.2	293794	116	41	1	0	0	19	183	stimuli\Videos_short_600ms_horvertflip\12.repeated_touch_with_nail_file_short_horvertflip_short_600ms.mp4	12.repeated_touch_with_nail_file_short_horvertflip_short_600ms.mp4	183.12014620154832	183.72850985913237	0.6083636575840501				
144.25390625	0.2	295432	117	41	1	0	0	20	149	stimuli\Videos_short_600ms_horflip\63.stroke_top_to_bottom_with_screwdriver_short_horflip_short_600ms.mp4	63.stroke_top_to_bottom_with_screwdriver_short_horflip_short_600ms.mp4	183.9201363484276	184.52851261566047	0.6083762672328703				
145.05419921875	0.2	297071	118	41	1	0	0	21	15	stimuli\Videos_short_600ms\23.single_push_with_a_spoon_short_short_600ms.mp4	23.single_push_with_a_spoon_short_short_600ms.mp4	184.7201250290682	185.32850745450196	0.6083824254337742				
145.85400390625	0.2	298709	119	41	1	0	0	22	199	stimuli\Videos_short_600ms_horvertflip\27.single_push_with_a_plastic_whisk_short_horvertflip_short_600ms.mp4	27.single_push_with_a_plastic_whisk_short_horvertflip_short_600ms.mp4	185.52011605568987	186.12849672163793	0.6083806659480615				
146.65380859375	0.2	300347	120	41	1	0	0	23	212	stimuli\Videos_short_600ms_horvertflip\39.single_stab_with_scissors_short_horvertflip_short_600ms.mp4	39.single_stab_with_scissors_short_horvertflip_short_600ms.mp4	186.32022848683937	186.9284965456891	0.6082680588497169				
147.4541015625	0.2	301986	121	41	1	0	0	24	161	stimuli\Videos_short_600ms_horflip\74.fingers_walking_from_top_to_bottom_short_horflip_short_600ms.mp4	74.fingers_walking_from_top_to_bottom_short_horflip_short_600ms.mp4	187.12009986841983	187.7284796546246	0.6083797862047504				
148.25390625	0.2	303624	122	41	1	0	0	25	267	stimuli\Videos_short_600ms_horvertflip\89.single_touch_with_plastic_brush_short_horvertflip_short_600ms.mp4	89.single_touch_with_plastic_brush_short_horvertflip_short_600ms.mp4	187.92008561658395	188.5284809449145	0.6083953283305163				
149.0537109375	0.2	305262	123	41	1	0	0	26	235	stimuli\Videos_short_600ms_horvertflip\6.single_touch_with_flat_hand_short_horvertflip_short_600ms.mp4	6.single_touch_with_flat_hand_short_horvertflip_short_600ms.mp4	188.72007957568212	189.32845994838272	0.6083803727005943				
149.85400390625	0.2	306901	124	41	1	0	0	27	80	stimuli\Videos_short_600ms\82.repeated_touch_with_cotton_bud_short_short_600ms.mp4	82.repeated_touch_with_cotton_bud_short_short_600ms.mp4	189.52029757598575	190.12844921551869	0.6081516395329345				
150.65380859375	0.2	308539	125	41	1	0	0	28	208	stimuli\Videos_short_600ms_horvertflip\35.single_punch_with_hand_short_horvertflip_short_600ms.mp4	35.single_punch_with_hand_short_horvertflip_short_600ms.mp4	190.3200601626877	190.9284393623975	0.608379199709816				
151.45361328125	0.2	310177	126	41	1	0	0	29	215	stimuli\Videos_short_600ms_horvertflip\41.injection_with_blunt_syringe_short_horvertflip_short_600ms.mp4	41.injection_with_blunt_syringe_short_horvertflip_short_600ms.mp4	191.1200517758052	191.72843244175283	0.6083806659476068				
152.25390625	0.2	311816	127	41	1	0	0	30	326	stimuli\Videos_short_600ms_vertflip\60.single_push_with_tip_of_pencil_short_vertflip_short_600ms.mp4	60.single_push_with_tip_of_pencil_short_vertflip_short_600ms.mp4	191.92005834455267	192.52841965615517	0.6083613116024935				
153.0537109375	0.2	313454	128	41	1	0	0	31	252	stimuli\Videos_short_600ms_horvertflip\75.(long)stroke_with_fingers_all_over_the_hand_short_horvertflip_short_600ms.mp4	75.(long)stroke_with_fingers_all_over_the_hand_short_horvertflip_short_600ms.mp4	192.7200364682776	193.32841273551097	0.608376267233325				
153.853515625	0.2	315092	129	41	1	0	0	32	271	stimuli\Videos_short_600ms_vertflip\10.single_touch_with_knife_short_vertflip_short_600ms.mp4	10.single_touch_with_knife_short_vertflip_short_600ms.mp4	193.52003570583383	194.1284025891423	0.608366883308463				
154.65380859375	0.2	316731	130	41	1	0	0	33	355	stimuli\Videos_short_600ms_vertflip\87.single_stroke_top_to_bottom_with_plastic_brush_short_vertflip_short_600ms.mp4	87.single_stroke_top_to_bottom_with_plastic_brush_short_vertflip_short_600ms.mp4	194.32001529579748	194.92839185627827	0.6083765604807923				
155.45361328125	0.2	318369	131	41	1	0	0	34	232	stimuli\Videos_short_600ms_horvertflip\57.single_touch_with_nail_file_short_horvertflip_short_600ms.mp4	57.single_touch_with_nail_file_short_horvertflip_short_600ms.mp4	195.12001424010575	195.72838405589073	0.608369815784954				
156.25390625	0.2	320008	132	41	1	0	0	35	327	stimuli\Videos_short_600ms_vertflip\61.single_hit_with_rolling_pin_short_vertflip_short_600ms.mp4	61.single_hit_with_rolling_pin_short_vertflip_short_600ms.mp4	195.92000790595648	196.52837918797968	0.6083712820231995				
157.0537109375	0.2	321646	133	41	1	0	0	36	306	stimuli\Videos_short_600ms_vertflip\42.single_slap_with_plastic_whisk_short_vertflip_short_600ms.mp4	42.single_slap_with_plastic_whisk_short_vertflip_short_600ms.mp4	196.7199957068542	197.32833971684568	0.6083440099914696				
157.853515625	0.2	323284	134	41	1	0	0	37	70	stimuli\Videos_short_600ms\73.single_stroke_with_flat_hand_short_short_600ms.mp4	73.single_stroke_with_flat_hand_short_short_600ms.mp4	197.52002221644216	198.12833690166823	0.6083146852261052				
158.65380859375	0.2	324923	135	41	1	0	0	38	204	stimuli\Videos_short_600ms_horvertflip\31.hand_grabbing_wrist_short_horvertflip_short_600ms.mp4	31.hand_grabbing_wrist_short_horvertflip_short_600ms.mp4	198.31999946042424	198.9283296877761	0.6083302273518711				
159.45361328125	0.2	326561	136	41	1	0	0	39	104	stimuli\Videos_short_600ms_horflip\22.single_touch_with_metal_chopstick_short_horflip_short_600ms.mp4	22.single_touch_with_metal_chopstick_short_horflip_short_600ms.mp4	199.11997171919663	199.728333617295	0.6083618980983374				
160.25341796875	0.2	328199	137	41	1	0	0	40	68	stimuli\Videos_short_600ms\71.single_stroke_with_finger_top_to_bottom_short_short_600ms.mp4	71.single_stroke_with_finger_top_to_bottom_short_short_600ms.mp4	199.9200463213988	200.5283302156222	0.6082838942234048				
161.0537109375	0.2	329838	138	41	1	0	0	41	221	stimuli\Videos_short_600ms_horvertflip\47.(long)scratching_with_finger_nails_short_horvertflip_short_600ms.mp4	47.(long)scratching_with_finger_nails_short_horvertflip_short_600ms.mp4	200.719939110058	201.32832212198673	0.6083830119287086				
161.853515625	0.2	331476	139	41	1	0	0	42	337	stimuli\Videos_short_600ms_vertflip\70.(long)stroke_with_finger_all_over_the_hand_short_vertflip_short_600ms.mp4	70.(long)stroke_with_finger_all_over_the_hand_short_vertflip_short_600ms.mp4	201.51997852254223	202.12831901356185	0.6083404910195895				
162.6533203125	0.2	333114	140	41	1	0	0	43	32	stimuli\Videos_short_600ms\39.single_stab_with_scissors_short_short_600ms.mp4	39.single_stab_with_scissors_short_short_600ms.mp4	202.31993787841793	202.9282986035255	0.6083607251075591				
163.45361328125	0.2	334753	141	41	1	0	0	44	339	stimuli\Videos_short_600ms_vertflip\72.(short)stroke_with_finger_all_over_the_hand_short_vertflip_short_600ms.mp4	72.(short)stroke_with_finger_all_over_the_hand_short_vertflip_short_600ms.mp4	203.1199617487764	203.7282928558716	0.6083311070951822				
164.25341796875	0.2	336391	142	41	1	0	0	45	41	stimuli\Videos_short_600ms\47.(long)scratching_with_finger_nails_short_short_600ms.mp4	47.(long)scratching_with_finger_nails_short_short_600ms.mp4	203.9199038030406	204.52828007027392	0.608376267233325				
165.05322265625	0.2	338029	143	41	1	0	0	46	237	stimuli\Videos_short_600ms_horvertflip\61.single_hit_with_rolling_pin_short_horvertflip_short_600ms.mp4	61.single_hit_with_rolling_pin_short_horvertflip_short_600ms.mp4	204.719942335782	205.32827139014353	0.6083290543615476				
165.853515625	0.2	339668	144	41	1	0	1	47	378	stimuli\Targets_short_600ms_vertflip\brush-stroke_short_horvertflip_short_600ms.mp4	brush-stroke_short_horvertflip_short_600ms.mp4	205.51997881578973	206.1282624167652	0.6082836009754828				
166.6533203125	0.2	341306	145	41	1	0	0	48	134	stimuli\Videos_short_600ms_horflip\5.repeated_tap_with_finger_moving_from_top_to_bottom_short_horflip_short_600ms.mp4	5.repeated_tap_with_finger_moving_from_top_to_bottom_short_horflip_short_600ms.mp4	206.31992116330184	206.92825344338735	0.6083322800855058				
167.453125	0.2	342944	146	41	1	0	0	49	219	stimuli\Videos_short_600ms_horvertflip\45.scratching_with_finger_nails_short_horvertflip_short_600ms.mp4	45.scratching_with_finger_nails_short_horvertflip_short_600ms.mp4	207.11992186709583	207.72824593624728	0.608324069151422				
168.25341796875	0.2	344583	147	41	1	0	0	50	188	stimuli\Videos_short_600ms_horvertflip\17.repeated_touch_with_rolling_pin_short_horvertflip_short_600ms.mp4	17.repeated_touch_with_rolling_pin_short_horvertflip_short_600ms.mp4	207.9198533644449	208.52823754936435	0.6083841849194869				
169.05322265625	0.2	346221	148	41	1	0	0	51	253	stimuli\Videos_short_600ms_horvertflip\76.tickle_with_fingers_from_top_to_bottom_short_horvertflip_short_600ms.mp4	76.tickle_with_fingers_from_top_to_bottom_short_horvertflip_short_600ms.mp4	208.71984644380015	209.32822535026207	0.6083789064618941				
169.85302734375	0.2	347859	149	41	1	0	0	52	323	stimuli\Videos_short_600ms_vertflip\58.single_slap_with_pencil_short_vertflip_short_600ms.mp4	58.single_slap_with_pencil_short_vertflip_short_600ms.mp4	209.52022133159653	210.12821725662707	0.6079959250305365				
170.6533203125	0.2	349498	150	41	1	0	0	53	125	stimuli\Videos_short_600ms_horflip\41.injection_with_blunt_syringe_short_horflip_short_600ms.mp4	41.injection_with_blunt_syringe_short_horflip_short_600ms.mp4	210.3199053279286	210.9282053507727	0.6083000228441051				
171.453125	0.2	351136	151	41	1	0	0	54	276	stimuli\Videos_short_600ms_vertflip\15.single_stroke_top_to_bottom_with_a_plastic_whisk_short_vertflip_short_600ms.mp4	15.single_stroke_top_to_bottom_with_a_plastic_whisk_short_vertflip_short_600ms.mp4	211.1198878503687	211.72819784363264	0.6083099932639016				
172.2529296875	0.2	352774	152	41	1	0	0	55	343	stimuli\Videos_short_600ms_vertflip\76.tickle_with_fingers_from_top_to_bottom_short_vertflip_short_600ms.mp4	76.tickle_with_fingers_from_top_to_bottom_short_vertflip_short_600ms.mp4	211.92017212464089	212.52818417829212	0.6080120536512368				
173.05322265625	0.2	354413	153	41	1	0	0	56	144	stimuli\Videos_short_600ms_horflip\59.single_push_with_long_side_pencil_short_horflip_short_600ms.mp4	59.single_push_with_long_side_pencil_short_horflip_short_600ms.mp4	212.71987312933652	213.32818400234373	0.6083108730072126				
173.85302734375	0.2	356051	154	41	1	0	0	57	33	stimuli\Videos_short_600ms\4.repeated_tap_with_finger_slow_short_short_600ms.mp4	4.repeated_tap_with_finger_slow_short_short_600ms.mp4	213.51983835016517	214.12817297623175	0.6083346260666076				
174.6533203125	0.2	357690	155	41	1	0	0	58	320	stimuli\Videos_short_600ms_vertflip\55.touch_top_to_bottom_with_nail_file_short_vertflip_short_600ms.mp4	55.touch_top_to_bottom_with_nail_file_short_vertflip_short_600ms.mp4	214.31984374592184	214.9281428890231	0.6082991431012488				
175.453125	0.2	359328	156	41	1	0	0	59	345	stimuli\Videos_short_600ms_vertflip\78.single_stroke_top_to_bottom_with_soft_brush_short_vertflip_short_600ms.mp4	78.single_stroke_top_to_bottom_with_soft_brush_short_vertflip_short_600ms.mp4	215.1199679069773	215.72812834393972	0.6081604369624074				
176.2529296875	0.2	360966	157	41	1	0	0	60	115	stimuli\Videos_short_600ms_horflip\32.single_(long)pinch_with_fingers_short_horflip_short_600ms.mp4	32.single_(long)pinch_with_fingers_short_horflip_short_600ms.mp4	215.9198111367832	216.52813813841112	0.608327001627913				
177.05322265625	0.2	362605	158	41	1	0	0	61	341	stimuli\Videos_short_600ms_vertflip\74.fingers_walking_from_top_to_bottom_short_vertflip_short_600ms.mp4	74.fingers_walking_from_top_to_bottom_short_vertflip_short_600ms.mp4	216.7198704901075	217.32813444349085	0.6082639533833571				
177.85302734375	0.2	364243	159	41	1	0	0	62	293	stimuli\Videos_short_600ms_vertflip\30.finger_pulling_back_another_finger_short_vertflip_short_600ms.mp4	30.finger_pulling_back_another_finger_short_vertflip_short_600ms.mp4	217.51984480161352	218.12812986882727	0.6082850672137283				
178.65283203125	0.2	365881	160	41	1	0	0	63	356	stimuli\Videos_short_600ms_vertflip\88.repeated_stroke_with_plastic_brush_short_vertflip_short_600ms.mp4	88.repeated_stroke_with_plastic_brush_short_vertflip_short_600ms.mp4	218.32003142441815	218.9281129777628	0.6080815533446184				
179.453125	0.2	367520	161	41	1	0	0	64	246	stimuli\Videos_short_600ms_horvertflip\7.repeated_touch_with_hairbrush_short_horvertflip_short_600ms.mp4	7.repeated_touch_with_hairbrush_short_horvertflip_short_600ms.mp4	219.11983741177255	219.7281034178891	0.608266006116537				
180.2529296875	0.2	369158	162	41	1	0	0	65	163	stimuli\Videos_short_600ms_horflip\76.tickle_with_fingers_from_top_to_bottom_short_horflip_short_600ms.mp4	76.tickle_with_fingers_from_top_to_bottom_short_horflip_short_600ms.mp4	219.91976421715935	220.52809532425408	0.6083311070947275				
181.052734375	0.2	370796	163	41	1	0	0	66	146	stimuli\Videos_short_600ms_horflip\60.single_push_with_tip_of_pencil_short_horflip_short_600ms.mp4	60.single_push_with_tip_of_pencil_short_horflip_short_600ms.mp4	220.71975465728565	221.3280854711329	0.6083308138472603				
181.85302734375	0.2	372435	164	41	1	0	0	67	138	stimuli\Videos_short_600ms_horflip\53.touch_top_to_bottom_with_knife_short_horflip_short_600ms.mp4	53.touch_top_to_bottom_with_knife_short_horflip_short_600ms.mp4	221.51974949612713	222.12807532476427	0.6083258286371347				
182.65283203125	0.2	374073	165	41	1	0	0	68	336	stimuli\Videos_short_600ms_vertflip\7.repeated_touch_with_hairbrush_short_vertflip_short_600ms.mp4	7.repeated_touch_with_hairbrush_short_vertflip_short_600ms.mp4	222.31982233884355	222.92806488514816	0.6082425463046093				
183.45263671875	0.2	375711	166	41	1	0	0	69	350	stimuli\Videos_short_600ms_vertflip\82.repeated_touch_with_cotton_bud_short_vertflip_short_600ms.mp4	82.repeated_touch_with_cotton_bud_short_vertflip_short_600ms.mp4	223.11969958537705	223.72805532527445	0.6083557398974335				
184.2529296875	0.2	377350	167	41	1	0	0	70	315	stimuli\Videos_short_600ms_vertflip\50.single_(long)hard_push_with_thumb_short_vertflip_short_600ms.mp4	50.single_(long)hard_push_with_thumb_short_vertflip_short_600ms.mp4	223.9198002866201	224.5280481113823	0.6082478247622021				
185.052734375	0.2	378988	168	41	1	0	0	71	110	stimuli\Videos_short_600ms_horflip\28.single_injection_with_sharp_needle_short_horflip_short_600ms.mp4	28.single_injection_with_sharp_needle_short_horflip_short_600ms.mp4	224.71968926306	225.3280382582616	0.6083489952015952				
185.8525390625	0.2	380626	169	41	1	0	0	72	45	stimuli\Videos_short_600ms\50.single_(long)hard_push_with_thumb_short_short_600ms.mp4	50.single_(long)hard_push_with_thumb_short_short_600ms.mp4	225.5196794099388	226.12803016462613	0.6083507546873079				
186.65283203125	0.2	382265	170	41	1	0	0	73	93	stimuli\Videos_short_600ms_horflip\12.repeated_touch_with_nail_file_short_horflip_short_600ms.mp4	12.repeated_touch_with_nail_file_short_horflip_short_600ms.mp4	226.31966838382732	226.92801884526716	0.6083504614398407				
187.45263671875	0.2	383903	171	41	1	0	0	74	245	stimuli\Videos_short_600ms_horvertflip\69.stroke_with_soft_sock_short_horvertflip_short_600ms.mp4	69.stroke_with_soft_sock_short_horvertflip_short_600ms.mp4	227.11968023103236	227.72800693941235	0.608326708379991				
188.25244140625	0.2	385541	172	41	1	0	0	75	66	stimuli\Videos_short_600ms\7.repeated_touch_with_hairbrush_short_short_600ms.mp4	7.repeated_touch_with_hairbrush_short_short_600ms.mp4	227.9196451586131	228.52800177825384	0.6083566196407446				
189.052734375	0.2	387180	173	41	1	0	0	76	273	stimuli\Videos_short_600ms_vertflip\12.repeated_touch_with_nail_file_short_vertflip_short_600ms.mp4	12.repeated_touch_with_nail_file_short_vertflip_short_600ms.mp4	228.7196640437619	229.32796611933964	0.6083020755777397				
189.8525390625	0.2	388818	174	41	1	0	0	77	171	stimuli\Videos_short_600ms_horflip\83.single_stroke_top_to_bottom_with_cotton_bud_short_horflip_short_600ms.mp4	83.single_stroke_top_to_bottom_with_cotton_bud_short_horflip_short_600ms.mp4	229.5197046292369	230.12797825979217	0.6082736305552316				
190.65234375	0.2	390456	175	41	1	0	0	78	133	stimuli\Videos_short_600ms_horflip\49.repeated_slap_with_hand_short_horflip_short_600ms.mp4	49.repeated_slap_with_hand_short_horflip_short_600ms.mp4	230.31984726489372	230.92797925683408	0.608131991940354				
191.45263671875	0.2	392095	176	41	1	0	0	79	142	stimuli\Videos_short_600ms_horflip\57.single_touch_with_nail_file_short_horflip_short_600ms.mp4	57.single_touch_with_nail_file_short_horflip_short_600ms.mp4	231.1196248072265	231.7279647117507	0.6083399045242004				
192.25244140625	0.2	393733	177	41	1	0	0	80	279	stimuli\Videos_short_600ms_vertflip\18.single_stroke_from_top_to_bottom_with_rolling_pin_short_vertflip_short_600ms.mp4	18.single_stroke_from_top_to_bottom_with_rolling_pin_short_vertflip_short_600ms.mp4	231.91959823898924	232.527963656059	0.6083654170697628				
193.05224609375	0.2	395371	178	41	1	0	0	81	240	stimuli\Videos_short_600ms_horvertflip\64.repeated_touch_with_screwdriver_short_horvertflip_short_600ms.mp4	64.repeated_touch_with_screwdriver_short_horvertflip_short_600ms.mp4	232.7196150714044	233.3279546826811	0.6083396112767332				
193.8525390625	0.2	397010	179	41	1	0	0	82	81	stimuli\Videos_short_600ms\83.single_stroke_top_to_bottom_with_cotton_bud_short_short_600ms.mp4	83.single_stroke_top_to_bottom_with_cotton_bud_short_short_600ms.mp4	233.5196084440072	234.1279360321305	0.6083275881233021				
194.65234375	0.2	398648	180	41	1	0	0	83	16	stimuli\Videos_short_600ms\24.single_stroke_top_to_bottom_with_a_spoon_short_short_600ms.mp4	24.single_stroke_top_to_bottom_with_a_spoon_short_short_600ms.mp4	234.31959917738183	234.92793761566784	0.6083384382859549				
195.45263671875	0.2	400287	181	41	1	0	0	84	185	stimuli\Videos_short_600ms_horvertflip\14.repeated_touch_with_pencil_short_horvertflip_short_600ms.mp4	14.repeated_touch_with_pencil_short_horvertflip_short_600ms.mp4	235.11958756477452	235.7279154461453	0.6083278813707693				
196.25244140625	0.2	401925	182	41	1	0	0	85	247	stimuli\Videos_short_600ms_horvertflip\70.(long)stroke_with_finger_all_over_the_hand_short_horvertflip_short_600ms.mp4	70.(long)stroke_with_finger_all_over_the_hand_short_horvertflip_short_600ms.mp4	235.9196331354597	236.52790588627204	0.6082727508123753				
197.05224609375	0.2	403563	183	41	1	0	0	86	99	stimuli\Videos_short_600ms_horflip\18.single_stroke_from_top_to_bottom_with_rolling_pin_short_horflip_short_600ms.mp4	18.single_stroke_from_top_to_bottom_with_rolling_pin_short_horflip_short_600ms.mp4	236.71953853376772	237.32789661964625	0.6083580858785353				
197.8525390625	0.2	405202	184	41	1	0	1	87	364	stimuli\Targets_short_600ms\hand-pinch_short_short_600ms.mp4	hand-pinch_short_short_600ms.mp4	237.5195594716497	238.12788735302047	0.6083278813707693				
198.65234375	0.2	406840	185	41	1	0	0	88	57	stimuli\Videos_short_600ms\61.single_hit_with_rolling_pin_short_short_600ms.mp4	61.single_hit_with_rolling_pin_short_short_600ms.mp4	238.3196076815634	238.92787955263293	0.608271871069519				
199.4521484375	0.2	408478	186	41	1	0	0	89	178	stimuli\Videos_short_600ms_horflip\9.single_touch_with_hammer_short_horflip_short_600ms.mp4	9.single_touch_with_hammer_short_horflip_short_600ms.mp4	239.11952451652996	239.7278723387408	0.608347822210817				
200.25244140625	0.2	410117	187	41	1	0	0	90	202	stimuli\Videos_short_600ms_horvertflip\3.single_push_with_finger_short_horvertflip_short_600ms.mp4	3.single_push_with_finger_short_horvertflip_short_600ms.mp4	239.9196231650394	240.5278601396385	0.6082369745990945				
201.05224609375	0.2	411755	188	41	1	0	0	91	351	stimuli\Videos_short_600ms_vertflip\83.single_stroke_top_to_bottom_with_cotton_bud_short_vertflip_short_600ms.mp4	83.single_stroke_top_to_bottom_with_cotton_bud_short_vertflip_short_600ms.mp4	240.7195215254037	241.32785087301272	0.6083293476090148	2.0	2.0	2.008749043645821	1.0
235.05126953125	0.2	481385	189	41	2	0	0	0	60	stimuli\Videos_short_600ms\64.repeated_touch_with_screwdriver_short_short_600ms.mp4	64.repeated_touch_with_screwdriver_short_short_600ms.mp4	274.7192713851582	275.3274244909294	0.60815310577118				
235.85107421875	0.2	483023	190	41	2	0	0	1	270	stimuli\Videos_short_600ms_vertflip\1.repeated_touch_with_finger_fast_short_vertflip_short_600ms.mp4	1.repeated_touch_with_finger_fast_short_vertflip_short_600ms.mp4	275.5191612413405	276.12743633813443	0.6082750967939319				
236.65087890625	0.2	484661	191	41	2	0	0	2	316	stimuli\Videos_short_600ms_vertflip\51.repeated_touch_with_hammer_short_vertflip_short_600ms.mp4	51.repeated_touch_with_hammer_short_vertflip_short_600ms.mp4	276.3191018293669	276.9274173943363	0.6083155649694163				
237.451171875	0.2	486300	192	41	2	0	0	3	298	stimuli\Videos_short_600ms_vertflip\35.single_punch_with_hand_short_vertflip_short_600ms.mp4	35.single_punch_with_hand_short_vertflip_short_600ms.mp4	277.11916998012066	277.7274066614723	0.6082366813516273				
238.2509765625	0.2	487938	193	41	2	0	0	4	314	stimuli\Videos_short_600ms_vertflip\5.repeated_tap_with_finger_moving_from_top_to_bottom_short_vertflip_short_600ms.mp4	5.repeated_tap_with_finger_moving_from_top_to_bottom_short_vertflip_short_600ms.mp4	277.91908153662916	278.5274220276492	0.6083404910200443				
239.05078125	0.2	489576	194	41	2	0	0	5	340	stimuli\Videos_short_600ms_vertflip\73.single_stroke_with_flat_hand_short_vertflip_short_600ms.mp4	73.single_stroke_with_flat_hand_short_vertflip_short_600ms.mp4	278.7190749092324	279.3274051365843	0.6083302273518711				
239.85107421875	0.2	491215	195	41	2	0	0	6	304	stimuli\Videos_short_600ms_vertflip\40.repeated_push_with_finger_short_vertflip_short_600ms.mp4	40.repeated_push_with_finger_short_vertflip_short_600ms.mp4	279.5190665223495	280.12740525388335	0.6083387315338769				
240.65087890625	0.2	492853	196	41	2	0	0	7	96	stimuli\Videos_short_600ms_horflip\15.single_stroke_top_to_bottom_with_a_plastic_whisk_short_horflip_short_600ms.mp4	15.single_stroke_top_to_bottom_with_a_plastic_whisk_short_horflip_short_600ms.mp4	280.31905901520986	280.9273830843613	0.608324069151422				
241.451171875	0.2	494492	197	41	2	0	0	8	86	stimuli\Videos_short_600ms\88.repeated_stroke_with_plastic_brush_short_short_600ms.mp4	88.repeated_stroke_with_plastic_brush_short_short_600ms.mp4	281.11912335374427	281.7273735244876	0.6082501707433039				
242.2509765625	0.2	496130	198	41	2	0	0	9	139	stimuli\Videos_short_600ms_horflip\54.repeated_touch_with_knife_short_horflip_short_600ms.mp4	54.repeated_touch_with_knife_short_horflip_short_600ms.mp4	281.9196530762997	282.52736367136686	0.6077105950671466				
243.05078125	0.2	497768	199	41	2	0	0	10	84	stimuli\Videos_short_600ms\86.touch_top_to_bottom_with_hair_brush_short_short_600ms.mp4	86.touch_top_to_bottom_with_hair_brush_short_short_600ms.mp4	282.7190614198407	283.32735792371295	0.608296503872225				
243.85107421875	0.2	499407	200	41	2	0	0	11	9	stimuli\Videos_short_600ms\18.single_stroke_from_top_to_bottom_with_rolling_pin_short_short_600ms.mp4	18.single_stroke_from_top_to_bottom_with_rolling_pin_short_short_600ms.mp4	283.51901667024913	284.12737241014656	0.6083557398974335				
244.65087890625	0.2	501045	201	41	2	0	0	12	311	stimuli\Videos_short_600ms_vertflip\47.(long)scratching_with_finger_nails_short_vertflip_short_600ms.mp4	47.(long)scratching_with_finger_nails_short_vertflip_short_600ms.mp4	284.31900447114685	284.92733675123236	0.6083322800855058				
245.45068359375	0.2	502683	202	41	2	0	0	13	1	stimuli\Videos_short_600ms\10.single_touch_with_knife_short_short_600ms.mp4	10.single_touch_with_knife_short_short_600ms.mp4	285.1189805421386	285.72732865759735	0.6083481154587389				
246.2509765625	0.2	504322	203	41	2	0	0	14	20	stimuli\Videos_short_600ms\28.single_injection_with_sharp_needle_short_short_600ms.mp4	28.single_injection_with_sharp_needle_short_short_600ms.mp4	285.9189932690865	286.5273185112287	0.6083252421422003				
247.05078125	0.2	505960	204	41	2	0	0	15	349	stimuli\Videos_short_600ms_vertflip\81.single_stroke_top_to_bottom_with_cotton_pad_short_vertflip_short_600ms.mp4	81.single_stroke_top_to_bottom_with_cotton_pad_short_vertflip_short_600ms.mp4	286.7189587831631	287.3273083648601	0.6083495816969844				
247.8505859375	0.2	507598	205	41	2	0	0	16	48	stimuli\Videos_short_600ms\53.touch_top_to_bottom_with_knife_short_short_600ms.mp4	53.touch_top_to_bottom_with_knife_short_short_600ms.mp4	287.5189530355092	288.1272985117389	0.6083454762297151				
248.65087890625	0.2	509237	206	41	2	0	0	17	39	stimuli\Videos_short_600ms\45.scratching_with_finger_nails_short_short_600ms.mp4	45.scratching_with_finger_nails_short_short_600ms.mp4	288.31901825378645	288.92728777887487	0.6082695250884171				
249.45068359375	0.2	510875	207	41	2	0	0	18	19	stimuli\Videos_short_600ms\27.single_push_with_a_plastic_whisk_short_short_600ms.mp4	27.single_push_with_a_plastic_whisk_short_short_600ms.mp4	289.11906177173796	289.727259157904	0.6081973861660117				
250.25048828125	0.2	512513	208	41	2	0	0	19	151	stimuli\Videos_short_600ms_horflip\65.stroke_top_to_bottom_with_stanley_knife_short_horflip_short_600ms.mp4	65.stroke_top_to_bottom_with_stanley_knife_short_horflip_short_600ms.mp4	289.9191387199212	290.52725135751643	0.6081126375952408				
251.05078125	0.2	514152	209	41	2	0	0	20	58	stimuli\Videos_short_600ms\62.touch_top_to_bottom_with_scissors_short_short_600ms.mp4	62.touch_top_to_bottom_with_scissors_short_short_600ms.mp4	290.71910921920744	291.32724062465286	0.6081314054454197				
251.8505859375	0.2	515790	210	41	2	0	0	21	217	stimuli\Videos_short_600ms_horvertflip\43.touch_top_to_bottom_with_sharp_wooden_stick_short_horvertflip_short_600ms.mp4	43.touch_top_to_bottom_with_sharp_wooden_stick_short_horvertflip_short_600ms.mp4	291.51893192167836	292.127226079569	0.6082941578906684				
252.650390625	0.2	517428	211	41	2	0	0	22	55	stimuli\Videos_short_600ms\6.single_touch_with_flat_hand_short_short_600ms.mp4	6.single_touch_with_flat_hand_short_short_600ms.mp4	292.31888453285774	292.927217985934	0.6083334530762841				
253.45068359375	0.2	519067	212	41	2	0	0	23	194	stimuli\Videos_short_600ms_horvertflip\22.single_touch_with_metal_chopstick_short_horvertflip_short_600ms.mp4	22.single_touch_with_metal_chopstick_short_horvertflip_short_600ms.mp4	293.11899520452107	293.72723833732107	0.6082431327999984				
254.25048828125	0.2	520705	213	41	2	0	0	24	348	stimuli\Videos_short_600ms_vertflip\80.stroke_with_sharp_stick_all_over_the_hand_short_vertflip_short_600ms.mp4	80.stroke_with_sharp_stick_all_over_the_hand_short_vertflip_short_600ms.mp4	293.91918006784	294.5272261382188	0.6080460703788049				
255.05029296875	0.2	522343	214	41	2	0	0	25	106	stimuli\Videos_short_600ms_horflip\24.single_stroke_top_to_bottom_with_a_spoon_short_horflip_short_600ms.mp4	24.single_stroke_top_to_bottom_with_a_spoon_short_horflip_short_600ms.mp4	294.71886201143843	295.32722185680313	0.6083598453647028				
255.8505859375	0.2	523982	215	41	2	0	0	26	51	stimuli\Videos_short_600ms\56.repeated_touch_with_nail_file_short_short_600ms.mp4	56.repeated_touch_with_nail_file_short_short_600ms.mp4	295.5188861750448	296.12720672522437	0.6083205501795419				
256.650390625	0.2	525620	216	41	2	0	0	27	75	stimuli\Videos_short_600ms\78.single_stroke_top_to_bottom_with_soft_brush_short_short_600ms.mp4	78.single_stroke_top_to_bottom_with_soft_brush_short_short_600ms.mp4	296.3188420119486	296.92719599236034	0.6083539804117208				
257.4501953125	0.2	527258	217	41	2	0	0	28	333	stimuli\Videos_short_600ms_vertflip\67.single_touch_with_sponge_short_vertflip_short_600ms.mp4	67.single_touch_with_sponge_short_vertflip_short_600ms.mp4	297.1188594308592	297.72718496624884	0.6083255353896675				
258.25048828125	0.2	528897	218	41	2	0	0	29	103	stimuli\Videos_short_600ms_horflip\21.repeated_touch_with_metal_chopstick_short_horflip_short_600ms.mp4	21.repeated_touch_with_metal_chopstick_short_horflip_short_600ms.mp4	297.91884752500437	298.52717481987975	0.6083272948753802				
259.05029296875	0.2	530535	219	41	2	0	0	30	114	stimuli\Videos_short_600ms_horflip\31.hand_grabbing_wrist_short_horflip_short_600ms.mp4	31.hand_grabbing_wrist_short_horflip_short_600ms.mp4	298.7188359123975	299.327164966759	0.6083290543615476				
259.85009765625	0.2	532173	220	41	2	0	0	31	156	stimuli\Videos_short_600ms_horflip\7.repeated_touch_with_hairbrush_short_horflip_short_600ms.mp4	7.repeated_touch_with_hairbrush_short_horflip_short_600ms.mp4	299.5188052386934	300.1271539406471	0.6083487019536733				
260.650390625	0.2	533812	221	41	2	0	0	32	218	stimuli\Videos_short_600ms_horvertflip\44.pushing_top_to_bottom_with_finger_short_horvertflip_short_600ms.mp4	44.pushing_top_to_bottom_with_finger_short_horvertflip_short_600ms.mp4	300.3188235373468	300.9271452605167	0.6083217231698654				
261.4501953125	0.2	535450	222	41	2	0	0	33	285	stimuli\Videos_short_600ms_vertflip\23.single_push_with_a_spoon_short_vertflip_short_600ms.mp4	23.single_push_with_a_spoon_short_vertflip_short_600ms.mp4	301.1189104559503	301.7271348209006	0.6082243649502743				
262.25048828125	0.2	537089	223	41	2	0	0	34	175	stimuli\Videos_short_600ms_horflip\87.single_stroke_top_to_bottom_with_plastic_brush_short_horflip_short_600ms.mp4	87.single_stroke_top_to_bottom_with_plastic_brush_short_horflip_short_600ms.mp4	301.9188111622957	302.5271296597416	0.6083184974459073				
263.05029296875	0.2	538727	224	41	2	0	0	35	94	stimuli\Videos_short_600ms_horflip\13.single_touch_with_pen_short_horflip_short_600ms.mp4	13.single_touch_with_pen_short_horflip_short_600ms.mp4	302.71876582620916	303.3271180471347	0.6083522209255534				
263.85009765625	0.2	540365	225	41	2	0	0	36	56	stimuli\Videos_short_600ms\60.single_push_with_tip_of_pencil_short_short_600ms.mp4	60.single_push_with_tip_of_pencil_short_short_600ms.mp4	303.51876477051746	304.1271073142707	0.6083425437532242				
264.650390625	0.2	542004	226	41	2	0	0	37	136	stimuli\Videos_short_600ms_horflip\51.repeated_touch_with_hammer_short_horflip_short_600ms.mp4	51.repeated_touch_with_hammer_short_horflip_short_600ms.mp4	304.3187499321866	304.92709775439744	0.608347822210817				
265.4501953125	0.2	543642	227	41	2	0	0	38	124	stimuli\Videos_short_600ms_horflip\40.repeated_push_with_finger_short_horflip_short_600ms.mp4	40.repeated_push_with_finger_short_horflip_short_600ms.mp4	305.1187846527082	305.727086435038	0.6083017823298178				
266.25	0.2	545280	228	41	2	0	0	39	242	stimuli\Videos_short_600ms_horvertflip\66.stroke_top_to_bottom_with_sponge_short_horvertflip_short_600ms.mp4	66.stroke_top_to_bottom_with_sponge_short_horvertflip_short_600ms.mp4	305.9187220150102	306.52707452918366	0.6083525141734754				
267.05029296875	0.2	546919	229	41	2	0	0	40	122	stimuli\Videos_short_600ms_horflip\39.single_stab_with_scissors_short_horflip_short_600ms.mp4	39.single_stab_with_scissors_short_horflip_short_600ms.mp4	306.7187420731493	307.327064382815	0.6083223096657093				
267.85009765625	0.2	548557	230	41	2	0	0	41	150	stimuli\Videos_short_600ms_horflip\64.repeated_touch_with_screwdriver_short_horflip_short_600ms.mp4	64.repeated_touch_with_screwdriver_short_horflip_short_600ms.mp4	307.51870729397797	308.127039280816	0.6083319868380386				
268.64990234375	0.2	550195	231	41	2	0	0	42	206	stimuli\Videos_short_600ms_horvertflip\33.scratch_top_to_bottom_with_scissors_short_horvertflip_short_600ms.mp4	33.scratch_top_to_bottom_with_scissors_short_horvertflip_short_600ms.mp4	308.31872148716457	308.9270549402404	0.6083334530758293				
269.4501953125	0.2	551834	232	41	2	0	0	43	295	stimuli\Videos_short_600ms_vertflip\32.single_(long)pinch_with_fingers_short_vertflip_short_600ms.mp4	32.single_(long)pinch_with_fingers_short_vertflip_short_600ms.mp4	309.1187151530153	309.7270433276335	0.6083281746182365				
270.25	0.2	553472	233	41	2	0	0	44	102	stimuli\Videos_short_600ms_horflip\20.single_touch_with_screwdriver_short_horflip_short_600ms.mp4	20.single_touch_with_screwdriver_short_horflip_short_600ms.mp4	309.91867978734854	310.52704755039986	0.6083677630513193				
271.0498046875	0.2	555110	234	41	2	0	0	45	29	stimuli\Videos_short_600ms\36.single_slap_with_full_hand_short_short_600ms.mp4	36.single_slap_with_full_hand_short_short_600ms.mp4	310.71869222104897	311.32702127541006	0.6083290543610929				
271.85009765625	0.2	556749	235	41	2	0	0	46	198	stimuli\Videos_short_600ms_horvertflip\26.single_touch_with_a_blunt_syringe_short_horvertflip_short_600ms.mp4	26.single_touch_with_a_blunt_syringe_short_horvertflip_short_600ms.mp4	311.5186876463854	312.12702432518563	0.6083366788002422				
272.64990234375	0.2	558387	236	41	2	0	0	47	36	stimuli\Videos_short_600ms\42.single_slap_with_plastic_whisk_short_short_600ms.mp4	42.single_slap_with_plastic_whisk_short_short_600ms.mp4	312.31867398104487	312.927002448911	0.6083284678661585				
273.44970703125	0.2	560025	237	41	2	0	0	48	166	stimuli\Videos_short_600ms_horflip\79.long_with_soft_brush_all_over_the_hand_short_horflip_short_600ms.mp4	79.long_with_soft_brush_all_over_the_hand_short_horflip_short_600ms.mp4	313.1187559144387	313.7269952350189	0.6082393205801964				
274.25	0.2	561664	238	41	2	0	0	49	250	stimuli\Videos_short_600ms_horvertflip\73.single_stroke_with_flat_hand_short_horvertflip_short_600ms.mp4	73.single_stroke_with_flat_hand_short_horvertflip_short_600ms.mp4	313.9186536883076	314.52698332916407	0.608329640856482				
275.0498046875	0.2	563302	239	41	2	0	1	50	368	stimuli\Targets_short_600ms_horflip\chopstickwood-tap_short_horflip_short_600ms.mp4	chopstickwood-tap_short_horflip_short_600ms.mp4	314.71865204612095	315.326975528777	0.6083234826560329				
275.849609375	0.2	564940	240	41	2	0	0	51	91	stimuli\Videos_short_600ms_horflip\10.single_touch_with_knife_short_horflip_short_600ms.mp4	10.single_touch_with_knife_short_horflip_short_600ms.mp4	315.51862107916895	316.1269662621512	0.6083451829822479				
276.64990234375	0.2	566579	241	41	2	0	0	52	186	stimuli\Videos_short_600ms_horvertflip\15.single_stroke_top_to_bottom_with_a_plastic_whisk_short_horvertflip_short_600ms.mp4	15.single_stroke_top_to_bottom_with_a_plastic_whisk_short_horvertflip_short_600ms.mp4	316.3186065340856	316.9269572887729	0.6083507546873079				
277.44970703125	0.2	568217	242	41	2	0	0	53	38	stimuli\Videos_short_600ms\44.pushing_top_to_bottom_with_finger_short_short_600ms.mp4	44.pushing_top_to_bottom_with_finger_short_short_600ms.mp4	317.1185978539552	317.7269409842038	0.6083431302486133				
278.24951171875	0.2	569855	243	41	2	0	0	54	248	stimuli\Videos_short_600ms_horvertflip\71.single_stroke_with_finger_top_to_bottom_short_horvertflip_short_600ms.mp4	71.single_stroke_with_finger_top_to_bottom_short_horvertflip_short_600ms.mp4	317.91858712109115	318.52693523654943	0.6083481154582842				
279.0498046875	0.2	571494	244	41	2	0	0	55	11	stimuli\Videos_short_600ms\2.single_touch_with_finger_short_short_600ms.mp4	2.single_touch_with_finger_short_short_600ms.mp4	318.71857844096075	319.32692684966696	0.6083484087062061				
279.849609375	0.2	573132	245	41	2	0	0	56	113	stimuli\Videos_short_600ms_horflip\30.finger_pulling_back_another_finger_short_horflip_short_600ms.mp4	30.finger_pulling_back_another_finger_short_horflip_short_600ms.mp4	319.5186301698459	320.12689353673386	0.608263366887968				
280.64990234375	0.2	574771	246	41	2	0	0	57	196	stimuli\Videos_short_600ms_horvertflip\24.single_stroke_top_to_bottom_with_a_spoon_short_horvertflip_short_600ms.mp4	24.single_stroke_top_to_bottom_with_a_spoon_short_horvertflip_short_600ms.mp4	320.3186493482426	320.92688456335554	0.6082352151129271				
281.44970703125	0.2	576409	247	41	2	0	0	58	229	stimuli\Videos_short_600ms_horvertflip\54.repeated_touch_with_knife_short_horvertflip_short_600ms.mp4	54.repeated_touch_with_knife_short_horvertflip_short_600ms.mp4	321.1185799658483	321.72687236425327	0.6082923984049557				
282.24951171875	0.2	578047	248	41	2	0	0	59	158	stimuli\Videos_short_600ms_horflip\71.single_stroke_with_finger_top_to_bottom_short_horflip_short_600ms.mp4	71.single_stroke_with_finger_top_to_bottom_short_horflip_short_600ms.mp4	321.91878271727364	322.52688626419194	0.6081035469183007				
283.0498046875	0.2	579686	249	41	2	0	0	60	90	stimuli\Videos_short_600ms_horflip\1.repeated_touch_with_finger_fast_short_horflip_short_600ms.mp4	1.repeated_touch_with_finger_fast_short_horflip_short_600ms.mp4	322.7185497026908	323.3268684933846	0.6083187906938292				
283.849609375	0.2	581324	250	41	2	0	0	61	303	stimuli\Videos_short_600ms_vertflip\4.repeated_tap_with_finger_slow_short_vertflip_short_600ms.mp4	4.repeated_tap_with_finger_slow_short_vertflip_short_600ms.mp4	323.5185410225604	324.12687007692193	0.6083290543615476				
284.6494140625	0.2	582962	251	41	2	0	0	62	190	stimuli\Videos_short_600ms_horvertflip\19.single_touch_with_rolling_pin_short_horvertflip_short_600ms.mp4	19.single_touch_with_rolling_pin_short_horvertflip_short_600ms.mp4	324.31849979194067	324.9268628630293	0.608363071088661				
285.44970703125	0.2	584601	252	41	2	0	0	63	12	stimuli\Videos_short_600ms\20.single_touch_with_screwdriver_short_short_600ms.mp4	20.single_touch_with_screwdriver_short_short_600ms.mp4	325.11852102307057	325.7268524234132	0.6083314003426494				
286.24951171875	0.2	586239	253	41	2	0	1	64	379	stimuli\Targets_short_600ms_vertflip\chopstick-silver-tap_short_horvertflip_short_600ms.mp4	chopstick-silver-tap_short_horvertflip_short_600ms.mp4	325.9185111699494	326.52679887639215	0.6082877064427521				
287.04931640625	0.2	587877	254	41	2	0	0	65	216	stimuli\Videos_short_600ms_horvertflip\42.single_slap_with_plastic_whisk_short_horvertflip_short_600ms.mp4	42.single_slap_with_plastic_whisk_short_horvertflip_short_600ms.mp4	326.7186807843905	327.3268312509326	0.6081504665421562				
287.849609375	0.2	589516	255	41	2	0	0	66	137	stimuli\Videos_short_600ms_horflip\52.touch_top_to_bottom_with_hammer_short_horflip_short_600ms.mp4	52.touch_top_to_bottom_with_hammer_short_horflip_short_600ms.mp4	327.5185732798018	328.1268208113165	0.6082475315147349				
288.6494140625	0.2	591154	256	41	2	0	0	67	27	stimuli\Videos_short_600ms\34.repeated_punch_with_hand_short_short_600ms.mp4	34.repeated_punch_with_hand_short_short_600ms.mp4	328.31845199257396	328.9268124244336	0.6083604318596372				
289.44921875	0.2	592792	257	41	2	0	0	68	172	stimuli\Videos_short_600ms_horflip\84.single_touch_with_cotton_bud_short_horflip_short_600ms.mp4	84.single_touch_with_cotton_bud_short_horflip_short_600ms.mp4	329.11847322370386	329.7268013983221	0.6083281746182365				
290.24951171875	0.2	594431	258	41	2	0	1	69	375	stimuli\Targets_short_600ms_horvertflip\finger-tap_short_vertflip_short_600ms.mp4	finger-tap_short_vertflip_short_600ms.mp4	329.9184633705827	330.5267927181917	0.6083293476090148				
291.04931640625	0.2	596069	259	41	2	0	0	70	310	stimuli\Videos_short_600ms_vertflip\46.scratching_top_to_bottom_with_finger_nails_short_vertflip_short_600ms.mp4	46.scratching_top_to_bottom_with_finger_nails_short_vertflip_short_600ms.mp4	330.7184599689099	331.3267834515659	0.6083234826560329				
291.84912109375	0.2	597707	260	41	2	0	0	71	8	stimuli\Videos_short_600ms\17.repeated_touch_with_rolling_pin_short_short_600ms.mp4	17.repeated_touch_with_rolling_pin_short_short_600ms.mp4	331.5184369196445	332.1267733051973	0.608336385552775				
292.6494140625	0.2	599346	261	41	2	0	0	72	153	stimuli\Videos_short_600ms_horflip\67.single_touch_with_sponge_short_horflip_short_600ms.mp4	67.single_touch_with_sponge_short_horflip_short_600ms.mp4	332.3184420221537	332.9267646250669	0.6083226029131765				
293.44921875	0.2	600984	262	41	2	0	0	73	18	stimuli\Videos_short_600ms\26.single_touch_with_a_blunt_syringe_short_short_600ms.mp4	26.single_touch_with_a_blunt_syringe_short_short_600ms.mp4	333.1184386204809	333.72675301245954	0.608314391978638				
294.2490234375	0.2	602622	263	41	2	0	0	74	332	stimuli\Videos_short_600ms_vertflip\66.stroke_top_to_bottom_with_sponge_short_vertflip_short_600ms.mp4	66.stroke_top_to_bottom_with_sponge_short_vertflip_short_600ms.mp4	333.918404134557	334.5267431593388	0.6083390247817988				
295.04931640625	0.2	604261	264	41	2	0	0	75	7	stimuli\Videos_short_600ms\16.repeated_touch_with_plastic_brush_short_short_600ms.mp4	16.repeated_touch_with_plastic_brush_short_short_600ms.mp4	334.71841480877174	335.32673799817985	0.6083231894081109				
295.84912109375	0.2	605899	265	41	2	0	0	76	203	stimuli\Videos_short_600ms_horvertflip\30.finger_pulling_back_another_finger_short_horvertflip_short_600ms.mp4	30.finger_pulling_back_another_finger_short_horvertflip_short_600ms.mp4	335.51837269840917	336.12672140036284	0.6083487019536733				
296.64892578125	0.2	607537	266	41	2	0	0	77	210	stimuli\Videos_short_600ms_horvertflip\37.single_stab_with_nail_file_short_horvertflip_short_600ms.mp4	37.single_stab_with_nail_file_short_horvertflip_short_600ms.mp4	336.31841944208463	336.9266983510979	0.6082789090132792				
297.44921875	0.2	609176	267	41	2	0	0	78	289	stimuli\Videos_short_600ms_vertflip\27.single_push_with_a_plastic_whisk_short_vertflip_short_600ms.mp4	27.single_push_with_a_plastic_whisk_short_vertflip_short_600ms.mp4	337.1183782114649	337.72671019830295	0.6083319868380386				
298.2490234375	0.2	610814	268	41	2	0	0	79	236	stimuli\Videos_short_600ms_horvertflip\60.single_push_with_tip_of_pencil_short_horvertflip_short_600ms.mp4	60.single_push_with_tip_of_pencil_short_horvertflip_short_600ms.mp4	337.9183448985318	338.5266950667242	0.6083501681923735				
299.04931640625	0.2	612453	269	41	2	0	0	80	88	stimuli\Videos_short_600ms\9.single_touch_with_hammer_short_short_600ms.mp4	9.single_touch_with_hammer_short_short_600ms.mp4	338.71833827113505	339.3266617537911	0.6083234826560329				
299.84912109375	0.2	614091	270	41	2	0	0	81	141	stimuli\Videos_short_600ms_horflip\56.repeated_touch_with_nail_file_short_horflip_short_600ms.mp4	56.repeated_touch_with_nail_file_short_horflip_short_600ms.mp4	339.5183495318447	340.1266768267201	0.6083272948753802				
300.64892578125	0.2	615729	271	41	2	0	0	82	46	stimuli\Videos_short_600ms\51.repeated_touch_with_hammer_short_short_600ms.mp4	51.repeated_touch_with_hammer_short_short_600ms.mp4	340.3183385057332	340.9266678533422	0.6083293476090148				
301.44921875	0.2	617368	272	41	2	0	0	83	213	stimuli\Videos_short_600ms_horvertflip\4.repeated_tap_with_finger_slow_short_horvertflip_short_600ms.mp4	4.repeated_tap_with_finger_slow_short_horvertflip_short_600ms.mp4	341.1183321715839	341.7266676773934	0.6083355058094639				
302.2490234375	0.2	619006	273	41	2	0	0	84	132	stimuli\Videos_short_600ms_horflip\48.single_slap_with_hand_short_horflip_short_600ms.mp4	48.single_slap_with_hand_short_horflip_short_600ms.mp4	341.9183082425757	342.52664990658604	0.6083416640103678				
303.048828125	0.2	620644	274	41	2	0	0	85	67	stimuli\Videos_short_600ms\70.(long)stroke_with_finger_all_over_the_hand_short_short_600ms.mp4	70.(long)stroke_with_finger_all_over_the_hand_short_short_600ms.mp4	342.71828548655776	343.3266415197031	0.6083560331453555				
303.84912109375	0.2	622283	275	41	2	0	0	86	0	stimuli\Videos_short_600ms\1.repeated_touch_with_finger_fast_short_short_600ms.mp4	1.repeated_touch_with_finger_fast_short_short_600ms.mp4	343.5183002662393	344.126628440858	0.6083281746186913				
304.64892578125	0.2	623921	276	41	2	0	0	87	211	stimuli\Videos_short_600ms_horvertflip\38.double_slap_with_pencil_short_horvertflip_short_600ms.mp4	38.double_slap_with_pencil_short_horvertflip_short_600ms.mp4	344.3182904131186	344.9266185877368	0.6083281746182365				
305.44873046875	0.2	625559	277	41	2	0	1	88	374	stimuli\Targets_short_600ms_horvertflip\chopstickwood-tap_short_vertflip_short_600ms.mp4	chopstickwood-tap_short_vertflip_short_600ms.mp4	345.11827968025455	345.72660902786356	0.6083293476090148				
306.2490234375	0.2	627198	278	41	2	0	0	89	239	stimuli\Videos_short_600ms_horvertflip\63.stroke_top_to_bottom_with_screwdriver_short_horvertflip_short_600ms.mp4	63.stroke_top_to_bottom_with_screwdriver_short_horvertflip_short_600ms.mp4	345.9185498786396	346.5265991747424	0.608049296102763				
307.048828125	0.2	628836	279	41	2	0	0	90	121	stimuli\Videos_short_600ms_horflip\38.double_slap_with_pencil_short_horflip_short_600ms.mp4	38.double_slap_with_pencil_short_horflip_short_600ms.mp4	346.7185165657065	347.32659078785946	0.6080742221529363				
307.8486328125	0.2	630474	280	41	2	0	0	91	31	stimuli\Videos_short_600ms\38.double_slap_with_pencil_short_short_600ms.mp4	38.double_slap_with_pencil_short_short_600ms.mp4	347.5182597980638	348.1265818144816	0.6083220164177874				
308.64892578125	0.2	632113	281	41	2	0	0	92	4	stimuli\Videos_short_600ms\13.single_touch_with_pen_short_short_600ms.mp4	13.single_touch_with_pen_short_short_600ms.mp4	348.3182264851307	348.92657225460835	0.6083457694776371				
309.44873046875	0.2	633751	282	41	2	0	0	93	274	stimuli\Videos_short_600ms_vertflip\13.single_touch_with_pen_short_vertflip_short_600ms.mp4	13.single_touch_with_pen_short_vertflip_short_600ms.mp4	349.11820900757084	349.7265615217443	0.6083525141734754	4.0	4.0	1.697580736209602	1.0
343.97265625	0.2	704456	283	41	3	0	0	0	205	stimuli\Videos_short_600ms_horvertflip\32.single_(long)pinch_with_fingers_short_horvertflip_short_600ms.mp4	32.single_(long)pinch_with_fingers_short_horvertflip_short_600ms.mp4	383.6428205497395	384.2511393404334	0.6083187906938292				
344.7724609375	0.2	706094	284	41	3	0	0	1	160	stimuli\Videos_short_600ms_horflip\73.single_stroke_with_flat_hand_short_horflip_short_600ms.mp4	73.single_stroke_with_flat_hand_short_horflip_short_600ms.mp4	384.4428121628566	385.0511294873122	0.6083173244555837				
345.57275390625	0.2	707733	285	41	3	0	0	2	234	stimuli\Videos_short_600ms_horvertflip\59.single_push_with_long_side_pencil_short_horvertflip_short_600ms.mp4	59.single_push_with_long_side_pencil_short_horvertflip_short_600ms.mp4	385.2429788448212	385.85112198017214	0.6081431353509288				
346.37255859375	0.2	709371	286	41	3	0	1	3	381	stimuli\Targets_short_600ms_vertflip\finger-tap_short_horvertflip_short_600ms.mp4	finger-tap_short_horvertflip_short_600ms.mp4	386.04291180840846	386.6511203379855	0.6082085295770412				
347.17236328125	0.2	711009	287	41	3	0	0	4	335	stimuli\Videos_short_600ms_vertflip\69.stroke_with_soft_sock_short_vertflip_short_600ms.mp4	69.stroke_with_soft_sock_short_vertflip_short_600ms.mp4	386.8428001983525	387.4511134173408	0.6083132189883145				
347.97265625	0.2	712648	288	41	3	0	0	5	74	stimuli\Videos_short_600ms\77.tapping_with_all_fingers_short_short_600ms.mp4	77.tapping_with_all_fingers_short_short_600ms.mp4	387.6429038320721	388.25109300730446	0.6081891752323827				
348.7724609375	0.2	714286	289	41	3	0	0	6	180	stimuli\Videos_short_600ms_horvertflip\1.repeated_touch_with_finger_fast_short_horvertflip_short_600ms.mp4	1.repeated_touch_with_finger_fast_short_horvertflip_short_600ms.mp4	388.44281538858104	389.0510910718699	0.6082756832888663				
349.572265625	0.2	715924	290	41	3	0	0	7	191	stimuli\Videos_short_600ms_horvertflip\2.single_touch_with_finger_short_horvertflip_short_600ms.mp4	2.single_touch_with_finger_short_horvertflip_short_600ms.mp4	389.2427949785447	389.8510738875575	0.6082789090128244				
350.37255859375	0.2	717563	291	41	3	0	0	8	262	stimuli\Videos_short_600ms_horvertflip\84.single_touch_with_cotton_bud_short_horvertflip_short_600ms.mp4	84.single_touch_with_cotton_bud_short_horvertflip_short_600ms.mp4	390.0427387922946	390.6510693128944	0.6083305205997931				
351.17236328125	0.2	719201	292	41	3	0	0	9	184	stimuli\Videos_short_600ms_horvertflip\13.single_touch_with_pen_short_horvertflip_short_600ms.mp4	13.single_touch_with_pen_short_horvertflip_short_600ms.mp4	390.84271515653427	391.45105682054464	0.6083416640103678				
351.97216796875	0.2	720839	293	41	3	0	0	10	291	stimuli\Videos_short_600ms_vertflip\29.single_pinch_with_tweezers_short_vertflip_short_600ms.mp4	29.single_pinch_with_tweezers_short_vertflip_short_600ms.mp4	391.642702957432	392.25104696742346	0.6083440099914696				
352.7724609375	0.2	722478	294	41	3	0	0	11	181	stimuli\Videos_short_600ms_horvertflip\10.single_touch_with_knife_short_horvertflip_short_600ms.mp4	10.single_touch_with_knife_short_horvertflip_short_600ms.mp4	392.4426966232827	393.0510347683212	0.6083381450384877				
353.572265625	0.2	724116	295	41	3	0	0	12	328	stimuli\Videos_short_600ms_vertflip\62.touch_top_to_bottom_with_scissors_short_vertflip_short_600ms.mp4	62.touch_top_to_bottom_with_scissors_short_vertflip_short_600ms.mp4	393.2426847174279	393.8510255016954	0.6083407842675115				
354.3720703125	0.2	725754	296	41	3	0	1	13	366	stimuli\Targets_short_600ms_horflip\brush-stroke_short_horflip_short_600ms.mp4	brush-stroke_short_horflip_short_600ms.mp4	394.04311033706745	394.65101594182215	0.6079056047547056				
355.17236328125	0.2	727393	297	41	3	0	0	14	305	stimuli\Videos_short_600ms_vertflip\41.injection_with_blunt_syringe_short_vertflip_short_600ms.mp4	41.injection_with_blunt_syringe_short_vertflip_short_600ms.mp4	394.8432811244993	395.45100051699546	0.6077193924961648				
355.97216796875	0.2	729031	298	41	3	0	0	15	259	stimuli\Videos_short_600ms_horvertflip\81.single_stroke_top_to_bottom_with_cotton_pad_short_horvertflip_short_600ms.mp4	81.single_stroke_top_to_bottom_with_cotton_pad_short_horvertflip_short_600ms.mp4	395.64264870661646	396.25099594233234	0.6083472357158826				
356.77197265625	0.2	730669	299	41	3	0	0	16	34	stimuli\Videos_short_600ms\40.repeated_push_with_finger_short_short_600ms.mp4	40.repeated_push_with_finger_short_short_600ms.mp4	396.4427194965992	397.0509887284402	0.6082692318409499				
357.572265625	0.2	732308	300	41	3	0	0	17	112	stimuli\Videos_short_600ms_horflip\3.single_push_with_finger_short_horflip_short_600ms.mp4	3.single_push_with_finger_short_horflip_short_600ms.mp4	397.2426571521487	397.85097623609	0.6083190839412964				
358.38037109375	0.2	733963	301	41	3	0	0	18	238	stimuli\Videos_short_600ms_horvertflip\62.touch_top_to_bottom_with_scissors_short_horvertflip_short_600ms.mp4	62.touch_top_to_bottom_with_scissors_short_horvertflip_short_600ms.mp4	398.0509717200762	398.659302240676	0.6083305205997931				
359.1806640625	0.2	735602	302	41	3	0	0	19	264	stimuli\Videos_short_600ms_horvertflip\86.touch_top_to_bottom_with_hair_brush_short_horvertflip_short_600ms.mp4	86.touch_top_to_bottom_with_hair_brush_short_horvertflip_short_600ms.mp4	398.85097125087987	399.45929385379304	0.6083226029131765				
359.98046875	0.2	737240	303	41	3	0	0	20	249	stimuli\Videos_short_600ms_horvertflip\72.(short)stroke_with_finger_all_over_the_hand_short_horvertflip_short_600ms.mp4	72.(short)stroke_with_finger_all_over_the_hand_short_horvertflip_short_600ms.mp4	399.6509297270127	400.2592837074244	0.6083539804117208				
360.7802734375	0.2	738878	304	41	3	0	0	21	309	stimuli\Videos_short_600ms_vertflip\45.scratching_with_finger_nails_short_vertflip_short_600ms.mp4	45.scratching_with_finger_nails_short_vertflip_short_600ms.mp4	400.450919873892	401.0592732678083	0.6083533939163317				
361.58056640625	0.2	740517	305	41	3	0	0	22	43	stimuli\Videos_short_600ms\49.repeated_slap_with_hand_short_short_600ms.mp4	49.repeated_slap_with_hand_short_short_600ms.mp4	401.25108831534226	401.8592634146871	0.6081750993448622				
362.38037109375	0.2	742155	306	41	3	0	0	23	129	stimuli\Videos_short_600ms_horflip\45.scratching_with_finger_nails_short_horflip_short_600ms.mp4	45.scratching_with_finger_nails_short_horflip_short_600ms.mp4	402.05178401606736	402.6592515088323	0.6074674927649539				
363.18017578125	0.2	743793	307	41	3	0	0	24	201	stimuli\Videos_short_600ms_horvertflip\29.single_pinch_with_tweezers_short_horvertflip_short_600ms.mp4	29.single_pinch_with_tweezers_short_horvertflip_short_600ms.mp4	402.85144308634926	403.45924312194984	0.6078000356005759				
363.98046875	0.2	745432	308	41	3	0	0	25	308	stimuli\Videos_short_600ms_vertflip\44.pushing_top_to_bottom_with_finger_short_vertflip_short_600ms.mp4	44.pushing_top_to_bottom_with_finger_short_vertflip_short_600ms.mp4	403.6509432164048	404.2592373742955	0.6082941578906684				
364.7802734375	0.2	747070	309	41	3	0	0	26	22	stimuli\Videos_short_600ms\3.single_push_with_finger_short_short_600ms.mp4	3.single_push_with_finger_short_short_600ms.mp4	404.4509401079795	405.059206114096	0.608266006116537				
365.580078125	0.2	748708	310	41	3	0	0	27	64	stimuli\Videos_short_600ms\68.stroke_top_to_bottom_with_shawl_short_short_600ms.mp4	68.stroke_top_to_bottom_with_shawl_short_short_600ms.mp4	405.2509006368459	405.85918922303154	0.6082885861856084				
366.38037109375	0.2	750347	311	41	3	0	0	28	290	stimuli\Videos_short_600ms_vertflip\28.single_injection_with_sharp_needle_short_vertflip_short_600ms.mp4	28.single_injection_with_sharp_needle_short_vertflip_short_600ms.mp4	406.05087524159944	406.6592095744186	0.6083343328191404				
367.18017578125	0.2	751985	312	41	3	0	0	29	117	stimuli\Videos_short_600ms_horflip\34.repeated_punch_with_hand_short_horflip_short_600ms.mp4	34.repeated_punch_with_hand_short_horflip_short_600ms.mp4	406.8508668547165	407.4591947360873	0.6083278813707693				
367.97998046875	0.2	753623	313	41	3	0	0	30	101	stimuli\Videos_short_600ms_horflip\2.single_touch_with_finger_short_horflip_short_600ms.mp4	2.single_touch_with_finger_short_horflip_short_600ms.mp4	407.65092796752697	408.25919602637714	0.6082680588501717				
368.7802734375	0.2	755262	314	41	3	0	0	31	269	stimuli\Videos_short_600ms_horvertflip\90.repeated_touch_with_sponge_short_horvertflip_short_600ms.mp4	90.repeated_touch_with_sponge_short_horvertflip_short_600ms.mp4	408.4508468552267	409.0591764960837	0.6083296408569367				
369.580078125	0.2	756900	315	41	3	0	0	32	30	stimuli\Videos_short_600ms\37.single_stab_with_nail_file_short_short_600ms.mp4	37.single_stab_with_nail_file_short_short_600ms.mp4	409.2508751243003	409.8591660564671	0.6082909321667103				
370.3798828125	0.2	758538	316	41	3	0	0	33	282	stimuli\Videos_short_600ms_vertflip\20.single_touch_with_screwdriver_short_vertflip_short_600ms.mp4	20.single_touch_with_screwdriver_short_vertflip_short_600ms.mp4	410.0508696698939	410.65915473710766	0.6082850672137283				
371.18017578125	0.2	760177	317	41	3	0	0	34	123	stimuli\Videos_short_600ms_horflip\4.repeated_tap_with_finger_slow_short_horflip_short_600ms.mp4	4.repeated_tap_with_finger_slow_short_horflip_short_600ms.mp4	410.85081700261617	411.459147229968	0.6083302273518711				
371.97998046875	0.2	761815	318	41	3	0	0	35	228	stimuli\Videos_short_600ms_horvertflip\53.touch_top_to_bottom_with_knife_short_horvertflip_short_600ms.mp4	53.touch_top_to_bottom_with_knife_short_horvertflip_short_600ms.mp4	411.65080744274246	412.2591367903515	0.6083293476090148				
372.7802734375	0.2	763454	319	41	3	0	0	36	278	stimuli\Videos_short_600ms_vertflip\17.repeated_touch_with_rolling_pin_short_vertflip_short_600ms.mp4	17.repeated_touch_with_rolling_pin_short_vertflip_short_600ms.mp4	412.45084861471287	413.0591269372307	0.60827832251789				
373.580078125	0.2	765092	320	41	3	0	0	37	130	stimuli\Videos_short_600ms_horflip\46.scratching_top_to_bottom_with_finger_nails_short_horflip_short_600ms.mp4	46.scratching_top_to_bottom_with_finger_nails_short_horflip_short_600ms.mp4	413.2507936014535	413.859117670605	0.608324069151422				
374.3798828125	0.2	766730	321	41	3	0	0	38	77	stimuli\Videos_short_600ms\8.single_touch_with_hairbrush_short_short_600ms.mp4	8.single_touch_with_hairbrush_short_short_600ms.mp4	414.0508599927216	414.65910811073127	0.6082481180096693				
375.18017578125	0.2	768369	322	41	3	0	0	39	322	stimuli\Videos_short_600ms_vertflip\57.single_touch_with_nail_file_short_vertflip_short_600ms.mp4	57.single_touch_with_nail_file_short_vertflip_short_600ms.mp4	414.85076539102965	415.45909708461977	0.6083316935901166				
375.97998046875	0.2	770007	323	41	3	0	0	40	277	stimuli\Videos_short_600ms_vertflip\16.repeated_touch_with_plastic_brush_short_vertflip_short_600ms.mp4	16.repeated_touch_with_plastic_brush_short_vertflip_short_600ms.mp4	415.6507608163661	416.25908693825113	0.6083261218850566				
376.77978515625	0.2	771645	324	41	3	0	0	41	85	stimuli\Videos_short_600ms\87.single_stroke_top_to_bottom_with_plastic_brush_short_short_600ms.mp4	87.single_stroke_top_to_bottom_with_plastic_brush_short_short_600ms.mp4	416.4507307291574	417.05907825812073	0.6083475289633498				
377.580078125	0.2	773284	325	41	3	0	0	42	165	stimuli\Videos_short_600ms_horflip\78.single_stroke_top_to_bottom_with_soft_brush_short_horflip_short_600ms.mp4	78.single_stroke_top_to_bottom_with_soft_brush_short_horflip_short_600ms.mp4	417.25078568376694	417.8590458249305	0.6082601411635551				
378.3798828125	0.2	774922	326	41	3	0	0	43	222	stimuli\Videos_short_600ms_horvertflip\48.single_slap_with_hand_short_horvertflip_short_600ms.mp4	48.single_slap_with_hand_short_horvertflip_short_600ms.mp4	418.0507793496176	418.6590415435148	0.6082621938971897				
379.1796875	0.2	776560	327	41	3	0	0	44	109	stimuli\Videos_short_600ms_horflip\27.single_push_with_a_plastic_whisk_short_horflip_short_600ms.mp4	27.single_push_with_a_plastic_whisk_short_horflip_short_600ms.mp4	418.850700290051	419.4590560299489	0.6083557398978883				
379.97998046875	0.2	778199	328	41	3	0	1	45	383	stimuli\Targets_short_600ms_vertflip\hand-stroke_short_horvertflip_short_600ms.mp4	hand-stroke_short_horvertflip_short_600ms.mp4	419.6506898504349	420.25903679290286	0.6083469424679606				
380.77978515625	0.2	779837	329	41	3	0	0	46	28	stimuli\Videos_short_600ms\35.single_punch_with_hand_short_short_600ms.mp4	35.single_punch_with_hand_short_short_600ms.mp4	420.4507014043925	421.0590037732177	0.6083023688252069				
381.57958984375	0.2	781475	330	41	3	0	0	47	3	stimuli\Videos_short_600ms\12.repeated_touch_with_nail_file_short_short_600ms.mp4	12.repeated_touch_with_nail_file_short_short_600ms.mp4	421.2506903782805	421.8590232448614	0.6083328665808949				
382.3798828125	0.2	783114	331	41	3	0	0	48	40	stimuli\Videos_short_600ms\46.scratching_top_to_bottom_with_finger_nails_short_short_600ms.mp4	46.scratching_top_to_bottom_with_finger_nails_short_short_600ms.mp4	422.05068111165474	422.6590089930255	0.6083278813707693				
383.1796875	0.2	784752	332	41	3	0	0	49	330	stimuli\Videos_short_600ms_vertflip\64.repeated_touch_with_screwdriver_short_vertflip_short_600ms.mp4	64.repeated_touch_with_screwdriver_short_vertflip_short_600ms.mp4	422.8507114334621	423.4590055913527	0.6082941578906684				
383.9794921875	0.2	786390	333	41	3	0	0	50	98	stimuli\Videos_short_600ms_horflip\17.repeated_touch_with_rolling_pin_short_horflip_short_600ms.mp4	17.repeated_touch_with_rolling_pin_short_horflip_short_600ms.mp4	423.6507279726293	424.2589925125076	0.6082645398782915				
384.77978515625	0.2	788029	334	41	3	0	0	51	258	stimuli\Videos_short_600ms_horvertflip\80.stroke_with_sharp_stick_all_over_the_hand_short_horvertflip_short_600ms.mp4	80.stroke_with_sharp_stick_all_over_the_hand_short_horvertflip_short_600ms.mp4	424.4506509657963	425.0589888175873	0.6083378517910205				
385.57958984375	0.2	789667	335	41	3	0	0	52	164	stimuli\Videos_short_600ms_horflip\77.tapping_with_all_fingers_short_horflip_short_600ms.mp4	77.tapping_with_all_fingers_short_horflip_short_600ms.mp4	425.25064140592303	425.8589704602846	0.6083290543615476				
386.37939453125	0.2	791305	336	41	3	0	0	53	78	stimuli\Videos_short_600ms\80.stroke_with_sharp_stick_all_over_the_hand_short_short_600ms.mp4	80.stroke_with_sharp_stick_all_over_the_hand_short_short_600ms.mp4	426.0510995760519	426.65895943417263	0.6078598581207189				
387.1796875	0.2	792944	337	41	3	0	0	54	37	stimuli\Videos_short_600ms\43.touch_top_to_bottom_with_sharp_wooden_stick_short_short_600ms.mp4	43.touch_top_to_bottom_with_sharp_wooden_stick_short_short_600ms.mp4	426.85077008299186	427.4589487013086	0.6081786183167424				
387.9794921875	0.2	794582	338	41	3	0	1	55	361	stimuli\Targets_short_600ms\chopstick-silver-tap_short_short_600ms.mp4	chopstick-silver-tap_short_short_600ms.mp4	427.6509435096523	428.2589403144261	0.6079968047738475				
388.779296875	0.2	796220	339	41	3	0	0	56	108	stimuli\Videos_short_600ms_horflip\26.single_touch_with_a_blunt_syringe_short_horflip_short_600ms.mp4	26.single_touch_with_a_blunt_syringe_short_horflip_short_600ms.mp4	428.45089465459387	429.0589292883142	0.6080346337203082				
389.57958984375	0.2	797859	340	41	3	0	0	57	292	stimuli\Videos_short_600ms_vertflip\3.single_push_with_finger_short_vertflip_short_600ms.mp4	3.single_push_with_finger_short_vertflip_short_600ms.mp4	429.2505739589633	429.8589211946792	0.6083472357158826				
390.37939453125	0.2	799497	341	41	3	0	0	58	107	stimuli\Videos_short_600ms_horflip\25.single_touch_with_stanley_knife_short_horflip_short_600ms.mp4	25.single_touch_with_stanley_knife_short_horflip_short_600ms.mp4	430.0506415232221	430.6589110483106	0.6082695250884171				
391.17919921875	0.2	801135	342	41	3	0	0	59	35	stimuli\Videos_short_600ms\41.injection_with_blunt_syringe_short_short_600ms.mp4	41.injection_with_blunt_syringe_short_short_600ms.mp4	430.8505524932357	431.4589020749322	0.6083495816965296				
391.9794921875	0.2	802774	343	41	3	0	0	60	176	stimuli\Videos_short_600ms_horflip\88.repeated_stroke_with_plastic_brush_short_horflip_short_600ms.mp4	88.repeated_stroke_with_plastic_brush_short_horflip_short_600ms.mp4	431.65057108513656	432.2588913420682	0.60832025693162				
392.779296875	0.2	804412	344	41	3	0	0	61	159	stimuli\Videos_short_600ms_horflip\72.(short)stroke_with_finger_all_over_the_hand_short_horflip_short_600ms.mp4	72.(short)stroke_with_finger_all_over_the_hand_short_horflip_short_600ms.mp4	432.45061196385905	433.05889233911057	0.6082803752515247				
393.57958984375	0.2	806051	345	41	3	0	0	62	92	stimuli\Videos_short_600ms_horflip\11.single_touch_with_lighter_short_horflip_short_600ms.mp4	11.single_touch_with_lighter_short_horflip_short_600ms.mp4	433.25051941490074	433.85887310206454	0.6083536871637989				
394.37939453125	0.2	807689	346	41	3	0	0	63	59	stimuli\Videos_short_600ms\63.stroke_top_to_bottom_with_screwdriver_short_short_600ms.mp4	63.stroke_top_to_bottom_with_screwdriver_short_short_600ms.mp4	434.0506869766077	434.658862662448	0.6081756858402514				
395.17919921875	0.2	809327	347	41	3	0	0	64	73	stimuli\Videos_short_600ms\76.tickle_with_fingers_from_top_to_bottom_short_short_600ms.mp4	76.tickle_with_fingers_from_top_to_bottom_short_short_600ms.mp4	434.85053724435784	435.45883345498214	0.6082962106243031				
395.9794921875	0.2	810966	348	41	3	0	0	65	284	stimuli\Videos_short_600ms_vertflip\22.single_touch_with_metal_chopstick_short_vertflip_short_600ms.mp4	22.single_touch_with_metal_chopstick_short_vertflip_short_600ms.mp4	435.6505144883399	436.2588476481683	0.6083331598283621				
396.779296875	0.2	812604	349	41	3	0	0	66	6	stimuli\Videos_short_600ms\15.single_stroke_top_to_bottom_with_a_plastic_whisk_short_short_600ms.mp4	15.single_stroke_top_to_bottom_with_a_plastic_whisk_short_short_600ms.mp4	436.45052223007815	437.0588325165895	0.6083102865113688				
397.5791015625	0.2	814242	350	41	3	0	0	67	301	stimuli\Videos_short_600ms_vertflip\38.double_slap_with_pencil_short_vertflip_short_600ms.mp4	38.double_slap_with_pencil_short_vertflip_short_600ms.mp4	437.2505009402985	437.8588305811554	0.6083296408569367				
398.37939453125	0.2	815881	351	41	3	0	0	68	288	stimuli\Videos_short_600ms_vertflip\26.single_touch_with_a_blunt_syringe_short_vertflip_short_600ms.mp4	26.single_touch_with_a_blunt_syringe_short_vertflip_short_600ms.mp4	438.0504869817105	438.65882366051073	0.6083366788002422				
399.17919921875	0.2	817519	352	41	3	0	0	69	89	stimuli\Videos_short_600ms\90.repeated_touch_with_sponge_short_short_600ms.mp4	90.repeated_touch_with_sponge_short_short_600ms.mp4	438.85047390286536	439.4588053032075	0.6083314003421947				
399.97900390625	0.2	819157	353	41	3	0	0	70	111	stimuli\Videos_short_600ms_horflip\29.single_pinch_with_tweezers_short_horflip_short_600ms.mp4	29.single_pinch_with_tweezers_short_horflip_short_600ms.mp4	439.65047050119256	440.2588007285444	0.6083302273518711				
400.779296875	0.2	820796	354	41	3	0	0	71	302	stimuli\Videos_short_600ms_vertflip\39.single_stab_with_scissors_short_vertflip_short_600ms.mp4	39.single_stab_with_scissors_short_vertflip_short_600ms.mp4	440.45050052975193	441.05878295773664	0.6082824279847046				
401.5791015625	0.2	822434	355	41	3	0	0	72	195	stimuli\Videos_short_600ms_horvertflip\23.single_push_with_a_spoon_short_horvertflip_short_600ms.mp4	23.single_push_with_a_spoon_short_horvertflip_short_600ms.mp4	441.25050680525146	441.8587722248726	0.6082654196211479				
402.37890625	0.2	824072	356	41	3	0	0	73	126	stimuli\Videos_short_600ms_horflip\42.single_slap_with_plastic_whisk_short_horflip_short_600ms.mp4	42.single_slap_with_plastic_whisk_short_horflip_short_600ms.mp4	442.0504922601681	442.6587629582473	0.6082706980791954				
403.17919921875	0.2	825711	357	41	3	0	0	74	281	stimuli\Videos_short_600ms_vertflip\2.single_touch_with_finger_short_vertflip_short_600ms.mp4	2.single_touch_with_finger_short_vertflip_short_600ms.mp4	442.85042463725995	443.4587536916215	0.6083290543615476				
403.97900390625	0.2	827349	358	41	3	0	0	75	25	stimuli\Videos_short_600ms\32.single_(long)pinch_with_fingers_short_short_600ms.mp4	32.single_(long)pinch_with_fingers_short_short_600ms.mp4	443.6504156638816	444.2587435452524	0.6083278813707693				
404.77880859375	0.2	828987	359	41	3	0	0	76	23	stimuli\Videos_short_600ms\30.finger_pulling_back_another_finger_short_short_600ms.mp4	30.finger_pulling_back_another_finger_short_short_600ms.mp4	444.45044246671705	445.0587351583699	0.6082926916528777				
405.5791015625	0.2	830626	360	41	3	0	0	77	294	stimuli\Videos_short_600ms_vertflip\31.hand_grabbing_wrist_short_vertflip_short_600ms.mp4	31.hand_grabbing_wrist_short_vertflip_short_600ms.mp4	445.2503748438089	445.85872471875336	0.6083498749444516				
406.37890625	0.2	832264	361	41	3	0	0	78	344	stimuli\Videos_short_600ms_vertflip\77.tapping_with_all_fingers_short_vertflip_short_600ms.mp4	77.tapping_with_all_fingers_short_vertflip_short_600ms.mp4	446.0504321444	446.65871427913726	0.6082821347372374				
407.1787109375	0.2	833902	362	41	3	0	0	79	97	stimuli\Videos_short_600ms_horflip\16.repeated_touch_with_plastic_brush_short_horflip_short_600ms.mp4	16.repeated_touch_with_plastic_brush_short_horflip_short_600ms.mp4	446.8503771311407	447.4587026665304	0.6083255353896675				
407.97900390625	0.2	835541	363	41	3	0	0	80	263	stimuli\Videos_short_600ms_horvertflip\85.touch_top_to_bottom_with_fabric_short_horvertflip_short_600ms.mp4	85.touch_top_to_bottom_with_fabric_short_horvertflip_short_600ms.mp4	447.6507502594509	448.2586702333401	0.6079199738892385				
408.77880859375	0.2	837179	364	41	3	0	1	81	371	stimuli\Targets_short_600ms_horflip\hand-stroke_short_horflip_short_600ms.mp4	hand-stroke_short_horflip_short_600ms.mp4	448.4503439355067	449.0586650721816	0.608321136674931				
409.57861328125	0.2	838817	365	41	3	0	0	82	353	stimuli\Videos_short_600ms_vertflip\85.touch_top_to_bottom_with_fabric_short_vertflip_short_600ms.mp4	85.touch_top_to_bottom_with_fabric_short_vertflip_short_600ms.mp4	449.25035519621633	449.858657858289	0.6083026620726741				
410.37890625	0.2	840456	366	41	3	0	0	83	338	stimuli\Videos_short_600ms_vertflip\71.single_stroke_with_finger_top_to_bottom_short_vertflip_short_600ms.mp4	71.single_stroke_with_finger_top_to_bottom_short_vertflip_short_600ms.mp4	450.0503644041928	450.65866325404613	0.6082988498533268				
411.1787109375	0.2	842094	367	41	3	0	0	84	266	stimuli\Videos_short_600ms_horvertflip\88.repeated_stroke_with_plastic_brush_short_horvertflip_short_600ms.mp4	88.repeated_stroke_with_plastic_brush_short_horvertflip_short_600ms.mp4	450.8503252263067	451.4586566266489	0.6083314003421947				
411.97900390625	0.2	843733	368	41	3	0	0	85	119	stimuli\Videos_short_600ms_horflip\36.single_slap_with_full_hand_short_horflip_short_600ms.mp4	36.single_slap_with_full_hand_short_horflip_short_600ms.mp4	451.6502702130474	452.2586376828508	0.6083674698033974				
412.77880859375	0.2	845371	369	41	3	0	0	86	143	stimuli\Videos_short_600ms_horflip\58.single_slap_with_pencil_short_horflip_short_600ms.mp4	58.single_slap_with_pencil_short_horflip_short_600ms.mp4	452.4504216461337	453.0586378001499	0.6082161540161906				
413.57861328125	0.2	847009	370	41	3	0	0	87	140	stimuli\Videos_short_600ms_horflip\55.touch_top_to_bottom_with_nail_file_short_horflip_short_600ms.mp4	55.touch_top_to_bottom_with_nail_file_short_horflip_short_600ms.mp4	453.25098333268306	453.8586311727531	0.607647840070058				
414.38720703125	0.2	848665	371	41	3	0	0	88	116	stimuli\Videos_short_600ms_horflip\33.scratch_top_to_bottom_with_scissors_short_horflip_short_600ms.mp4	33.scratch_top_to_bottom_with_scissors_short_horflip_short_600ms.mp4	454.05863281493976	454.6669316647931	0.6082988498533268				
415.18701171875	0.2	850303	372	41	3	0	1	89	369	stimuli\Targets_short_600ms_horflip\finger-tap_short_horflip_short_600ms.mp4	finger-tap_short_horflip_short_600ms.mp4	454.85861621712274	455.466935594312	0.6083193771892184				
415.98681640625	0.2	851941	373	41	3	0	0	90	5	stimuli\Videos_short_600ms\14.repeated_touch_with_pencil_short_short_600ms.mp4	14.repeated_touch_with_pencil_short_short_600ms.mp4	455.65857821222744	456.2669342453728	0.6083560331453555				
416.787109375	0.2	853580	374	41	3	0	0	91	69	stimuli\Videos_short_600ms\72.(short)stroke_with_finger_all_over_the_hand_short_short_600ms.mp4	72.(short)stroke_with_finger_all_over_the_hand_short_short_600ms.mp4	456.45856953209704	457.066916474565	0.6083469424679606				
