onset	duration	onsetsample	eventnumber	subjectnr	sequencenumber	blocksequencenumber	istarget	presentationnumber	stimnumber	stim	stimname	time_stimon	time_stimoff	stimdur	cresp	resp	rt	correct
21.71142578125	0.2	44465	0	9	0	0	0	0	120	stimuli\Videos_short_600ms_horflip\37.single_stab_with_nail_file_short_horflip_short_600ms.mp4	37.single_stab_with_nail_file_short_horflip_short_600ms.mp4	41.97873017381062	42.58634465018258	0.607614476371964				
22.51171875	0.2	46104	1	9	0	0	0	1	272	stimuli\Videos_short_600ms_vertflip\11.single_touch_with_lighter_short_vertflip_short_600ms.mp4	11.single_touch_with_lighter_short_vertflip_short_600ms.mp4	42.77801882388121	43.38632300881727	0.6083041849360598				
23.3115234375	0.2	47742	2	9	0	0	0	2	87	stimuli\Videos_short_600ms\89.single_touch_with_plastic_brush_short_short_600ms.mp4	89.single_touch_with_plastic_brush_short_short_600ms.mp4	43.57798603926494	44.18630312691312	0.6083170876481745				
24.111328125	0.2	49380	3	9	0	0	0	3	167	stimuli\Videos_short_600ms_horflip\8.single_touch_with_hairbrush_short_horflip_short_600ms.mp4	8.single_touch_with_hairbrush_short_horflip_short_600ms.mp4	44.37796615736079	44.98627884635607	0.6083126889952837				
24.91162109375	0.2	51019	4	9	0	0	0	4	143	stimuli\Videos_short_600ms_horflip\58.single_slap_with_pencil_short_horflip_short_600ms.mp4	58.single_slap_with_pencil_short_horflip_short_600ms.mp4	45.1779436362649	45.78625955093776	0.6083159146728576				
25.71142578125	0.2	52657	5	9	0	0	0	5	235	stimuli\Videos_short_600ms_horvertflip\6.single_touch_with_flat_hand_short_horvertflip_short_600ms.mp4	6.single_touch_with_flat_hand_short_horvertflip_short_600ms.mp4	45.97791847597728	46.58635198127013	0.6084335052928509				
26.51171875	0.2	54296	6	9	0	0	0	6	330	stimuli\Videos_short_600ms_vertflip\64.repeated_touch_with_screwdriver_short_vertflip_short_600ms.mp4	64.repeated_touch_with_screwdriver_short_vertflip_short_600ms.mp4	46.77790504542827	47.38621421550306	0.60830917007479				
27.3115234375	0.2	55934	7	9	0	0	1	7	372	stimuli\Targets_short_600ms_horvertflip\brush-stroke_short_vertflip_short_600ms.mp4	brush-stroke_short_vertflip_short_600ms.mp4	47.577872260812	48.18619052143367	0.6083182606216724				
28.111328125	0.2	57572	8	9	0	0	0	8	279	stimuli\Videos_short_600ms_vertflip\18.single_stroke_from_top_to_bottom_with_rolling_pin_short_vertflip_short_600ms.mp4	18.single_stroke_from_top_to_bottom_with_rolling_pin_short_vertflip_short_600ms.mp4	48.37780927212225	48.9861694665542	0.6083601944319526				
28.91162109375	0.2	59211	9	9	0	0	0	9	50	stimuli\Videos_short_600ms\55.touch_top_to_bottom_with_nail_file_short_short_600ms.mp4	55.touch_top_to_bottom_with_nail_file_short_short_600ms.mp4	49.17782985781196	49.78614753194597	0.6083176741340139				
29.71142578125	0.2	60849	10	9	0	0	0	10	90	stimuli\Videos_short_600ms_horflip\1.repeated_touch_with_finger_fast_short_horflip_short_600ms.mp4	1.repeated_touch_with_finger_fast_short_horflip_short_600ms.mp4	49.97781056239364	50.58644083403124	0.608630271637594				
30.51123046875	0.2	62487	11	9	0	0	0	11	109	stimuli\Videos_short_600ms_horflip\27.single_push_with_a_plastic_whisk_short_horflip_short_600ms.mp4	27.single_push_with_a_plastic_whisk_short_horflip_short_600ms.mp4	50.77779038724475	51.38610336948295	0.6083129822382034				
31.3115234375	0.2	64126	12	9	0	0	0	12	165	stimuli\Videos_short_600ms_horflip\78.single_stroke_top_to_bottom_with_soft_brush_short_horflip_short_600ms.mp4	78.single_stroke_top_to_bottom_with_soft_brush_short_horflip_short_600ms.mp4	51.57777783642632	52.18607908892773	0.6083012525014055				
32.111328125	0.2	65764	13	9	0	0	0	13	148	stimuli\Videos_short_600ms_horflip\62.touch_top_to_bottom_with_scissors_short_horflip_short_600ms.mp4	62.touch_top_to_bottom_with_scissors_short_horflip_short_600ms.mp4	52.377743585591816	52.98606477864814	0.6083211930563266				
32.9111328125	0.2	67402	14	9	0	0	0	14	355	stimuli\Videos_short_600ms_vertflip\87.single_stroke_top_to_bottom_with_plastic_brush_short_vertflip_short_600ms.mp4	87.single_stroke_top_to_bottom_with_plastic_brush_short_vertflip_short_600ms.mp4	53.17773484693862	53.78602378321557	0.6082889362769492				
33.71142578125	0.2	69041	15	9	0	0	0	15	117	stimuli\Videos_short_600ms_horflip\34.repeated_punch_with_hand_short_horflip_short_600ms.mp4	34.repeated_punch_with_hand_short_horflip_short_600ms.mp4	53.977699423130616	54.585993931033954	0.6082945079033379				
34.51123046875	0.2	70679	16	9	0	0	0	16	336	stimuli\Videos_short_600ms_vertflip\7.repeated_touch_with_hairbrush_short_vertflip_short_600ms.mp4	7.repeated_touch_with_hairbrush_short_vertflip_short_600ms.mp4	54.77767954122646	55.38600542617678	0.6083258849503181				
35.31103515625	0.2	72317	17	9	0	0	0	17	256	stimuli\Videos_short_600ms_horvertflip\79.long_with_soft_brush_all_over_the_hand_short_horvertflip_short_600ms.mp4	79.long_with_soft_brush_all_over_the_hand_short_horvertflip_short_600ms.mp4	55.577656433642915	56.18597381453401	0.6083173808910942				
36.111328125	0.2	73956	18	9	0	0	0	18	91	stimuli\Videos_short_600ms_horflip\10.single_touch_with_knife_short_horflip_short_600ms.mp4	10.single_touch_with_knife_short_horflip_short_600ms.mp4	56.377640363902174	56.985963902905496	0.6083235390033224				
36.9111328125	0.2	75594	19	9	0	0	0	19	248	stimuli\Videos_short_600ms_horvertflip\71.single_stroke_with_finger_top_to_bottom_short_horvertflip_short_600ms.mp4	71.single_stroke_with_finger_top_to_bottom_short_horvertflip_short_600ms.mp4	57.17761168469406	57.78593346423622	0.608321779542166				
37.7109375	0.2	77232	20	9	0	0	0	20	309	stimuli\Videos_short_600ms_vertflip\45.scratching_with_finger_nails_short_vertflip_short_600ms.mp4	45.scratching_with_finger_nails_short_vertflip_short_600ms.mp4	57.97759092305933	58.58590830395042	0.6083173808910942				
38.51123046875	0.2	78871	21	9	0	0	0	21	147	stimuli\Videos_short_600ms_horflip\61.single_hit_with_rolling_pin_short_horflip_short_600ms.mp4	61.single_hit_with_rolling_pin_short_horflip_short_600ms.mp4	58.77757162764101	59.38588607609745	0.60831444845644				
39.31103515625	0.2	80509	22	9	0	0	1	22	379	stimuli\Targets_short_600ms_vertflip\chopstick-silver-tap_short_horvertflip_short_600ms.mp4	chopstick-silver-tap_short_horvertflip_short_600ms.mp4	59.57754852005746	60.18586619419147	0.6083176741340139				
40.11083984375	0.2	82147	23	9	0	0	0	23	294	stimuli\Videos_short_600ms_vertflip\31.hand_grabbing_wrist_short_vertflip_short_600ms.mp4	31.hand_grabbing_wrist_short_vertflip_short_600ms.mp4	60.37752717193689	60.98584250012209	0.6083153281851992				
40.9111328125	0.2	83786	24	9	0	0	0	24	95	stimuli\Videos_short_600ms_horflip\14.repeated_touch_with_pencil_short_horflip_short_600ms.mp4	14.repeated_touch_with_pencil_short_horflip_short_600ms.mp4	61.17751051570849	61.78582144524444	0.6083109295359463				
41.7109375	0.2	85424	25	9	0	0	0	25	331	stimuli\Videos_short_600ms_vertflip\65.stroke_top_to_bottom_with_stanley_knife_short_vertflip_short_600ms.mp4	65.stroke_top_to_bottom_with_stanley_knife_short_vertflip_short_600ms.mp4	61.97748242298803	62.58580332279962	0.6083208998115879				
42.5107421875	0.2	87062	26	9	0	0	0	26	138	stimuli\Videos_short_600ms_horflip\53.touch_top_to_bottom_with_knife_short_horflip_short_600ms.mp4	53.touch_top_to_bottom_with_knife_short_horflip_short_600ms.mp4	62.77745755594515	63.385778748999655	0.6083211930545076				
43.31103515625	0.2	88701	27	9	0	0	0	27	25	stimuli\Videos_short_600ms\32.single_(long)pinch_with_fingers_short_short_600ms.mp4	32.single_(long)pinch_with_fingers_short_short_600ms.mp4	63.57743679430859	64.18575828060784	0.6083214862992463				
44.11083984375	0.2	90339	28	9	0	0	0	28	296	stimuli\Videos_short_600ms_vertflip\33.scratch_top_to_bottom_with_scissors_short_vertflip_short_600ms.mp4	33.scratch_top_to_bottom_with_scissors_short_vertflip_short_600ms.mp4	64.37741808537794	64.98573458653846	0.608316501160516				
44.91064453125	0.2	91977	29	9	0	0	0	29	181	stimuli\Videos_short_600ms_horvertflip\10.single_touch_with_knife_short_horvertflip_short_600ms.mp4	10.single_touch_with_knife_short_horvertflip_short_600ms.mp4	65.17739820347197	65.78571206544257	0.6083138619706006				
45.7109375	0.2	93616	30	9	0	0	0	30	76	stimuli\Videos_short_600ms\79.long_with_soft_brush_all_over_the_hand_short_short_600ms.mp4	79.long_with_soft_brush_all_over_the_hand_short_short_600ms.mp4	65.97737509589024	66.58566725784476	0.6082921619545232				
46.5107421875	0.2	95254	31	9	0	0	0	31	324	stimuli\Videos_short_600ms_vertflip\59.single_push_with_long_side_pencil_short_vertflip_short_600ms.mp4	59.single_push_with_long_side_pencil_short_vertflip_short_600ms.mp4	66.77737456805153	67.38567376784886	0.6082991997973295				
47.31103515625	0.2	96893	32	9	0	0	0	32	141	stimuli\Videos_short_600ms_horflip\56.repeated_touch_with_nail_file_short_horflip_short_600ms.mp4	56.repeated_touch_with_nail_file_short_horflip_short_600ms.mp4	67.5773318131578	68.18562280214064	0.6082909889828443				
48.11083984375	0.2	98531	33	9	0	0	0	33	98	stimuli\Videos_short_600ms_horflip\17.repeated_touch_with_rolling_pin_short_horflip_short_600ms.mp4	17.repeated_touch_with_rolling_pin_short_horflip_short_600ms.mp4	68.37732219477402	68.98562872565708	0.6083065308830555				
48.91064453125	0.2	100169	34	9	0	0	0	34	69	stimuli\Videos_short_600ms\72.(short)stroke_with_finger_all_over_the_hand_short_short_600ms.mp4	72.(short)stroke_with_finger_all_over_the_hand_short_short_600ms.mp4	69.17728794394134	69.78558333157343	0.6082953876320971				
49.7109375	0.2	101808	35	9	0	0	0	35	12	stimuli\Videos_short_600ms\20.single_touch_with_screwdriver_short_short_600ms.mp4	20.single_touch_with_screwdriver_short_short_600ms.mp4	69.97726688906187	70.5855942402286	0.6083273511667358				
50.5107421875	0.2	103446	36	9	0	0	0	36	159	stimuli\Videos_short_600ms_horflip\72.(short)stroke_with_finger_all_over_the_hand_short_horflip_short_600ms.mp4	72.(short)stroke_with_finger_all_over_the_hand_short_horflip_short_600ms.mp4	70.77724407472306	71.38556262858583	0.6083185538627731				
51.310546875	0.2	105084	37	9	0	0	0	37	60	stimuli\Videos_short_600ms\64.repeated_touch_with_screwdriver_short_short_600ms.mp4	64.repeated_touch_with_screwdriver_short_short_600ms.mp4	71.57722184687009	72.18554949127974	0.6083276444096555				
52.11083984375	0.2	106723	38	9	0	0	0	38	113	stimuli\Videos_short_600ms_horflip\30.finger_pulling_back_another_finger_short_horflip_short_600ms.mp4	30.finger_pulling_back_another_finger_short_horflip_short_600ms.mp4	72.37720255145177	72.98552110531637	0.6083185538645921				
52.91064453125	0.2	108361	39	9	0	0	0	39	343	stimuli\Videos_short_600ms_vertflip\76.tickle_with_fingers_from_top_to_bottom_short_vertflip_short_600ms.mp4	76.tickle_with_fingers_from_top_to_bottom_short_vertflip_short_600ms.mp4	73.17720055739665	73.78549594502874	0.6082953876320971				
53.71044921875	0.2	109999	40	9	0	0	0	40	204	stimuli\Videos_short_600ms_horvertflip\31.hand_grabbing_wrist_short_horvertflip_short_600ms.mp4	31.hand_grabbing_wrist_short_horvertflip_short_600ms.mp4	73.97715750926	74.58547899555924	0.6083214862992463				
54.5107421875	0.2	111638	41	9	0	0	0	41	7	stimuli\Videos_short_600ms\16.repeated_touch_with_plastic_brush_short_short_600ms.mp4	16.repeated_touch_with_plastic_brush_short_short_600ms.mp4	74.77713586789469	75.3854347744491	0.6082989065544098				
55.310546875	0.2	113276	42	9	0	0	0	42	198	stimuli\Videos_short_600ms_horvertflip\26.single_touch_with_a_blunt_syringe_short_horvertflip_short_600ms.mp4	26.single_touch_with_a_blunt_syringe_short_horvertflip_short_600ms.mp4	75.57737404021282	76.18543072768807	0.6080566874752549				
56.1103515625	0.2	114914	43	9	0	0	0	43	149	stimuli\Videos_short_600ms_horflip\63.stroke_top_to_bottom_with_screwdriver_short_horflip_short_600ms.mp4	63.stroke_top_to_bottom_with_screwdriver_short_horflip_short_600ms.mp4	76.3770720581233	76.98541143227158	0.6083393741482723				
56.91064453125	0.2	116553	44	9	0	0	0	44	51	stimuli\Videos_short_600ms\56.repeated_touch_with_nail_file_short_short_600ms.mp4	56.repeated_touch_with_nail_file_short_short_600ms.mp4	77.17707592893566	77.78539096387794	0.6083150349422795				
57.71044921875	0.2	118191	45	9	0	0	0	45	323	stimuli\Videos_short_600ms_vertflip\58.single_slap_with_pencil_short_vertflip_short_600ms.mp4	58.single_slap_with_pencil_short_vertflip_short_600ms.mp4	77.97704519702347	78.58537108197379	0.6083258849503181				
58.51025390625	0.2	119829	46	9	0	0	0	46	265	stimuli\Videos_short_600ms_horvertflip\87.single_stroke_top_to_bottom_with_plastic_brush_short_horvertflip_short_600ms.mp4	87.single_stroke_top_to_bottom_with_plastic_brush_short_horvertflip_short_600ms.mp4	78.7770147583542	79.38534768114732	0.6083329227931245				
59.31884765625	0.2	121485	47	9	0	0	0	47	66	stimuli\Videos_short_600ms\7.repeated_touch_with_hairbrush_short_short_600ms.mp4	7.repeated_touch_with_hairbrush_short_short_600ms.mp4	79.58535612655942	80.19365268716501	0.608296560605595				
60.11865234375	0.2	123123	48	9	0	0	0	48	242	stimuli\Videos_short_600ms_horvertflip\66.stroke_top_to_bottom_with_sponge_short_horvertflip_short_600ms.mp4	66.stroke_top_to_bottom_with_sponge_short_horvertflip_short_600ms.mp4	80.38531865004734	80.99363280525904	0.6083141552117013				
60.91845703125	0.2	124761	49	9	0	0	0	49	56	stimuli\Videos_short_600ms\60.single_push_with_tip_of_pencil_short_short_600ms.mp4	60.single_push_with_tip_of_pencil_short_short_600ms.mp4	81.18529378300445	81.79361233686723	0.6083185538627731				
61.71875	0.2	126400	50	9	0	0	0	50	237	stimuli\Videos_short_600ms_horvertflip\61.single_hit_with_rolling_pin_short_horvertflip_short_600ms.mp4	61.single_hit_with_rolling_pin_short_horvertflip_short_600ms.mp4	81.98526891595975	82.59359245496307	0.6083235390033224				
62.5185546875	0.2	128038	51	9	0	0	0	51	35	stimuli\Videos_short_600ms\41.injection_with_blunt_syringe_short_short_600ms.mp4	41.injection_with_blunt_syringe_short_short_600ms.mp4	82.7852290935025	83.3935714000836	0.6083423065811076				
63.3271484375	0.2	129694	52	9	0	0	0	52	230	stimuli\Videos_short_600ms_horvertflip\55.touch_top_to_bottom_with_nail_file_short_horvertflip_short_600ms.mp4	55.touch_top_to_bottom_with_nail_file_short_horvertflip_short_600ms.mp4	83.59357720630396	84.2018834439441	0.6083062376401358				
64.126953125	0.2	131332	53	9	0	0	0	53	310	stimuli\Videos_short_600ms_vertflip\46.scratching_top_to_bottom_with_finger_nails_short_vertflip_short_600ms.mp4	46.scratching_top_to_bottom_with_finger_nails_short_vertflip_short_600ms.mp4	84.3935432487142	85.00186033636055	0.6083170876463555				
64.9267578125	0.2	132970	54	9	0	0	0	54	268	stimuli\Videos_short_600ms_horvertflip\9.single_touch_with_hammer_short_horvertflip_short_600ms.mp4	9.single_touch_with_hammer_short_horvertflip_short_600ms.mp4	85.19352248707946	85.80183869499524	0.6083162079157773				
65.72705078125	0.2	134609	55	9	0	0	0	55	94	stimuli\Videos_short_600ms_horflip\13.single_touch_with_pen_short_horflip_short_600ms.mp4	13.single_touch_with_pen_short_horflip_short_600ms.mp4	85.99350055246941	86.60181764011759	0.6083170876481745				
66.52685546875	0.2	136247	56	9	0	0	1	56	360	stimuli\Targets_short_600ms\brush-stroke_short_short_600ms.mp4	brush-stroke_short_short_600ms.mp4	86.79348155029584	87.40179599875046	0.608314448454621				
67.32666015625	0.2	137885	57	9	0	0	0	57	30	stimuli\Videos_short_600ms\37.single_stab_with_nail_file_short_short_600ms.mp4	37.single_stab_with_nail_file_short_short_600ms.mp4	87.59343322377754	88.20177465062989	0.6083414268523484				
68.126953125	0.2	139524	58	9	0	0	0	58	241	stimuli\Videos_short_600ms_horvertflip\65.stroke_top_to_bottom_with_stanley_knife_short_horvertflip_short_600ms.mp4	65.stroke_top_to_bottom_with_stanley_knife_short_horvertflip_short_600ms.mp4	88.39343416215524	89.00175388899333	0.60831972683809				
68.9267578125	0.2	141162	59	9	0	0	0	59	176	stimuli\Videos_short_600ms_horflip\88.repeated_stroke_with_plastic_brush_short_horflip_short_600ms.mp4	88.repeated_stroke_with_plastic_brush_short_horflip_short_600ms.mp4	89.19342454377147	89.80173166114218	0.608307117370714				
69.7265625	0.2	142800	60	9	0	0	0	60	85	stimuli\Videos_short_600ms\87.single_stroke_top_to_bottom_with_plastic_brush_short_short_600ms.mp4	87.single_stroke_top_to_bottom_with_plastic_brush_short_short_600ms.mp4	89.99339117266754	90.60171060626271	0.6083194335951703				
70.52685546875	0.2	144439	61	9	0	0	0	61	130	stimuli\Videos_short_600ms_horflip\46.scratching_top_to_bottom_with_finger_nails_short_horflip_short_600ms.mp4	46.scratching_top_to_bottom_with_finger_nails_short_horflip_short_600ms.mp4	90.7933727569798	91.40169453652196	0.608321779542166				
71.32666015625	0.2	146077	62	9	0	0	0	62	339	stimuli\Videos_short_600ms_vertflip\72.(short)stroke_with_finger_all_over_the_hand_short_vertflip_short_600ms.mp4	72.(short)stroke_with_finger_all_over_the_hand_short_vertflip_short_600ms.mp4	91.59338395887973	92.20166321812394	0.6082792592442274				
72.12646484375	0.2	147715	63	9	0	0	0	63	215	stimuli\Videos_short_600ms_horvertflip\41.injection_with_blunt_syringe_short_horvertflip_short_600ms.mp4	41.injection_with_blunt_syringe_short_horvertflip_short_600ms.mp4	92.3933353391185	93.00165359973836	0.6083182606198534				
72.9267578125	0.2	149354	64	9	0	0	0	64	126	stimuli\Videos_short_600ms_horflip\42.single_slap_with_plastic_whisk_short_horflip_short_600ms.mp4	42.single_slap_with_plastic_whisk_short_horflip_short_600ms.mp4	93.19330665991038	93.8016243340444	0.6083176741340139				
73.7265625	0.2	150992	65	9	0	0	0	65	40	stimuli\Videos_short_600ms\46.scratching_top_to_bottom_with_finger_nails_short_short_600ms.mp4	46.scratching_top_to_bottom_with_finger_nails_short_short_600ms.mp4	93.99328061989218	94.60159917375675	0.6083185538645921				
74.5263671875	0.2	152630	66	9	0	0	0	66	217	stimuli\Videos_short_600ms_horvertflip\43.touch_top_to_bottom_with_sharp_wooden_stick_short_horvertflip_short_600ms.mp4	43.touch_top_to_bottom_with_sharp_wooden_stick_short_horvertflip_short_600ms.mp4	94.79327686637588	95.4015781188773	0.6083012525014055				
75.32666015625	0.2	154269	67	9	0	0	0	67	264	stimuli\Videos_short_600ms_horvertflip\86.touch_top_to_bottom_with_hair_brush_short_horvertflip_short_600ms.mp4	86.touch_top_to_bottom_with_hair_brush_short_horvertflip_short_600ms.mp4	95.5932379236474	96.20155970318956	0.608321779542166				
76.12646484375	0.2	155907	68	9	0	0	0	68	32	stimuli\Videos_short_600ms\39.single_stab_with_scissors_short_short_600ms.mp4	39.single_stab_with_scissors_short_short_600ms.mp4	96.39322273363724	97.00154597939763	0.6083232457604026				
76.92626953125	0.2	157545	69	9	0	0	0	69	269	stimuli\Videos_short_600ms_horvertflip\90.repeated_touch_with_sponge_short_horvertflip_short_600ms.mp4	90.repeated_touch_with_sponge_short_horvertflip_short_600ms.mp4	97.19319552064736	97.80151612721602	0.6083206065686682				
77.7265625	0.2	159184	70	9	0	0	0	70	110	stimuli\Videos_short_600ms_horflip\28.single_injection_with_sharp_needle_short_horflip_short_600ms.mp4	28.single_injection_with_sharp_needle_short_horflip_short_600ms.mp4	97.99317329279438	98.60149184665896	0.6083185538645921				
78.5263671875	0.2	160822	71	9	0	0	0	71	135	stimuli\Videos_short_600ms_horflip\50.single_(long)hard_push_with_thumb_short_horflip_short_600ms.mp4	50.single_(long)hard_push_with_thumb_short_horflip_short_600ms.mp4	98.79315077169848	99.40147372421416	0.6083229525156639				
79.326171875	0.2	162460	72	9	0	0	0	72	223	stimuli\Videos_short_600ms_horvertflip\49.repeated_slap_with_hand_short_horvertflip_short_600ms.mp4	49.repeated_slap_with_hand_short_horvertflip_short_600ms.mp4	99.59313264925368	100.20145090987536	0.6083182606216724				
80.12646484375	0.2	164099	73	9	0	0	0	73	0	stimuli\Videos_short_600ms\1.repeated_touch_with_finger_fast_short_short_600ms.mp4	1.repeated_touch_with_finger_fast_short_short_600ms.mp4	100.39311306059244	101.00142956175296	0.608316501160516				
80.92626953125	0.2	165737	74	9	0	0	0	74	93	stimuli\Videos_short_600ms_horflip\12.repeated_touch_with_nail_file_short_horflip_short_600ms.mp4	12.repeated_touch_with_nail_file_short_horflip_short_600ms.mp4	101.19306444083122	101.8014073339	0.608342893068766				
81.7265625	0.2	167376	75	9	0	0	0	75	252	stimuli\Videos_short_600ms_horvertflip\75.(long)stroke_with_fingers_all_over_the_hand_short_horvertflip_short_600ms.mp4	75.(long)stroke_with_fingers_all_over_the_hand_short_horvertflip_short_600ms.mp4	101.99305511569035	102.6013871587511	0.6083320430607273				
82.5263671875	0.2	169014	76	9	0	0	0	76	188	stimuli\Videos_short_600ms_horvertflip\17.repeated_touch_with_rolling_pin_short_horvertflip_short_600ms.mp4	17.repeated_touch_with_rolling_pin_short_horvertflip_short_600ms.mp4	102.79305429460874	103.40136551738578	0.6083112227770471				
83.326171875	0.2	170652	77	9	0	0	0	77	216	stimuli\Videos_short_600ms_horvertflip\42.single_slap_with_plastic_whisk_short_horvertflip_short_600ms.mp4	42.single_slap_with_plastic_whisk_short_horvertflip_short_600ms.mp4	103.59300978025384	104.20134446250812	0.6083346822542808				
84.12646484375	0.2	172291	78	9	0	0	0	78	139	stimuli\Videos_short_600ms_horflip\54.repeated_touch_with_knife_short_horflip_short_600ms.mp4	54.repeated_touch_with_knife_short_horflip_short_600ms.mp4	104.39300309430472	105.00132194141224	0.6083188471075118				
84.92626953125	0.2	173929	79	9	0	0	0	79	348	stimuli\Videos_short_600ms_vertflip\80.stroke_with_sharp_stick_all_over_the_hand_short_vertflip_short_600ms.mp4	80.stroke_with_sharp_stick_all_over_the_hand_short_vertflip_short_600ms.mp4	105.19297969347826	105.80129854058578	0.6083188471075118				
85.72607421875	0.2	175567	80	9	0	0	0	80	22	stimuli\Videos_short_600ms\3.single_push_with_finger_short_short_600ms.mp4	3.single_push_with_finger_short_short_600ms.mp4	105.99296538319868	106.6012798316533	0.608314448454621				
86.5263671875	0.2	177206	81	9	0	0	0	81	358	stimuli\Videos_short_600ms_vertflip\9.single_touch_with_hammer_short_vertflip_short_600ms.mp4	9.single_touch_with_hammer_short_vertflip_short_600ms.mp4	106.7929455012927	107.40125672407156	0.6083112227788661				
87.326171875	0.2	178844	82	9	0	0	0	82	316	stimuli\Videos_short_600ms_vertflip\51.repeated_touch_with_hammer_short_vertflip_short_600ms.mp4	51.repeated_touch_with_hammer_short_vertflip_short_600ms.mp4	107.59292884506613	108.20124065433085	0.6083118092647055				
88.1259765625	0.2	180482	83	9	0	0	0	83	287	stimuli\Videos_short_600ms_vertflip\25.single_touch_with_stanley_knife_short_vertflip_short_600ms.mp4	25.single_touch_with_stanley_knife_short_vertflip_short_600ms.mp4	108.39289869963976	109.0012105089063	0.6083118092665245				
88.92626953125	0.2	182121	84	9	0	0	0	84	84	stimuli\Videos_short_600ms\86.touch_top_to_bottom_with_hair_brush_short_short_600ms.mp4	86.touch_top_to_bottom_with_hair_brush_short_short_600ms.mp4	109.19284949339271	109.801169220229	0.608319726836271				
89.72607421875	0.2	183759	85	9	0	0	0	85	340	stimuli\Videos_short_600ms_vertflip\73.single_stroke_with_flat_hand_short_vertflip_short_600ms.mp4	73.single_stroke_with_flat_hand_short_vertflip_short_600ms.mp4	109.9928653871866	110.60117191806968	0.6083065308830555				
90.52587890625	0.2	185397	86	9	0	0	0	86	263	stimuli\Videos_short_600ms_horvertflip\85.touch_top_to_bottom_with_fabric_short_horvertflip_short_600ms.mp4	85.touch_top_to_bottom_with_fabric_short_horvertflip_short_600ms.mp4	110.79282937689275	111.40115056994728	0.6083211930545076				
91.326171875	0.2	187036	87	9	0	0	0	87	175	stimuli\Videos_short_600ms_horflip\87.single_stroke_top_to_bottom_with_plastic_brush_short_horflip_short_600ms.mp4	87.single_stroke_top_to_bottom_with_plastic_brush_short_horflip_short_600ms.mp4	111.59279278011128	112.20112922182489	0.6083364417136181				
92.1259765625	0.2	188674	88	9	0	0	0	88	134	stimuli\Videos_short_600ms_horflip\5.repeated_tap_with_finger_moving_from_top_to_bottom_short_horflip_short_600ms.mp4	5.repeated_tap_with_finger_moving_from_top_to_bottom_short_horflip_short_600ms.mp4	112.39278609416031	113.0011172574923	0.6083311633319681				
92.92578125	0.2	190312	89	9	0	0	0	89	115	stimuli\Videos_short_600ms_horflip\32.single_(long)pinch_with_fingers_short_horflip_short_600ms.mp4	32.single_(long)pinch_with_fingers_short_horflip_short_600ms.mp4	113.19276562576852	113.8010853526066	0.60831972683809				
93.72607421875	0.2	191951	90	9	0	0	0	90	308	stimuli\Videos_short_600ms_vertflip\44.pushing_top_to_bottom_with_finger_short_vertflip_short_600ms.mp4	44.pushing_top_to_bottom_with_finger_short_vertflip_short_600ms.mp4	113.9927425181868	114.6010648842148	0.6083223660280055				
94.52587890625	0.2	193589	91	9	0	0	0	91	238	stimuli\Videos_short_600ms_horvertflip\62.touch_top_to_bottom_with_scissors_short_horvertflip_short_600ms.mp4	62.touch_top_to_bottom_with_scissors_short_horvertflip_short_600ms.mp4	114.79272380925433	115.40104441582298	0.6083206065686682				
95.32568359375	0.2	195227	92	9	0	0	0	92	245	stimuli\Videos_short_600ms_horvertflip\69.stroke_with_soft_sock_short_horvertflip_short_600ms.mp4	69.stroke_with_soft_sock_short_horvertflip_short_600ms.mp4	115.5927185895216	116.20102248121476	0.60830389169314	3.0	3.0	1.5495845326986455	1.0
128.125	0.2	262400	93	9	1	0	0	0	247	stimuli\Videos_short_600ms_horvertflip\70.(long)stroke_with_finger_all_over_the_hand_short_horvertflip_short_600ms.mp4	70.(long)stroke_with_finger_all_over_the_hand_short_horvertflip_short_600ms.mp4	148.391824842176	149.00014075684885	0.6083159146728576				
128.9248046875	0.2	264038	94	9	1	0	0	1	239	stimuli\Videos_short_600ms_horvertflip\63.stroke_top_to_bottom_with_screwdriver_short_horvertflip_short_600ms.mp4	63.stroke_top_to_bottom_with_screwdriver_short_horvertflip_short_600ms.mp4	149.19180847919233	149.80011911548354	0.6083106362912076				
129.73291015625	0.2	265693	95	9	1	0	0	2	190	stimuli\Videos_short_600ms_horvertflip\19.single_touch_with_rolling_pin_short_horvertflip_short_600ms.mp4	19.single_touch_with_rolling_pin_short_horvertflip_short_600ms.mp4	150.0001331325202	150.60843350529103	0.6083003727708274				
130.533203125	0.2	267332	96	9	1	0	0	3	344	stimuli\Videos_short_600ms_vertflip\77.tapping_with_all_fingers_short_vertflip_short_600ms.mp4	77.tapping_with_all_fingers_short_vertflip_short_600ms.mp4	150.8000977087122	151.40841186392572	0.6083141552135203				
131.3330078125	0.2	268970	97	9	1	0	1	4	371	stimuli\Targets_short_600ms_horflip\hand-stroke_short_horflip_short_600ms.mp4	hand-stroke_short_horflip_short_600ms.mp4	151.6001042187163	152.20839080904625	0.6082865903299535				
132.1328125	0.2	270608	98	9	1	0	0	5	6	stimuli\Videos_short_600ms\15.single_stroke_top_to_bottom_with_a_plastic_whisk_short_short_600ms.mp4	15.single_stroke_top_to_bottom_with_a_plastic_whisk_short_short_600ms.mp4	152.40005178678985	153.0083723933585	0.6083206065686682				
132.93310546875	0.2	272247	99	9	1	0	0	6	21	stimuli\Videos_short_600ms\29.single_pinch_with_tweezers_short_short_600ms.mp4	29.single_pinch_with_tweezers_short_short_600ms.mp4	153.20002662650404	153.80835045875028	0.6083238322462421				
133.73291015625	0.2	273885	100	9	1	0	0	7	319	stimuli\Videos_short_600ms_vertflip\54.repeated_touch_with_knife_short_vertflip_short_600ms.mp4	54.repeated_touch_with_knife_short_vertflip_short_600ms.mp4	154.00001378244087	154.6083258849485	0.6083121025076252				
134.53271484375	0.2	275523	101	9	1	0	0	8	34	stimuli\Videos_short_600ms\40.repeated_push_with_finger_short_short_600ms.mp4	40.repeated_push_with_finger_short_short_600ms.mp4	154.79996164375734	155.4083054165567	0.6083437727993442				
135.3330078125	0.2	277162	102	9	1	0	0	9	240	stimuli\Videos_short_600ms_horvertflip\64.repeated_touch_with_screwdriver_short_horvertflip_short_600ms.mp4	64.repeated_touch_with_screwdriver_short_horvertflip_short_600ms.mp4	155.5999617024063	156.20828113600146	0.6083194335951703				
136.1328125	0.2	278800	103	9	1	0	0	10	45	stimuli\Videos_short_600ms\50.single_(long)hard_push_with_thumb_short_short_600ms.mp4	50.single_(long)hard_push_with_thumb_short_short_600ms.mp4	156.39994182050214	157.00826272031372	0.6083208998115879				
136.93310546875	0.2	280439	104	9	1	0	0	11	163	stimuli\Videos_short_600ms_horflip\76.tickle_with_fingers_from_top_to_bottom_short_horflip_short_600ms.mp4	76.tickle_with_fingers_from_top_to_bottom_short_horflip_short_600ms.mp4	157.19992281832674	157.80822788299338	0.6083050646666379				
137.73291015625	0.2	282077	105	9	1	0	0	12	293	stimuli\Videos_short_600ms_vertflip\30.finger_pulling_back_another_finger_short_vertflip_short_600ms.mp4	30.finger_pulling_back_another_finger_short_vertflip_short_600ms.mp4	157.9999029364226	158.60820125648934	0.6082983200667513				
138.53271484375	0.2	283715	106	9	1	0	0	13	282	stimuli\Videos_short_600ms_vertflip\20.single_touch_with_screwdriver_short_vertflip_short_600ms.mp4	20.single_touch_with_screwdriver_short_vertflip_short_600ms.mp4	158.79988745316768	159.40817140430772	0.608283951140038				
139.3330078125	0.2	285354	107	9	1	0	0	14	208	stimuli\Videos_short_600ms_horvertflip\35.single_punch_with_hand_short_horvertflip_short_600ms.mp4	35.single_punch_with_hand_short_horvertflip_short_600ms.mp4	159.59985818747373	160.2081603197057	0.6083021322319837				
140.1328125	0.2	286992	108	9	1	0	0	15	37	stimuli\Videos_short_600ms\43.touch_top_to_bottom_with_sharp_wooden_stick_short_short_600ms.mp4	43.touch_top_to_bottom_with_sharp_wooden_stick_short_short_600ms.mp4	160.39983683935134	161.00813017427936	0.6082933349280211				
140.9326171875	0.2	288630	109	9	1	0	0	16	300	stimuli\Videos_short_600ms_vertflip\37.single_stab_with_nail_file_short_vertflip_short_600ms.mp4	37.single_stab_with_nail_file_short_vertflip_short_600ms.mp4	161.19981519798603	161.8081393234752	0.6083241254891618				
141.73291015625	0.2	290269	110	9	1	0	0	17	219	stimuli\Videos_short_600ms_horvertflip\45.scratching_with_finger_nails_short_horvertflip_short_600ms.mp4	45.scratching_with_finger_nails_short_horvertflip_short_600ms.mp4	161.99979531608005	162.60811768210988	0.6083223660298245				
142.53271484375	0.2	291907	111	9	1	0	0	18	83	stimuli\Videos_short_600ms\85.touch_top_to_bottom_with_fabric_short_short_600ms.mp4	85.touch_top_to_bottom_with_fabric_short_short_600ms.mp4	162.79977514093298	163.40809926642214	0.6083241254891618				
143.33251953125	0.2	293545	112	9	1	0	0	19	347	stimuli\Videos_short_600ms_vertflip\8.single_touch_with_hairbrush_short_vertflip_short_600ms.mp4	8.single_touch_with_hairbrush_short_vertflip_short_600ms.mp4	163.59975232659235	164.20806736153645	0.6083150349440984				
144.1328125	0.2	295184	113	9	1	0	0	20	108	stimuli\Videos_short_600ms_horflip\26.single_touch_with_a_blunt_syringe_short_horflip_short_600ms.mp4	26.single_touch_with_a_blunt_syringe_short_horflip_short_600ms.mp4	164.39972833928005	165.00804923909163	0.6083208998115879				
144.94091796875	0.2	296839	114	9	1	0	0	21	13	stimuli\Videos_short_600ms\21.repeated_touch_with_metal_chopstick_short_short_600ms.mp4	21.repeated_touch_with_metal_chopstick_short_short_600ms.mp4	165.20806061693656	165.81633371806856	0.6082731011319993				
145.74072265625	0.2	298477	115	9	1	0	0	22	295	stimuli\Videos_short_600ms_vertflip\32.single_(long)pinch_with_fingers_short_vertflip_short_600ms.mp4	32.single_(long)pinch_with_fingers_short_vertflip_short_600ms.mp4	166.00801903501815	166.61633670915035	0.608317674132195				
146.541015625	0.2	300116	116	9	1	0	0	23	136	stimuli\Videos_short_600ms_horflip\51.repeated_touch_with_hammer_short_horflip_short_600ms.mp4	51.repeated_touch_with_hammer_short_horflip_short_600ms.mp4	166.80800443149383	167.4163265042789	0.6083220727850858				
147.3408203125	0.2	301754	117	9	1	0	0	24	246	stimuli\Videos_short_600ms_horvertflip\7.repeated_touch_with_hairbrush_short_horvertflip_short_600ms.mp4	7.repeated_touch_with_hairbrush_short_horvertflip_short_600ms.mp4	167.60797721850395	168.21629518588088	0.6083179673769337				
148.140625	0.2	303392	118	9	1	0	0	25	29	stimuli\Videos_short_600ms\36.single_slap_with_full_hand_short_short_600ms.mp4	36.single_slap_with_full_hand_short_short_600ms.mp4	168.40795587038156	169.01628028911364	0.6083244187320815				
148.94091796875	0.2	305031	119	9	1	0	0	26	142	stimuli\Videos_short_600ms_horflip\57.single_touch_with_nail_file_short_horflip_short_600ms.mp4	57.single_touch_with_nail_file_short_horflip_short_600ms.mp4	169.20793305604093	169.81625307612376	0.6083200200828287				
149.74072265625	0.2	306669	120	9	1	0	0	27	132	stimuli\Videos_short_600ms_horflip\48.single_slap_with_hand_short_horflip_short_600ms.mp4	48.single_slap_with_hand_short_horflip_short_600ms.mp4	170.0079122944062	170.61623055502787	0.6083182606216724				
150.54052734375	0.2	308307	121	9	1	0	0	28	227	stimuli\Videos_short_600ms_horvertflip\52.touch_top_to_bottom_with_hammer_short_horvertflip_short_600ms.mp4	52.touch_top_to_bottom_with_hammer_short_horvertflip_short_600ms.mp4	170.80849062911147	171.416225921781	0.6077352926695312				
151.3408203125	0.2	309946	122	9	1	0	0	29	193	stimuli\Videos_short_600ms_horvertflip\21.repeated_touch_with_metal_chopstick_short_horvertflip_short_600ms.mp4	21.repeated_touch_with_metal_chopstick_short_horvertflip_short_600ms.mp4	171.60789686980206	172.21618903175658	0.6082921619545232				
152.140625	0.2	311584	123	9	1	0	0	30	185	stimuli\Videos_short_600ms_horvertflip\14.repeated_touch_with_pencil_short_horvertflip_short_600ms.mp4	14.repeated_touch_with_pencil_short_horvertflip_short_600ms.mp4	172.40784942301434	173.01616592417304	0.6083165011586971				
152.94091796875	0.2	313223	124	9	1	0	0	31	27	stimuli\Videos_short_600ms\34.repeated_punch_with_hand_short_short_600ms.mp4	34.repeated_punch_with_hand_short_short_600ms.mp4	173.2078263154308	173.81614340307715	0.6083170876463555				
153.74072265625	0.2	314861	125	9	1	0	0	32	180	stimuli\Videos_short_600ms_horvertflip\1.repeated_touch_with_finger_fast_short_horvertflip_short_600ms.mp4	1.repeated_touch_with_finger_fast_short_horvertflip_short_600ms.mp4	174.007823734888	174.61612146846892	0.6082977335809119				
154.54052734375	0.2	316499	126	9	1	0	0	33	317	stimuli\Videos_short_600ms_vertflip\52.touch_top_to_bottom_with_hammer_short_vertflip_short_600ms.mp4	52.touch_top_to_bottom_with_hammer_short_vertflip_short_600ms.mp4	174.80778068675136	175.4161045189976	0.6083238322462421				
155.3408203125	0.2	318138	127	9	1	0	0	34	277	stimuli\Videos_short_600ms_vertflip\16.repeated_touch_with_plastic_brush_short_vertflip_short_600ms.mp4	16.repeated_touch_with_plastic_brush_short_vertflip_short_600ms.mp4	175.6077643237677	176.21607994519763	0.6083156214299379				
156.140625	0.2	319776	128	9	1	0	0	35	4	stimuli\Videos_short_600ms\13.single_touch_with_pen_short_short_600ms.mp4	13.single_touch_with_pen_short_short_600ms.mp4	176.40780074460235	177.01605889031998	0.6082581457176275				
156.9404296875	0.2	321414	129	9	1	0	0	36	127	stimuli\Videos_short_600ms_horflip\43.touch_top_to_bottom_with_sharp_wooden_stick_short_horflip_short_600ms.mp4	43.touch_top_to_bottom_with_sharp_wooden_stick_short_horflip_short_600ms.mp4	177.20772338698407	177.816039008414	0.6083156214299379				
157.74072265625	0.2	323053	130	9	1	0	0	37	128	stimuli\Videos_short_600ms_horflip\44.pushing_top_to_bottom_with_finger_short_horflip_short_600ms.mp4	44.pushing_top_to_bottom_with_finger_short_horflip_short_600ms.mp4	178.00770643751457	178.61600329136309	0.6082968538485147				
158.54052734375	0.2	324691	131	9	1	0	1	38	381	stimuli\Targets_short_600ms_vertflip\finger-tap_short_horvertflip_short_600ms.mp4	finger-tap_short_horvertflip_short_600ms.mp4	178.80768714209626	179.41600335001203	0.6083162079157773				
159.34033203125	0.2	326329	132	9	1	0	0	39	318	stimuli\Videos_short_600ms_vertflip\53.touch_top_to_bottom_with_knife_short_vertflip_short_600ms.mp4	53.touch_top_to_bottom_with_knife_short_vertflip_short_600ms.mp4	179.60767869668416	180.21597994918557	0.6083012525014055				
160.140625	0.2	327968	133	9	1	0	0	40	54	stimuli\Videos_short_600ms\59.single_push_with_long_side_pencil_short_short_600ms.mp4	59.single_push_with_long_side_pencil_short_short_600ms.mp4	180.4076415134168	181.0159471645693	0.6083056511524774				
160.9404296875	0.2	329606	134	9	1	0	0	41	71	stimuli\Videos_short_600ms\74.fingers_walking_from_top_to_bottom_short_short_600ms.mp4	74.fingers_walking_from_top_to_bottom_short_short_600ms.mp4	181.2076374666576	181.8159293353692	0.6082918687116035				
161.740234375	0.2	331244	135	9	1	0	0	42	101	stimuli\Videos_short_600ms_horflip\2.single_touch_with_finger_short_horflip_short_600ms.mp4	2.single_touch_with_finger_short_horflip_short_600ms.mp4	182.00759089960047	182.61591649130605	0.6083255917055794				
162.54052734375	0.2	332883	136	9	1	0	0	43	10	stimuli\Videos_short_600ms\19.single_touch_with_rolling_pin_short_short_600ms.mp4	19.single_touch_with_rolling_pin_short_short_600ms.mp4	182.80757043120863	183.41588927831617	0.6083188471075118				
163.34033203125	0.2	334521	137	9	1	0	0	44	111	stimuli\Videos_short_600ms_horflip\29.single_pinch_with_tweezers_short_horflip_short_600ms.mp4	29.single_pinch_with_tweezers_short_horflip_short_600ms.mp4	183.60754673713743	184.21587262208777	0.6083258849503181				
164.14013671875	0.2	336159	138	9	1	0	0	45	155	stimuli\Videos_short_600ms_horflip\69.stroke_with_soft_sock_short_horflip_short_600ms.mp4	69.stroke_with_soft_sock_short_horflip_short_600ms.mp4	184.4075256822598	185.01584394287968	0.6083182606198534				
164.9404296875	0.2	337798	139	9	1	0	0	46	102	stimuli\Videos_short_600ms_horflip\20.single_touch_with_screwdriver_short_horflip_short_600ms.mp4	20.single_touch_with_screwdriver_short_horflip_short_600ms.mp4	185.2075055071109	185.8158217150285	0.6083162079175963				
165.740234375	0.2	339436	140	9	1	0	0	47	72	stimuli\Videos_short_600ms\75.(long)stroke_with_fingers_all_over_the_hand_short_short_600ms.mp4	75.(long)stroke_with_fingers_all_over_the_hand_short_short_600ms.mp4	186.00748357250268	186.61580212636545	0.6083185538627731				
166.5400390625	0.2	341074	141	9	1	0	0	48	80	stimuli\Videos_short_600ms\82.repeated_touch_with_cotton_bud_short_short_600ms.mp4	82.repeated_touch_with_cotton_bud_short_short_600ms.mp4	186.80744550950476	187.4157798985143	0.6083343890095421				
167.34033203125	0.2	342713	142	9	1	0	0	49	350	stimuli\Videos_short_600ms_vertflip\82.repeated_touch_with_cotton_bud_short_vertflip_short_600ms.mp4	82.repeated_touch_with_cotton_bud_short_vertflip_short_600ms.mp4	187.60744028977024	188.21575767066133	0.6083173808910942				
168.14013671875	0.2	344351	143	9	1	0	0	50	275	stimuli\Videos_short_600ms_vertflip\14.repeated_touch_with_pencil_short_vertflip_short_600ms.mp4	14.repeated_touch_with_pencil_short_vertflip_short_600ms.mp4	188.40742568624773	189.01573720226952	0.6083115160217858				
168.93994140625	0.2	345989	144	9	1	0	0	51	17	stimuli\Videos_short_600ms\25.single_touch_with_stanley_knife_short_short_600ms.mp4	25.single_touch_with_stanley_knife_short_short_600ms.mp4	189.20743952733756	189.81571702712063	0.6082774997830711				
169.740234375	0.2	347628	145	9	1	0	0	52	81	stimuli\Videos_short_600ms\83.single_stroke_top_to_bottom_with_cotton_bud_short_short_600ms.mp4	83.single_stroke_top_to_bottom_with_cotton_bud_short_short_600ms.mp4	190.00738328324587	190.6156939195389	0.6083106362930266				
170.5400390625	0.2	349266	146	9	1	0	0	53	298	stimuli\Videos_short_600ms_vertflip\35.single_punch_with_hand_short_vertflip_short_600ms.mp4	35.single_punch_with_hand_short_vertflip_short_600ms.mp4	190.80733114456416	191.415671398443	0.6083402538788505				
171.34033203125	0.2	350905	147	9	1	0	0	54	20	stimuli\Videos_short_600ms\28.single_injection_with_sharp_needle_short_short_600ms.mp4	28.single_injection_with_sharp_needle_short_short_600ms.mp4	191.60730862346827	192.2156503435635	0.6083417200952681				
172.14013671875	0.2	352543	148	9	1	0	0	55	290	stimuli\Videos_short_600ms_vertflip\28.single_injection_with_sharp_needle_short_vertflip_short_600ms.mp4	28.single_injection_with_sharp_needle_short_vertflip_short_600ms.mp4	192.40730809562956	193.0156284089535	0.6083203133239294				
172.93994140625	0.2	354181	149	9	1	0	0	56	285	stimuli\Videos_short_600ms_vertflip\23.single_push_with_a_spoon_short_vertflip_short_600ms.mp4	23.single_push_with_a_spoon_short_vertflip_short_600ms.mp4	193.2072987704887	193.81560706083292	0.6083082903442119				
173.740234375	0.2	355820	150	9	1	0	0	57	1	stimuli\Videos_short_600ms\10.single_touch_with_knife_short_short_600ms.mp4	10.single_touch_with_knife_short_short_600ms.mp4	194.00727536966224	194.6155821937882	0.6083068241259753				
174.5400390625	0.2	357458	151	9	1	0	0	58	144	stimuli\Videos_short_600ms_horflip\59.single_push_with_long_side_pencil_short_horflip_short_600ms.mp4	59.single_push_with_long_side_pencil_short_horflip_short_600ms.mp4	194.80724903640112	195.41556377810048	0.6083147416993597				
175.33984375	0.2	359096	152	9	1	0	0	59	291	stimuli\Videos_short_600ms_vertflip\29.single_pinch_with_tweezers_short_vertflip_short_600ms.mp4	29.single_pinch_with_tweezers_short_vertflip_short_600ms.mp4	195.6072273950358	196.21554448268216	0.6083170876463555				
176.14013671875	0.2	360735	153	9	1	0	0	60	105	stimuli\Videos_short_600ms_horflip\23.single_push_with_a_spoon_short_horflip_short_600ms.mp4	23.single_push_with_a_spoon_short_horflip_short_600ms.mp4	196.40720516718284	197.0155181494229	0.6083129822400224				
176.93994140625	0.2	362373	154	9	1	0	1	61	364	stimuli\Targets_short_600ms\hand-pinch_short_short_600ms.mp4	hand-pinch_short_short_600ms.mp4	197.20718352581753	197.81550090670865	0.6083173808910942				
177.73974609375	0.2	364011	155	9	1	0	0	62	352	stimuli\Videos_short_600ms_vertflip\84.single_touch_with_cotton_bud_short_vertflip_short_600ms.mp4	84.single_touch_with_cotton_bud_short_vertflip_short_600ms.mp4	198.00718211825009	198.6154836639944	0.6083015457443253				
178.5400390625	0.2	365650	156	9	1	0	0	63	77	stimuli\Videos_short_600ms\8.single_touch_with_hairbrush_short_short_600ms.mp4	8.single_touch_with_hairbrush_short_short_600ms.mp4	198.80714082957277	199.4154687672271	0.6083279376543942				
179.33984375	0.2	367288	157	9	1	0	0	64	137	stimuli\Videos_short_600ms_horflip\52.touch_top_to_bottom_with_hammer_short_horflip_short_600ms.mp4	52.touch_top_to_bottom_with_hammer_short_horflip_short_600ms.mp4	199.6071186017216	200.21543920828844	0.6083206065668492				
180.1396484375	0.2	368926	158	9	1	0	0	65	166	stimuli\Videos_short_600ms_horflip\79.long_with_soft_brush_all_over_the_hand_short_horflip_short_600ms.mp4	79.long_with_soft_brush_all_over_the_hand_short_horflip_short_600ms.mp4	200.40709549413805	201.01541463448848	0.6083191403504316				
180.93994140625	0.2	370565	159	9	1	0	0	66	61	stimuli\Videos_short_600ms\65.stroke_top_to_bottom_with_stanley_knife_short_short_600ms.mp4	65.stroke_top_to_bottom_with_stanley_knife_short_short_600ms.mp4	201.2070759054768	201.8153944593414	0.6083185538645921				
181.73974609375	0.2	372203	160	9	1	0	0	67	19	stimuli\Videos_short_600ms\27.single_push_with_a_plastic_whisk_short_short_600ms.mp4	27.single_push_with_a_plastic_whisk_short_short_600ms.mp4	202.0070563168156	202.6153707652702	0.608314448454621				
182.53955078125	0.2	373841	161	9	1	0	0	68	274	stimuli\Videos_short_600ms_vertflip\13.single_touch_with_pen_short_vertflip_short_600ms.mp4	13.single_touch_with_pen_short_vertflip_short_600ms.mp4	202.8070329159891	203.41535352255596	0.6083206065668492				
183.33984375	0.2	375480	162	9	1	0	0	69	222	stimuli\Videos_short_600ms_horvertflip\48.single_slap_with_hand_short_horvertflip_short_600ms.mp4	48.single_slap_with_hand_short_horvertflip_short_600ms.mp4	203.60701068813617	204.21532836227016	0.6083176741340139				
184.1396484375	0.2	377118	163	9	1	0	0	70	24	stimuli\Videos_short_600ms\31.hand_grabbing_wrist_short_short_600ms.mp4	31.hand_grabbing_wrist_short_short_600ms.mp4	204.4069864075791	205.01530760063545	0.6083211930563266				
184.939453125	0.2	378756	164	9	1	0	0	71	278	stimuli\Videos_short_600ms_vertflip\17.repeated_touch_with_rolling_pin_short_vertflip_short_600ms.mp4	17.repeated_touch_with_rolling_pin_short_vertflip_short_600ms.mp4	205.20697268378717	205.81528683899887	0.6083141552117013				
185.73974609375	0.2	380395	165	9	1	0	0	72	195	stimuli\Videos_short_600ms_horvertflip\23.single_push_with_a_spoon_short_horvertflip_short_600ms.mp4	23.single_push_with_a_spoon_short_horvertflip_short_600ms.mp4	206.00695104242183	206.61526637060703	0.6083153281851992				
186.53955078125	0.2	382033	166	9	1	0	0	73	48	stimuli\Videos_short_600ms\53.touch_top_to_bottom_with_knife_short_short_600ms.mp4	53.touch_top_to_bottom_with_knife_short_short_600ms.mp4	206.80692617537716	207.41524267653767	0.608316501160516				
187.33935546875	0.2	383671	167	9	1	0	0	74	286	stimuli\Videos_short_600ms_vertflip\24.single_stroke_top_to_bottom_with_a_spoon_short_vertflip_short_600ms.mp4	24.single_stroke_top_to_bottom_with_a_spoon_short_vertflip_short_600ms.mp4	207.60690130833427	208.21522220814583	0.6083208998115879				
188.1396484375	0.2	385310	168	9	1	0	0	75	313	stimuli\Videos_short_600ms_vertflip\49.repeated_slap_with_hand_short_vertflip_short_600ms.mp4	49.repeated_slap_with_hand_short_vertflip_short_600ms.mp4	208.4068846521077	209.01519675461532	0.6083121025076252				
188.939453125	0.2	386948	169	9	1	0	0	76	99	stimuli\Videos_short_600ms_horflip\18.single_stroke_from_top_to_bottom_with_rolling_pin_short_horflip_short_600ms.mp4	18.single_stroke_from_top_to_bottom_with_rolling_pin_short_horflip_short_600ms.mp4	209.20686418371588	209.8151786321705	0.608314448454621				
189.7392578125	0.2	388586	170	9	1	0	0	77	224	stimuli\Videos_short_600ms_horvertflip\5.repeated_tap_with_finger_moving_from_top_to_bottom_short_horvertflip_short_600ms.mp4	5.repeated_tap_with_finger_moving_from_top_to_bottom_short_horvertflip_short_600ms.mp4	210.0068554450609	210.615161682701	0.6083062376401358				
190.53955078125	0.2	390225	171	9	1	0	0	78	18	stimuli\Videos_short_600ms\26.single_touch_with_a_blunt_syringe_short_short_600ms.mp4	26.single_touch_with_a_blunt_syringe_short_short_600ms.mp4	210.8069088740158	211.41513710890104	0.6082282348852459				
191.33935546875	0.2	391863	172	9	1	0	0	79	301	stimuli\Videos_short_600ms_vertflip\38.double_slap_with_pencil_short_vertflip_short_600ms.mp4	38.double_slap_with_pencil_short_vertflip_short_600ms.mp4	211.60679808664463	212.21512045267264	0.6083223660280055				
192.1396484375	0.2	393502	173	9	1	0	0	80	121	stimuli\Videos_short_600ms_horflip\38.double_slap_with_pencil_short_horflip_short_600ms.mp4	38.double_slap_with_pencil_short_horflip_short_600ms.mp4	212.40678143041805	213.0150999842808	0.6083185538627731				
192.939453125	0.2	395140	174	9	1	0	0	81	133	stimuli\Videos_short_600ms_horflip\49.repeated_slap_with_hand_short_horflip_short_600ms.mp4	49.repeated_slap_with_hand_short_horflip_short_600ms.mp4	213.20675392418343	213.81507394426444	0.6083200200810097				
193.7392578125	0.2	396778	175	9	1	0	0	82	53	stimuli\Videos_short_600ms\58.single_slap_with_pencil_short_short_600ms.mp4	58.single_slap_with_pencil_short_short_600ms.mp4	214.00673257606104	214.61505846101136	0.6083258849503181				
194.53955078125	0.2	398417	176	9	1	0	0	83	334	stimuli\Videos_short_600ms_vertflip\68.stroke_top_to_bottom_with_shawl_short_vertflip_short_600ms.mp4	68.stroke_top_to_bottom_with_shawl_short_vertflip_short_600ms.mp4	214.806710641451	215.41502772909917	0.6083170876481745				
195.33935546875	0.2	400055	177	9	1	0	0	84	79	stimuli\Videos_short_600ms\81.single_stroke_top_to_bottom_with_cotton_pad_short_short_600ms.mp4	81.single_stroke_top_to_bottom_with_cotton_pad_short_short_600ms.mp4	215.6066916392774	216.21501752422773	0.6083258849503181				
196.13916015625	0.2	401693	178	9	1	0	0	85	160	stimuli\Videos_short_600ms_horflip\73.single_stroke_with_flat_hand_short_horflip_short_600ms.mp4	73.single_stroke_with_flat_hand_short_horflip_short_600ms.mp4	216.40666735872037	217.0149853260973	0.6083179673769337				
196.939453125	0.2	403332	179	9	1	0	0	86	119	stimuli\Videos_short_600ms_horflip\36.single_slap_with_full_hand_short_horflip_short_600ms.mp4	36.single_slap_with_full_hand_short_horflip_short_600ms.mp4	217.20664659708564	217.8149625117585	0.6083159146728576				
197.7392578125	0.2	404970	180	9	1	0	0	87	191	stimuli\Videos_short_600ms_horvertflip\2.single_touch_with_finger_short_horvertflip_short_600ms.mp4	2.single_touch_with_finger_short_horvertflip_short_600ms.mp4	218.00662583544909	218.6149423366096	0.608316501160516				
198.5390625	0.2	406608	181	9	1	0	1	88	376	stimuli\Targets_short_600ms_horvertflip\hand-pinch_short_vertflip_short_600ms.mp4	hand-pinch_short_vertflip_short_600ms.mp4	218.80660419408375	219.4149206952443	0.608316501160516				
199.33935546875	0.2	408247	182	9	1	0	0	89	212	stimuli\Videos_short_600ms_horvertflip\39.single_stab_with_scissors_short_horvertflip_short_600ms.mp4	39.single_stab_with_scissors_short_horvertflip_short_600ms.mp4	219.60658665812664	220.21489993360956	0.6083132754829421				
200.13916015625	0.2	409885	183	9	1	0	0	90	74	stimuli\Videos_short_600ms\77.tapping_with_all_fingers_short_short_600ms.mp4	77.tapping_with_all_fingers_short_short_600ms.mp4	220.40653569241655	221.0148765327831	0.6083408403665089				
200.93896484375	0.2	411523	184	9	1	0	0	91	341	stimuli\Videos_short_600ms_vertflip\74.fingers_walking_from_top_to_bottom_short_vertflip_short_600ms.mp4	74.fingers_walking_from_top_to_bottom_short_vertflip_short_600ms.mp4	221.2065383902573	221.8148554779036	0.6083170876463555				
201.7392578125	0.2	413162	185	9	1	0	0	92	284	stimuli\Videos_short_600ms_vertflip\22.single_touch_with_metal_chopstick_short_vertflip_short_600ms.mp4	22.single_touch_with_metal_chopstick_short_vertflip_short_600ms.mp4	222.00653756917563	222.61483442302597	0.6082968538503337				
202.5390625	0.2	414800	186	9	1	0	0	93	158	stimuli\Videos_short_600ms_horflip\71.single_stroke_with_finger_top_to_bottom_short_horflip_short_600ms.mp4	71.single_stroke_with_finger_top_to_bottom_short_horflip_short_600ms.mp4	222.8064783926493	223.41482069923225	0.6083423065829265	4.0	4.0	4.421858541711117	1.0
238.462890625	0.2	488372	187	9	2	0	0	0	63	stimuli\Videos_short_600ms\67.single_touch_with_sponge_short_short_600ms.mp4	67.single_touch_with_sponge_short_short_600ms.mp4	258.7305359668935	259.33885129508053	0.6083153281870182				
239.2626953125	0.2	490010	188	9	2	0	0	1	154	stimuli\Videos_short_600ms_horflip\68.stroke_top_to_bottom_with_shawl_short_horflip_short_600ms.mp4	68.stroke_top_to_bottom_with_shawl_short_horflip_short_600ms.mp4	259.5304976106527	260.13882789425406	0.60833028360139				
240.06298828125	0.2	491649	189	9	2	0	0	2	62	stimuli\Videos_short_600ms\66.stroke_top_to_bottom_with_sponge_short_short_600ms.mp4	66.stroke_top_to_bottom_with_sponge_short_short_600ms.mp4	260.3304862328059	260.9388127042439	0.6083264714379766				
240.86279296875	0.2	493287	190	9	2	0	0	3	38	stimuli\Videos_short_600ms\44.pushing_top_to_bottom_with_finger_short_short_600ms.mp4	44.pushing_top_to_bottom_with_finger_short_short_600ms.mp4	261.1304634184671	261.7387834385481	0.6083200200810097				
241.66259765625	0.2	494925	191	9	2	0	0	4	329	stimuli\Videos_short_600ms_vertflip\63.stroke_top_to_bottom_with_screwdriver_short_vertflip_short_600ms.mp4	63.stroke_top_to_bottom_with_screwdriver_short_vertflip_short_600ms.mp4	261.9304488149446	262.5387617971828	0.6083129822382034				
242.462890625	0.2	496564	192	9	2	0	0	5	145	stimuli\Videos_short_600ms_horflip\6.single_touch_with_flat_hand_short_horflip_short_600ms.mp4	6.single_touch_with_flat_hand_short_horflip_short_600ms.mp4	262.7304274668222	263.3387404490604	0.6083129822382034				
243.2626953125	0.2	498202	193	9	2	0	0	6	161	stimuli\Videos_short_600ms_horflip\74.fingers_walking_from_top_to_bottom_short_horflip_short_600ms.mp4	74.fingers_walking_from_top_to_bottom_short_horflip_short_600ms.mp4	263.5303987876141	264.1387185144522	0.60831972683809				
244.0625	0.2	499840	194	9	2	0	0	7	321	stimuli\Videos_short_600ms_vertflip\56.repeated_touch_with_nail_file_short_vertflip_short_600ms.mp4	56.repeated_touch_with_nail_file_short_vertflip_short_600ms.mp4	264.3303818381428	264.9386962865992	0.60831444845644				
244.86279296875	0.2	501479	195	9	2	0	0	8	3	stimuli\Videos_short_600ms\12.repeated_touch_with_nail_file_short_short_600ms.mp4	12.repeated_touch_with_nail_file_short_short_600ms.mp4	265.1303584373163	265.7386743519892	0.6083159146728576				
245.66259765625	0.2	503117	196	9	2	0	0	9	172	stimuli\Videos_short_600ms_horflip\84.single_touch_with_cotton_bud_short_horflip_short_600ms.mp4	84.single_touch_with_cotton_bud_short_horflip_short_600ms.mp4	265.93033122432644	266.5386553498156	0.6083241254891618				
246.47119140625	0.2	504773	197	9	2	0	0	10	178	stimuli\Videos_short_600ms_horflip\9.single_touch_with_hammer_short_horflip_short_600ms.mp4	9.single_touch_with_hammer_short_horflip_short_600ms.mp4	266.7386652614441	267.3469512652864	0.608286003842295				
247.27099609375	0.2	506411	198	9	2	0	0	11	9	stimuli\Videos_short_600ms\18.single_stroke_from_top_to_bottom_with_rolling_pin_short_short_600ms.mp4	18.single_stroke_from_top_to_bottom_with_rolling_pin_short_short_600ms.mp4	267.53862221330746	268.14694194014555	0.60831972683809				
248.07080078125	0.2	508049	199	9	2	0	0	12	271	stimuli\Videos_short_600ms_vertflip\10.single_touch_with_knife_short_vertflip_short_600ms.mp4	10.single_touch_with_knife_short_vertflip_short_600ms.mp4	268.3386070232973	268.9469208852661	0.6083138619687816				
248.87109375	0.2	509688	200	9	2	0	0	13	243	stimuli\Videos_short_600ms_horvertflip\67.single_touch_with_sponge_short_horvertflip_short_600ms.mp4	67.single_touch_with_sponge_short_horvertflip_short_600ms.mp4	269.1385821562544	269.7468983641702	0.6083162079157773				
249.6708984375	0.2	511326	201	9	2	0	0	14	82	stimuli\Videos_short_600ms\84.single_touch_with_cotton_bud_short_short_600ms.mp4	84.single_touch_with_cotton_bud_short_short_600ms.mp4	269.93861828384433	270.5468770160478	0.6082587322034669				
250.470703125	0.2	512964	202	9	2	0	0	15	41	stimuli\Videos_short_600ms\47.(long)scratching_with_finger_nails_short_short_600ms.mp4	47.(long)scratching_with_finger_nails_short_short_600ms.mp4	270.7385459113648	271.346858893603	0.6083129822382034				
251.27099609375	0.2	514603	203	9	2	0	0	16	11	stimuli\Videos_short_600ms\2.single_touch_with_finger_short_short_600ms.mp4	2.single_touch_with_finger_short_short_600ms.mp4	271.5385213375648	272.14683578602126	0.60831444845644				
252.07080078125	0.2	516241	204	9	2	0	0	17	328	stimuli\Videos_short_600ms_vertflip\62.touch_top_to_bottom_with_scissors_short_vertflip_short_600ms.mp4	62.touch_top_to_bottom_with_scissors_short_vertflip_short_600ms.mp4	272.338471838073	272.9468138514112	0.6083420133381878				
252.87060546875	0.2	517879	205	9	2	0	0	18	28	stimuli\Videos_short_600ms\35.single_punch_with_hand_short_short_600ms.mp4	35.single_punch_with_hand_short_short_600ms.mp4	273.1384710169914	273.7467910370724	0.6083200200810097				
253.6708984375	0.2	519518	206	9	2	0	0	19	96	stimuli\Videos_short_600ms_horflip\15.single_stroke_top_to_bottom_with_a_plastic_whisk_short_horflip_short_600ms.mp4	15.single_stroke_top_to_bottom_with_a_plastic_whisk_short_horflip_short_600ms.mp4	273.93845963914646	274.54677379435816	0.6083141552117013				
254.470703125	0.2	521156	207	9	2	0	0	20	289	stimuli\Videos_short_600ms_vertflip\27.single_push_with_a_plastic_whisk_short_vertflip_short_600ms.mp4	27.single_push_with_a_plastic_whisk_short_vertflip_short_600ms.mp4	274.7384374112935	275.3467483408276	0.6083109295341274				
255.2705078125	0.2	522794	208	9	2	0	0	21	305	stimuli\Videos_short_600ms_vertflip\41.injection_with_blunt_syringe_short_vertflip_short_600ms.mp4	41.injection_with_blunt_syringe_short_vertflip_short_600ms.mp4	275.5385491956913	276.1467281656787	0.6081789699874207				
256.07080078125	0.2	524433	209	9	2	0	0	22	214	stimuli\Videos_short_600ms_horvertflip\40.repeated_push_with_finger_short_horvertflip_short_600ms.mp4	40.repeated_push_with_finger_short_horvertflip_short_600ms.mp4	276.3383961812651	276.9466798391604	0.6082836578952993				
256.87060546875	0.2	526071	210	9	2	0	0	23	75	stimuli\Videos_short_600ms\78.single_stroke_top_to_bottom_with_soft_brush_short_short_600ms.mp4	78.single_stroke_top_to_bottom_with_soft_brush_short_short_600ms.mp4	277.1383683817876	277.74667022077665	0.608301838989064				
257.67041015625	0.2	527709	211	9	2	0	0	24	311	stimuli\Videos_short_600ms_vertflip\47.(long)scratching_with_finger_nails_short_vertflip_short_600ms.mp4	47.(long)scratching_with_finger_nails_short_vertflip_short_600ms.mp4	277.9383449809611	278.5466588429317	0.6083138619706006				
258.470703125	0.2	529348	212	9	2	0	0	25	244	stimuli\Videos_short_600ms_horvertflip\68.stroke_top_to_bottom_with_shawl_short_horvertflip_short_600ms.mp4	68.stroke_top_to_bottom_with_shawl_short_horvertflip_short_600ms.mp4	278.7383242193264	279.3466416002175	0.6083173808910942				
259.2705078125	0.2	530986	213	9	2	0	0	26	314	stimuli\Videos_short_600ms_vertflip\5.repeated_tap_with_finger_moving_from_top_to_bottom_short_vertflip_short_600ms.mp4	5.repeated_tap_with_finger_moving_from_top_to_bottom_short_vertflip_short_600ms.mp4	279.53830228471816	280.1466252372338	0.6083229525156639				
260.0703125	0.2	532624	214	9	2	0	0	27	194	stimuli\Videos_short_600ms_horvertflip\22.single_touch_with_metal_chopstick_short_horvertflip_short_600ms.mp4	22.single_touch_with_metal_chopstick_short_horvertflip_short_600ms.mp4	280.3382955987672	280.94660887425016	0.6083132754829421				
260.87060546875	0.2	534263	215	9	2	0	0	28	47	stimuli\Videos_short_600ms\52.touch_top_to_bottom_with_hammer_short_short_600ms.mp4	52.touch_top_to_bottom_with_hammer_short_short_600ms.mp4	281.1382590019857	281.7465752099033	0.6083162079175963				
261.67041015625	0.2	535901	216	9	2	0	0	29	306	stimuli\Videos_short_600ms_vertflip\42.single_slap_with_plastic_whisk_short_vertflip_short_600ms.mp4	42.single_slap_with_plastic_whisk_short_vertflip_short_600ms.mp4	281.93823677413457	282.5465567942156	0.6083200200810097				
262.470703125	0.2	537540	217	9	2	0	0	30	89	stimuli\Videos_short_600ms\90.repeated_touch_with_sponge_short_short_600ms.mp4	90.repeated_touch_with_sponge_short_short_600ms.mp4	282.7382148395245	283.3465331001462	0.6083182606216724				
263.2705078125	0.2	539178	218	9	2	0	0	31	150	stimuli\Videos_short_600ms_horflip\64.repeated_touch_with_screwdriver_short_horflip_short_600ms.mp4	64.repeated_touch_with_screwdriver_short_horflip_short_600ms.mp4	283.5381931981592	284.1465105790503	0.6083173808910942				
264.0703125	0.2	540816	219	9	2	0	0	32	168	stimuli\Videos_short_600ms_horflip\80.stroke_with_sharp_stick_all_over_the_hand_short_horflip_short_600ms.mp4	80.stroke_with_sharp_stick_all_over_the_hand_short_horflip_short_600ms.mp4	284.33817009057566	284.94648835119733	0.6083182606216724				
264.87060546875	0.2	542455	220	9	2	0	0	33	184	stimuli\Videos_short_600ms_horvertflip\13.single_touch_with_pen_short_horvertflip_short_600ms.mp4	13.single_touch_with_pen_short_horvertflip_short_600ms.mp4	285.13815079515734	285.7464711084831	0.6083203133257484				
265.67041015625	0.2	544093	221	9	2	0	0	34	359	stimuli\Videos_short_600ms_vertflip\90.repeated_touch_with_sponge_short_vertflip_short_600ms.mp4	90.repeated_touch_with_sponge_short_vertflip_short_600ms.mp4	285.9381265146021	286.5464477076566	0.6083211930545076				
266.47021484375	0.2	545731	222	9	2	0	0	35	36	stimuli\Videos_short_600ms\42.single_slap_with_plastic_whisk_short_short_600ms.mp4	42.single_slap_with_plastic_whisk_short_short_600ms.mp4	286.73810340701857	287.34642401358724	0.6083206065686682				
267.2705078125	0.2	547370	223	9	2	0	0	36	332	stimuli\Videos_short_600ms_vertflip\66.stroke_top_to_bottom_with_sponge_short_vertflip_short_600ms.mp4	66.stroke_top_to_bottom_with_sponge_short_vertflip_short_600ms.mp4	287.53808147241034	288.1464035451954	0.6083220727850858				
268.0703125	0.2	549008	224	9	2	0	0	37	267	stimuli\Videos_short_600ms_horvertflip\89.single_touch_with_plastic_brush_short_horvertflip_short_600ms.mp4	89.single_touch_with_plastic_brush_short_horvertflip_short_600ms.mp4	288.3380595378003	288.94638131734246	0.608321779542166				
268.8701171875	0.2	550646	225	9	2	0	0	38	112	stimuli\Videos_short_600ms_horflip\3.single_push_with_finger_short_horflip_short_600ms.mp4	3.single_push_with_finger_short_horflip_short_600ms.mp4	289.1380425883308	289.74636202192414	0.6083194335933513				
269.67041015625	0.2	552285	226	9	2	0	0	39	65	stimuli\Videos_short_600ms\69.stroke_with_soft_sock_short_short_600ms.mp4	69.stroke_with_soft_sock_short_short_600ms.mp4	289.9380259321024	290.54633950082825	0.6083135687258618				
270.47021484375	0.2	553923	227	9	2	0	0	40	52	stimuli\Videos_short_600ms\57.single_touch_with_nail_file_short_short_600ms.mp4	57.single_touch_with_nail_file_short_short_600ms.mp4	290.73800722317173	291.34631903243644	0.6083118092647055				
271.27001953125	0.2	555561	228	9	2	0	0	41	351	stimuli\Videos_short_600ms_vertflip\83.single_stroke_top_to_bottom_with_cotton_bud_short_vertflip_short_600ms.mp4	83.single_stroke_top_to_bottom_with_cotton_bud_short_vertflip_short_600ms.mp4	291.53798118315535	292.14630237620986	0.6083211930545076				
272.0703125	0.2	557200	229	9	2	0	0	42	326	stimuli\Videos_short_600ms_vertflip\60.single_push_with_tip_of_pencil_short_vertflip_short_600ms.mp4	60.single_push_with_tip_of_pencil_short_vertflip_short_600ms.mp4	292.33795543638007	292.9462745767323	0.6083191403522505				
272.8701171875	0.2	558838	230	9	2	0	0	43	177	stimuli\Videos_short_600ms_horflip\89.single_touch_with_plastic_brush_short_horflip_short_600ms.mp4	89.single_touch_with_plastic_brush_short_horflip_short_600ms.mp4	293.13793467474534	293.74622654345694	0.6082918687116035				
273.669921875	0.2	560476	231	9	2	0	0	44	68	stimuli\Videos_short_600ms\71.single_stroke_with_finger_top_to_bottom_short_short_600ms.mp4	71.single_stroke_with_finger_top_to_bottom_short_short_600ms.mp4	293.9379139131106	294.5462356926528	0.608321779542166				
274.47021484375	0.2	562115	232	9	2	0	0	45	209	stimuli\Videos_short_600ms_horvertflip\36.single_slap_with_full_hand_short_horvertflip_short_600ms.mp4	36.single_slap_with_full_hand_short_horvertflip_short_600ms.mp4	294.7378913920147	295.34621170533865	0.6083203133239294				
275.27001953125	0.2	563753	233	9	2	0	0	46	261	stimuli\Videos_short_600ms_horvertflip\83.single_stroke_top_to_bottom_with_cotton_bud_short_horvertflip_short_600ms.mp4	83.single_stroke_top_to_bottom_with_cotton_bud_short_horvertflip_short_600ms.mp4	295.5378685776741	296.14619710181614	0.6083285241420526				
276.06982421875	0.2	565391	234	9	2	0	0	47	218	stimuli\Videos_short_600ms_horvertflip\44.pushing_top_to_bottom_with_finger_short_horvertflip_short_600ms.mp4	44.pushing_top_to_bottom_with_finger_short_horvertflip_short_600ms.mp4	296.33785016198635	296.9461657834163	0.6083156214299379				
276.8701171875	0.2	567030	235	9	2	0	1	48	361	stimuli\Targets_short_600ms\chopstick-silver-tap_short_short_600ms.mp4	chopstick-silver-tap_short_short_600ms.mp4	297.1378267611599	297.746154992059	0.6083282308991329				
277.669921875	0.2	568668	236	9	2	0	0	49	346	stimuli\Videos_short_600ms_vertflip\79.long_with_soft_brush_all_over_the_hand_short_vertflip_short_600ms.mp4	79.long_with_soft_brush_all_over_the_hand_short_vertflip_short_600ms.mp4	297.93780687925573	298.5461216209551	0.6083147416993597				
278.4697265625	0.2	570306	237	9	2	0	0	50	202	stimuli\Videos_short_600ms_horvertflip\3.single_push_with_finger_short_horvertflip_short_600ms.mp4	3.single_push_with_finger_short_horvertflip_short_600ms.mp4	298.73778347842926	299.34610173905094	0.6083182606216724				
279.27001953125	0.2	571945	238	9	2	0	0	51	307	stimuli\Videos_short_600ms_vertflip\43.touch_top_to_bottom_with_sharp_wooden_stick_short_vertflip_short_600ms.mp4	43.touch_top_to_bottom_with_sharp_wooden_stick_short_vertflip_short_600ms.mp4	299.53776154382103	300.1460786314674	0.6083170876463555				
280.06982421875	0.2	573583	239	9	2	0	0	52	353	stimuli\Videos_short_600ms_vertflip\85.touch_top_to_bottom_with_fabric_short_vertflip_short_600ms.mp4	85.touch_top_to_bottom_with_fabric_short_vertflip_short_600ms.mp4	300.33774371461914	300.9460584563185	0.6083147416993597				
280.86962890625	0.2	575221	240	9	2	0	0	53	197	stimuli\Videos_short_600ms_horvertflip\25.single_touch_with_stanley_knife_short_horvertflip_short_600ms.mp4	25.single_touch_with_stanley_knife_short_horvertflip_short_600ms.mp4	301.137715035411	301.7460359352226	0.6083208998115879				
281.669921875	0.2	576860	241	9	2	0	0	54	44	stimuli\Videos_short_600ms\5.repeated_tap_with_finger_moving_from_top_to_bottom_short_short_600ms.mp4	5.repeated_tap_with_finger_moving_from_top_to_bottom_short_short_600ms.mp4	301.9377004318885	302.5460145871002	0.6083141552117013				
282.4697265625	0.2	578498	242	9	2	0	0	55	151	stimuli\Videos_short_600ms_horflip\65.stroke_top_to_bottom_with_stanley_knife_short_horflip_short_600ms.mp4	65.stroke_top_to_bottom_with_stanley_knife_short_horflip_short_600ms.mp4	302.7376714594375	303.34601347277567	0.6083420133381878				
283.27001953125	0.2	580137	243	9	2	0	0	56	254	stimuli\Videos_short_600ms_horvertflip\77.tapping_with_all_fingers_short_horvertflip_short_600ms.mp4	77.tapping_with_all_fingers_short_horvertflip_short_600ms.mp4	303.5376594951049	304.1459724773431	0.6083129822382034				
284.06982421875	0.2	581775	244	9	2	0	0	57	183	stimuli\Videos_short_600ms_horvertflip\12.repeated_touch_with_nail_file_short_horvertflip_short_600ms.mp4	12.repeated_touch_with_nail_file_short_horvertflip_short_600ms.mp4	304.3376290564356	304.94595142246544	0.6083223660298245				
284.86962890625	0.2	583413	245	9	2	0	0	58	42	stimuli\Videos_short_600ms\48.single_slap_with_hand_short_short_600ms.mp4	48.single_slap_with_hand_short_short_600ms.mp4	305.1376167988601	305.7459291946125	0.608312395752364				
285.669921875	0.2	585052	246	9	2	0	0	59	327	stimuli\Videos_short_600ms_vertflip\61.single_hit_with_rolling_pin_short_vertflip_short_600ms.mp4	61.single_hit_with_rolling_pin_short_vertflip_short_600ms.mp4	305.93759105208665	306.54590256810843	0.6083115160217858				
286.4697265625	0.2	586690	247	9	2	0	0	60	146	stimuli\Videos_short_600ms_horflip\60.single_push_with_tip_of_pencil_short_horflip_short_600ms.mp4	60.single_push_with_tip_of_pencil_short_horflip_short_600ms.mp4	306.73754301881127	307.3458809267431	0.6083379079318547				
287.26953125	0.2	588328	248	9	2	0	0	61	31	stimuli\Videos_short_600ms\38.double_slap_with_pencil_short_short_600ms.mp4	38.double_slap_with_pencil_short_short_600ms.mp4	307.53754600989487	308.1458636840289	0.6083176741340139				
288.06982421875	0.2	589967	249	9	2	0	0	62	200	stimuli\Videos_short_600ms_horvertflip\28.single_injection_with_sharp_needle_short_horvertflip_short_600ms.mp4	28.single_injection_with_sharp_needle_short_horvertflip_short_600ms.mp4	308.337523488799	308.94583823049834	0.6083147416993597				
288.86962890625	0.2	591605	250	9	2	0	0	63	107	stimuli\Videos_short_600ms_horflip\25.single_touch_with_stanley_knife_short_horflip_short_600ms.mp4	25.single_touch_with_stanley_knife_short_horflip_short_600ms.mp4	309.13750067445835	309.74582392021875	0.6083232457604026				
289.66943359375	0.2	593243	251	9	2	0	0	64	39	stimuli\Videos_short_600ms\45.scratching_with_finger_nails_short_short_600ms.mp4	45.scratching_with_finger_nails_short_short_600ms.mp4	309.9374843114747	310.5457996396617	0.6083153281870182				
290.4697265625	0.2	594882	252	9	2	0	0	65	179	stimuli\Videos_short_600ms_horflip\90.repeated_touch_with_sponge_short_horflip_short_600ms.mp4	90.repeated_touch_with_sponge_short_horflip_short_600ms.mp4	310.7374591511889	311.34578474289447	0.6083255917055794				
291.26953125	0.2	596520	253	9	2	0	1	66	375	stimuli\Targets_short_600ms_horvertflip\finger-tap_short_vertflip_short_600ms.mp4	finger-tap_short_vertflip_short_600ms.mp4	311.5374363368501	312.14575371773935	0.6083173808892752				
292.0693359375	0.2	598158	254	9	2	0	0	67	131	stimuli\Videos_short_600ms_horflip\47.(long)scratching_with_finger_nails_short_horflip_short_600ms.mp4	47.(long)scratching_with_finger_nails_short_horflip_short_600ms.mp4	312.3374173346747	312.9457446858414	0.6083273511667358				
292.86962890625	0.2	599797	255	9	2	0	0	68	114	stimuli\Videos_short_600ms_horflip\31.hand_grabbing_wrist_short_horflip_short_600ms.mp4	31.hand_grabbing_wrist_short_horflip_short_600ms.mp4	313.1373951068217	313.7457121944699	0.6083170876481745				
293.66943359375	0.2	601435	256	9	2	0	0	69	338	stimuli\Videos_short_600ms_vertflip\71.single_stroke_with_finger_top_to_bottom_short_vertflip_short_600ms.mp4	71.single_stroke_with_finger_top_to_bottom_short_vertflip_short_600ms.mp4	313.93737053302175	314.5456887936434	0.6083182606216724				
294.46923828125	0.2	603073	257	9	2	0	0	70	5	stimuli\Videos_short_600ms\14.repeated_touch_with_pencil_short_short_600ms.mp4	14.repeated_touch_with_pencil_short_short_600ms.mp4	314.7373509443605	315.34566773876395	0.6083167944034358				
295.26953125	0.2	604712	258	9	2	0	0	71	250	stimuli\Videos_short_600ms_horvertflip\73.single_stroke_with_flat_hand_short_horvertflip_short_600ms.mp4	73.single_stroke_with_flat_hand_short_horvertflip_short_600ms.mp4	315.53733311516044	316.14564521766806	0.6083121025076252				
296.0693359375	0.2	606350	259	9	2	0	0	72	78	stimuli\Videos_short_600ms\80.stroke_with_sharp_stick_all_over_the_hand_short_short_600ms.mp4	80.stroke_with_sharp_stick_all_over_the_hand_short_short_600ms.mp4	316.33728713458913	316.94562826819674	0.6083411336076097				
296.869140625	0.2	607988	260	9	2	0	0	73	152	stimuli\Videos_short_600ms_horflip\66.stroke_top_to_bottom_with_sponge_short_horflip_short_600ms.mp4	66.stroke_top_to_bottom_with_sponge_short_horflip_short_600ms.mp4	317.1372690121443	317.74560428088444	0.6083352687401202				
297.66943359375	0.2	609627	261	9	2	0	0	74	257	stimuli\Videos_short_600ms_horvertflip\8.single_touch_with_hairbrush_short_horvertflip_short_600ms.mp4	8.single_touch_with_hairbrush_short_horvertflip_short_600ms.mp4	317.9372582207852	318.54558293276204	0.6083247119768203				
298.46923828125	0.2	611265	262	9	2	0	0	75	203	stimuli\Videos_short_600ms_horvertflip\30.finger_pulling_back_another_finger_short_horvertflip_short_600ms.mp4	30.finger_pulling_back_another_finger_short_horvertflip_short_600ms.mp4	318.73724391050564	319.34556158463965	0.6083176741340139				
299.26904296875	0.2	612903	263	9	2	0	0	76	349	stimuli\Videos_short_600ms_vertflip\81.single_stroke_top_to_bottom_with_cotton_pad_short_vertflip_short_600ms.mp4	81.single_stroke_top_to_bottom_with_cotton_pad_short_vertflip_short_600ms.mp4	319.53721669751576	320.14553906354377	0.6083223660280055				
300.0693359375	0.2	614542	264	9	2	0	0	77	236	stimuli\Videos_short_600ms_horvertflip\60.single_push_with_tip_of_pencil_short_horvertflip_short_600ms.mp4	60.single_push_with_tip_of_pencil_short_horvertflip_short_600ms.mp4	320.33720326696493	320.94551390325796	0.6083106362930266				
300.869140625	0.2	616180	265	9	2	0	0	78	171	stimuli\Videos_short_600ms_horflip\83.single_stroke_top_to_bottom_with_cotton_bud_short_horflip_short_600ms.mp4	83.single_stroke_top_to_bottom_with_cotton_bud_short_horflip_short_600ms.mp4	321.13718661073835	321.7454931416214	0.6083065308830555				
301.66943359375	0.2	617819	266	9	2	0	0	79	201	stimuli\Videos_short_600ms_horvertflip\29.single_pinch_with_tweezers_short_horvertflip_short_600ms.mp4	29.single_pinch_with_tweezers_short_horvertflip_short_600ms.mp4	321.9371667288342	322.54548147053356	0.6083147416993597				
302.46923828125	0.2	619457	267	9	2	0	0	80	357	stimuli\Videos_short_600ms_vertflip\89.single_touch_with_plastic_brush_short_vertflip_short_600ms.mp4	89.single_touch_with_plastic_brush_short_vertflip_short_600ms.mp4	322.73713306448735	323.3454524980807	0.6083194335933513				
303.26904296875	0.2	621095	268	9	2	0	0	81	140	stimuli\Videos_short_600ms_horflip\55.touch_top_to_bottom_with_nail_file_short_horflip_short_600ms.mp4	55.touch_top_to_bottom_with_nail_file_short_horflip_short_600ms.mp4	323.53711288933846	324.1454402405052	0.6083273511667358				
304.0693359375	0.2	622734	269	9	2	0	0	82	196	stimuli\Videos_short_600ms_horvertflip\24.single_stroke_top_to_bottom_with_a_spoon_short_horvertflip_short_600ms.mp4	24.single_stroke_top_to_bottom_with_a_spoon_short_horvertflip_short_600ms.mp4	324.33709359392014	324.94541214778474	0.6083185538645921				
304.869140625	0.2	624372	270	9	2	0	0	83	335	stimuli\Videos_short_600ms_vertflip\69.stroke_with_soft_sock_short_vertflip_short_600ms.mp4	69.stroke_with_soft_sock_short_vertflip_short_600ms.mp4	325.1370693133631	325.7453878672277	0.6083185538645921				
305.6689453125	0.2	626010	271	9	2	0	0	84	253	stimuli\Videos_short_600ms_horvertflip\76.tickle_with_fingers_from_top_to_bottom_short_horvertflip_short_600ms.mp4	76.tickle_with_fingers_from_top_to_bottom_short_horvertflip_short_600ms.mp4	325.93704620578137	326.54537297046227	0.6083267646808963				
306.46923828125	0.2	627649	272	9	2	0	0	85	164	stimuli\Videos_short_600ms_horflip\77.tapping_with_all_fingers_short_horflip_short_600ms.mp4	77.tapping_with_all_fingers_short_horflip_short_600ms.mp4	326.7370251509019	327.3453519155828	0.6083267646808963				
307.26904296875	0.2	629287	273	9	2	0	0	86	106	stimuli\Videos_short_600ms_horflip\24.single_stroke_top_to_bottom_with_a_spoon_short_horflip_short_600ms.mp4	24.single_stroke_top_to_bottom_with_a_spoon_short_horflip_short_600ms.mp4	327.5370175852222	328.1453317404339	0.6083141552117013				
308.06884765625	0.2	630925	274	9	2	0	0	87	262	stimuli\Videos_short_600ms_horvertflip\84.single_touch_with_cotton_bud_short_horvertflip_short_600ms.mp4	84.single_touch_with_cotton_bud_short_horvertflip_short_600ms.mp4	328.33698274790186	328.9452992490624	0.608316501160516				
308.869140625	0.2	632564	275	9	2	0	0	88	297	stimuli\Videos_short_600ms_vertflip\34.repeated_punch_with_hand_short_vertflip_short_600ms.mp4	34.repeated_punch_with_hand_short_vertflip_short_600ms.mp4	329.13696257275296	329.7452758482359	0.6083132754829421				
309.6689453125	0.2	634202	276	9	2	0	0	89	315	stimuli\Videos_short_600ms_vertflip\50.single_(long)hard_push_with_thumb_short_vertflip_short_600ms.mp4	50.single_(long)hard_push_with_thumb_short_vertflip_short_600ms.mp4	329.93694093138765	330.5452565528176	0.6083156214299379				
310.46875	0.2	635840	277	9	2	0	0	90	186	stimuli\Videos_short_600ms_horvertflip\15.single_stroke_top_to_bottom_with_a_plastic_whisk_short_horvertflip_short_600ms.mp4	15.single_stroke_top_to_bottom_with_a_plastic_whisk_short_horvertflip_short_600ms.mp4	330.7369163575877	331.34523579118104	0.6083194335933513				
311.26904296875	0.2	637479	278	9	2	0	0	91	345	stimuli\Videos_short_600ms_vertflip\78.single_stroke_top_to_bottom_with_soft_brush_short_vertflip_short_600ms.mp4	78.single_stroke_top_to_bottom_with_soft_brush_short_vertflip_short_600ms.mp4	331.5368935432489	332.1452135633299	0.6083200200810097	2.0	2.0	1.593466946771514	1.0
346.6845703125	0.2	710010	279	9	3	0	0	0	304	stimuli\Videos_short_600ms_vertflip\40.repeated_push_with_finger_short_vertflip_short_600ms.mp4	40.repeated_push_with_finger_short_vertflip_short_600ms.mp4	366.9526013038776	367.5609304145055	0.6083291106278921				
347.484375	0.2	711648	280	9	3	0	1	1	363	stimuli\Targets_short_600ms\finger-tap_short_short_600ms.mp4	finger-tap_short_short_600ms.mp4	367.75257907602463	368.3608970434016	0.6083179673769337				
348.2841796875	0.2	713286	281	9	3	0	0	2	199	stimuli\Videos_short_600ms_horvertflip\27.single_push_with_a_plastic_whisk_short_horvertflip_short_600ms.mp4	27.single_push_with_a_plastic_whisk_short_horvertflip_short_600ms.mp4	368.55286006188544	369.1608733493322	0.6080132874467381				
349.08447265625	0.2	714925	282	9	3	0	0	3	103	stimuli\Videos_short_600ms_horflip\21.repeated_touch_with_metal_chopstick_short_horflip_short_600ms.mp4	21.repeated_touch_with_metal_chopstick_short_horflip_short_600ms.mp4	369.3525393122145	369.96085258769745	0.6083132754829421				
349.88427734375	0.2	716563	283	9	3	0	0	4	266	stimuli\Videos_short_600ms_horvertflip\88.repeated_stroke_with_plastic_brush_short_horvertflip_short_600ms.mp4	88.repeated_stroke_with_plastic_brush_short_horvertflip_short_600ms.mp4	370.15251268571046	370.760829186871	0.608316501160516				
350.68408203125	0.2	718201	284	9	3	0	0	5	259	stimuli\Videos_short_600ms_horvertflip\81.single_stroke_top_to_bottom_with_cotton_pad_short_horvertflip_short_600ms.mp4	81.single_stroke_top_to_bottom_with_cotton_pad_short_horvertflip_short_600ms.mp4	370.95249368353507	371.5608101846956	0.608316501160516				
351.484375	0.2	719840	285	9	3	0	0	6	104	stimuli\Videos_short_600ms_horflip\22.single_touch_with_metal_chopstick_short_horflip_short_600ms.mp4	22.single_touch_with_metal_chopstick_short_horflip_short_600ms.mp4	371.7524696962227	372.3607876635997	0.6083179673769337				
352.2841796875	0.2	721478	286	9	3	0	0	7	59	stimuli\Videos_short_600ms\63.stroke_top_to_bottom_with_screwdriver_short_short_600ms.mp4	63.stroke_top_to_bottom_with_screwdriver_short_short_600ms.mp4	372.552448934588	373.1607660222344	0.6083170876463555				
353.083984375	0.2	723116	287	9	3	0	0	8	273	stimuli\Videos_short_600ms_vertflip\12.repeated_touch_with_nail_file_short_vertflip_short_600ms.mp4	12.repeated_touch_with_nail_file_short_vertflip_short_600ms.mp4	373.3524343310637	373.960742328165	0.6083079971012921				
353.88427734375	0.2	724755	288	9	3	0	0	9	23	stimuli\Videos_short_600ms\30.finger_pulling_back_another_finger_short_short_600ms.mp4	30.finger_pulling_back_another_finger_short_short_600ms.mp4	374.1524106369943	374.76069458813254	0.608283951138219				
354.68408203125	0.2	726393	289	9	3	0	0	10	226	stimuli\Videos_short_600ms_horvertflip\51.repeated_touch_with_hammer_short_horvertflip_short_600ms.mp4	51.repeated_touch_with_hammer_short_horvertflip_short_600ms.mp4	374.95237316048406	375.56069992516314	0.6083267646790773				
355.48388671875	0.2	728031	290	9	3	0	0	11	283	stimuli\Videos_short_600ms_vertflip\21.repeated_touch_with_metal_chopstick_short_vertflip_short_600ms.mp4	21.repeated_touch_with_metal_chopstick_short_vertflip_short_600ms.mp4	375.75236706101896	376.3606815094754	0.60831444845644				
356.2841796875	0.2	729670	291	9	3	0	0	12	125	stimuli\Videos_short_600ms_horflip\41.injection_with_blunt_syringe_short_horflip_short_600ms.mp4	41.injection_with_blunt_syringe_short_horflip_short_600ms.mp4	376.5523471791148	377.16065341675494	0.6083062376401358				
357.083984375	0.2	731308	292	9	3	0	0	13	55	stimuli\Videos_short_600ms\6.single_touch_with_flat_hand_short_short_600ms.mp4	6.single_touch_with_flat_hand_short_short_600ms.mp4	377.3523393201904	377.9606314821449	0.6082921619545232				
357.8837890625	0.2	732946	293	9	3	0	0	14	354	stimuli\Videos_short_600ms_vertflip\86.touch_top_to_bottom_with_hair_brush_short_vertflip_short_600ms.mp4	86.touch_top_to_bottom_with_hair_brush_short_vertflip_short_600ms.mp4	378.1522980315149	378.760615412406	0.6083173808910942				
358.68408203125	0.2	734585	294	9	3	0	0	15	258	stimuli\Videos_short_600ms_horvertflip\80.stroke_with_sharp_stick_all_over_the_hand_short_horvertflip_short_600ms.mp4	80.stroke_with_sharp_stick_all_over_the_hand_short_horvertflip_short_600ms.mp4	378.9522860671823	379.5605659129123	0.6082798457300669				
359.48388671875	0.2	736223	295	9	3	0	0	16	49	stimuli\Videos_short_600ms\54.repeated_touch_with_knife_short_short_600ms.mp4	54.repeated_touch_with_knife_short_short_600ms.mp4	379.75225357580894	380.36056743777954	0.6083138619706006				
360.2841796875	0.2	737862	296	9	3	0	0	17	2	stimuli\Videos_short_600ms\11.single_touch_with_lighter_short_short_600ms.mp4	11.single_touch_with_lighter_short_short_600ms.mp4	380.55223105471305	381.16054872884706	0.6083176741340139				
361.083984375	0.2	739500	297	9	3	0	1	18	367	stimuli\Targets_short_600ms_horflip\chopstick-silver-tap_short_horflip_short_600ms.mp4	chopstick-silver-tap_short_horflip_short_600ms.mp4	381.3522088268619	381.9605291401858	0.6083203133239294				
361.8837890625	0.2	741138	298	9	3	0	0	19	88	stimuli\Videos_short_600ms\9.single_touch_with_hammer_short_short_600ms.mp4	9.single_touch_with_hammer_short_short_600ms.mp4	382.1521877719824	382.7605124839593	0.6083247119768203				
362.68408203125	0.2	742777	299	9	3	0	0	20	211	stimuli\Videos_short_600ms_horvertflip\38.double_slap_with_pencil_short_horvertflip_short_600ms.mp4	38.double_slap_with_pencil_short_horvertflip_short_600ms.mp4	382.9521673035906	383.56048292502055	0.6083156214299379				
363.48388671875	0.2	744415	300	9	3	0	0	21	229	stimuli\Videos_short_600ms_horvertflip\54.repeated_touch_with_knife_short_horvertflip_short_600ms.mp4	54.repeated_touch_with_knife_short_horvertflip_short_600ms.mp4	383.7521444892518	384.360459817437	0.6083153281851992				
364.28369140625	0.2	746053	301	9	3	0	0	22	116	stimuli\Videos_short_600ms_horflip\33.scratch_top_to_bottom_with_scissors_short_horflip_short_600ms.mp4	33.scratch_top_to_bottom_with_scissors_short_horflip_short_600ms.mp4	384.5521207951824	385.1604390558022	0.6083182606198534				
365.083984375	0.2	747692	302	9	3	0	0	23	100	stimuli\Videos_short_600ms_horflip\19.single_touch_with_rolling_pin_short_horflip_short_600ms.mp4	19.single_touch_with_rolling_pin_short_horflip_short_600ms.mp4	385.35210208624994	385.9604159482187	0.6083138619687816				
365.8837890625	0.2	749330	303	9	3	0	0	24	276	stimuli\Videos_short_600ms_vertflip\15.single_stroke_top_to_bottom_with_a_plastic_whisk_short_vertflip_short_600ms.mp4	15.single_stroke_top_to_bottom_with_a_plastic_whisk_short_vertflip_short_600ms.mp4	386.1520766327194	386.7603948933411	0.6083182606216724				
366.68359375	0.2	750968	304	9	3	0	0	25	157	stimuli\Videos_short_600ms_horflip\70.(long)stroke_with_finger_all_over_the_hand_short_horflip_short_600ms.mp4	70.(long)stroke_with_finger_all_over_the_hand_short_horflip_short_600ms.mp4	386.9520564575723	387.5603735452187	0.6083170876463555				
367.48388671875	0.2	752607	305	9	3	0	0	26	156	stimuli\Videos_short_600ms_horflip\7.repeated_touch_with_hairbrush_short_horflip_short_600ms.mp4	7.repeated_touch_with_hairbrush_short_horflip_short_600ms.mp4	387.7520380418846	388.3603510241228	0.6083129822382034				
368.28369140625	0.2	754245	306	9	3	0	0	27	322	stimuli\Videos_short_600ms_vertflip\57.single_touch_with_nail_file_short_vertflip_short_600ms.mp4	57.single_touch_with_nail_file_short_vertflip_short_600ms.mp4	388.55198824914805	389.16033260843506	0.6083443592870026				
369.08349609375	0.2	755883	307	9	3	0	0	28	205	stimuli\Videos_short_600ms_horvertflip\32.single_(long)pinch_with_fingers_short_horvertflip_short_600ms.mp4	32.single_(long)pinch_with_fingers_short_horvertflip_short_600ms.mp4	389.35196660778274	389.96030891436567	0.6083423065829265				
369.8837890625	0.2	757522	308	9	3	0	0	29	342	stimuli\Videos_short_600ms_vertflip\75.(long)stroke_with_fingers_all_over_the_hand_short_vertflip_short_600ms.mp4	75.(long)stroke_with_fingers_all_over_the_hand_short_vertflip_short_600ms.mp4	390.1519854340113	390.76028610002504	0.6083006660137471				
370.68359375	0.2	759160	309	9	3	0	1	30	382	stimuli\Targets_short_600ms_vertflip\hand-pinch_short_horvertflip_short_600ms.mp4	hand-pinch_short_horvertflip_short_600ms.mp4	390.9519544088562	391.5602653383903	0.6083109295341274				
371.4833984375	0.2	760798	310	9	3	0	0	31	118	stimuli\Videos_short_600ms_horflip\35.single_punch_with_hand_short_horflip_short_600ms.mp4	35.single_punch_with_hand_short_horflip_short_600ms.mp4	391.751928368838	392.36022463620066	0.6082962673626753				
372.28369140625	0.2	762437	311	9	3	0	0	32	124	stimuli\Videos_short_600ms_horflip\40.repeated_push_with_finger_short_horflip_short_600ms.mp4	40.repeated_push_with_finger_short_horflip_short_600ms.mp4	392.55191229909906	393.1602208826862	0.6083085835871316				
373.08349609375	0.2	764075	312	9	3	0	0	33	26	stimuli\Videos_short_600ms\33.scratch_top_to_bottom_with_scissors_short_short_600ms.mp4	33.scratch_top_to_bottom_with_scissors_short_short_600ms.mp4	393.35188156718687	393.9601743156272	0.6082927484403626				
373.88330078125	0.2	765713	313	9	3	0	0	34	337	stimuli\Videos_short_600ms_vertflip\70.(long)stroke_with_finger_all_over_the_hand_short_vertflip_short_600ms.mp4	70.(long)stroke_with_finger_all_over_the_hand_short_vertflip_short_600ms.mp4	394.1518731217748	394.76018463779656	0.6083115160217858				
374.69189453125	0.2	767369	314	9	3	0	0	35	356	stimuli\Videos_short_600ms_vertflip\88.repeated_stroke_with_plastic_brush_short_vertflip_short_600ms.mp4	88.repeated_stroke_with_plastic_brush_short_vertflip_short_600ms.mp4	394.9601854588782	395.5684878843531	0.6083024254749034				
375.49169921875	0.2	769007	315	9	3	0	0	36	58	stimuli\Videos_short_600ms\62.touch_top_to_bottom_with_scissors_short_short_600ms.mp4	62.touch_top_to_bottom_with_scissors_short_short_600ms.mp4	395.7601512080455	396.36846829569186	0.6083170876463555				
376.2919921875	0.2	770646	316	9	3	0	0	37	280	stimuli\Videos_short_600ms_vertflip\19.single_touch_with_rolling_pin_short_vertflip_short_600ms.mp4	19.single_touch_with_rolling_pin_short_vertflip_short_600ms.mp4	396.560132499113	397.16844665432654	0.6083141552135203				
377.091796875	0.2	772284	317	9	3	0	0	38	14	stimuli\Videos_short_600ms\22.single_touch_with_metal_chopstick_short_short_600ms.mp4	22.single_touch_with_metal_chopstick_short_short_600ms.mp4	397.36011437667	397.96840536565105	0.6082909889810253				
377.8916015625	0.2	773922	318	9	3	0	0	39	43	stimuli\Videos_short_600ms\49.repeated_slap_with_hand_short_short_600ms.mp4	49.repeated_slap_with_hand_short_short_600ms.mp4	398.1600956677375	398.7684045445694	0.6083088768318703				
378.69189453125	0.2	775561	319	9	3	0	1	40	366	stimuli\Targets_short_600ms_horflip\brush-stroke_short_horflip_short_600ms.mp4	brush-stroke_short_horflip_short_600ms.mp4	398.9600643493395	399.5683829032041	0.6083185538645921				
379.49169921875	0.2	777199	320	9	3	0	0	41	303	stimuli\Videos_short_600ms_vertflip\4.repeated_tap_with_finger_slow_short_vertflip_short_600ms.mp4	4.repeated_tap_with_finger_slow_short_vertflip_short_600ms.mp4	399.760038895809	400.3683595023776	0.6083206065686682				
380.29150390625	0.2	778837	321	9	3	0	0	42	70	stimuli\Videos_short_600ms\73.single_stroke_with_flat_hand_short_short_600ms.mp4	73.single_stroke_with_flat_hand_short_short_600ms.mp4	400.560019013903	401.1683378610105	0.6083188471075118				
381.091796875	0.2	780476	322	9	3	0	0	43	169	stimuli\Videos_short_600ms_horflip\81.single_stroke_top_to_bottom_with_cotton_pad_short_horflip_short_600ms.mp4	81.single_stroke_top_to_bottom_with_cotton_pad_short_horflip_short_600ms.mp4	401.3599973725377	401.9683206182981	0.6083232457604026				
381.8916015625	0.2	782114	323	9	3	0	0	44	232	stimuli\Videos_short_600ms_horvertflip\57.single_touch_with_nail_file_short_horvertflip_short_600ms.mp4	57.single_touch_with_nail_file_short_horvertflip_short_600ms.mp4	402.1599733852254	402.7683051350432	0.6083317498178076				
382.69140625	0.2	783752	324	9	3	0	0	45	170	stimuli\Videos_short_600ms_horflip\82.repeated_touch_with_cotton_bud_short_horflip_short_600ms.mp4	82.repeated_touch_with_cotton_bud_short_horflip_short_600ms.mp4	402.95995379656415	403.5682708842105	0.6083170876463555				
383.49169921875	0.2	785391	325	9	3	0	0	46	129	stimuli\Videos_short_600ms_horflip\45.scratching_with_finger_nails_short_horflip_short_600ms.mp4	45.scratching_with_finger_nails_short_horflip_short_600ms.mp4	403.7599347943888	404.3682627320431	0.6083279376543942				
384.29150390625	0.2	787029	326	9	3	0	0	47	64	stimuli\Videos_short_600ms\68.stroke_top_to_bottom_with_shawl_short_short_600ms.mp4	68.stroke_top_to_bottom_with_shawl_short_short_600ms.mp4	404.5599105138317	405.168229654184	0.6083191403522505				
385.09130859375	0.2	788667	327	9	3	0	0	48	162	stimuli\Videos_short_600ms_horflip\75.(long)stroke_with_fingers_all_over_the_hand_short_horflip_short_600ms.mp4	75.(long)stroke_with_fingers_all_over_the_hand_short_horflip_short_600ms.mp4	405.3598900454399	405.968205080384	0.6083150349440984				
385.8916015625	0.2	790306	328	9	3	0	0	49	320	stimuli\Videos_short_600ms_vertflip\55.touch_top_to_bottom_with_nail_file_short_vertflip_short_600ms.mp4	55.touch_top_to_bottom_with_nail_file_short_vertflip_short_600ms.mp4	406.159867524344	406.768182852531	0.6083153281870182				
386.69140625	0.2	791944	329	9	3	0	0	50	8	stimuli\Videos_short_600ms\17.repeated_touch_with_rolling_pin_short_short_600ms.mp4	17.repeated_touch_with_rolling_pin_short_short_600ms.mp4	406.9598505748745	407.5681617976515	0.6083112227770471				
387.4912109375	0.2	793582	330	9	3	0	0	51	299	stimuli\Videos_short_600ms_vertflip\36.single_slap_with_full_hand_short_vertflip_short_600ms.mp4	36.single_slap_with_full_hand_short_vertflip_short_600ms.mp4	407.75981896323174	408.36814162250266	0.6083226592709252				
388.29150390625	0.2	795221	331	9	3	0	0	52	231	stimuli\Videos_short_600ms_horvertflip\56.repeated_touch_with_nail_file_short_horvertflip_short_600ms.mp4	56.repeated_touch_with_nail_file_short_horvertflip_short_600ms.mp4	408.5598113975502	409.16811998113735	0.6083085835871316				
389.09130859375	0.2	796859	332	9	3	0	0	53	182	stimuli\Videos_short_600ms_horvertflip\11.single_touch_with_lighter_short_horvertflip_short_600ms.mp4	11.single_touch_with_lighter_short_horvertflip_short_600ms.mp4	409.3597777332034	409.9680989262597	0.6083211930563266				
389.89111328125	0.2	798497	333	9	3	0	0	54	189	stimuli\Videos_short_600ms_horvertflip\18.single_stroke_from_top_to_bottom_with_rolling_pin_short_horvertflip_short_600ms.mp4	18.single_stroke_from_top_to_bottom_with_rolling_pin_short_horvertflip_short_600ms.mp4	410.15982588377665	410.76807581867615	0.6082499348995043				
390.69140625	0.2	800136	334	9	3	0	0	55	86	stimuli\Videos_short_600ms\88.repeated_stroke_with_plastic_brush_short_short_600ms.mp4	88.repeated_stroke_with_plastic_brush_short_short_600ms.mp4	410.9597373829074	411.5680571097455	0.60831972683809				
391.4912109375	0.2	801774	335	9	3	0	0	56	57	stimuli\Videos_short_600ms\61.single_hit_with_rolling_pin_short_short_600ms.mp4	61.single_hit_with_rolling_pin_short_short_600ms.mp4	411.7597172077585	412.36802197918223	0.6083047714237182				
392.291015625	0.2	803412	336	9	3	0	0	57	255	stimuli\Videos_short_600ms_horvertflip\78.single_stroke_top_to_bottom_with_soft_brush_short_horvertflip_short_600ms.mp4	78.single_stroke_top_to_bottom_with_soft_brush_short_horvertflip_short_600ms.mp4	412.5596976190973	413.1679894878089	0.6082918687116035				
393.09130859375	0.2	805051	337	9	3	0	0	58	281	stimuli\Videos_short_600ms_vertflip\2.single_touch_with_finger_short_vertflip_short_600ms.mp4	2.single_touch_with_finger_short_vertflip_short_600ms.mp4	413.3596704061056	413.96796168833134	0.608291282225764				
393.89111328125	0.2	806689	338	9	3	0	0	59	221	stimuli\Videos_short_600ms_horvertflip\47.(long)scratching_with_finger_nails_short_horvertflip_short_600ms.mp4	47.(long)scratching_with_finger_nails_short_horvertflip_short_600ms.mp4	414.1596478850097	414.767940046966	0.6082921619563422				
394.69091796875	0.2	808327	339	9	3	0	0	60	251	stimuli\Videos_short_600ms_horvertflip\74.fingers_walking_from_top_to_bottom_short_horvertflip_short_600ms.mp4	74.fingers_walking_from_top_to_bottom_short_horvertflip_short_600ms.mp4	414.95962595040146	415.5679228042518	0.6082968538503337				
395.4912109375	0.2	809966	340	9	3	0	0	61	312	stimuli\Videos_short_600ms_vertflip\48.single_slap_with_hand_short_vertflip_short_600ms.mp4	48.single_slap_with_hand_short_vertflip_short_600ms.mp4	415.759604602279	416.3679260885783	0.6083214862992463				
396.291015625	0.2	811604	341	9	3	0	0	62	288	stimuli\Videos_short_600ms_vertflip\26.single_touch_with_a_blunt_syringe_short_vertflip_short_600ms.mp4	26.single_touch_with_a_blunt_syringe_short_vertflip_short_600ms.mp4	416.5595835473996	417.16790620667234	0.6083226592727442				
397.09130859375	0.2	813243	342	9	3	0	0	63	73	stimuli\Videos_short_600ms\76.tickle_with_fingers_from_top_to_bottom_short_short_600ms.mp4	76.tickle_with_fingers_from_top_to_bottom_short_short_600ms.mp4	417.3596947453116	417.9678910166622	0.6081962713506073				
397.89111328125	0.2	814881	343	9	3	0	0	64	206	stimuli\Videos_short_600ms_horvertflip\33.scratch_top_to_bottom_with_scissors_short_horvertflip_short_600ms.mp4	33.scratch_top_to_bottom_with_scissors_short_horvertflip_short_600ms.mp4	418.1595569795445	418.76785617934183	0.6082991997973295				
398.69091796875	0.2	816519	344	9	3	0	0	65	46	stimuli\Videos_short_600ms\51.repeated_touch_with_hammer_short_short_600ms.mp4	51.repeated_touch_with_hammer_short_short_600ms.mp4	418.9595177435731	419.5678345379765	0.6083167944034358				
399.49951171875	0.2	818175	345	9	3	0	0	66	333	stimuli\Videos_short_600ms_vertflip\67.single_touch_with_sponge_short_vertflip_short_600ms.mp4	67.single_touch_with_sponge_short_vertflip_short_600ms.mp4	419.76784591582145	420.3761418899412	0.6082959741197556				
400.29931640625	0.2	819813	346	9	3	0	0	67	173	stimuli\Videos_short_600ms_horflip\85.touch_top_to_bottom_with_fabric_short_horflip_short_600ms.mp4	85.touch_top_to_bottom_with_fabric_short_horflip_short_600ms.mp4	420.5678072663377	421.17612904587986	0.608321779542166				
401.09912109375	0.2	821451	347	9	3	0	0	68	33	stimuli\Videos_short_600ms\4.repeated_tap_with_finger_slow_short_short_600ms.mp4	4.repeated_tap_with_finger_slow_short_short_600ms.mp4	421.3677935425439	421.97610887073097	0.6083153281870182				
401.8994140625	0.2	823090	348	9	3	0	0	69	192	stimuli\Videos_short_600ms_horvertflip\20.single_touch_with_screwdriver_short_horvertflip_short_600ms.mp4	20.single_touch_with_screwdriver_short_horvertflip_short_600ms.mp4	422.1677848038907	422.7760901617985	0.6083053579077387				
402.69921875	0.2	824728	349	9	3	0	0	70	325	stimuli\Videos_short_600ms_vertflip\6.single_touch_with_flat_hand_short_vertflip_short_600ms.mp4	6.single_touch_with_flat_hand_short_vertflip_short_600ms.mp4	422.967742048997	423.5760538582618	0.6083118092647055				
403.50732421875	0.2	826383	350	9	3	0	0	71	67	stimuli\Videos_short_600ms\70.(long)stroke_with_finger_all_over_the_hand_short_short_600ms.mp4	70.(long)stroke_with_finger_all_over_the_hand_short_short_600ms.mp4	423.77607080773305	424.3843444953509	0.6082736876178387				
404.3076171875	0.2	828022	351	9	3	0	0	72	123	stimuli\Videos_short_600ms_horflip\4.repeated_tap_with_finger_slow_short_horflip_short_600ms.mp4	4.repeated_tap_with_finger_slow_short_horflip_short_600ms.mp4	424.5760433014984	425.18435423103256	0.6083109295341274				
405.107421875	0.2	829660	352	9	3	0	0	73	260	stimuli\Videos_short_600ms_horvertflip\82.repeated_touch_with_cotton_bud_short_horvertflip_short_600ms.mp4	82.repeated_touch_with_cotton_bud_short_horvertflip_short_600ms.mp4	425.37600465201285	425.98432437885094	0.60831972683809				
405.9072265625	0.2	831298	353	9	3	0	0	74	122	stimuli\Videos_short_600ms_horflip\39.single_stab_with_scissors_short_horflip_short_600ms.mp4	39.single_stab_with_scissors_short_horflip_short_600ms.mp4	426.17598330389046	426.7843047901897	0.6083214862992463				
406.70751953125	0.2	832937	354	9	3	0	0	75	16	stimuli\Videos_short_600ms\24.single_stroke_top_to_bottom_with_a_spoon_short_short_600ms.mp4	24.single_stroke_top_to_bottom_with_a_spoon_short_short_600ms.mp4	426.9759634219863	427.58428373531024	0.6083203133239294				
407.50732421875	0.2	834575	355	9	3	0	0	76	92	stimuli\Videos_short_600ms_horflip\11.single_touch_with_lighter_short_horflip_short_600ms.mp4	11.single_touch_with_lighter_short_horflip_short_600ms.mp4	427.7759438333251	428.3842711844918	0.6083273511667358				
408.30712890625	0.2	836213	356	9	3	0	0	77	174	stimuli\Videos_short_600ms_horflip\86.touch_top_to_bottom_with_hair_brush_short_horflip_short_600ms.mp4	86.touch_top_to_bottom_with_hair_brush_short_horflip_short_600ms.mp4	428.5759224852027	429.18424074582254	0.6083182606198534				
409.107421875	0.2	837852	357	9	3	0	0	78	207	stimuli\Videos_short_600ms_horvertflip\34.repeated_punch_with_hand_short_horvertflip_short_600ms.mp4	34.repeated_punch_with_hand_short_horvertflip_short_600ms.mp4	429.3759002573497	429.98421734499607	0.6083170876463555				
409.9072265625	0.2	839490	358	9	3	0	0	79	210	stimuli\Videos_short_600ms_horvertflip\37.single_stab_with_nail_file_short_horvertflip_short_600ms.mp4	37.single_stab_with_nail_file_short_horvertflip_short_600ms.mp4	430.17587920247024	430.78419541038784	0.6083162079175963				
410.70751953125	0.2	841129	359	9	3	0	1	80	377	stimuli\Targets_short_600ms_horvertflip\hand-stroke_short_vertflip_short_600ms.mp4	hand-stroke_short_vertflip_short_600ms.mp4	430.9758560948885	431.5841737690225	0.6083176741340139				
411.50732421875	0.2	842767	360	9	3	0	0	81	225	stimuli\Videos_short_600ms_horvertflip\50.single_(long)hard_push_with_thumb_short_horvertflip_short_600ms.mp4	50.single_(long)hard_push_with_thumb_short_horvertflip_short_600ms.mp4	431.77583416027846	432.38415388711655	0.60831972683809				
412.30712890625	0.2	844405	361	9	3	0	0	82	220	stimuli\Videos_short_600ms_horvertflip\46.scratching_top_to_bottom_with_finger_nails_short_horvertflip_short_600ms.mp4	46.scratching_top_to_bottom_with_finger_nails_short_horvertflip_short_600ms.mp4	432.5766743613731	433.184128433586	0.6074540722129314				
413.107421875	0.2	846044	362	9	3	0	0	83	249	stimuli\Videos_short_600ms_horvertflip\72.(short)stroke_with_finger_all_over_the_hand_short_horvertflip_short_600ms.mp4	72.(short)stroke_with_finger_all_over_the_hand_short_horvertflip_short_600ms.mp4	433.37576653834185	433.98410855168186	0.6083420133400068				
413.9072265625	0.2	847682	363	9	3	0	0	84	228	stimuli\Videos_short_600ms_horvertflip\53.touch_top_to_bottom_with_knife_short_horvertflip_short_600ms.mp4	53.touch_top_to_bottom_with_knife_short_horvertflip_short_600ms.mp4	434.17576806320903	434.7840854440983	0.6083173808892752				
414.70703125	0.2	849320	364	9	3	0	0	85	270	stimuli\Videos_short_600ms_vertflip\1.repeated_touch_with_finger_fast_short_vertflip_short_600ms.mp4	1.repeated_touch_with_finger_fast_short_vertflip_short_600ms.mp4	434.9758698773294	435.584063802733	0.6081939254036115				
415.50732421875	0.2	850959	365	9	3	0	0	86	292	stimuli\Videos_short_600ms_vertflip\3.single_push_with_finger_short_vertflip_short_600ms.mp4	3.single_push_with_finger_short_vertflip_short_600ms.mp4	435.7757241939907	436.3840424546106	0.6083182606198534				
416.30712890625	0.2	852597	366	9	3	0	0	87	234	stimuli\Videos_short_600ms_horvertflip\59.single_push_with_long_side_pencil_short_horvertflip_short_600ms.mp4	59.single_push_with_long_side_pencil_short_horvertflip_short_600ms.mp4	436.5757069512765	437.1840196402718	0.6083126889952837				
417.10693359375	0.2	854235	367	9	3	0	1	88	370	stimuli\Targets_short_600ms_horflip\hand-pinch_short_horflip_short_600ms.mp4	hand-pinch_short_horflip_short_600ms.mp4	437.37568501666647	437.9839783515963	0.6082933349298401				
417.9072265625	0.2	855874	368	9	3	0	0	89	15	stimuli\Videos_short_600ms\23.single_push_with_a_spoon_short_short_600ms.mp4	23.single_push_with_a_spoon_short_short_600ms.mp4	438.1756768644991	438.78395612374334	0.6082792592442274				
418.70703125	0.2	857512	369	9	3	0	0	90	302	stimuli\Videos_short_600ms_vertflip\39.single_stab_with_scissors_short_vertflip_short_600ms.mp4	39.single_stab_with_scissors_short_vertflip_short_600ms.mp4	438.97563968123177	439.5839564756352	0.6083167944034358				
419.5068359375	0.2	859150	370	9	3	0	0	91	233	stimuli\Videos_short_600ms_horvertflip\58.single_slap_with_pencil_short_horvertflip_short_600ms.mp4	58.single_slap_with_pencil_short_horvertflip_short_600ms.mp4	439.7756127614848	440.3839175329067	0.6083047714218992				
420.30712890625	0.2	860789	371	9	3	0	0	92	187	stimuli\Videos_short_600ms_horvertflip\16.repeated_touch_with_plastic_brush_short_horvertflip_short_600ms.mp4	16.repeated_touch_with_plastic_brush_short_horvertflip_short_600ms.mp4	440.57559757147465	441.18390791452293	0.6083103430482879				
421.10693359375	0.2	862427	372	9	3	0	0	93	97	stimuli\Videos_short_600ms_horflip\16.repeated_touch_with_plastic_brush_short_horflip_short_600ms.mp4	16.repeated_touch_with_plastic_brush_short_horflip_short_600ms.mp4	441.3755712382135	441.9838903785658	0.6083191403522505				
421.90673828125	0.2	864065	373	9	3	0	0	94	153	stimuli\Videos_short_600ms_horflip\67.single_touch_with_sponge_short_horflip_short_600ms.mp4	67.single_touch_with_sponge_short_horflip_short_600ms.mp4	442.175545784683	442.78386756422515	0.608321779542166				
422.70703125	0.2	865704	374	9	3	0	0	95	213	stimuli\Videos_short_600ms_horvertflip\4.repeated_tap_with_finger_slow_short_horvertflip_short_600ms.mp4	4.repeated_tap_with_finger_slow_short_horvertflip_short_600ms.mp4	442.9755303014299	443.5838526674597	0.6083223660298245	6.0	6.0	3.824851853416476	1.0
458.5888671875	0.2	939190	375	9	4	1	0	0	9	stimuli\Videos_short_600ms\18.single_stroke_from_top_to_bottom_with_rolling_pin_short_short_600ms.mp4	18.single_stroke_from_top_to_bottom_with_rolling_pin_short_short_600ms.mp4	478.85788250087353	479.46619782905873	0.6083153281851992				
