onset	duration	onsetsample	eventnumber	subjectnr	sequencenumber	blocksequencenumber	istarget	presentationnumber	stimnumber	stim	stimname	time_stimon	time_stimoff	stimdur	cresp	resp	rt	correct
45.205078125	0.2	92580	0	55	0	0	1	0	379	stimuli\Targets_short_600ms_vertflip\chopstick-silver-tap_short_horvertflip_short_600ms.mp4	chopstick-silver-tap_short_horvertflip_short_600ms.mp4	40.004305449375806	40.61224123536658	0.6079357859907759				
46.0048828125	0.2	94218	1	55	0	0	0	1	144	stimuli\Videos_short_600ms_horflip\59.single_push_with_long_side_pencil_short_horflip_short_600ms.mp4	59.single_push_with_long_side_pencil_short_horflip_short_600ms.mp4	40.80379942271429	41.4121498596669	0.6083504369526054				
46.80517578125	0.2	95857	2	55	0	0	1	2	383	stimuli\Targets_short_600ms_vertflip\hand-stroke_short_horvertflip_short_600ms.mp4	hand-stroke_short_horvertflip_short_600ms.mp4	41.60381684157346	42.212143818782806	0.6083269772093445				
47.60498046875	0.2	97495	3	55	0	0	0	3	117	stimuli\Videos_short_600ms_horflip\34.repeated_punch_with_hand_short_horflip_short_600ms.mp4	34.repeated_punch_with_hand_short_horflip_short_600ms.mp4	42.40380229653283	43.012106986986055	0.6083046904532239				
48.40478515625	0.2	99133	4	55	0	0	1	4	365	stimuli\Targets_short_600ms\hand-stroke_short_short_600ms.mp4	hand-stroke_short_short_600ms.mp4	43.20379889487003	43.81211179623324	0.608312901363206				
49.205078125	0.2	100772	5	55	0	0	0	5	108	stimuli\Videos_short_600ms_horflip\26.single_touch_with_a_blunt_syringe_short_horflip_short_600ms.mp4	26.single_touch_with_a_blunt_syringe_short_horflip_short_600ms.mp4	44.0037784848937	44.61207994963206	0.6083014647383607				
50.0048828125	0.2	102410	6	55	0	0	0	6	316	stimuli\Videos_short_600ms_vertflip\51.repeated_touch_with_hammer_short_vertflip_short_600ms.mp4	51.repeated_touch_with_hammer_short_vertflip_short_600ms.mp4	44.80376423309963	45.41208505212626	0.6083208190266305				
50.80517578125	0.2	104049	7	55	0	0	0	7	351	stimuli\Videos_short_600ms_vertflip\83.single_stroke_top_to_bottom_with_cotton_bud_short_vertflip_short_600ms.mp4	83.single_stroke_top_to_bottom_with_cotton_bud_short_vertflip_short_600ms.mp4	45.603751740786265	46.21207168007231	0.6083199392860479				
51.60498046875	0.2	105687	8	55	0	0	0	8	299	stimuli\Videos_short_600ms_vertflip\36.single_slap_with_full_hand_short_vertflip_short_600ms.mp4	36.single_slap_with_full_hand_short_vertflip_short_600ms.mp4	46.403740714707055	47.01207531633281	0.6083346016257565				
52.40478515625	0.2	107325	9	55	0	0	0	9	65	stimuli\Videos_short_600ms\69.stroke_with_soft_sock_short_short_600ms.mp4	69.stroke_with_soft_sock_short_short_600ms.mp4	47.2037299818744	47.812061357785296	0.6083313759108933				
53.205078125	0.2	108964	10	55	0	0	0	10	286	stimuli\Videos_short_600ms_vertflip\24.single_stroke_top_to_bottom_with_a_spoon_short_vertflip_short_600ms.mp4	24.single_stroke_top_to_bottom_with_a_spoon_short_vertflip_short_600ms.mp4	48.00371660982091	48.612042120796104	0.6083255109751917				
54.0048828125	0.2	110602	11	55	0	0	1	11	370	stimuli\Targets_short_600ms_horflip\hand-pinch_short_horflip_short_600ms.mp4	hand-pinch_short_horflip_short_600ms.mp4	48.80370382426054	49.41202728250846	0.6083234582479236				
54.8046875	0.2	112240	12	55	0	0	0	12	334	stimuli\Videos_short_600ms_vertflip\68.stroke_top_to_bottom_with_shawl_short_vertflip_short_600ms.mp4	68.stroke_top_to_bottom_with_shawl_short_vertflip_short_600ms.mp4	49.60369162519419	50.212013323960946	0.6083216987667583				
55.60498046875	0.2	113879	13	55	0	0	0	13	118	stimuli\Videos_short_600ms_horflip\35.single_punch_with_hand_short_horflip_short_600ms.mp4	35.single_punch_with_hand_short_horflip_short_600ms.mp4	50.403680305867965	51.01200376411589	0.6083234582479236				
56.40478515625	0.2	115517	14	55	0	0	0	14	150	stimuli\Videos_short_600ms_horflip\64.repeated_touch_with_screwdriver_short_horflip_short_600ms.mp4	64.repeated_touch_with_screwdriver_short_horflip_short_600ms.mp4	51.203667520308045	51.81199068530896	0.6083231650009111				
57.20458984375	0.2	117155	15	55	0	0	0	15	314	stimuli\Videos_short_600ms_vertflip\5.repeated_tap_with_finger_moving_from_top_to_bottom_short_vertflip_short_600ms.mp4	5.repeated_tap_with_finger_moving_from_top_to_bottom_short_vertflip_short_600ms.mp4	52.00365737396896	52.61197760650202	0.6083202325330603				
58.0048828125	0.2	118794	16	55	0	0	0	16	332	stimuli\Videos_short_600ms_vertflip\66.stroke_top_to_bottom_with_sponge_short_vertflip_short_600ms.mp4	66.stroke_top_to_bottom_with_sponge_short_vertflip_short_600ms.mp4	52.80364077620061	53.41196570068223	0.6083249244816216				
58.8046875	0.2	120432	17	55	0	0	0	17	24	stimuli\Videos_short_600ms\31.hand_grabbing_wrist_short_short_600ms.mp4	31.hand_grabbing_wrist_short_short_600ms.mp4	53.60361420804156	54.21195936655158	0.6083451585100192				
59.6044921875	0.2	122070	18	55	0	0	0	18	112	stimuli\Videos_short_600ms_horflip\3.single_push_with_finger_short_horflip_short_600ms.mp4	3.single_push_with_finger_short_horflip_short_600ms.mp4	54.4036146185872	55.01194159579609	0.6083269772088897				
60.40478515625	0.2	123709	19	55	0	0	0	19	137	stimuli\Videos_short_600ms_horflip\52.touch_top_to_bottom_with_hammer_short_horflip_short_600ms.mp4	52.touch_top_to_bottom_with_hammer_short_horflip_short_600ms.mp4	55.20360857770311	55.81193056971688	0.6083219920137708				
61.20458984375	0.2	125347	20	55	0	0	0	20	41	stimuli\Videos_short_600ms\47.(long)scratching_with_finger_nails_short_short_600ms.mp4	47.(long)scratching_with_finger_nails_short_short_600ms.mp4	56.003570572919216	56.61191807740352	0.6083475044842999				
62.00439453125	0.2	126985	21	55	0	0	0	21	143	stimuli\Videos_short_600ms_horflip\58.single_slap_with_pencil_short_horflip_short_600ms.mp4	58.single_slap_with_pencil_short_horflip_short_600ms.mp4	56.80358887151897	57.41190558509015	0.6083167135711847				
62.8046875	0.2	128624	22	55	0	0	0	22	128	stimuli\Videos_short_600ms_horflip\44.pushing_top_to_bottom_with_finger_short_horflip_short_600ms.mp4	44.pushing_top_to_bottom_with_finger_short_horflip_short_600ms.mp4	57.60358019141404	58.21187051277411	0.608290321360073				
63.6044921875	0.2	130262	23	55	0	0	0	23	344	stimuli\Videos_short_600ms_vertflip\77.tapping_with_all_fingers_short_vertflip_short_600ms.mp4	77.tapping_with_all_fingers_short_vertflip_short_600ms.mp4	58.40354805156585	59.01185743396718	0.6083093824013304				
64.404296875	0.2	131900	24	55	0	0	0	24	234	stimuli\Videos_short_600ms_horvertflip\59.single_push_with_long_side_pencil_short_horvertflip_short_600ms.mp4	59.single_push_with_long_side_pencil_short_horvertflip_short_600ms.mp4	59.20354699587733	59.8118704541248	0.6083234582474688				
65.20458984375	0.2	133539	25	55	0	0	0	25	125	stimuli\Videos_short_600ms_horflip\41.injection_with_blunt_syringe_short_horflip_short_600ms.mp4	41.injection_with_blunt_syringe_short_horflip_short_600ms.mp4	60.003542421227394	60.61183303583448	0.6082906146070854				
66.00439453125	0.2	135177	26	55	0	0	0	26	318	stimuli\Videos_short_600ms_vertflip\53.touch_top_to_bottom_with_knife_short_vertflip_short_600ms.mp4	53.touch_top_to_bottom_with_knife_short_vertflip_short_600ms.mp4	60.80352201125061	61.41184400326438	0.6083219920137708				
66.80419921875	0.2	136815	27	55	0	0	0	27	107	stimuli\Videos_short_600ms_horflip\25.single_touch_with_stanley_knife_short_horflip_short_600ms.mp4	25.single_touch_with_stanley_knife_short_horflip_short_600ms.mp4	61.603510691924384	62.21184353406943	0.608332842145046				
67.6044921875	0.2	138454	28	55	0	0	0	28	148	stimuli\Videos_short_600ms_horflip\62.touch_top_to_bottom_with_scissors_short_horflip_short_600ms.mp4	62.touch_top_to_bottom_with_scissors_short_horflip_short_600ms.mp4	62.40350113207933	63.011823417339656	0.6083222852603285				
68.404296875	0.2	140092	29	55	0	0	0	29	136	stimuli\Videos_short_600ms_horflip\51.repeated_touch_with_hammer_short_horflip_short_600ms.mp4	51.repeated_touch_with_hammer_short_horflip_short_600ms.mp4	63.203487466778824	63.81181766970258	0.608330202923753				
69.2041015625	0.2	141730	30	55	0	0	0	30	18	stimuli\Videos_short_600ms\26.single_touch_with_a_blunt_syringe_short_short_600ms.mp4	26.single_touch_with_a_blunt_syringe_short_short_600ms.mp4	64.0034746812189	64.61179608673865	0.6083214055197459				
70.00439453125	0.2	143369	31	55	0	0	0	31	96	stimuli\Videos_short_600ms_horflip\15.single_stroke_top_to_bottom_with_a_plastic_whisk_short_horflip_short_600ms.mp4	15.single_stroke_top_to_bottom_with_a_plastic_whisk_short_horflip_short_600ms.mp4	64.80346365513924	65.41178594040002	0.6083222852607832				
70.80419921875	0.2	145007	32	55	0	0	0	32	184	stimuli\Videos_short_600ms_horvertflip\13.single_touch_with_pen_short_horvertflip_short_600ms.mp4	13.single_touch_with_pen_short_horvertflip_short_600ms.mp4	65.60345116282633	66.21177550081438	0.6083243379880514				
71.6044921875	0.2	146646	33	55	0	0	0	33	99	stimuli\Videos_short_600ms_horflip\18.single_stroke_from_top_to_bottom_with_rolling_pin_short_horflip_short_600ms.mp4	18.single_stroke_from_top_to_bottom_with_rolling_pin_short_horflip_short_600ms.mp4	66.40344013674667	67.01176388824115	0.6083237514944813				
72.404296875	0.2	148284	34	55	0	0	0	34	139	stimuli\Videos_short_600ms_horflip\54.repeated_touch_with_knife_short_horflip_short_600ms.mp4	54.repeated_touch_with_knife_short_horflip_short_600ms.mp4	67.20342793768032	67.81175198242136	0.608324044741039				
73.2041015625	0.2	149922	35	55	0	0	0	35	238	stimuli\Videos_short_600ms_horvertflip\62.touch_top_to_bottom_with_scissors_short_horvertflip_short_600ms.mp4	62.touch_top_to_bottom_with_scissors_short_horvertflip_short_600ms.mp4	68.00342189679623	68.611739783355	0.6083178865587797				
74.00439453125	0.2	151561	36	55	0	0	1	36	381	stimuli\Targets_short_600ms_vertflip\finger-tap_short_horvertflip_short_600ms.mp4	finger-tap_short_horvertflip_short_600ms.mp4	68.8034091112363	69.41172699779509	0.6083178865587797				
74.80419921875	0.2	153199	37	55	0	0	0	37	354	stimuli\Videos_short_600ms_vertflip\86.touch_top_to_bottom_with_hair_brush_short_vertflip_short_600ms.mp4	86.touch_top_to_bottom_with_hair_brush_short_vertflip_short_600ms.mp4	69.60336670775041	70.21171450548172	0.6083477977313123				
75.60400390625	0.2	154837	38	55	0	0	1	38	373	stimuli\Targets_short_600ms_horvertflip\chopstick-silver-tap_short_vertflip_short_600ms.mp4	chopstick-silver-tap_short_vertflip_short_600ms.mp4	70.40340465388499	71.01170289290894	0.6082982390239522				
76.404296875	0.2	156476	39	55	0	0	0	39	345	stimuli\Videos_short_600ms_vertflip\78.single_stroke_top_to_bottom_with_soft_brush_short_vertflip_short_600ms.mp4	78.single_stroke_top_to_bottom_with_soft_brush_short_vertflip_short_600ms.mp4	71.20334260286427	71.81169274656986	0.6083501437055929				
77.2041015625	0.2	158114	40	55	0	0	0	40	230	stimuli\Videos_short_600ms_horvertflip\55.touch_top_to_bottom_with_nail_file_short_horvertflip_short_600ms.mp4	55.touch_top_to_bottom_with_nail_file_short_horvertflip_short_600ms.mp4	72.00335855548974	72.61168054750351	0.6083219920137708				
78.00390625	0.2	159752	41	55	0	0	0	41	182	stimuli\Videos_short_600ms_horvertflip\11.single_touch_with_lighter_short_horvertflip_short_600ms.mp4	11.single_touch_with_lighter_short_horvertflip_short_600ms.mp4	72.80335192811208	73.41166482947528	0.608312901363206				
78.80419921875	0.2	161391	42	55	0	0	0	42	312	stimuli\Videos_short_600ms_vertflip\48.single_slap_with_hand_short_vertflip_short_600ms.mp4	48.single_slap_with_hand_short_vertflip_short_600ms.mp4	73.6033403155393	74.21163767482267	0.6082973592833696				
79.60400390625	0.2	163029	43	55	0	0	0	43	43	stimuli\Videos_short_600ms\49.repeated_slap_with_hand_short_short_600ms.mp4	49.repeated_slap_with_hand_short_short_600ms.mp4	74.4033207853031	75.01164453679758	0.6083237514944813				
80.40380859375	0.2	164667	44	55	0	0	0	44	70	stimuli\Videos_short_600ms\73.single_stroke_with_flat_hand_short_short_600ms.mp4	73.single_stroke_with_flat_hand_short_short_600ms.mp4	75.203319143121	75.81162852552279	0.6083093824017851				
81.2041015625	0.2	166306	45	55	0	0	0	45	74	stimuli\Videos_short_600ms\77.tapping_with_all_fingers_short_short_600ms.mp4	77.tapping_with_all_fingers_short_short_600ms.mp4	76.00329462768923	76.61159579918103	0.608301171491803				
82.00390625	0.2	167944	46	55	0	0	0	46	13	stimuli\Videos_short_600ms\21.repeated_touch_with_metal_chopstick_short_short_600ms.mp4	21.repeated_touch_with_metal_chopstick_short_short_600ms.mp4	76.80329151927344	77.41161556401494	0.6083240447414937				
82.8037109375	0.2	169582	47	55	0	0	0	47	155	stimuli\Videos_short_600ms_horflip\69.stroke_with_soft_sock_short_horflip_short_600ms.mp4	69.stroke_with_soft_sock_short_horflip_short_600ms.mp4	77.60327316202438	78.21159574053172	0.608322578507341				
83.60400390625	0.2	171221	48	55	0	0	0	48	165	stimuli\Videos_short_600ms_horflip\78.single_stroke_top_to_bottom_with_soft_brush_short_horflip_short_600ms.mp4	78.single_stroke_top_to_bottom_with_soft_brush_short_horflip_short_600ms.mp4	78.40326418867244	79.01159791055807	0.6083337218856286				
84.40380859375	0.2	172859	49	55	0	0	0	49	288	stimuli\Videos_short_600ms_vertflip\26.single_touch_with_a_blunt_syringe_short_vertflip_short_600ms.mp4	26.single_touch_with_a_blunt_syringe_short_vertflip_short_600ms.mp4	79.20325198960609	79.81157368837285	0.6083216987667583				
85.20361328125	0.2	174497	50	55	0	0	0	50	339	stimuli\Videos_short_600ms_vertflip\72.(short)stroke_with_finger_all_over_the_hand_short_vertflip_short_600ms.mp4	72.(short)stroke_with_finger_all_over_the_hand_short_vertflip_short_600ms.mp4	80.00323949729272	80.61156207580007	0.608322578507341				
86.00390625	0.2	176136	51	55	0	0	0	51	40	stimuli\Videos_short_600ms\46.scratching_top_to_bottom_with_finger_nails_short_short_600ms.mp4	46.scratching_top_to_bottom_with_finger_nails_short_short_600ms.mp4	80.80322876446053	81.4115495834867	0.6083208190261757				
86.8037109375	0.2	177774	52	55	0	0	0	52	79	stimuli\Videos_short_600ms\81.single_stroke_top_to_bottom_with_cotton_pad_short_short_600ms.mp4	81.single_stroke_top_to_bottom_with_cotton_pad_short_short_600ms.mp4	81.60321363292587	82.21153679792678	0.6083231650009111				
87.603515625	0.2	179412	53	55	0	0	0	53	60	stimuli\Videos_short_600ms\64.repeated_touch_with_screwdriver_short_short_600ms.mp4	64.repeated_touch_with_screwdriver_short_short_600ms.mp4	82.4032064190551	83.01152313262628	0.6083167135711847				
88.40380859375	0.2	181051	54	55	0	0	0	54	276	stimuli\Videos_short_600ms_vertflip\15.single_stroke_top_to_bottom_with_a_plastic_whisk_short_vertflip_short_600ms.mp4	15.single_stroke_top_to_bottom_with_a_plastic_whisk_short_vertflip_short_600ms.mp4	83.20322119869297	83.81151064031292	0.6082894416199451				
89.20361328125	0.2	182689	55	55	0	0	0	55	28	stimuli\Videos_short_600ms\35.single_punch_with_hand_short_short_600ms.mp4	35.single_punch_with_hand_short_short_600ms.mp4	84.00317117079067	84.61150049397429	0.6083293231836251				
90.00341796875	0.2	184327	56	55	0	0	0	56	347	stimuli\Videos_short_600ms_vertflip\8.single_touch_with_hairbrush_short_vertflip_short_600ms.mp4	8.single_touch_with_hairbrush_short_vertflip_short_600ms.mp4	84.80314284315091	85.41149005438865	0.6083472112377422				
90.8037109375	0.2	185966	57	55	0	0	0	57	320	stimuli\Videos_short_600ms_vertflip\55.touch_top_to_bottom_with_nail_file_short_vertflip_short_600ms.mp4	55.touch_top_to_bottom_with_nail_file_short_vertflip_short_600ms.mp4	85.60315703629522	86.21147550934757	0.6083184730523499				
91.603515625	0.2	187604	58	55	0	0	0	58	297	stimuli\Videos_short_600ms_vertflip\34.repeated_punch_with_hand_short_vertflip_short_600ms.mp4	34.repeated_punch_with_hand_short_vertflip_short_600ms.mp4	86.4031383857996	87.01146829547679	0.6083299096771952				
92.40380859375	0.2	189243	59	55	0	0	0	59	27	stimuli\Videos_short_600ms\34.repeated_punch_with_hand_short_short_600ms.mp4	34.repeated_punch_with_hand_short_short_600ms.mp4	87.2031323449155	87.81145316394213	0.6083208190266305				
93.20361328125	0.2	190881	60	55	0	0	0	60	305	stimuli\Videos_short_600ms_vertflip\41.injection_with_blunt_syringe_short_vertflip_short_600ms.mp4	41.injection_with_blunt_syringe_short_vertflip_short_600ms.mp4	88.00312131883629	88.61142043760037	0.60829911876408				
94.00341796875	0.2	192519	61	55	0	0	0	61	190	stimuli\Videos_short_600ms_horvertflip\19.single_touch_with_rolling_pin_short_horvertflip_short_600ms.mp4	19.single_touch_with_rolling_pin_short_horvertflip_short_600ms.mp4	88.80311058600364	89.41142993879657	0.6083193527929325				
94.8037109375	0.2	194158	62	55	0	0	0	62	340	stimuli\Videos_short_600ms_vertflip\73.single_stroke_with_flat_hand_short_vertflip_short_600ms.mp4	73.single_stroke_with_flat_hand_short_vertflip_short_600ms.mp4	89.60309398823529	90.21141363427478	0.6083196460394902				
95.603515625	0.2	195796	63	55	0	0	1	63	382	stimuli\Targets_short_600ms_vertflip\hand-pinch_short_horvertflip_short_600ms.mp4	hand-pinch_short_horvertflip_short_600ms.mp4	90.40309381228737	91.01138941209	0.6082955998026591				
96.4033203125	0.2	197434	64	55	0	0	0	64	156	stimuli\Videos_short_600ms_horflip\7.repeated_touch_with_hairbrush_short_horflip_short_600ms.mp4	7.repeated_touch_with_hairbrush_short_horflip_short_600ms.mp4	91.20306988334914	91.81140565796204	0.6083357746128968				
97.20361328125	0.2	199073	65	55	0	0	0	65	270	stimuli\Videos_short_600ms_vertflip\1.repeated_touch_with_finger_fast_short_vertflip_short_600ms.mp4	1.repeated_touch_with_finger_fast_short_vertflip_short_600ms.mp4	92.00305915051696	92.61139316564912	0.6083340151321863				
98.00341796875	0.2	200711	66	55	0	0	0	66	35	stimuli\Videos_short_600ms\41.injection_with_blunt_syringe_short_short_600ms.mp4	41.injection_with_blunt_syringe_short_short_600ms.mp4	92.80304460547586	93.41137392865949	0.6083293231836251				
98.80322265625	0.2	202349	67	55	0	0	0	67	330	stimuli\Videos_short_600ms_vertflip\64.repeated_touch_with_screwdriver_short_vertflip_short_600ms.mp4	64.repeated_touch_with_screwdriver_short_vertflip_short_600ms.mp4	93.6030350456308	94.21136583504811	0.6083307894173231				
99.603515625	0.2	203988	68	55	0	0	0	68	228	stimuli\Videos_short_600ms_horvertflip\53.touch_top_to_bottom_with_knife_short_horvertflip_short_600ms.mp4	53.touch_top_to_bottom_with_knife_short_horvertflip_short_600ms.mp4	94.40302255331744	95.01134601156492	0.6083234582474688				
100.4033203125	0.2	205626	69	55	0	0	0	69	83	stimuli\Videos_short_600ms\85.touch_top_to_bottom_with_fabric_short_short_600ms.mp4	85.touch_top_to_bottom_with_fabric_short_short_600ms.mp4	95.20300859476993	95.81134700860412	0.6083384138341899				
101.203125	0.2	207264	70	55	0	0	0	70	55	stimuli\Videos_short_600ms\6.single_touch_with_flat_hand_short_short_600ms.mp4	6.single_touch_with_flat_hand_short_short_600ms.mp4	96.00300167414572	96.61132278641936	0.6083211122736429				
102.00341796875	0.2	208903	71	55	0	0	0	71	223	stimuli\Videos_short_600ms_horvertflip\49.repeated_slap_with_hand_short_horvertflip_short_600ms.mp4	49.repeated_slap_with_hand_short_horvertflip_short_600ms.mp4	96.80300472391264	97.41130853462528	0.6083038107126413				
102.80322265625	0.2	210541	72	55	0	0	0	72	233	stimuli\Videos_short_600ms_horvertflip\58.single_slap_with_pencil_short_horvertflip_short_600ms.mp4	58.single_slap_with_pencil_short_horvertflip_short_600ms.mp4	97.6029737570516	98.21130132075405	0.6083275637024599				
103.60302734375	0.2	212179	73	55	0	0	1	73	376	stimuli\Targets_short_600ms_horvertflip\hand-pinch_short_vertflip_short_600ms.mp4	hand-pinch_short_vertflip_short_600ms.mp4	98.40296302421892	99.0112864824664	0.6083234582474688				
104.4033203125	0.2	213818	74	55	0	0	0	74	7	stimuli\Videos_short_600ms\16.repeated_touch_with_plastic_brush_short_short_600ms.mp4	16.repeated_touch_with_plastic_brush_short_short_600ms.mp4	99.20295669008829	99.81127428340004	0.6083175933117673				
105.203125	0.2	215456	75	55	0	0	0	75	215	stimuli\Videos_short_600ms_horvertflip\41.injection_with_blunt_syringe_short_horvertflip_short_600ms.mp4	41.injection_with_blunt_syringe_short_horvertflip_short_600ms.mp4	100.0029380395922	100.61126091134656	0.6083228717543534				
106.0029296875	0.2	217094	76	55	0	0	0	76	46	stimuli\Videos_short_600ms\51.repeated_touch_with_hammer_short_short_600ms.mp4	51.repeated_touch_with_hammer_short_short_600ms.mp4	100.80290795247174	101.41125135150104	0.6083433990293088				
106.80322265625	0.2	218733	77	55	0	0	0	77	158	stimuli\Videos_short_600ms_horflip\71.single_stroke_with_finger_top_to_bottom_short_horflip_short_600ms.mp4	71.single_stroke_with_finger_top_to_bottom_short_horflip_short_600ms.mp4	101.60290220483466	102.21123856594112	0.6083363611064669				
107.60302734375	0.2	220371	78	55	0	0	0	78	205	stimuli\Videos_short_600ms_horvertflip\32.single_(long)pinch_with_fingers_short_horvertflip_short_600ms.mp4	32.single_(long)pinch_with_fingers_short_horvertflip_short_600ms.mp4	102.402904374861	103.01122841960203	0.608324044741039				
108.40283203125	0.2	222009	79	55	0	0	0	79	178	stimuli\Videos_short_600ms_horflip\9.single_touch_with_hammer_short_horflip_short_600ms.mp4	9.single_touch_with_hammer_short_horflip_short_600ms.mp4	103.20289569475608	103.81119012157114	0.6082944268150641				
109.203125	0.2	223648	80	55	0	0	0	80	51	stimuli\Videos_short_600ms\56.repeated_touch_with_nail_file_short_short_600ms.mp4	56.repeated_touch_with_nail_file_short_short_600ms.mp4	104.00288613491055	104.61118701315536	0.6083008782447905				
110.0029296875	0.2	225286	81	55	0	0	0	81	75	stimuli\Videos_short_600ms\78.single_stroke_top_to_bottom_with_soft_brush_short_short_600ms.mp4	78.single_stroke_top_to_bottom_with_soft_brush_short_short_600ms.mp4	104.80284226519052	105.41119387513028	0.6083516099397457				
110.80322265625	0.2	226925	82	55	0	0	0	82	94	stimuli\Videos_short_600ms_horflip\13.single_touch_with_pen_short_horflip_short_600ms.mp4	13.single_touch_with_pen_short_horflip_short_600ms.mp4	105.6028567515823	106.21115381761864	0.6082970660363571				
111.60302734375	0.2	228563	83	55	0	0	0	83	310	stimuli\Videos_short_600ms_vertflip\46.scratching_top_to_bottom_with_finger_nails_short_vertflip_short_600ms.mp4	46.scratching_top_to_bottom_with_finger_nails_short_vertflip_short_600ms.mp4	106.40284337952836	107.01116507829556	0.6083216987672131				
112.40283203125	0.2	230201	84	55	0	0	0	84	302	stimuli\Videos_short_600ms_vertflip\39.single_stab_with_scissors_short_vertflip_short_600ms.mp4	39.single_stab_with_scissors_short_vertflip_short_600ms.mp4	107.20283000747486	107.81113616416178	0.6083061566869219				
113.203125	0.2	231840	85	55	0	0	0	85	193	stimuli\Videos_short_600ms_horvertflip\21.repeated_touch_with_metal_chopstick_short_horvertflip_short_600ms.mp4	21.repeated_touch_with_metal_chopstick_short_horvertflip_short_600ms.mp4	108.00282132736992	108.61115006405952	0.6083287366896002				
114.0029296875	0.2	233478	86	55	0	0	0	86	294	stimuli\Videos_short_600ms_vertflip\31.hand_grabbing_wrist_short_vertflip_short_600ms.mp4	31.hand_grabbing_wrist_short_vertflip_short_600ms.mp4	108.80280942155014	109.4111416772016	0.6083322556514759				
114.802734375	0.2	235116	87	55	0	0	0	87	151	stimuli\Videos_short_600ms_horflip\65.stroke_top_to_bottom_with_stanley_knife_short_horflip_short_600ms.mp4	65.stroke_top_to_bottom_with_stanley_knife_short_horflip_short_600ms.mp4	109.6027963427432	110.21112009423769	0.6083237514944813				
115.60302734375	0.2	236755	88	55	0	0	1	88	363	stimuli\Targets_short_600ms\finger-tap_short_short_600ms.mp4	finger-tap_short_short_600ms.mp4	110.40280115199084	111.0111084816649	0.6083073296740622				
116.40283203125	0.2	238393	89	55	0	0	0	89	221	stimuli\Videos_short_600ms_horvertflip\47.(long)scratching_with_finger_nails_short_horvertflip_short_600ms.mp4	47.(long)scratching_with_finger_nails_short_horvertflip_short_600ms.mp4	111.2027792757799	111.8110974555857	0.6083181798057922				
117.20263671875	0.2	240031	90	55	0	0	0	90	192	stimuli\Videos_short_600ms_horvertflip\20.single_touch_with_screwdriver_short_horvertflip_short_600ms.mp4	20.single_touch_with_screwdriver_short_horvertflip_short_600ms.mp4	112.002762384765	112.61108408353176	0.6083216987667583				
118.0029296875	0.2	241670	91	55	0	0	0	91	271	stimuli\Videos_short_600ms_vertflip\10.single_touch_with_knife_short_vertflip_short_600ms.mp4	10.single_touch_with_knife_short_vertflip_short_600ms.mp4	112.80274871946447	113.4110745236867	0.6083258042222042				
118.802734375	0.2	243308	92	55	0	0	0	92	289	stimuli\Videos_short_600ms_vertflip\27.single_push_with_a_plastic_whisk_short_vertflip_short_600ms.mp4	27.single_push_with_a_plastic_whisk_short_vertflip_short_600ms.mp4	113.60273769338528	114.21106232461987	0.6083246312346091				
119.6025390625	0.2	244946	93	55	0	0	0	93	206	stimuli\Videos_short_600ms_horvertflip\33.scratch_top_to_bottom_with_scissors_short_horvertflip_short_600ms.mp4	33.scratch_top_to_bottom_with_scissors_short_horvertflip_short_600ms.mp4	114.40273106600762	115.01105012555354	0.60831905954592				
120.40283203125	0.2	246585	94	55	0	0	0	94	177	stimuli\Videos_short_600ms_horflip\89.single_touch_with_plastic_brush_short_horflip_short_600ms.mp4	89.single_touch_with_plastic_brush_short_horflip_short_600ms.mp4	115.2027115357714	115.8110370467466	0.6083255109751917				
121.20263671875	0.2	248223	95	55	0	0	0	95	164	stimuli\Videos_short_600ms_horflip\77.tapping_with_all_fingers_short_horflip_short_600ms.mp4	77.tapping_with_all_fingers_short_horflip_short_600ms.mp4	116.00268526085893	116.6110260206674	0.6083407598084705				
122.00244140625	0.2	249861	96	55	0	0	0	96	114	stimuli\Videos_short_600ms_horflip\31.hand_grabbing_wrist_short_horflip_short_600ms.mp4	31.hand_grabbing_wrist_short_horflip_short_600ms.mp4	116.8026927093274	117.41101763380902	0.6083249244816216				
122.802734375	0.2	251500	97	55	0	0	0	97	64	stimuli\Videos_short_600ms\68.stroke_top_to_bottom_with_shawl_short_short_600ms.mp4	68.stroke_top_to_bottom_with_shawl_short_short_600ms.mp4	117.60265441129695	118.21100250227482	0.60834809097787				
123.6025390625	0.2	253138	98	55	0	0	0	98	341	stimuli\Videos_short_600ms_vertflip\74.fingers_walking_from_top_to_bottom_short_vertflip_short_600ms.mp4	74.fingers_walking_from_top_to_bottom_short_vertflip_short_600ms.mp4	118.4026697774284	119.0109911829486	0.6083214055202006	9.0	9.0	1.8825696160547525	1.0
156.943359375	0.2	321420	99	55	1	0	0	0	301	stimuli\Videos_short_600ms_vertflip\38.double_slap_with_pencil_short_vertflip_short_600ms.mp4	38.double_slap_with_pencil_short_vertflip_short_600ms.mp4	151.74384570292295	152.35217502610612	0.6083293231831703				
157.7431640625	0.2	323058	100	55	1	0	0	1	249	stimuli\Videos_short_600ms_horvertflip\72.(short)stroke_with_finger_all_over_the_hand_short_horvertflip_short_600ms.mp4	72.(short)stroke_with_finger_all_over_the_hand_short_horvertflip_short_600ms.mp4	152.5438291051546	153.1521563756105	0.6083272704559022				
158.54296875	0.2	324696	101	55	1	0	0	2	222	stimuli\Videos_short_600ms_horvertflip\48.single_slap_with_hand_short_horvertflip_short_600ms.mp4	48.single_slap_with_hand_short_horvertflip_short_600ms.mp4	153.34381895881552	153.95214271031	0.6083237514944813				
159.34326171875	0.2	326335	102	55	1	0	0	3	307	stimuli\Videos_short_600ms_vertflip\43.touch_top_to_bottom_with_sharp_wooden_stick_short_vertflip_short_600ms.mp4	43.touch_top_to_bottom_with_sharp_wooden_stick_short_vertflip_short_600ms.mp4	154.14380529351502	154.75213197747735	0.608326683962332				
160.14306640625	0.2	327973	103	55	1	0	0	4	235	stimuli\Videos_short_600ms_horvertflip\6.single_touch_with_flat_hand_short_horvertflip_short_600ms.mp4	6.single_touch_with_flat_hand_short_horvertflip_short_600ms.mp4	154.94379338769522	155.5521215378917	0.6083281501964848				
160.94287109375	0.2	329611	104	55	1	0	0	5	188	stimuli\Videos_short_600ms_horvertflip\17.repeated_touch_with_rolling_pin_short_horvertflip_short_600ms.mp4	17.repeated_touch_with_rolling_pin_short_horvertflip_short_600ms.mp4	155.74378412109672	156.35210728609763	0.6083231650009111				
161.7431640625	0.2	331250	105	55	1	0	0	6	63	stimuli\Videos_short_600ms\67.single_touch_with_sponge_short_short_600ms.mp4	67.single_touch_with_sponge_short_short_600ms.mp4	156.54377162878336	157.15209479378427	0.6083231650009111				
162.54296875	0.2	332888	106	55	1	0	0	7	225	stimuli\Videos_short_600ms_horvertflip\50.single_(long)hard_push_with_thumb_short_horvertflip_short_600ms.mp4	50.single_(long)hard_push_with_thumb_short_horvertflip_short_600ms.mp4	157.34373362399947	157.9520831812115	0.6083495572120228				
163.3427734375	0.2	334526	107	55	1	0	1	8	361	stimuli\Targets_short_600ms\chopstick-silver-tap_short_short_600ms.mp4	chopstick-silver-tap_short_short_600ms.mp4	158.1437915109159	158.75207098214514	0.6082794712292525				
164.14306640625	0.2	336165	108	55	1	0	0	9	76	stimuli\Videos_short_600ms\79.long_with_soft_brush_all_over_the_hand_short_short_600ms.mp4	79.long_with_soft_brush_all_over_the_hand_short_short_600ms.mp4	158.94373092612886	159.55205995606593	0.6083290299370674				
164.94287109375	0.2	337803	109	55	1	0	0	10	124	stimuli\Videos_short_600ms_horflip\40.repeated_push_with_finger_short_horflip_short_600ms.mp4	40.repeated_push_with_finger_short_horflip_short_600ms.mp4	159.74373045693437	160.352055381416	0.6083249244816216				
165.74267578125	0.2	339441	110	55	1	0	0	11	132	stimuli\Videos_short_600ms_horflip\48.single_slap_with_hand_short_horflip_short_600ms.mp4	48.single_slap_with_hand_short_horflip_short_600ms.mp4	160.5437100469576	161.15201649689152	0.6083064499339343				
166.54296875	0.2	341080	111	55	1	0	0	12	129	stimuli\Videos_short_600ms_horflip\45.scratching_with_finger_nails_short_horflip_short_600ms.mp4	45.scratching_with_finger_nails_short_horflip_short_600ms.mp4	161.3437066452948	161.9519993126296	0.6082926673348084				
167.3427734375	0.2	342718	112	55	1	0	0	13	2	stimuli\Videos_short_600ms\11.single_touch_with_lighter_short_short_600ms.mp4	11.single_touch_with_lighter_short_short_600ms.mp4	162.14368242311002	162.75199884343465	0.608316420324627				
168.142578125	0.2	344356	113	55	1	0	0	14	111	stimuli\Videos_short_600ms_horflip\29.single_pinch_with_tweezers_short_horflip_short_600ms.mp4	29.single_pinch_with_tweezers_short_horflip_short_600ms.mp4	162.9436728632645	163.55197755371773	0.6083046904532239				
168.94287109375	0.2	345995	114	55	1	0	0	15	328	stimuli\Videos_short_600ms_vertflip\62.touch_top_to_bottom_with_scissors_short_vertflip_short_600ms.mp4	62.touch_top_to_bottom_with_scissors_short_vertflip_short_600ms.mp4	163.74366095744472	164.35199116036893	0.6083302029242077				
169.74267578125	0.2	347633	115	55	1	0	0	16	325	stimuli\Videos_short_600ms_vertflip\6.single_touch_with_flat_hand_short_vertflip_short_600ms.mp4	6.single_touch_with_flat_hand_short_vertflip_short_600ms.mp4	164.5438783706154	165.15198042753627	0.6081020569208704				
170.54248046875	0.2	349271	116	55	1	0	0	17	57	stimuli\Videos_short_600ms\61.single_hit_with_rolling_pin_short_short_600ms.mp4	61.single_hit_with_rolling_pin_short_short_600ms.mp4	165.34363685255855	165.95196969470362	0.608332842145046				
171.3427734375	0.2	350910	117	55	1	0	0	18	203	stimuli\Videos_short_600ms_horvertflip\30.finger_pulling_back_another_finger_short_horvertflip_short_600ms.mp4	30.finger_pulling_back_another_finger_short_horvertflip_short_600ms.mp4	166.14362817245365	166.75196658628784	0.6083384138341899				
172.142578125	0.2	352548	118	55	1	0	0	19	181	stimuli\Videos_short_600ms_horvertflip\10.single_touch_with_knife_short_horvertflip_short_600ms.mp4	10.single_touch_with_knife_short_horvertflip_short_600ms.mp4	166.94361392065957	167.5519414843625	0.6083275637029146				
172.94287109375	0.2	354187	119	55	1	0	0	20	266	stimuli\Videos_short_600ms_horvertflip\88.repeated_stroke_with_plastic_brush_short_horvertflip_short_600ms.mp4	88.repeated_stroke_with_plastic_brush_short_horvertflip_short_600ms.mp4	167.74360612029523	168.3519272325684	0.6083211122731882				
173.74267578125	0.2	355825	120	55	1	0	0	21	226	stimuli\Videos_short_600ms_horvertflip\51.repeated_touch_with_hammer_short_horvertflip_short_600ms.mp4	51.repeated_touch_with_hammer_short_horvertflip_short_600ms.mp4	168.54359597395614	169.1519176727229	0.6083216987667583				
174.54248046875	0.2	357463	121	55	1	0	0	22	287	stimuli\Videos_short_600ms_vertflip\25.single_touch_with_stanley_knife_short_vertflip_short_600ms.mp4	25.single_touch_with_stanley_knife_short_vertflip_short_600ms.mp4	169.34358172216207	169.95190576690356	0.6083240447414937				
175.3427734375	0.2	359102	122	55	1	0	0	23	333	stimuli\Videos_short_600ms_vertflip\67.single_touch_with_sponge_short_vertflip_short_600ms.mp4	67.single_touch_with_sponge_short_vertflip_short_600ms.mp4	170.14356629738086	170.75189239484962	0.6083260974687619				
176.142578125	0.2	360740	123	55	1	0	0	24	62	stimuli\Videos_short_600ms\66.stroke_top_to_bottom_with_sponge_short_short_600ms.mp4	66.stroke_top_to_bottom_with_sponge_short_short_600ms.mp4	170.94358664870833	171.55188254175755	0.6082958930492168				
176.9423828125	0.2	362378	124	55	1	0	0	25	275	stimuli\Videos_short_600ms_vertflip\14.repeated_touch_with_pencil_short_vertflip_short_600ms.mp4	14.repeated_touch_with_pencil_short_vertflip_short_600ms.mp4	171.74352782340202	172.35187151567834	0.6083436922763212				
177.74267578125	0.2	364017	125	55	1	0	0	26	327	stimuli\Videos_short_600ms_vertflip\61.single_hit_with_rolling_pin_short_vertflip_short_600ms.mp4	61.single_hit_with_rolling_pin_short_vertflip_short_600ms.mp4	172.54353497862394	173.1518610760927	0.6083260974687619				
178.54248046875	0.2	365655	126	55	1	0	0	27	106	stimuli\Videos_short_600ms_horflip\24.single_stroke_top_to_bottom_with_a_spoon_short_horflip_short_600ms.mp4	24.single_stroke_top_to_bottom_with_a_spoon_short_horflip_short_600ms.mp4	173.3434972670866	173.95184770403876	0.6083504369521506				
179.34228515625	0.2	367293	127	55	1	0	0	28	169	stimuli\Videos_short_600ms_horflip\81.single_stroke_top_to_bottom_with_cotton_pad_short_horflip_short_600ms.mp4	81.single_stroke_top_to_bottom_with_cotton_pad_short_horflip_short_600ms.mp4	174.14350676828235	174.75183433198526	0.6083275637029146				
180.142578125	0.2	368932	128	55	1	0	1	29	375	stimuli\Targets_short_600ms_horvertflip\finger-tap_short_vertflip_short_600ms.mp4	finger-tap_short_vertflip_short_600ms.mp4	174.94349662194372	175.55182389239965	0.6083272704559022				
180.9423828125	0.2	370570	129	55	1	0	0	30	259	stimuli\Videos_short_600ms_horvertflip\81.single_stroke_top_to_bottom_with_cotton_pad_short_horvertflip_short_600ms.mp4	81.single_stroke_top_to_bottom_with_cotton_pad_short_horvertflip_short_600ms.mp4	175.74348647560464	176.35178823359	0.6083017579853731				
181.7421875	0.2	372208	130	55	1	0	0	31	154	stimuli\Videos_short_600ms_horflip\68.stroke_top_to_bottom_with_shawl_short_horflip_short_600ms.mp4	68.stroke_top_to_bottom_with_shawl_short_horflip_short_600ms.mp4	176.54348336718886	177.15179626855206	0.608312901363206				
182.54248046875	0.2	373847	131	55	1	0	0	32	186	stimuli\Videos_short_600ms_horvertflip\15.single_stroke_top_to_bottom_with_a_plastic_whisk_short_horvertflip_short_600ms.mp4	15.single_stroke_top_to_bottom_with_a_plastic_whisk_short_horvertflip_short_600ms.mp4	177.34346031799078	177.95179110740855	0.6083307894177779				
183.34228515625	0.2	375485	132	55	1	0	0	33	68	stimuli\Videos_short_600ms\71.single_stroke_with_finger_top_to_bottom_short_short_600ms.mp4	71.single_stroke_with_finger_top_to_bottom_short_short_600ms.mp4	178.14346454074484	178.7517745096402	0.6083099688953553				
184.14208984375	0.2	377123	133	55	1	0	0	34	20	stimuli\Videos_short_600ms\28.single_injection_with_sharp_needle_short_short_600ms.mp4	28.single_injection_with_sharp_needle_short_short_600ms.mp4	178.94343621310463	179.55176055109268	0.6083243379880514				
184.9423828125	0.2	378762	134	55	1	0	0	35	282	stimuli\Videos_short_600ms_vertflip\20.single_touch_with_screwdriver_short_vertflip_short_600ms.mp4	20.single_touch_with_screwdriver_short_vertflip_short_600ms.mp4	179.7434234275447	180.35175949540417	0.6083360678594545				
185.7421875	0.2	380400	135	55	1	0	0	36	290	stimuli\Videos_short_600ms_vertflip\28.single_injection_with_sharp_needle_short_vertflip_short_600ms.mp4	28.single_injection_with_sharp_needle_short_vertflip_short_600ms.mp4	180.54341181497193	181.15174084490857	0.6083290299366126				
186.5419921875	0.2	382038	136	55	1	0	0	37	171	stimuli\Videos_short_600ms_horflip\83.single_stroke_top_to_bottom_with_cotton_bud_short_horflip_short_600ms.mp4	83.single_stroke_top_to_bottom_with_cotton_bud_short_horflip_short_600ms.mp4	181.3434022551264	181.95173832298588	0.6083360678594545				
187.34228515625	0.2	383677	137	55	1	0	0	38	263	stimuli\Videos_short_600ms_horvertflip\85.touch_top_to_bottom_with_fabric_short_horvertflip_short_600ms.mp4	85.touch_top_to_bottom_with_fabric_short_horvertflip_short_600ms.mp4	182.14339064255364	182.75171468729468	0.608324044741039				
188.14208984375	0.2	385315	138	55	1	0	0	39	30	stimuli\Videos_short_600ms\37.single_stab_with_nail_file_short_short_600ms.mp4	37.single_stab_with_nail_file_short_short_600ms.mp4	182.94337609751256	183.5517074734239	0.608331375911348				
188.94189453125	0.2	386953	139	55	1	0	0	40	23	stimuli\Videos_short_600ms\30.finger_pulling_back_another_finger_short_short_600ms.mp4	30.finger_pulling_back_another_finger_short_short_600ms.mp4	183.74338823793005	184.35169175539568	0.6083035174656288				
189.7421875	0.2	388592	140	55	1	0	0	41	298	stimuli\Videos_short_600ms_vertflip\35.single_punch_with_hand_short_vertflip_short_600ms.mp4	35.single_punch_with_hand_short_vertflip_short_600ms.mp4	184.5433543386007	185.1516819023036	0.6083275637029146				
190.5419921875	0.2	390230	141	55	1	0	0	42	211	stimuli\Videos_short_600ms_horvertflip\38.double_slap_with_pencil_short_horvertflip_short_600ms.mp4	38.double_slap_with_pencil_short_horvertflip_short_600ms.mp4	185.34334712472992	185.95166940999025	0.6083222852603285				
191.34228515625	0.2	391869	142	55	1	0	0	43	98	stimuli\Videos_short_600ms_horflip\17.repeated_touch_with_rolling_pin_short_horflip_short_600ms.mp4	17.repeated_touch_with_rolling_pin_short_horflip_short_600ms.mp4	186.1433360986507	186.75165691767688	0.6083208190261757				
192.14208984375	0.2	393507	143	55	1	0	0	44	251	stimuli\Videos_short_600ms_horvertflip\74.fingers_walking_from_top_to_bottom_short_horvertflip_short_600ms.mp4	74.fingers_walking_from_top_to_bottom_short_horvertflip_short_600ms.mp4	186.9433013195812	187.55164501185752	0.6083436922763212				
192.94189453125	0.2	395145	144	55	1	0	0	45	50	stimuli\Videos_short_600ms\55.touch_top_to_bottom_with_nail_file_short_short_600ms.mp4	55.touch_top_to_bottom_with_nail_file_short_short_600ms.mp4	187.7432841353193	188.35163105331003	0.6083469179907297				
193.7421875	0.2	396784	145	55	1	0	0	46	185	stimuli\Videos_short_600ms_horvertflip\14.repeated_touch_with_pencil_short_horvertflip_short_600ms.mp4	14.repeated_touch_with_pencil_short_horvertflip_short_600ms.mp4	188.5432833728778	189.1516226664521	0.6083392935743177				
194.5419921875	0.2	398422	146	55	1	0	0	47	303	stimuli\Videos_short_600ms_vertflip\4.repeated_tap_with_finger_slow_short_vertflip_short_600ms.mp4	4.repeated_tap_with_finger_slow_short_vertflip_short_600ms.mp4	189.3432612034203	189.95161076063232	0.6083495572120228				
195.341796875	0.2	400060	147	55	1	0	0	48	34	stimuli\Videos_short_600ms\40.repeated_push_with_finger_short_short_600ms.mp4	40.repeated_push_with_finger_short_short_600ms.mp4	190.14327686279876	190.75159826831896	0.6083214055202006				
196.14208984375	0.2	401699	148	55	1	0	0	49	81	stimuli\Videos_short_600ms\83.single_stroke_top_to_bottom_with_cotton_bud_short_short_600ms.mp4	83.single_stroke_top_to_bottom_with_cotton_bud_short_short_600ms.mp4	190.94327170165525	191.5515819637976	0.6083102621423677				
196.94189453125	0.2	403337	149	55	1	0	0	50	147	stimuli\Videos_short_600ms_horflip\61.single_hit_with_rolling_pin_short_horflip_short_600ms.mp4	61.single_hit_with_rolling_pin_short_horflip_short_600ms.mp4	191.74325422414677	192.35155510239156	0.6083008782447905				
197.74169921875	0.2	404975	150	55	1	0	0	51	283	stimuli\Videos_short_600ms_vertflip\21.repeated_touch_with_metal_chopstick_short_vertflip_short_600ms.mp4	21.repeated_touch_with_metal_chopstick_short_vertflip_short_600ms.mp4	192.54323528040413	193.151566363068	0.6083310826638808				
198.5419921875	0.2	406614	151	55	1	0	0	52	5	stimuli\Videos_short_600ms\14.repeated_touch_with_pencil_short_short_600ms.mp4	14.repeated_touch_with_pencil_short_short_600ms.mp4	193.34322308133733	193.95153715568813	0.6083140743508011				
199.341796875	0.2	408252	152	55	1	0	0	53	210	stimuli\Videos_short_600ms_horvertflip\37.single_stab_with_nail_file_short_horvertflip_short_600ms.mp4	37.single_stab_with_nail_file_short_horvertflip_short_600ms.mp4	194.1432129349987	194.7515358067526	0.6083228717538987				
200.1416015625	0.2	409890	153	55	1	0	0	54	183	stimuli\Videos_short_600ms_horvertflip\12.repeated_touch_with_nail_file_short_horvertflip_short_600ms.mp4	12.repeated_touch_with_nail_file_short_horvertflip_short_600ms.mp4	194.94320161567248	195.55153152534967	0.6083299096771952				
200.94189453125	0.2	411529	154	55	1	0	0	55	187	stimuli\Videos_short_600ms_horvertflip\16.repeated_touch_with_plastic_brush_short_horvertflip_short_600ms.mp4	16.repeated_touch_with_plastic_brush_short_horvertflip_short_600ms.mp4	195.74318501790412	196.3515146343343	0.6083296164301828				
201.74169921875	0.2	413167	155	55	1	0	0	56	311	stimuli\Videos_short_600ms_vertflip\47.(long)scratching_with_finger_nails_short_vertflip_short_600ms.mp4	47.(long)scratching_with_finger_nails_short_vertflip_short_600ms.mp4	196.54313674948253	197.15150683396996	0.6083700844874329				
202.54150390625	0.2	414805	156	55	1	0	0	57	239	stimuli\Videos_short_600ms_horvertflip\63.stroke_top_to_bottom_with_screwdriver_short_horvertflip_short_600ms.mp4	63.stroke_top_to_bottom_with_screwdriver_short_horvertflip_short_600ms.mp4	197.34319082419051	197.9514940484096	0.6083032242190711				
203.341796875	0.2	416444	157	55	1	0	0	58	246	stimuli\Videos_short_600ms_horvertflip\7.repeated_touch_with_hairbrush_short_horvertflip_short_600ms.mp4	7.repeated_touch_with_hairbrush_short_horvertflip_short_600ms.mp4	198.1431560451215	198.7514900602532	0.6083340151317316				
204.1416015625	0.2	418082	158	55	1	0	0	59	127	stimuli\Videos_short_600ms_horflip\43.touch_top_to_bottom_with_sharp_wooden_stick_short_horflip_short_600ms.mp4	43.touch_top_to_bottom_with_sharp_wooden_stick_short_horflip_short_600ms.mp4	198.94314501904185	199.55146935702987	0.6083243379880514				
204.94140625	0.2	419720	159	55	1	0	0	60	356	stimuli\Videos_short_600ms_vertflip\88.repeated_stroke_with_plastic_brush_short_vertflip_short_600ms.mp4	88.repeated_stroke_with_plastic_brush_short_vertflip_short_600ms.mp4	199.74313545919676	200.35145569172937	0.6083202325326056				
205.74169921875	0.2	421359	160	55	1	0	0	61	15	stimuli\Videos_short_600ms\23.single_push_with_a_spoon_short_short_600ms.mp4	23.single_push_with_a_spoon_short_short_600ms.mp4	200.54312062090912	201.1514440791566	0.6083234582474688				
206.54150390625	0.2	422997	161	55	1	0	0	62	291	stimuli\Videos_short_600ms_vertflip\29.single_pinch_with_tweezers_short_vertflip_short_600ms.mp4	29.single_pinch_with_tweezers_short_vertflip_short_600ms.mp4	201.3431075421022	201.95141487177625	0.6083073296740622				
207.34130859375	0.2	424635	162	55	1	0	0	63	278	stimuli\Videos_short_600ms_vertflip\17.repeated_touch_with_rolling_pin_short_vertflip_short_600ms.mp4	17.repeated_touch_with_rolling_pin_short_vertflip_short_600ms.mp4	202.14309710251655	202.75142261349177	0.6083255109751917				
208.1416015625	0.2	426274	163	55	1	0	0	64	296	stimuli\Videos_short_600ms_vertflip\33.scratch_top_to_bottom_with_scissors_short_vertflip_short_600ms.mp4	33.scratch_top_to_bottom_with_scissors_short_vertflip_short_600ms.mp4	202.94310132527016	203.5514095346848	0.6083082094146448				
208.94140625	0.2	427912	164	55	1	0	0	65	242	stimuli\Videos_short_600ms_horvertflip\66.stroke_top_to_bottom_with_sponge_short_horvertflip_short_600ms.mp4	66.stroke_top_to_bottom_with_sponge_short_horvertflip_short_600ms.mp4	203.74308150178695	204.35139616263132	0.6083146608443712				
209.74169921875	0.2	429551	165	55	1	0	0	66	47	stimuli\Videos_short_600ms\52.touch_top_to_bottom_with_hammer_short_short_600ms.mp4	52.touch_top_to_bottom_with_hammer_short_short_600ms.mp4	204.54304085778224	205.15138513655165	0.6083442787694366				
210.54150390625	0.2	431189	166	55	1	0	0	67	349	stimuli\Videos_short_600ms_vertflip\81.single_stroke_top_to_bottom_with_cotton_pad_short_vertflip_short_600ms.mp4	81.single_stroke_top_to_bottom_with_cotton_pad_short_vertflip_short_600ms.mp4	205.3430307114431	205.95137323073232	0.6083425192891809				
211.34130859375	0.2	432827	167	55	1	0	0	68	220	stimuli\Videos_short_600ms_horvertflip\46.scratching_top_to_bottom_with_finger_nails_short_horvertflip_short_600ms.mp4	46.scratching_top_to_bottom_with_finger_nails_short_horvertflip_short_600ms.mp4	206.143041385626	206.7513619114061	0.6083205257800728				
212.1416015625	0.2	434466	168	55	1	0	0	69	191	stimuli\Videos_short_600ms_horvertflip\2.single_touch_with_finger_short_horvertflip_short_600ms.mp4	2.single_touch_with_finger_short_horvertflip_short_600ms.mp4	206.9430253743517	207.55133270402575	0.6083073296740622				
212.94140625	0.2	436104	169	55	1	0	0	70	292	stimuli\Videos_short_600ms_vertflip\3.single_push_with_finger_short_vertflip_short_600ms.mp4	3.single_push_with_finger_short_vertflip_short_600ms.mp4	207.7430225591825	208.35131493327023	0.6082923740877959				
213.7412109375	0.2	437742	170	55	1	0	0	71	196	stimuli\Videos_short_600ms_horvertflip\24.single_stroke_top_to_bottom_with_a_spoon_short_horvertflip_short_600ms.mp4	24.single_stroke_top_to_bottom_with_a_spoon_short_horvertflip_short_600ms.mp4	208.54300097621856	209.1513229682323	0.6083219920137708				
214.54150390625	0.2	439381	171	55	1	0	0	72	213	stimuli\Videos_short_600ms_horvertflip\4.repeated_tap_with_finger_slow_short_horvertflip_short_600ms.mp4	4.repeated_tap_with_finger_slow_short_horvertflip_short_600ms.mp4	209.34298555143732	209.95131546111452	0.6083299096771952				
215.34130859375	0.2	441019	172	55	1	0	0	73	324	stimuli\Videos_short_600ms_vertflip\59.single_push_with_long_side_pencil_short_vertflip_short_600ms.mp4	59.single_push_with_long_side_pencil_short_vertflip_short_600ms.mp4	210.14297569834525	210.75130384854177	0.6083281501964848				
216.14111328125	0.2	442657	173	55	1	0	0	74	198	stimuli\Videos_short_600ms_horvertflip\26.single_touch_with_a_blunt_syringe_short_horvertflip_short_600ms.mp4	26.single_touch_with_a_blunt_syringe_short_horvertflip_short_600ms.mp4	210.9429752291503	211.55129282246207	0.6083175933117673				
216.94140625	0.2	444296	174	55	1	0	0	75	21	stimuli\Videos_short_600ms\29.single_pinch_with_tweezers_short_short_600ms.mp4	29.single_pinch_with_tweezers_short_short_600ms.mp4	211.7429539394334	212.35128443560416	0.6083304961707654				
217.7412109375	0.2	445934	175	55	1	0	0	76	16	stimuli\Videos_short_600ms\24.single_stroke_top_to_bottom_with_a_spoon_short_short_600ms.mp4	24.single_stroke_top_to_bottom_with_a_spoon_short_short_600ms.mp4	212.54294555257505	213.15126842432937	0.6083228717543534				
218.541015625	0.2	447572	176	55	1	0	0	77	247	stimuli\Videos_short_600ms_horvertflip\70.(long)stroke_with_finger_all_over_the_hand_short_horvertflip_short_600ms.mp4	70.(long)stroke_with_finger_all_over_the_hand_short_horvertflip_short_600ms.mp4	213.34292631558583	213.9512565185096	0.608330202923753				
219.34130859375	0.2	449211	177	55	1	0	0	78	219	stimuli\Videos_short_600ms_horvertflip\45.scratching_with_finger_nails_short_horvertflip_short_600ms.mp4	45.scratching_with_finger_nails_short_horvertflip_short_600ms.mp4	214.14291851522103	214.75124431944323	0.6083258042222042				
220.14111328125	0.2	450849	178	55	1	0	0	79	309	stimuli\Videos_short_600ms_vertflip\45.scratching_with_finger_nails_short_vertflip_short_600ms.mp4	45.scratching_with_finger_nails_short_vertflip_short_600ms.mp4	214.9429080756354	215.55123182712987	0.6083237514944813				
220.94091796875	0.2	452487	179	55	1	0	0	80	36	stimuli\Videos_short_600ms\42.single_slap_with_plastic_whisk_short_short_600ms.mp4	42.single_slap_with_plastic_whisk_short_short_600ms.mp4	215.74289411708833	216.35121874832296	0.6083246312346091				
221.7412109375	0.2	454126	180	55	1	0	0	81	17	stimuli\Videos_short_600ms\25.single_touch_with_stanley_knife_short_short_600ms.mp4	25.single_touch_with_stanley_knife_short_short_600ms.mp4	216.5428869032171	217.15120801549028	0.6083211122731882				
222.541015625	0.2	455764	181	55	1	0	0	82	175	stimuli\Videos_short_600ms_horflip\87.single_stroke_top_to_bottom_with_plastic_brush_short_horflip_short_600ms.mp4	87.single_stroke_top_to_bottom_with_plastic_brush_short_horflip_short_600ms.mp4	217.34287265142305	217.95119522993036	0.608322578507341				
223.3408203125	0.2	457402	182	55	1	0	0	83	250	stimuli\Videos_short_600ms_horvertflip\73.single_stroke_with_flat_hand_short_horvertflip_short_600ms.mp4	73.single_stroke_with_flat_hand_short_horvertflip_short_600ms.mp4	218.14285693339525	218.75118391060417	0.6083269772088897				
224.14111328125	0.2	459041	183	55	1	0	0	84	264	stimuli\Videos_short_600ms_horvertflip\86.touch_top_to_bottom_with_hair_brush_short_horvertflip_short_600ms.mp4	86.touch_top_to_bottom_with_hair_brush_short_horvertflip_short_600ms.mp4	218.9428435613413	219.55117053855065	0.6083269772093445				
224.94091796875	0.2	460679	184	55	1	0	0	85	199	stimuli\Videos_short_600ms_horvertflip\27.single_push_with_a_plastic_whisk_short_horvertflip_short_600ms.mp4	27.single_push_with_a_plastic_whisk_short_horvertflip_short_600ms.mp4	219.74280995525945	220.35116127195215	0.6083513166927332				
225.74072265625	0.2	462317	185	55	1	0	0	86	67	stimuli\Videos_short_600ms\70.(long)stroke_with_finger_all_over_the_hand_short_short_600ms.mp4	70.(long)stroke_with_finger_all_over_the_hand_short_short_600ms.mp4	220.5428264943785	221.15114760665165	0.6083211122731882				
226.541015625	0.2	463956	186	55	1	0	0	87	255	stimuli\Videos_short_600ms_horvertflip\78.single_stroke_top_to_bottom_with_soft_brush_short_horvertflip_short_600ms.mp4	78.single_stroke_top_to_bottom_with_soft_brush_short_horvertflip_short_600ms.mp4	221.34280197894668	221.9511403927804	0.6083384138337351				
227.3408203125	0.2	465594	187	55	1	0	0	88	285	stimuli\Videos_short_600ms_vertflip\23.single_push_with_a_spoon_short_vertflip_short_600ms.mp4	23.single_push_with_a_spoon_short_vertflip_short_600ms.mp4	222.14281705183157	222.75112262202492	0.6083055701933517				
228.140625	0.2	467232	188	55	1	0	0	89	109	stimuli\Videos_short_600ms_horflip\27.single_push_with_a_plastic_whisk_short_horflip_short_600ms.mp4	27.single_push_with_a_plastic_whisk_short_horflip_short_600ms.mp4	222.94279576211463	223.5511201001027	0.6083243379880514				
228.94091796875	0.2	468871	189	55	1	0	0	90	4	stimuli\Videos_short_600ms\13.single_touch_with_pen_short_short_600ms.mp4	13.single_touch_with_pen_short_short_600ms.mp4	223.742776818372	224.35109998337293	0.6083231650009111				
229.74072265625	0.2	470509	190	55	1	0	0	91	358	stimuli\Videos_short_600ms_vertflip\9.single_touch_with_hammer_short_vertflip_short_600ms.mp4	9.single_touch_with_hammer_short_vertflip_short_600ms.mp4	224.5427766424241	225.1510851450853	0.6083085026612025	2.0	2.0	1.9898917831369545	1.0
263.00634765625	0.2	538637	191	55	2	0	0	0	240	stimuli\Videos_short_600ms_horvertflip\64.repeated_touch_with_screwdriver_short_horvertflip_short_600ms.mp4	64.repeated_touch_with_screwdriver_short_horvertflip_short_600ms.mp4	257.808935640247	258.4172605647286	0.6083249244816216				
263.80615234375	0.2	540275	192	55	2	0	0	1	93	stimuli\Videos_short_600ms_horflip\12.repeated_touch_with_nail_file_short_horflip_short_600ms.mp4	12.repeated_touch_with_nail_file_short_horflip_short_600ms.mp4	258.60892344118065	259.21725159137713	0.6083281501964848				
264.61474609375	0.2	541931	193	55	2	0	0	2	201	stimuli\Videos_short_600ms_horvertflip\29.single_pinch_with_tweezers_short_horvertflip_short_600ms.mp4	29.single_pinch_with_tweezers_short_horvertflip_short_600ms.mp4	259.4172491281038	260.0255684808967	0.6083193527929325				
265.41455078125	0.2	543569	194	55	2	0	0	3	208	stimuli\Videos_short_600ms_horvertflip\35.single_punch_with_hand_short_horvertflip_short_600ms.mp4	35.single_punch_with_hand_short_horvertflip_short_600ms.mp4	260.21723223708887	260.82555598858335	0.6083237514944813				
266.21484375	0.2	545208	195	55	2	0	0	4	168	stimuli\Videos_short_600ms_horflip\80.stroke_with_sharp_stick_all_over_the_hand_short_horflip_short_600ms.mp4	80.stroke_with_sharp_stick_all_over_the_hand_short_horflip_short_600ms.mp4	261.0172217975032	261.62554584224426	0.608324044741039				
267.0146484375	0.2	546846	196	55	2	0	0	5	343	stimuli\Videos_short_600ms_vertflip\76.tickle_with_fingers_from_top_to_bottom_short_vertflip_short_600ms.mp4	76.tickle_with_fingers_from_top_to_bottom_short_vertflip_short_600ms.mp4	261.8172110646706	262.42553452291804	0.6083234582474688				
267.814453125	0.2	548484	197	55	2	0	0	6	315	stimuli\Videos_short_600ms_vertflip\50.single_(long)hard_push_with_thumb_short_vertflip_short_600ms.mp4	50.single_(long)hard_push_with_thumb_short_vertflip_short_600ms.mp4	262.6171968128765	263.2255217373581	0.6083249244816216				
268.61474609375	0.2	550123	198	55	2	0	0	7	352	stimuli\Videos_short_600ms_vertflip\84.single_touch_with_cotton_bud_short_vertflip_short_600ms.mp4	84.single_touch_with_cotton_bud_short_vertflip_short_600ms.mp4	263.41715910133917	264.02550983153833	0.6083507301991631				
269.41455078125	0.2	551761	199	55	2	0	0	8	273	stimuli\Videos_short_600ms_vertflip\12.repeated_touch_with_nail_file_short_vertflip_short_600ms.mp4	12.repeated_touch_with_nail_file_short_vertflip_short_600ms.mp4	264.21715306045553	264.825497925719	0.6083448652634615				
270.21435546875	0.2	553399	200	55	2	0	0	9	97	stimuli\Videos_short_600ms_horflip\16.repeated_touch_with_plastic_brush_short_horflip_short_600ms.mp4	16.repeated_touch_with_plastic_brush_short_horflip_short_600ms.mp4	265.0171851416544	265.6254860198992	0.6083008782447905				
271.0146484375	0.2	555038	201	55	2	0	1	10	364	stimuli\Targets_short_600ms\hand-pinch_short_short_600ms.mp4	hand-pinch_short_short_600ms.mp4	265.8171365799858	266.4254720613517	0.6083354813658843				
271.814453125	0.2	556676	202	55	2	0	0	11	209	stimuli\Videos_short_600ms_horvertflip\36.single_slap_with_full_hand_short_horvertflip_short_600ms.mp4	36.single_slap_with_full_hand_short_horvertflip_short_600ms.mp4	266.61711147806045	267.22546162176604	0.6083501437055929				
272.6142578125	0.2	558314	203	55	2	0	0	12	195	stimuli\Videos_short_600ms_horvertflip\23.single_push_with_a_spoon_short_horvertflip_short_600ms.mp4	23.single_push_with_a_spoon_short_horvertflip_short_600ms.mp4	267.4171318293879	268.0254494226997	0.6083175933117673				
273.41455078125	0.2	559953	204	55	2	0	0	13	279	stimuli\Videos_short_600ms_vertflip\18.single_stroke_from_top_to_bottom_with_rolling_pin_short_vertflip_short_600ms.mp4	18.single_stroke_from_top_to_bottom_with_rolling_pin_short_vertflip_short_600ms.mp4	268.21711933707456	268.8254419155819	0.608322578507341				
274.21435546875	0.2	561591	205	55	2	0	0	14	174	stimuli\Videos_short_600ms_horflip\86.touch_top_to_bottom_with_hair_brush_short_horflip_short_600ms.mp4	86.touch_top_to_bottom_with_hair_brush_short_horflip_short_600ms.mp4	269.0171153489182	269.6254259043071	0.6083105553889254				
275.01416015625	0.2	563229	206	55	2	0	0	15	37	stimuli\Videos_short_600ms\43.touch_top_to_bottom_with_sharp_wooden_stick_short_short_600ms.mp4	43.touch_top_to_bottom_with_sharp_wooden_stick_short_short_600ms.mp4	269.81709141998	270.4254163444616	0.6083249244816216				
275.814453125	0.2	564868	207	55	2	0	0	16	0	stimuli\Videos_short_600ms\1.repeated_touch_with_finger_fast_short_short_600ms.mp4	1.repeated_touch_with_finger_fast_short_short_600ms.mp4	270.61708273987506	271.22540238591455	0.6083196460394902				
276.6142578125	0.2	566506	208	55	2	0	0	17	113	stimuli\Videos_short_600ms_horflip\30.finger_pulling_back_another_finger_short_horflip_short_600ms.mp4	30.finger_pulling_back_another_finger_short_horflip_short_600ms.mp4	271.41703711067476	272.02538608139275	0.6083489707179979				
277.4140625	0.2	568144	209	55	2	0	0	18	236	stimuli\Videos_short_600ms_horvertflip\60.single_push_with_tip_of_pencil_short_horvertflip_short_600ms.mp4	60.single_push_with_tip_of_pencil_short_horvertflip_short_600ms.mp4	272.21705364979334	272.8253817999898	0.6083281501964848				
278.21435546875	0.2	569783	210	55	2	0	0	19	253	stimuli\Videos_short_600ms_horvertflip\76.tickle_with_fingers_from_top_to_bottom_short_horvertflip_short_600ms.mp4	76.tickle_with_fingers_from_top_to_bottom_short_horvertflip_short_600ms.mp4	273.01704262371413	273.6253725333913	0.6083299096771952				
279.01416015625	0.2	571421	211	55	2	0	0	20	3	stimuli\Videos_short_600ms\12.repeated_touch_with_nail_file_short_short_600ms.mp4	12.repeated_touch_with_nail_file_short_short_600ms.mp4	273.81702837192006	274.4253638532864	0.6083354813663391				
279.81396484375	0.2	573059	212	55	2	0	0	21	336	stimuli\Videos_short_600ms_vertflip\7.repeated_touch_with_hairbrush_short_vertflip_short_600ms.mp4	7.repeated_touch_with_hairbrush_short_vertflip_short_600ms.mp4	274.617018518828	275.2253425635695	0.6083240447414937				
280.6142578125	0.2	574698	213	55	2	0	0	22	293	stimuli\Videos_short_600ms_vertflip\30.finger_pulling_back_another_finger_short_vertflip_short_600ms.mp4	30.finger_pulling_back_another_finger_short_vertflip_short_600ms.mp4	275.4170048535275	276.0253306577497	0.6083258042222042				
281.4140625	0.2	576336	214	55	2	0	0	23	121	stimuli\Videos_short_600ms_horflip\38.double_slap_with_pencil_short_horflip_short_600ms.mp4	38.double_slap_with_pencil_short_horflip_short_600ms.mp4	276.2169938274483	276.8253184586829	0.6083246312346091				
282.2138671875	0.2	577974	215	55	2	0	0	24	267	stimuli\Videos_short_600ms_horvertflip\89.single_touch_with_plastic_brush_short_horvertflip_short_600ms.mp4	89.single_touch_with_plastic_brush_short_horvertflip_short_600ms.mp4	277.0169801621478	277.6253050866294	0.6083249244816216				
283.01416015625	0.2	579613	216	55	2	0	0	25	265	stimuli\Videos_short_600ms_horvertflip\87.single_stroke_top_to_bottom_with_plastic_brush_short_horvertflip_short_600ms.mp4	87.single_stroke_top_to_bottom_with_plastic_brush_short_horvertflip_short_600ms.mp4	277.8169694293151	278.4252940605502	0.6083246312350639				
283.81396484375	0.2	581251	217	55	2	0	0	26	85	stimuli\Videos_short_600ms\87.single_stroke_top_to_bottom_with_plastic_brush_short_short_600ms.mp4	87.single_stroke_top_to_bottom_with_plastic_brush_short_short_600ms.mp4	278.6169557640151	279.22528186148384	0.6083260974687619				
284.6142578125	0.2	582890	218	55	2	0	0	27	149	stimuli\Videos_short_600ms_horflip\63.stroke_top_to_bottom_with_screwdriver_short_horflip_short_600ms.mp4	63.stroke_top_to_bottom_with_screwdriver_short_horflip_short_600ms.mp4	279.41694268520814	280.02526995566404	0.6083272704559022				
285.4140625	0.2	584528	219	55	2	0	0	28	6	stimuli\Videos_short_600ms\15.single_stroke_top_to_bottom_with_a_plastic_whisk_short_short_600ms.mp4	15.single_stroke_top_to_bottom_with_a_plastic_whisk_short_short_600ms.mp4	280.2169363510775	280.82526039581853	0.608324044741039				
286.2138671875	0.2	586166	220	55	2	0	0	29	95	stimuli\Videos_short_600ms_horflip\14.repeated_touch_with_pencil_short_horflip_short_600ms.mp4	14.repeated_touch_with_pencil_short_horflip_short_600ms.mp4	281.01689688005945	281.62524673051803	0.6083498504585805				
287.01416015625	0.2	587805	221	55	2	0	0	30	146	stimuli\Videos_short_600ms_horflip\60.single_push_with_tip_of_pencil_short_horflip_short_600ms.mp4	60.single_push_with_tip_of_pencil_short_horflip_short_600ms.mp4	281.81690696774876	282.42523335846454	0.6083263907157743				
287.81396484375	0.2	589443	222	55	2	0	1	31	366	stimuli\Targets_short_600ms_horflip\brush-stroke_short_horflip_short_600ms.mp4	brush-stroke_short_horflip_short_600ms.mp4	282.61689770115026	283.22522174589176	0.6083240447414937				
288.61376953125	0.2	591081	223	55	2	0	0	32	262	stimuli\Videos_short_600ms_horvertflip\84.single_touch_with_cotton_bud_short_horvertflip_short_600ms.mp4	84.single_touch_with_cotton_bud_short_horvertflip_short_600ms.mp4	283.4169001644236	284.02520778734424	0.6083076229206199				
289.4140625	0.2	592720	224	55	2	0	0	33	179	stimuli\Videos_short_600ms_horflip\90.repeated_touch_with_sponge_short_horflip_short_600ms.mp4	90.repeated_touch_with_sponge_short_horflip_short_600ms.mp4	284.216978578615	284.82519705451205	0.608218475897047				
290.2138671875	0.2	594358	225	55	2	0	0	34	257	stimuli\Videos_short_600ms_horvertflip\8.single_touch_with_hairbrush_short_horvertflip_short_600ms.mp4	8.single_touch_with_hairbrush_short_horvertflip_short_600ms.mp4	285.01686110395076	285.6251655011574	0.6083043972066662				
291.013671875	0.2	595996	226	55	2	0	0	35	101	stimuli\Videos_short_600ms_horflip\2.single_touch_with_finger_short_horflip_short_600ms.mp4	2.single_touch_with_finger_short_horflip_short_600ms.mp4	285.81685007787155	286.425169430664	0.6083193527924777				
291.81396484375	0.2	597635	227	55	2	0	0	36	126	stimuli\Videos_short_600ms_horflip\42.single_slap_with_plastic_whisk_short_horflip_short_600ms.mp4	42.single_slap_with_plastic_whisk_short_horflip_short_600ms.mp4	286.6168361193245	287.2251575248447	0.6083214055202006				
292.61376953125	0.2	599273	228	55	2	0	0	37	90	stimuli\Videos_short_600ms_horflip\1.repeated_touch_with_finger_fast_short_horflip_short_600ms.mp4	1.repeated_touch_with_finger_fast_short_horflip_short_600ms.mp4	287.4168242135047	288.0251576421433	0.6083334286386162				
293.41357421875	0.2	600911	229	55	2	0	0	38	355	stimuli\Videos_short_600ms_vertflip\87.single_stroke_top_to_bottom_with_plastic_brush_short_vertflip_short_600ms.mp4	87.single_stroke_top_to_bottom_with_plastic_brush_short_vertflip_short_600ms.mp4	288.2168128941785	288.8251401646344	0.6083272704559022				
294.2138671875	0.2	602550	230	55	2	0	0	39	103	stimuli\Videos_short_600ms_horflip\21.repeated_touch_with_metal_chopstick_short_horflip_short_600ms.mp4	21.repeated_touch_with_metal_chopstick_short_horflip_short_600ms.mp4	289.0168012816057	289.62513558998444	0.608334308378744				
295.013671875	0.2	604188	231	55	2	0	0	40	140	stimuli\Videos_short_600ms_horflip\55.touch_top_to_bottom_with_nail_file_short_horflip_short_600ms.mp4	55.touch_top_to_bottom_with_nail_file_short_horflip_short_600ms.mp4	289.8167893757859	290.4251131272804	0.6083237514944813				
295.8134765625	0.2	605826	232	55	2	0	0	41	254	stimuli\Videos_short_600ms_horvertflip\77.tapping_with_all_fingers_short_horvertflip_short_600ms.mp4	77.tapping_with_all_fingers_short_horvertflip_short_600ms.mp4	290.616776883473	291.2251041539289	0.6083272704559022				
296.61376953125	0.2	607465	233	55	2	0	0	42	342	stimuli\Videos_short_600ms_vertflip\75.(long)stroke_with_fingers_all_over_the_hand_short_vertflip_short_600ms.mp4	75.(long)stroke_with_fingers_all_over_the_hand_short_vertflip_short_600ms.mp4	291.4167649776532	292.0250878494071	0.6083228717538987				
297.41357421875	0.2	609103	234	55	2	0	0	43	204	stimuli\Videos_short_600ms_horvertflip\31.hand_grabbing_wrist_short_horvertflip_short_600ms.mp4	31.hand_grabbing_wrist_short_horvertflip_short_600ms.mp4	292.2167533650804	292.8250741841066	0.6083208190261757				
298.21337890625	0.2	610741	235	55	2	0	1	44	371	stimuli\Targets_short_600ms_horflip\hand-stroke_short_horflip_short_600ms.mp4	hand-stroke_short_horflip_short_600ms.mp4	293.01674263224777	293.62506462426154	0.6083219920137708				
299.013671875	0.2	612380	236	55	2	0	0	45	167	stimuli\Videos_short_600ms_horflip\8.single_touch_with_hairbrush_short_horflip_short_600ms.mp4	8.single_touch_with_hairbrush_short_horflip_short_600ms.mp4	293.81673131292155	294.42505242519474	0.6083211122731882				
299.8134765625	0.2	614018	237	55	2	0	0	46	78	stimuli\Videos_short_600ms\80.stroke_with_sharp_stick_all_over_the_hand_short_short_600ms.mp4	80.stroke_with_sharp_stick_all_over_the_hand_short_short_600ms.mp4	294.6166953608649	295.22504081262196	0.6083454517570317				
300.61328125	0.2	615656	238	55	2	0	0	47	131	stimuli\Videos_short_600ms_horflip\47.(long)scratching_with_finger_nails_short_horflip_short_600ms.mp4	47.(long)scratching_with_finger_nails_short_horflip_short_600ms.mp4	295.41670251608684	296.02502802706204	0.6083255109751917				
301.41357421875	0.2	617295	239	55	2	0	0	48	243	stimuli\Videos_short_600ms_horvertflip\67.single_touch_with_sponge_short_horvertflip_short_600ms.mp4	67.single_touch_with_sponge_short_horvertflip_short_600ms.mp4	296.21666949649807	296.82501612124224	0.608346624744172				
302.21337890625	0.2	618933	240	55	2	0	0	49	71	stimuli\Videos_short_600ms\74.fingers_walking_from_top_to_bottom_short_short_600ms.mp4	74.fingers_walking_from_top_to_bottom_short_short_600ms.mp4	297.0166842761364	297.6250030424353	0.6083187662989076				
303.013671875	0.2	620572	241	55	2	0	0	50	258	stimuli\Videos_short_600ms_horvertflip\80.stroke_with_sharp_stick_all_over_the_hand_short_horvertflip_short_600ms.mp4	80.stroke_with_sharp_stick_all_over_the_hand_short_horvertflip_short_600ms.mp4	297.81666767836805	298.4249920163561	0.6083243379880514				
303.8134765625	0.2	622210	242	55	2	0	0	51	52	stimuli\Videos_short_600ms\57.single_touch_with_nail_file_short_short_600ms.mp4	57.single_touch_with_nail_file_short_short_600ms.mp4	298.6166639834587	299.22497952404274	0.6083155405840444				
304.61328125	0.2	623848	243	55	2	0	0	52	12	stimuli\Videos_short_600ms\20.single_touch_with_screwdriver_short_short_600ms.mp4	20.single_touch_with_screwdriver_short_short_600ms.mp4	299.4166485586775	300.02500251459105	0.6083539559135716				
305.41357421875	0.2	625487	244	55	2	0	0	53	66	stimuli\Videos_short_600ms\7.repeated_touch_with_hairbrush_short_short_600ms.mp4	7.repeated_touch_with_hairbrush_short_short_600ms.mp4	300.2166442772741	300.8250105495531	0.6083662722789995				
306.21337890625	0.2	627125	245	55	2	0	0	54	11	stimuli\Videos_short_600ms\2.single_touch_with_finger_short_short_600ms.mp4	2.single_touch_with_finger_short_short_600ms.mp4	301.01662005508933	301.62491946709997	0.6082994120106378				
307.01318359375	0.2	628763	246	55	2	0	0	55	29	stimuli\Videos_short_600ms\36.single_slap_with_full_hand_short_short_600ms.mp4	36.single_slap_with_full_hand_short_short_600ms.mp4	301.8166104952438	302.42497882025054	0.6083683250067224				
307.8134765625	0.2	630402	247	55	2	0	0	56	319	stimuli\Videos_short_600ms_vertflip\54.repeated_touch_with_knife_short_vertflip_short_600ms.mp4	54.repeated_touch_with_knife_short_vertflip_short_600ms.mp4	302.6165968299433	303.22496368871634	0.6083668587730244				
308.61328125	0.2	632040	248	55	2	0	0	57	32	stimuli\Videos_short_600ms\39.single_stab_with_scissors_short_short_600ms.mp4	39.single_stab_with_scissors_short_short_600ms.mp4	303.4165860971111	304.0249582343258	0.6083721372147011				
309.4130859375	0.2	633678	249	55	2	0	0	58	22	stimuli\Videos_short_600ms\3.single_push_with_finger_short_short_600ms.mp4	3.single_push_with_finger_short_short_600ms.mp4	304.216575657525	304.82492022954193	0.6083445720169038				
310.21337890625	0.2	635317	250	55	2	0	0	59	84	stimuli\Videos_short_600ms\86.touch_top_to_bottom_with_hair_brush_short_short_600ms.mp4	86.touch_top_to_bottom_with_hair_brush_short_short_600ms.mp4	305.0165611124844	305.624898939825	0.6083378273406197				
311.01318359375	0.2	636955	251	55	2	0	0	60	163	stimuli\Videos_short_600ms_horflip\76.tickle_with_fingers_from_top_to_bottom_short_horflip_short_600ms.mp4	76.tickle_with_fingers_from_top_to_bottom_short_horflip_short_600ms.mp4	305.8165492066646	306.4248791163418	0.6083299096771952				
311.81298828125	0.2	638593	252	55	2	0	0	61	88	stimuli\Videos_short_600ms\9.single_touch_with_hammer_short_short_600ms.mp4	9.single_touch_with_hammer_short_short_600ms.mp4	306.6165405265597	307.224867210522	0.608326683962332				
312.61328125	0.2	640232	253	55	2	0	0	62	357	stimuli\Videos_short_600ms_vertflip\89.single_touch_with_plastic_brush_short_vertflip_short_600ms.mp4	89.single_touch_with_plastic_brush_short_vertflip_short_600ms.mp4	307.41652510177846	308.0248541317151	0.6083290299366126				
313.4130859375	0.2	641870	254	55	2	0	0	63	173	stimuli\Videos_short_600ms_horflip\85.touch_top_to_bottom_with_fabric_short_horflip_short_600ms.mp4	85.touch_top_to_bottom_with_fabric_short_horflip_short_600ms.mp4	308.21651231621854	308.8248428123893	0.6083304961707654				
314.212890625	0.2	643508	255	55	2	0	0	64	284	stimuli\Videos_short_600ms_vertflip\22.single_touch_with_metal_chopstick_short_vertflip_short_600ms.mp4	22.single_touch_with_metal_chopstick_short_vertflip_short_600ms.mp4	309.01650392936017	309.6248297335824	0.6083258042222042				
315.01318359375	0.2	645147	256	55	2	0	0	65	317	stimuli\Videos_short_600ms_vertflip\52.touch_top_to_bottom_with_hammer_short_vertflip_short_600ms.mp4	52.touch_top_to_bottom_with_hammer_short_vertflip_short_600ms.mp4	309.8164917302938	310.42481694802245	0.608325217728634				
315.81298828125	0.2	646785	257	55	2	0	0	66	49	stimuli\Videos_short_600ms\54.repeated_touch_with_knife_short_short_600ms.mp4	54.repeated_touch_with_knife_short_short_600ms.mp4	310.61644962005494	311.22480680168337	0.6083571816284348				
316.61279296875	0.2	648423	258	55	2	0	1	67	360	stimuli\Targets_short_600ms\brush-stroke_short_short_600ms.mp4	brush-stroke_short_short_600ms.mp4	311.41646146722496	312.0247948958636	0.6083334286386162				
317.4130859375	0.2	650062	259	55	2	0	0	68	89	stimuli\Videos_short_600ms\90.repeated_touch_with_sponge_short_short_600ms.mp4	90.repeated_touch_with_sponge_short_short_600ms.mp4	312.2164501478992	312.82478211030366	0.6083319624044634				
318.212890625	0.2	651700	260	55	2	0	0	69	153	stimuli\Videos_short_600ms_horflip\67.single_touch_with_sponge_short_horflip_short_600ms.mp4	67.single_touch_with_sponge_short_horflip_short_600ms.mp4	313.0164141958426	313.62476492604173	0.6083507301991631				
319.0126953125	0.2	653338	261	55	2	0	0	70	256	stimuli\Videos_short_600ms_horvertflip\79.long_with_soft_brush_all_over_the_hand_short_horvertflip_short_600ms.mp4	79.long_with_soft_brush_all_over_the_hand_short_horvertflip_short_600ms.mp4	313.8164304417146	314.42474480931196	0.6083143675973588				
319.81298828125	0.2	654977	262	55	2	0	0	71	304	stimuli\Videos_short_600ms_vertflip\40.repeated_push_with_finger_short_vertflip_short_600ms.mp4	40.repeated_push_with_finger_short_vertflip_short_600ms.mp4	314.61642264135025	315.22472117362076	0.6082985322705099				
320.61279296875	0.2	656615	263	55	2	0	0	72	162	stimuli\Videos_short_600ms_horflip\75.(long)stroke_with_fingers_all_over_the_hand_short_horflip_short_600ms.mp4	75.(long)stroke_with_fingers_all_over_the_hand_short_horflip_short_600ms.mp4	315.4164245181296	316.024709267801	0.6082847496713839				
321.41259765625	0.2	658253	264	55	2	0	0	73	115	stimuli\Videos_short_600ms_horflip\32.single_(long)pinch_with_fingers_short_horflip_short_600ms.mp4	32.single_(long)pinch_with_fingers_short_horflip_short_600ms.mp4	316.21639501750224	316.8246806469142	0.6082856294119665				
322.212890625	0.2	659892	265	55	2	0	1	74	377	stimuli\Targets_short_600ms_horvertflip\hand-stroke_short_vertflip_short_600ms.mp4	hand-stroke_short_vertflip_short_600ms.mp4	317.01639630778845	317.6246420556363	0.6082457478478318				
323.0126953125	0.2	661530	266	55	2	0	0	75	350	stimuli\Videos_short_600ms_vertflip\82.repeated_touch_with_cotton_bud_short_vertflip_short_600ms.mp4	82.repeated_touch_with_cotton_bud_short_vertflip_short_600ms.mp4	317.8163694463824	318.4246453986498	0.6082759522673769				
323.81298828125	0.2	663169	267	55	2	0	0	76	232	stimuli\Videos_short_600ms_horvertflip\57.single_touch_with_nail_file_short_horvertflip_short_600ms.mp4	57.single_touch_with_nail_file_short_horvertflip_short_600ms.mp4	318.61635460809475	319.22462528192	0.6082706738252455				
324.61279296875	0.2	664807	268	55	2	0	0	77	53	stimuli\Videos_short_600ms\58.single_slap_with_pencil_short_short_600ms.mp4	58.single_slap_with_pencil_short_short_600ms.mp4	319.41634328876853	320.02461718830864	0.6082738995401087				
325.41259765625	0.2	666445	269	55	2	0	0	78	300	stimuli\Videos_short_600ms_vertflip\37.single_stab_with_nail_file_short_vertflip_short_600ms.mp4	37.single_stab_with_nail_file_short_vertflip_short_600ms.mp4	320.2163322626893	320.82459531209815	0.6082630494088335				
326.212890625	0.2	668084	270	55	2	0	0	79	200	stimuli\Videos_short_600ms_horvertflip\28.single_injection_with_sharp_needle_short_horvertflip_short_600ms.mp4	28.single_injection_with_sharp_needle_short_horvertflip_short_600ms.mp4	321.01632006362297	321.62457402238124	0.6082539587582687				
327.0126953125	0.2	669722	271	55	2	0	1	80	374	stimuli\Targets_short_600ms_horvertflip\chopstickwood-tap_short_vertflip_short_600ms.mp4	chopstickwood-tap_short_vertflip_short_600ms.mp4	321.8163081578032	322.4245811776027	0.6082730197995261				
327.8125	0.2	671360	272	55	2	0	0	81	9	stimuli\Videos_short_600ms\18.single_stroke_from_top_to_bottom_with_rolling_pin_short_short_600ms.mp4	18.single_stroke_from_top_to_bottom_with_rolling_pin_short_short_600ms.mp4	322.6162947857497	323.2245710312641	0.6082762455143893				
328.61279296875	0.2	672999	273	55	2	0	0	82	218	stimuli\Videos_short_600ms_horvertflip\44.pushing_top_to_bottom_with_finger_short_horvertflip_short_600ms.mp4	44.pushing_top_to_bottom_with_finger_short_horvertflip_short_600ms.mp4	323.4162846394106	324.02455560648286	0.6082709670722579				
329.41259765625	0.2	674637	274	55	2	0	0	83	26	stimuli\Videos_short_600ms\33.scratch_top_to_bottom_with_scissors_short_short_600ms.mp4	33.scratch_top_to_bottom_with_scissors_short_short_600ms.mp4	324.21624487514555	324.8245445804032	0.6082997052576502				
330.21240234375	0.2	676275	275	55	2	0	0	84	160	stimuli\Videos_short_600ms_horflip\73.single_stroke_with_flat_hand_short_horflip_short_600ms.mp4	73.single_stroke_with_flat_hand_short_horflip_short_600ms.mp4	325.01624763166546	325.6245320880903	0.6082844564248262				
331.0126953125	0.2	677914	276	55	2	0	0	85	308	stimuli\Videos_short_600ms_vertflip\44.pushing_top_to_bottom_with_finger_short_vertflip_short_600ms.mp4	44.pushing_top_to_bottom_with_finger_short_vertflip_short_600ms.mp4	325.8162254622084	326.4245198890235	0.6082944268150641				
331.8125	0.2	679552	277	55	2	0	0	86	212	stimuli\Videos_short_600ms_horvertflip\39.single_stab_with_scissors_short_horvertflip_short_600ms.mp4	39.single_stab_with_scissors_short_horvertflip_short_600ms.mp4	326.61621091716734	327.22450798320415	0.6082970660368119				
332.6123046875	0.2	681190	278	55	2	0	0	87	170	stimuli\Videos_short_600ms_horflip\82.repeated_touch_with_cotton_bud_short_horflip_short_600ms.mp4	82.repeated_touch_with_cotton_bud_short_horflip_short_600ms.mp4	327.4162174858957	328.0244969571245	0.6082794712287978				
333.41259765625	0.2	682829	279	55	2	0	0	88	252	stimuli\Videos_short_600ms_horvertflip\75.(long)stroke_with_fingers_all_over_the_hand_short_horvertflip_short_600ms.mp4	75.(long)stroke_with_fingers_all_over_the_hand_short_horvertflip_short_600ms.mp4	328.2161891582555	328.8244829985774	0.6082938403219487				
334.21240234375	0.2	684467	280	55	2	0	0	89	241	stimuli\Videos_short_600ms_horvertflip\65.stroke_top_to_bottom_with_stanley_knife_short_horvertflip_short_600ms.mp4	65.stroke_top_to_bottom_with_stanley_knife_short_horvertflip_short_600ms.mp4	329.01620540412796	329.62447138600464	0.6082659818766842				
335.01220703125	0.2	686105	281	55	2	0	0	90	110	stimuli\Videos_short_600ms_horflip\28.single_injection_with_sharp_needle_short_horflip_short_600ms.mp4	28.single_injection_with_sharp_needle_short_horflip_short_600ms.mp4	329.81618968609973	330.42446622486113	0.6082765387614018				
335.8125	0.2	687744	282	55	2	0	0	91	120	stimuli\Videos_short_600ms_horflip\37.single_stab_with_nail_file_short_horflip_short_600ms.mp4	37.single_stab_with_nail_file_short_horflip_short_600ms.mp4	330.61617807352695	331.22444845410564	0.6082703805786878				
336.6123046875	0.2	689382	283	55	2	0	0	92	268	stimuli\Videos_short_600ms_horvertflip\9.single_touch_with_hammer_short_horvertflip_short_600ms.mp4	9.single_touch_with_hammer_short_horvertflip_short_600ms.mp4	331.41616616770716	332.02443566854527	0.6082695008381052				
337.412109375	0.2	691020	284	55	2	0	0	93	119	stimuli\Videos_short_600ms_horflip\36.single_slap_with_full_hand_short_horflip_short_600ms.mp4	36.single_slap_with_full_hand_short_horflip_short_600ms.mp4	332.2161624727978	332.8244237627259	0.608261289928123				
338.21240234375	0.2	692659	285	55	2	0	0	94	281	stimuli\Videos_short_600ms_vertflip\2.single_touch_with_finger_short_vertflip_short_600ms.mp4	2.single_touch_with_finger_short_vertflip_short_600ms.mp4	333.0161385438596	333.62441097716555	0.6082724333059559				
339.01220703125	0.2	694297	286	55	2	0	0	95	323	stimuli\Videos_short_600ms_vertflip\58.single_slap_with_pencil_short_vertflip_short_600ms.mp4	58.single_slap_with_pencil_short_vertflip_short_600ms.mp4	333.81614481934093	334.4243993645928	0.6082545452518389	6.0	6.0	1.6997906511164729	1.0
370.9111328125	0.2	759626	287	55	3	0	0	0	56	stimuli\Videos_short_600ms\60.single_push_with_tip_of_pencil_short_short_600ms.mp4	60.single_push_with_tip_of_pencil_short_short_600ms.mp4	365.7156444523426	366.3239646848756	0.6083202325330603				
371.71142578125	0.2	761265	288	55	3	0	0	1	135	stimuli\Videos_short_600ms_horflip\50.single_(long)hard_push_with_thumb_short_horflip_short_600ms.mp4	50.single_(long)hard_push_with_thumb_short_horflip_short_600ms.mp4	366.51560996652006	367.123959230485	0.6083492639650103				
372.51123046875	0.2	762903	289	55	3	0	0	2	159	stimuli\Videos_short_600ms_horflip\72.(short)stroke_with_finger_all_over_the_hand_short_horflip_short_600ms.mp4	72.(short)stroke_with_finger_all_over_the_hand_short_horflip_short_600ms.mp4	367.31561741498854	367.9239373542746	0.6083199392860479				
373.31103515625	0.2	764541	290	55	3	0	0	3	31	stimuli\Videos_short_600ms\38.double_slap_with_pencil_short_short_600ms.mp4	38.double_slap_with_pencil_short_short_600ms.mp4	368.1156049226752	368.72392515520824	0.6083202325330603				
374.111328125	0.2	766180	291	55	3	0	0	4	104	stimuli\Videos_short_600ms_horflip\22.single_touch_with_metal_chopstick_short_horflip_short_600ms.mp4	22.single_touch_with_metal_chopstick_short_horflip_short_600ms.mp4	368.9155941898425	369.5239123696483	0.6083181798057922				
374.9111328125	0.2	767818	292	55	3	0	0	5	152	stimuli\Videos_short_600ms_horflip\66.stroke_top_to_bottom_with_sponge_short_horflip_short_600ms.mp4	66.stroke_top_to_bottom_with_sponge_short_horflip_short_600ms.mp4	369.71559899909016	370.3239010503221	0.6083020512319308				
375.7109375	0.2	769456	293	55	3	0	0	6	19	stimuli\Videos_short_600ms\27.single_push_with_a_plastic_whisk_short_short_600ms.mp4	27.single_push_with_a_plastic_whisk_short_short_600ms.mp4	370.5155700849564	371.1238999946336	0.6083299096771952				
376.51123046875	0.2	771095	294	55	3	0	0	7	337	stimuli\Videos_short_600ms_vertflip\70.(long)stroke_with_finger_all_over_the_hand_short_vertflip_short_600ms.mp4	70.(long)stroke_with_finger_all_over_the_hand_short_vertflip_short_600ms.mp4	371.3155549534222	371.9239004051792	0.6083454517570317				
377.31103515625	0.2	772733	295	55	3	0	0	8	42	stimuli\Videos_short_600ms\48.single_slap_with_hand_short_short_600ms.mp4	48.single_slap_with_hand_short_short_600ms.mp4	372.11552134733984	372.7238908453337	0.6083694979938628				
378.11083984375	0.2	774371	296	55	3	0	1	9	367	stimuli\Targets_short_600ms_horflip\chopstick-silver-tap_short_horflip_short_600ms.mp4	chopstick-silver-tap_short_horflip_short_600ms.mp4	372.9155352472376	373.5238525473028	0.6083173000652096				
378.9111328125	0.2	776010	297	55	3	0	0	10	331	stimuli\Videos_short_600ms_vertflip\65.stroke_top_to_bottom_with_stanley_knife_short_vertflip_short_600ms.mp4	65.stroke_top_to_bottom_with_stanley_knife_short_vertflip_short_600ms.mp4	373.71552158193754	374.32384386719787	0.6083222852603285				
379.7109375	0.2	777648	298	55	3	0	0	11	161	stimuli\Videos_short_600ms_horflip\74.fingers_walking_from_top_to_bottom_short_horflip_short_600ms.mp4	74.fingers_walking_from_top_to_bottom_short_horflip_short_600ms.mp4	374.5155049841692	375.1238313748845	0.6083263907153196				
380.5107421875	0.2	779286	299	55	3	0	0	12	166	stimuli\Videos_short_600ms_horflip\79.long_with_soft_brush_all_over_the_hand_short_horflip_short_600ms.mp4	79.long_with_soft_brush_all_over_the_hand_short_horflip_short_600ms.mp4	375.3155338396532	375.9238168298439	0.6082829901906734				
381.31103515625	0.2	780925	300	55	3	0	0	13	8	stimuli\Videos_short_600ms\17.repeated_touch_with_rolling_pin_short_short_600ms.mp4	17.repeated_touch_with_rolling_pin_short_short_600ms.mp4	376.11549524837574	376.7238119619469	0.6083167135711847				
382.11083984375	0.2	782563	301	55	3	0	0	14	25	stimuli\Videos_short_600ms\32.single_(long)pinch_with_fingers_short_short_600ms.mp4	32.single_(long)pinch_with_fingers_short_short_600ms.mp4	376.9154821695688	377.52379184521715	0.6083096756483428				
382.91064453125	0.2	784201	302	55	3	0	0	15	176	stimuli\Videos_short_600ms_horflip\88.repeated_stroke_with_plastic_brush_short_horflip_short_600ms.mp4	88.repeated_stroke_with_plastic_brush_short_horflip_short_600ms.mp4	377.7154591203712	378.3237588256288	0.6082997052576502				
383.7109375	0.2	785840	303	55	3	0	0	16	248	stimuli\Videos_short_600ms_horvertflip\71.single_stroke_with_finger_top_to_bottom_short_horvertflip_short_600ms.mp4	71.single_stroke_with_finger_top_to_bottom_short_horvertflip_short_600ms.mp4	378.5154469213044	379.123746626562	0.6082997052576502				
384.5107421875	0.2	787478	304	55	3	0	0	17	48	stimuli\Videos_short_600ms\53.touch_top_to_bottom_with_knife_short_short_600ms.mp4	53.touch_top_to_bottom_with_knife_short_short_600ms.mp4	379.31543648171873	379.92373530723626	0.6082988255175223				
385.310546875	0.2	789116	305	55	3	0	0	18	229	stimuli\Videos_short_600ms_horvertflip\54.repeated_touch_with_knife_short_horvertflip_short_600ms.mp4	54.repeated_touch_with_knife_short_horvertflip_short_600ms.mp4	380.1154231096653	380.72374363544486	0.608320525779618				
386.11083984375	0.2	790755	306	55	3	0	0	19	133	stimuli\Videos_short_600ms_horflip\49.repeated_slap_with_hand_short_horflip_short_600ms.mp4	49.repeated_slap_with_hand_short_horflip_short_600ms.mp4	380.9154126700796	381.52374111352265	0.6083284434430425				
386.91064453125	0.2	792393	307	55	3	0	0	20	348	stimuli\Videos_short_600ms_vertflip\80.stroke_with_sharp_stick_all_over_the_hand_short_vertflip_short_600ms.mp4	80.stroke_with_sharp_stick_all_over_the_hand_short_vertflip_short_600ms.mp4	381.71539929802566	382.3237283279622	0.6083290299366126				
387.71044921875	0.2	794031	308	55	3	0	0	21	338	stimuli\Videos_short_600ms_vertflip\71.single_stroke_with_finger_top_to_bottom_short_vertflip_short_600ms.mp4	71.single_stroke_with_finger_top_to_bottom_short_vertflip_short_600ms.mp4	382.5153868057127	383.1237155424023	0.6083287366896002				
388.5107421875	0.2	795670	309	55	3	0	0	22	245	stimuli\Videos_short_600ms_horvertflip\69.stroke_with_soft_sock_short_horvertflip_short_600ms.mp4	69.stroke_with_soft_sock_short_horvertflip_short_600ms.mp4	383.3153751931395	383.92370217034886	0.6083269772093445				
389.310546875	0.2	797308	310	55	3	0	0	23	197	stimuli\Videos_short_600ms_horvertflip\25.single_touch_with_stanley_knife_short_horvertflip_short_600ms.mp4	25.single_touch_with_stanley_knife_short_horvertflip_short_600ms.mp4	384.11536270082615	384.7237075660896	0.6083448652634615				
390.11083984375	0.2	798947	311	55	3	0	0	24	227	stimuli\Videos_short_600ms_horvertflip\52.touch_top_to_bottom_with_hammer_short_horvertflip_short_600ms.mp4	52.touch_top_to_bottom_with_hammer_short_horvertflip_short_600ms.mp4	384.9153496220197	385.52367073429286	0.6083211122731882				
390.91064453125	0.2	800585	312	55	3	0	0	25	214	stimuli\Videos_short_600ms_horvertflip\40.repeated_push_with_finger_short_horvertflip_short_600ms.mp4	40.repeated_push_with_finger_short_horvertflip_short_600ms.mp4	385.71534006217416	386.3236834612035	0.6083433990293088				
391.71044921875	0.2	802223	313	55	3	0	0	26	313	stimuli\Videos_short_600ms_vertflip\49.repeated_slap_with_hand_short_vertflip_short_600ms.mp4	49.repeated_slap_with_hand_short_vertflip_short_600ms.mp4	386.5153070425854	387.12364574966614	0.6083387070807476				
392.5107421875	0.2	803862	314	55	3	0	0	27	86	stimuli\Videos_short_600ms\88.repeated_stroke_with_plastic_brush_short_short_600ms.mp4	88.repeated_stroke_with_plastic_brush_short_short_600ms.mp4	387.3153139045603	387.9236335505998	0.6083196460394902				
393.310546875	0.2	805500	315	55	3	0	0	28	100	stimuli\Videos_short_600ms_horflip\19.single_touch_with_rolling_pin_short_horflip_short_600ms.mp4	19.single_touch_with_rolling_pin_short_horflip_short_600ms.mp4	388.1153210597822	388.72362135153344	0.6083002917512204				
394.1103515625	0.2	807138	316	55	3	0	0	29	244	stimuli\Videos_short_600ms_horvertflip\68.stroke_top_to_bottom_with_shawl_short_horvertflip_short_600ms.mp4	68.stroke_top_to_bottom_with_shawl_short_horvertflip_short_600ms.mp4	388.915288626687	389.52361970935135	0.6083310826643356				
394.91064453125	0.2	808777	317	55	3	0	0	30	295	stimuli\Videos_short_600ms_vertflip\32.single_(long)pinch_with_fingers_short_vertflip_short_600ms.mp4	32.single_(long)pinch_with_fingers_short_vertflip_short_600ms.mp4	389.7152532611244	390.323598712881	0.608345451756577				
395.71044921875	0.2	810415	318	55	3	0	0	31	272	stimuli\Videos_short_600ms_vertflip\11.single_touch_with_lighter_short_vertflip_short_600ms.mp4	11.single_touch_with_lighter_short_vertflip_short_600ms.mp4	390.5152674542687	391.1235844610869	0.6083170068181971				
396.51025390625	0.2	812053	319	55	3	0	0	32	61	stimuli\Videos_short_600ms\65.stroke_top_to_bottom_with_stanley_knife_short_short_600ms.mp4	65.stroke_top_to_bottom_with_stanley_knife_short_short_600ms.mp4	391.31522710351055	391.92355877266846	0.6083316691579057				
397.310546875	0.2	813692	320	55	3	0	0	33	69	stimuli\Videos_short_600ms\72.(short)stroke_with_finger_all_over_the_hand_short_short_600ms.mp4	72.(short)stroke_with_finger_all_over_the_hand_short_short_600ms.mp4	392.1152495075653	392.7235380694451	0.6082885618798173				
398.1103515625	0.2	815330	321	55	3	0	0	34	329	stimuli\Videos_short_600ms_vertflip\63.stroke_top_to_bottom_with_screwdriver_short_vertflip_short_600ms.mp4	63.stroke_top_to_bottom_with_screwdriver_short_vertflip_short_600ms.mp4	392.9152288043419	393.5235267501189	0.6082979457769397				
398.91015625	0.2	816968	322	55	3	0	0	35	92	stimuli\Videos_short_600ms_horflip\11.single_touch_with_lighter_short_horflip_short_600ms.mp4	11.single_touch_with_lighter_short_horflip_short_600ms.mp4	393.71522774865343	394.32351396455897	0.6082862159055367				
399.71044921875	0.2	818607	323	55	3	0	0	36	346	stimuli\Videos_short_600ms_vertflip\79.long_with_soft_brush_all_over_the_hand_short_vertflip_short_600ms.mp4	79.long_with_soft_brush_all_over_the_hand_short_vertflip_short_600ms.mp4	394.51520323322165	395.12351261562344	0.6083093824017851				
400.51025390625	0.2	820245	324	55	3	0	0	37	123	stimuli\Videos_short_600ms_horflip\4.repeated_tap_with_finger_slow_short_horflip_short_600ms.mp4	4.repeated_tap_with_finger_slow_short_horflip_short_600ms.mp4	395.3151919138959	395.9235165451305	0.6083246312346091				
401.31005859375	0.2	821883	325	55	3	0	0	38	322	stimuli\Videos_short_600ms_vertflip\57.single_touch_with_nail_file_short_vertflip_short_600ms.mp4	57.single_touch_with_nail_file_short_vertflip_short_600ms.mp4	396.1151791283355	396.7235022933364	0.6083231650009111				
402.1103515625	0.2	823522	326	55	3	0	1	39	368	stimuli\Targets_short_600ms_horflip\chopstickwood-tap_short_horflip_short_600ms.mp4	chopstickwood-tap_short_horflip_short_600ms.mp4	396.9151689819969	397.5234892145295	0.6083202325326056				
402.91015625	0.2	825160	327	55	3	0	0	40	224	stimuli\Videos_short_600ms_horvertflip\5.repeated_tap_with_finger_moving_from_top_to_bottom_short_horvertflip_short_600ms.mp4	5.repeated_tap_with_finger_moving_from_top_to_bottom_short_horvertflip_short_600ms.mp4	397.7151541437093	398.32349285079	0.6083387070807476				
403.7099609375	0.2	826798	328	55	3	0	0	41	80	stimuli\Videos_short_600ms\82.repeated_touch_with_cotton_bud_short_short_600ms.mp4	82.repeated_touch_with_cotton_bud_short_short_600ms.mp4	398.5151419446424	399.1235293306904	0.6083873860479798				
404.51025390625	0.2	828437	329	55	3	0	0	42	207	stimuli\Videos_short_600ms_horvertflip\34.repeated_punch_with_hand_short_horvertflip_short_600ms.mp4	34.repeated_punch_with_hand_short_horvertflip_short_600ms.mp4	399.31513121181024	399.9234505646027	0.6083193527924777				
405.31005859375	0.2	830075	330	55	3	0	0	43	231	stimuli\Videos_short_600ms_horvertflip\56.repeated_touch_with_nail_file_short_horvertflip_short_600ms.mp4	56.repeated_touch_with_nail_file_short_horvertflip_short_600ms.mp4	400.1151163735226	400.7234386587829	0.6083222852603285				
406.10986328125	0.2	831713	331	55	3	0	0	44	142	stimuli\Videos_short_600ms_horflip\57.single_touch_with_nail_file_short_horflip_short_600ms.mp4	57.single_touch_with_nail_file_short_horflip_short_600ms.mp4	400.9151050541964	401.52342528672943	0.6083202325330603				
406.91015625	0.2	833352	332	55	3	0	0	45	14	stimuli\Videos_short_600ms\22.single_touch_with_metal_chopstick_short_short_600ms.mp4	22.single_touch_with_metal_chopstick_short_short_600ms.mp4	401.7150934416236	402.3234133809096	0.6083199392860479				
407.7099609375	0.2	834990	333	55	3	0	0	46	180	stimuli\Videos_short_600ms_horvertflip\1.repeated_touch_with_finger_fast_short_horvertflip_short_600ms.mp4	1.repeated_touch_with_finger_fast_short_horvertflip_short_600ms.mp4	402.51508094931023	403.12339971560914	0.6083187662989076				
408.509765625	0.2	836628	334	55	3	0	0	47	73	stimuli\Videos_short_600ms\76.tickle_with_fingers_from_top_to_bottom_short_short_600ms.mp4	76.tickle_with_fingers_from_top_to_bottom_short_short_600ms.mp4	403.31506523128246	403.92338956927006	0.6083243379875967				
409.31005859375	0.2	838267	335	55	3	0	0	48	353	stimuli\Videos_short_600ms_vertflip\85.touch_top_to_bottom_with_fabric_short_vertflip_short_600ms.mp4	85.touch_top_to_bottom_with_fabric_short_vertflip_short_600ms.mp4	404.1150322116937	404.72337619721657	0.6083439855228789				
410.10986328125	0.2	839905	336	55	3	0	0	49	77	stimuli\Videos_short_600ms\8.single_touch_with_hairbrush_short_short_600ms.mp4	8.single_touch_with_hairbrush_short_short_600ms.mp4	404.91504112639586	405.5233645846438	0.6083234582479236				
410.91015625	0.2	841544	337	55	3	0	0	50	38	stimuli\Videos_short_600ms\44.pushing_top_to_bottom_with_finger_short_short_600ms.mp4	44.pushing_top_to_bottom_with_finger_short_short_600ms.mp4	405.7150365517459	406.323352972071	0.6083164203250817				
411.7099609375	0.2	843182	338	55	3	0	0	51	261	stimuli\Videos_short_600ms_horvertflip\83.single_stroke_top_to_bottom_with_cotton_bud_short_horvertflip_short_600ms.mp4	83.single_stroke_top_to_bottom_with_cotton_bud_short_horvertflip_short_600ms.mp4	406.5150214202117	407.12332611066495	0.6083046904532239				
412.509765625	0.2	844820	339	55	3	0	0	52	157	stimuli\Videos_short_600ms_horflip\70.(long)stroke_with_finger_all_over_the_hand_short_horflip_short_600ms.mp4	70.(long)stroke_with_finger_all_over_the_hand_short_horflip_short_600ms.mp4	407.31498048296	407.9233326793928	0.6083521964328611				
413.31005859375	0.2	846459	340	55	3	0	0	53	54	stimuli\Videos_short_600ms\59.single_push_with_long_side_pencil_short_short_600ms.mp4	59.single_push_with_long_side_pencil_short_short_600ms.mp4	408.114997022079	408.7233160816245	0.6083190595454653				
414.10986328125	0.2	848097	341	55	3	0	0	54	359	stimuli\Videos_short_600ms_vertflip\90.repeated_touch_with_sponge_short_vertflip_short_600ms.mp4	90.repeated_touch_with_sponge_short_vertflip_short_600ms.mp4	408.9149933271692	409.5233118002216	0.6083184730523499				
414.90966796875	0.2	849735	342	55	3	0	0	55	277	stimuli\Videos_short_600ms_vertflip\16.repeated_touch_with_plastic_brush_short_vertflip_short_600ms.mp4	16.repeated_touch_with_plastic_brush_short_vertflip_short_600ms.mp4	409.714969398231	410.3232699832293	0.6083005849982328				
415.7099609375	0.2	851374	343	55	3	0	0	56	91	stimuli\Videos_short_600ms_horflip\10.single_touch_with_knife_short_horflip_short_600ms.mp4	10.single_touch_with_knife_short_horflip_short_600ms.mp4	410.5149583721518	411.12328300338686	0.6083246312350639				
416.509765625	0.2	853012	344	55	3	0	0	57	145	stimuli\Videos_short_600ms_horflip\6.single_touch_with_flat_hand_short_horflip_short_600ms.mp4	6.single_touch_with_flat_hand_short_horflip_short_600ms.mp4	411.3149485190597	411.9232684583458	0.6083199392860479				
417.3095703125	0.2	854650	345	55	3	0	0	58	33	stimuli\Videos_short_600ms\4.repeated_tap_with_finger_slow_short_short_600ms.mp4	4.repeated_tap_with_finger_slow_short_short_600ms.mp4	412.1149348537592	412.7232562592794	0.6083214055202006				
418.10986328125	0.2	856289	346	55	3	0	1	59	372	stimuli\Targets_short_600ms_horvertflip\brush-stroke_short_vertflip_short_600ms.mp4	brush-stroke_short_vertflip_short_600ms.mp4	412.9149220681993	413.52324054125165	0.6083184730523499				
418.90966796875	0.2	857927	347	55	3	0	0	60	202	stimuli\Videos_short_600ms_horvertflip\3.single_push_with_finger_short_horvertflip_short_600ms.mp4	3.single_push_with_finger_short_horvertflip_short_600ms.mp4	413.7149098691325	414.32323948556314	0.6083296164306375				
419.70947265625	0.2	859565	348	55	3	0	0	61	260	stimuli\Videos_short_600ms_horvertflip\82.repeated_touch_with_cotton_bud_short_horvertflip_short_600ms.mp4	82.repeated_touch_with_cotton_bud_short_horvertflip_short_600ms.mp4	414.514896497079	415.1232530922139	0.6083565951348646				
420.509765625	0.2	861204	349	55	3	0	0	62	72	stimuli\Videos_short_600ms\75.(long)stroke_with_fingers_all_over_the_hand_short_short_600ms.mp4	75.(long)stroke_with_fingers_all_over_the_hand_short_short_600ms.mp4	415.3148851777528	415.9232341484712	0.6083489707184526				
421.3095703125	0.2	862842	350	55	3	0	1	63	380	stimuli\Targets_short_600ms_vertflip\chopstickwood-tap_short_horvertflip_short_600ms.mp4	chopstickwood-tap_short_horvertflip_short_600ms.mp4	416.1148756179077	416.7231926247259	0.6083170068181971				
422.109375	0.2	864480	351	55	3	0	0	64	1	stimuli\Videos_short_600ms\10.single_touch_with_knife_short_short_600ms.mp4	10.single_touch_with_knife_short_short_600ms.mp4	416.91486283234735	417.52318101215315	0.6083181798057922				
422.90966796875	0.2	866119	352	55	3	0	0	65	217	stimuli\Videos_short_600ms_horvertflip\43.touch_top_to_bottom_with_sharp_wooden_stick_short_horvertflip_short_600ms.mp4	43.touch_top_to_bottom_with_sharp_wooden_stick_short_horvertflip_short_600ms.mp4	417.714859137438	418.3231667603591	0.6083076229210747				
423.70947265625	0.2	867757	353	55	3	0	0	66	274	stimuli\Videos_short_600ms_vertflip\13.single_touch_with_pen_short_vertflip_short_600ms.mp4	13.single_touch_with_pen_short_vertflip_short_600ms.mp4	418.5148126284971	419.12315661402	0.6083439855228789				
424.50927734375	0.2	869395	354	55	3	0	1	67	362	stimuli\Targets_short_600ms\chopstickwood-tap_short_short_600ms.mp4	chopstickwood-tap_short_short_600ms.mp4	419.3147989631966	419.92314382846007	0.6083448652634615				
425.3095703125	0.2	871034	355	55	3	0	0	68	172	stimuli\Videos_short_600ms_horflip\84.single_touch_with_cotton_bud_short_horflip_short_600ms.mp4	84.single_touch_with_cotton_bud_short_horflip_short_600ms.mp4	420.11487239219286	420.7231046506886	0.6082322584957183				
426.109375	0.2	872672	356	55	3	0	0	69	321	stimuli\Videos_short_600ms_vertflip\56.repeated_touch_with_nail_file_short_vertflip_short_600ms.mp4	56.repeated_touch_with_nail_file_short_vertflip_short_600ms.mp4	420.91479773156016	421.5231197235739	0.6083219920137708				
426.9091796875	0.2	874310	357	55	3	0	1	70	378	stimuli\Targets_short_600ms_vertflip\brush-stroke_short_horvertflip_short_600ms.mp4	brush-stroke_short_horvertflip_short_600ms.mp4	421.7147972623652	422.32311162996257	0.6083143675973588				
427.70947265625	0.2	875949	358	55	3	0	0	71	237	stimuli\Videos_short_600ms_horvertflip\61.single_hit_with_rolling_pin_short_horvertflip_short_600ms.mp4	61.single_hit_with_rolling_pin_short_horvertflip_short_600ms.mp4	422.51478740927314	423.12309444570064	0.6083070364275045				
428.50927734375	0.2	877587	359	55	3	0	0	72	189	stimuli\Videos_short_600ms_horvertflip\18.single_stroke_from_top_to_bottom_with_rolling_pin_short_horvertflip_short_600ms.mp4	18.single_stroke_from_top_to_bottom_with_rolling_pin_short_horvertflip_short_600ms.mp4	423.3147623073478	423.92308224663384	0.6083199392860479				
429.3095703125	0.2	879226	360	55	3	0	0	73	45	stimuli\Videos_short_600ms\50.single_(long)hard_push_with_thumb_short_short_600ms.mp4	50.single_(long)hard_push_with_thumb_short_short_600ms.mp4	424.1147542137364	424.7230486405519	0.6082944268155188				
430.109375	0.2	880864	361	55	3	0	1	74	369	stimuli\Targets_short_600ms_horflip\finger-tap_short_horflip_short_600ms.mp4	finger-tap_short_horflip_short_600ms.mp4	424.91473644298094	425.5230590214883	0.608322578507341				
430.9091796875	0.2	882502	362	55	3	0	0	75	280	stimuli\Videos_short_600ms_vertflip\19.single_touch_with_rolling_pin_short_vertflip_short_600ms.mp4	19.single_touch_with_rolling_pin_short_vertflip_short_600ms.mp4	425.71472307092745	426.3230779065816	0.6083548356541542				
431.70947265625	0.2	884141	363	55	3	0	0	76	58	stimuli\Videos_short_600ms\62.touch_top_to_bottom_with_scissors_short_short_600ms.mp4	62.touch_top_to_bottom_with_scissors_short_short_600ms.mp4	426.51471439082206	427.1230601358261	0.6083457450040441				
432.50927734375	0.2	885779	364	55	3	0	0	77	44	stimuli\Videos_short_600ms\5.repeated_tap_with_finger_moving_from_top_to_bottom_short_short_600ms.mp4	5.repeated_tap_with_finger_moving_from_top_to_bottom_short_short_600ms.mp4	427.3146995525349	427.9230227175358	0.6083231650009111				
433.30908203125	0.2	887417	365	55	3	0	0	78	326	stimuli\Videos_short_600ms_vertflip\60.single_push_with_tip_of_pencil_short_vertflip_short_600ms.mp4	60.single_push_with_tip_of_pencil_short_vertflip_short_600ms.mp4	428.1146888197022	428.72300934548184	0.608320525779618				
434.109375	0.2	889056	366	55	3	0	0	79	116	stimuli\Videos_short_600ms_horflip\33.scratch_top_to_bottom_with_scissors_short_horflip_short_600ms.mp4	33.scratch_top_to_bottom_with_scissors_short_horflip_short_600ms.mp4	428.9146751544017	429.5230261778479	0.6083510234461755				
434.9091796875	0.2	890694	367	55	3	0	0	80	59	stimuli\Videos_short_600ms\63.stroke_top_to_bottom_with_screwdriver_short_short_600ms.mp4	63.stroke_top_to_bottom_with_screwdriver_short_short_600ms.mp4	429.71466500806264	430.3230013691691	0.6083363611064669				
435.708984375	0.2	892332	368	55	3	0	0	81	82	stimuli\Videos_short_600ms\84.single_touch_with_cotton_bud_short_short_600ms.mp4	84.single_touch_with_cotton_bud_short_short_600ms.mp4	430.5146525157498	431.1229718685422	0.6083193527924777				
436.50927734375	0.2	893971	369	55	3	0	0	82	335	stimuli\Videos_short_600ms_vertflip\69.stroke_with_soft_sock_short_vertflip_short_600ms.mp4	69.stroke_with_soft_sock_short_vertflip_short_600ms.mp4	431.3146391436958	431.92295966947586	0.6083205257800728				
437.30908203125	0.2	895609	370	55	3	0	0	83	87	stimuli\Videos_short_600ms\89.single_touch_with_plastic_brush_short_short_600ms.mp4	89.single_touch_with_plastic_brush_short_short_600ms.mp4	432.1146266513824	432.7229471771625	0.6083205257800728				
438.10888671875	0.2	897247	371	55	3	0	0	84	122	stimuli\Videos_short_600ms_horflip\39.single_stab_with_scissors_short_horflip_short_600ms.mp4	39.single_stab_with_scissors_short_horflip_short_600ms.mp4	432.9146179712775	433.52293380510855	0.6083158338310568				
438.9091796875	0.2	898886	372	55	3	0	0	85	102	stimuli\Videos_short_600ms_horflip\20.single_touch_with_screwdriver_short_horflip_short_600ms.mp4	20.single_touch_with_screwdriver_short_horflip_short_600ms.mp4	433.7145996140284	434.32292219253577	0.608322578507341				
439.708984375	0.2	900524	373	55	3	0	0	86	269	stimuli\Videos_short_600ms_horvertflip\90.repeated_touch_with_sponge_short_horvertflip_short_600ms.mp4	90.repeated_touch_with_sponge_short_horvertflip_short_600ms.mp4	434.51456542145297	435.122910579963	0.6083451585100192				
440.5087890625	0.2	902162	374	55	3	0	0	87	39	stimuli\Videos_short_600ms\45.scratching_with_finger_nails_short_short_600ms.mp4	45.scratching_with_finger_nails_short_short_600ms.mp4	435.31455380887974	435.9228986741432	0.6083448652634615				
