onset	duration	onsetsample	eventnumber	subjectnr	sequencenumber	blocksequencenumber	istarget	presentationnumber	stimnumber	stim	stimname	time_stimon	time_stimoff	stimdur	cresp	resp	rt	correct
99.1982421875	0.2	203158	0	14	0	0	0	0	334	stimuli\Videos_short_600ms_vertflip\68.stroke_top_to_bottom_with_shawl_short_vertflip_short_600ms.mp4	68.stroke_top_to_bottom_with_shawl_short_vertflip_short_600ms.mp4	212.16005695960484	212.7643885757052	0.6043316161003531				
99.998046875	0.2	204796	1	14	0	0	0	1	31	stimuli\Videos_short_600ms\38.double_slap_with_pencil_short_short_600ms.mp4	38.double_slap_with_pencil_short_short_600ms.mp4	212.9643855846216	213.5727020857821	0.608316501160516				
100.79833984375	0.2	206435	2	14	0	0	0	2	23	stimuli\Videos_short_600ms\30.finger_pulling_back_another_finger_short_short_600ms.mp4	30.finger_pulling_back_another_finger_short_short_600ms.mp4	213.7644296297858	214.37267751198215	0.6082478821963377				
101.59814453125	0.2	208073	3	14	0	0	0	3	18	stimuli\Videos_short_600ms\26.single_touch_with_a_blunt_syringe_short_short_600ms.mp4	26.single_touch_with_a_blunt_syringe_short_short_600ms.mp4	214.56433760999607	215.17265704359033	0.6083194335942608				
102.39794921875	0.2	209711	4	14	0	0	0	4	179	stimuli\Videos_short_600ms_horflip\90.repeated_touch_with_sponge_short_horflip_short_600ms.mp4	90.repeated_touch_with_sponge_short_horflip_short_600ms.mp4	215.36431596862985	215.97263334952095	0.6083173808910942				
103.1982421875	0.2	211350	5	14	0	0	0	5	159	stimuli\Videos_short_600ms_horflip\72.(short)stroke_with_finger_all_over_the_hand_short_horflip_short_600ms.mp4	72.(short)stroke_with_finger_all_over_the_hand_short_horflip_short_600ms.mp4	216.1644503327725	216.77261229464148	0.6081619618689729				
103.998046875	0.2	212988	6	14	0	0	0	6	293	stimuli\Videos_short_600ms_vertflip\30.finger_pulling_back_another_finger_short_vertflip_short_600ms.mp4	30.finger_pulling_back_another_finger_short_vertflip_short_600ms.mp4	216.96431520619717	217.5725921194935	0.6082769132963222				
104.7978515625	0.2	214626	7	14	0	0	0	7	240	stimuli\Videos_short_600ms_horvertflip\64.repeated_touch_with_screwdriver_short_horvertflip_short_600ms.mp4	64.repeated_touch_with_screwdriver_short_horvertflip_short_600ms.mp4	217.76456628122745	218.37257018488435	0.608003903656936				
105.59814453125	0.2	216265	8	14	0	0	0	8	314	stimuli\Videos_short_600ms_vertflip\5.repeated_tap_with_finger_moving_from_top_to_bottom_short_vertflip_short_600ms.mp4	5.repeated_tap_with_finger_moving_from_top_to_bottom_short_vertflip_short_600ms.mp4	218.5641933342249	219.17254883676196	0.6083555025370515				
106.39794921875	0.2	217903	9	14	0	0	0	9	139	stimuli\Videos_short_600ms_horflip\54.repeated_touch_with_knife_short_horflip_short_600ms.mp4	54.repeated_touch_with_knife_short_horflip_short_600ms.mp4	219.36417491853717	219.97252455620583	0.6083496376686526				
107.19775390625	0.2	219541	10	14	0	0	0	10	189	stimuli\Videos_short_600ms_horvertflip\18.single_stroke_from_top_to_bottom_with_rolling_pin_short_horvertflip_short_600ms.mp4	18.single_stroke_from_top_to_bottom_with_rolling_pin_short_horvertflip_short_600ms.mp4	220.16421837721464	220.7725020351099	0.6082836578952993				
107.998046875	0.2	221180	11	14	0	0	0	11	151	stimuli\Videos_short_600ms_horflip\65.stroke_top_to_bottom_with_stanley_knife_short_horflip_short_600ms.mp4	65.stroke_top_to_bottom_with_stanley_knife_short_horflip_short_600ms.mp4	220.9650055012471	221.5724381666887	0.6074326654415927				
108.7978515625	0.2	222818	12	14	0	0	0	12	341	stimuli\Videos_short_600ms_vertflip\74.fingers_walking_from_top_to_bottom_short_vertflip_short_600ms.mp4	74.fingers_walking_from_top_to_bottom_short_vertflip_short_600ms.mp4	221.76418125259536	222.37243793209473	0.6082566794993909				
109.59765625	0.2	224456	13	14	0	0	0	13	353	stimuli\Videos_short_600ms_vertflip\85.touch_top_to_bottom_with_fabric_short_vertflip_short_600ms.mp4	85.touch_top_to_bottom_with_fabric_short_vertflip_short_600ms.mp4	222.56412647472095	223.17241687721528	0.6082904024942763				
110.39794921875	0.2	226095	14	14	0	0	0	14	166	stimuli\Videos_short_600ms_horflip\79.long_with_soft_brush_all_over_the_hand_short_horflip_short_600ms.mp4	79.long_with_soft_brush_all_over_the_hand_short_horflip_short_600ms.mp4	223.36447901198065	223.97240256693567	0.6079235549550503				
111.19775390625	0.2	227733	15	14	0	0	0	15	14	stimuli\Videos_short_600ms\22.single_touch_with_metal_chopstick_short_short_600ms.mp4	22.single_touch_with_metal_chopstick_short_short_600ms.mp4	224.1641060649781	224.7723782863795	0.6082722214014211				
111.998046875	0.2	229372	16	14	0	0	0	16	337	stimuli\Videos_short_600ms_vertflip\70.(long)stroke_with_finger_all_over_the_hand_short_vertflip_short_600ms.mp4	70.(long)stroke_with_finger_all_over_the_hand_short_vertflip_short_600ms.mp4	224.96403222628123	225.572379518002	0.6083472917207473				
112.7978515625	0.2	231010	17	14	0	0	0	17	93	stimuli\Videos_short_600ms_horflip\12.repeated_touch_with_nail_file_short_horflip_short_600ms.mp4	12.repeated_touch_with_nail_file_short_horflip_short_600ms.mp4	225.76403756331183	226.37236110231424	0.6083235390024129				
113.60595703125	0.2	232665	18	14	0	0	0	18	338	stimuli\Videos_short_600ms_vertflip\71.single_stroke_with_finger_top_to_bottom_short_vertflip_short_600ms.mp4	71.single_stroke_with_finger_top_to_bottom_short_vertflip_short_600ms.mp4	226.56401181653743	227.17233125013172	0.6083194335942608				
114.40625	0.2	234304	19	14	0	0	0	19	0	stimuli\Videos_short_600ms\1.repeated_touch_with_finger_fast_short_short_600ms.mp4	1.repeated_touch_with_finger_fast_short_short_600ms.mp4	227.37233060499693	227.98061836829947	0.6082877633025419				
115.2060546875	0.2	235942	20	14	0	0	0	20	136	stimuli\Videos_short_600ms_horflip\51.repeated_touch_with_hammer_short_horflip_short_600ms.mp4	51.repeated_touch_with_hammer_short_horflip_short_600ms.mp4	228.17230133930116	228.78058822287497	0.6082868835737827				
116.005859375	0.2	237580	21	14	0	0	0	21	342	stimuli\Videos_short_600ms_vertflip\75.(long)stroke_with_fingers_all_over_the_hand_short_vertflip_short_600ms.mp4	75.(long)stroke_with_fingers_all_over_the_hand_short_vertflip_short_600ms.mp4	228.97228790875215	229.58060030450451	0.608312395752364				
116.80615234375	0.2	239219	22	14	0	0	0	22	35	stimuli\Videos_short_600ms\41.injection_with_blunt_syringe_short_short_600ms.mp4	41.injection_with_blunt_syringe_short_short_600ms.mp4	229.77226509441243	230.3805645874536	0.6082994930411587				
117.60595703125	0.2	240857	23	14	0	0	0	23	103	stimuli\Videos_short_600ms_horflip\21.repeated_touch_with_metal_chopstick_short_horflip_short_600ms.mp4	21.repeated_touch_with_metal_chopstick_short_horflip_short_600ms.mp4	230.57223582871757	231.18056757853628	0.6083317498187171				
118.40576171875	0.2	242495	24	14	0	0	0	24	317	stimuli\Videos_short_600ms_vertflip\52.touch_top_to_bottom_with_hammer_short_vertflip_short_600ms.mp4	52.touch_top_to_bottom_with_hammer_short_vertflip_short_600ms.mp4	231.37226403873683	231.98053362094652	0.6082695822096866				
119.2060546875	0.2	244134	25	14	0	0	0	25	150	stimuli\Videos_short_600ms_horflip\64.repeated_touch_with_screwdriver_short_horflip_short_600ms.mp4	64.repeated_touch_with_screwdriver_short_horflip_short_600ms.mp4	232.1721837486839	232.78052400256183	0.608340253877941				
120.005859375	0.2	245772	26	14	0	0	0	26	327	stimuli\Videos_short_600ms_vertflip\61.single_hit_with_rolling_pin_short_vertflip_short_600ms.mp4	61.single_hit_with_rolling_pin_short_vertflip_short_600ms.mp4	232.97217119786455	233.5804906314588	0.6083194335942608				
120.8056640625	0.2	247410	27	14	0	0	0	27	283	stimuli\Videos_short_600ms_vertflip\21.repeated_touch_with_metal_chopstick_short_vertflip_short_600ms.mp4	21.repeated_touch_with_metal_chopstick_short_vertflip_short_600ms.mp4	233.7721527821768	234.380470163067	0.6083173808901847				
121.60595703125	0.2	249049	28	14	0	0	0	28	292	stimuli\Videos_short_600ms_vertflip\3.single_push_with_finger_short_vertflip_short_600ms.mp4	3.single_push_with_finger_short_vertflip_short_600ms.mp4	234.57213378000145	235.18044793521403	0.6083141552126108				
122.40576171875	0.2	250687	29	14	0	0	0	29	33	stimuli\Videos_short_600ms\4.repeated_tap_with_finger_slow_short_short_600ms.mp4	4.repeated_tap_with_finger_slow_short_short_600ms.mp4	235.3721039278198	235.98042336141407	0.6083194335942608				
123.20556640625	0.2	252325	30	14	0	0	0	30	72	stimuli\Videos_short_600ms\75.(long)stroke_with_fingers_all_over_the_hand_short_short_600ms.mp4	75.(long)stroke_with_fingers_all_over_the_hand_short_short_600ms.mp4	236.17204680399848	236.78040523897016	0.6083584349717057				
124.005859375	0.2	253964	31	14	0	0	0	31	58	stimuli\Videos_short_600ms\62.touch_top_to_bottom_with_scissors_short_short_600ms.mp4	62.touch_top_to_bottom_with_scissors_short_short_600ms.mp4	236.9720254558761	237.5803818381437	0.6083563822676297				
124.8056640625	0.2	255602	32	14	0	0	0	32	96	stimuli\Videos_short_600ms_horflip\15.single_stroke_top_to_bottom_with_a_plastic_whisk_short_horflip_short_600ms.mp4	15.single_stroke_top_to_bottom_with_a_plastic_whisk_short_horflip_short_600ms.mp4	237.7720005888332	238.3803640089427	0.6083634201095265				
125.60546875	0.2	257240	33	14	0	0	0	33	213	stimuli\Videos_short_600ms_horvertflip\4.repeated_tap_with_finger_slow_short_horvertflip_short_600ms.mp4	4.repeated_tap_with_finger_slow_short_horvertflip_short_600ms.mp4	238.57198012044137	239.18033914189985	0.6083590214584547				
126.40576171875	0.2	258879	34	14	0	0	0	34	264	stimuli\Videos_short_600ms_horvertflip\86.touch_top_to_bottom_with_hair_brush_short_horvertflip_short_600ms.mp4	86.touch_top_to_bottom_with_hair_brush_short_horvertflip_short_600ms.mp4	239.37196786286583	239.98032043296823	0.6083525701023973				
127.20556640625	0.2	260517	35	14	0	0	0	35	267	stimuli\Videos_short_600ms_horvertflip\89.single_touch_with_plastic_brush_short_horvertflip_short_600ms.mp4	89.single_touch_with_plastic_brush_short_horvertflip_short_600ms.mp4	240.17197202692205	240.7802773848316	0.6083053579095576				
128.005859375	0.2	262156	36	14	0	0	0	36	152	stimuli\Videos_short_600ms_horflip\66.stroke_top_to_bottom_with_sponge_short_horflip_short_600ms.mp4	66.stroke_top_to_bottom_with_sponge_short_horflip_short_600ms.mp4	240.97196211529445	241.58022993804389	0.6082678227494398				
128.8056640625	0.2	263794	37	14	0	0	0	37	305	stimuli\Videos_short_600ms_vertflip\41.injection_with_blunt_syringe_short_vertflip_short_600ms.mp4	41.injection_with_blunt_syringe_short_vertflip_short_600ms.mp4	241.7719448725802	242.38022794398785	0.6082830714076408				
129.60546875	0.2	265432	38	14	0	0	0	38	116	stimuli\Videos_short_600ms_horflip\33.scratch_top_to_bottom_with_scissors_short_horflip_short_600ms.mp4	33.scratch_top_to_bottom_with_scissors_short_horflip_short_600ms.mp4	242.57192850959655	243.18018548233889	0.6082569727423106				
130.40576171875	0.2	267071	39	14	0	0	0	39	290	stimuli\Videos_short_600ms_vertflip\28.single_injection_with_sharp_needle_short_vertflip_short_600ms.mp4	28.single_injection_with_sharp_needle_short_vertflip_short_600ms.mp4	243.37196199799655	243.9801855409878	0.6082235429912544				
131.20556640625	0.2	268709	40	14	0	0	0	40	197	stimuli\Videos_short_600ms_horvertflip\25.single_touch_with_stanley_knife_short_horvertflip_short_600ms.mp4	25.single_touch_with_stanley_knife_short_horvertflip_short_600ms.mp4	244.17186382009368	244.7801700577338	0.6083062376401358				
132.00537109375	0.2	270347	41	14	0	0	0	41	355	stimuli\Videos_short_600ms_vertflip\87.single_stroke_top_to_bottom_with_plastic_brush_short_vertflip_short_600ms.mp4	87.single_stroke_top_to_bottom_with_plastic_brush_short_vertflip_short_600ms.mp4	244.97184745711	245.580149589342	0.6083021322319837				
132.8056640625	0.2	271986	42	14	0	0	0	42	107	stimuli\Videos_short_600ms_horflip\25.single_touch_with_stanley_knife_short_horflip_short_600ms.mp4	25.single_touch_with_stanley_knife_short_horflip_short_600ms.mp4	245.7719219995915	246.38015903178075	0.6082370321892085				
133.60546875	0.2	273624	43	14	0	0	0	43	97	stimuli\Videos_short_600ms_horflip\16.repeated_touch_with_plastic_brush_short_horflip_short_600ms.mp4	16.repeated_touch_with_plastic_brush_short_horflip_short_600ms.mp4	246.57180564059672	247.18012448770423	0.6083188471075118				
134.4052734375	0.2	275262	44	14	0	0	0	44	176	stimuli\Videos_short_600ms_horflip\88.repeated_stroke_with_plastic_brush_short_horflip_short_600ms.mp4	88.repeated_stroke_with_plastic_brush_short_horflip_short_600ms.mp4	247.37178429247433	247.98011164364107	0.6083273511667358				
135.20556640625	0.2	276901	45	14	0	0	0	45	43	stimuli\Videos_short_600ms\49.repeated_slap_with_hand_short_short_600ms.mp4	49.repeated_slap_with_hand_short_short_600ms.mp4	248.17173743217336	248.78008179145945	0.6083443592860931				
136.00537109375	0.2	278539	46	14	0	0	0	46	196	stimuli\Videos_short_600ms_horvertflip\24.single_stroke_top_to_bottom_with_a_spoon_short_horvertflip_short_600ms.mp4	24.single_stroke_top_to_bottom_with_a_spoon_short_horvertflip_short_600ms.mp4	248.97174013001225	249.5800563379289	0.6083162079166868				
136.80517578125	0.2	280177	47	14	0	0	1	47	364	stimuli\Targets_short_600ms\hand-pinch_short_short_600ms.mp4	hand-pinch_short_short_600ms.mp4	249.7717721521958	250.38003616278093	0.6082640105851169				
137.60546875	0.2	281816	48	14	0	0	0	48	195	stimuli\Videos_short_600ms_horvertflip\23.single_push_with_a_spoon_short_horvertflip_short_600ms.mp4	23.single_push_with_a_spoon_short_horvertflip_short_600ms.mp4	250.5717015391765	251.1800165741188	0.6083150349422795				
138.4052734375	0.2	283454	49	14	0	0	0	49	279	stimuli\Videos_short_600ms_vertflip\18.single_stroke_from_top_to_bottom_with_rolling_pin_short_vertflip_short_600ms.mp4	18.single_stroke_from_top_to_bottom_with_rolling_pin_short_vertflip_short_600ms.mp4	251.37171068837145	251.97999346653617	0.6082827781647211				
139.205078125	0.2	285092	50	14	0	0	0	50	233	stimuli\Videos_short_600ms_horvertflip\58.single_slap_with_pencil_short_horvertflip_short_600ms.mp4	58.single_slap_with_pencil_short_horvertflip_short_600ms.mp4	252.17163127804903	252.77997182517083	0.6083405471217702				
140.00537109375	0.2	286731	51	14	0	0	0	51	214	stimuli\Videos_short_600ms_horvertflip\40.repeated_push_with_finger_short_horvertflip_short_600ms.mp4	40.repeated_push_with_finger_short_horvertflip_short_600ms.mp4	252.97159174883384	253.57994842434437	0.6083566755105494				
140.80517578125	0.2	288369	52	14	0	0	0	52	119	stimuli\Videos_short_600ms_horflip\36.single_slap_with_full_hand_short_horflip_short_600ms.mp4	36.single_slap_with_full_hand_short_horflip_short_600ms.mp4	253.7715806642318	254.37992766270963	0.6083469984778276				
141.60498046875	0.2	290007	53	14	0	0	0	53	98	stimuli\Videos_short_600ms_horflip\17.repeated_touch_with_rolling_pin_short_horflip_short_600ms.mp4	17.repeated_touch_with_rolling_pin_short_horflip_short_600ms.mp4	254.5715695796298	255.17990514161283	0.60833556198304				
142.4052734375	0.2	291646	54	14	0	0	0	54	145	stimuli\Videos_short_600ms_horflip\6.single_touch_with_flat_hand_short_horflip_short_600ms.mp4	6.single_touch_with_flat_hand_short_horflip_short_600ms.mp4	255.3715972031614	255.97989317728116	0.6082959741197556				
143.205078125	0.2	293284	55	14	0	0	0	55	202	stimuli\Videos_short_600ms_horvertflip\3.single_push_with_finger_short_horvertflip_short_600ms.mp4	3.single_push_with_finger_short_horvertflip_short_600ms.mp4	256.17216908651153	256.77985042238834	0.607681335876805				
144.0048828125	0.2	294922	56	14	0	0	0	56	222	stimuli\Videos_short_600ms_horvertflip\48.single_slap_with_hand_short_horvertflip_short_600ms.mp4	48.single_slap_with_hand_short_horvertflip_short_600ms.mp4	256.97150582850645	257.5798191039894	0.6083132754829421				
144.80517578125	0.2	296561	57	14	0	0	0	57	62	stimuli\Videos_short_600ms\66.stroke_top_to_bottom_with_sponge_short_short_600ms.mp4	66.stroke_top_to_bottom_with_sponge_short_short_600ms.mp4	257.7715014885034	258.37977752207007	0.6082760335666535				
145.60498046875	0.2	298199	58	14	0	0	0	58	2	stimuli\Videos_short_600ms\11.single_touch_with_lighter_short_short_600ms.mp4	11.single_touch_with_lighter_short_short_600ms.mp4	258.57148131335543	259.1797752347711	0.6082939214156795				
146.4052734375	0.2	299838	59	14	0	0	0	59	118	stimuli\Videos_short_600ms_horflip\35.single_punch_with_hand_short_horflip_short_600ms.mp4	35.single_punch_with_hand_short_horflip_short_600ms.mp4	259.3714558598249	259.9797582852998	0.6083024254749034				
147.205078125	0.2	301476	60	14	0	0	0	60	344	stimuli\Videos_short_600ms_vertflip\77.tapping_with_all_fingers_short_vertflip_short_600ms.mp4	77.tapping_with_all_fingers_short_vertflip_short_600ms.mp4	260.1714389103545	260.7797586371926	0.60831972683809				
148.0048828125	0.2	303114	61	14	0	0	0	61	230	stimuli\Videos_short_600ms_horvertflip\55.touch_top_to_bottom_with_nail_file_short_horvertflip_short_600ms.mp4	55.touch_top_to_bottom_with_nail_file_short_horvertflip_short_600ms.mp4	260.97141990818	261.57974168772125	0.6083217795412565				
148.80517578125	0.2	304753	62	14	0	0	0	62	117	stimuli\Videos_short_600ms_horflip\34.repeated_punch_with_hand_short_horflip_short_600ms.mp4	34.repeated_punch_with_hand_short_horflip_short_600ms.mp4	261.77143433575657	262.37971183553964	0.6082774997830711				
149.60498046875	0.2	306391	63	14	0	0	0	63	319	stimuli\Videos_short_600ms_vertflip\54.repeated_touch_with_knife_short_vertflip_short_600ms.mp4	54.repeated_touch_with_knife_short_vertflip_short_600ms.mp4	262.57141826601674	263.1796922468784	0.608273980861668				
150.40478515625	0.2	308029	64	14	0	0	0	64	125	stimuli\Videos_short_600ms_horflip\41.injection_with_blunt_syringe_short_horflip_short_600ms.mp4	41.injection_with_blunt_syringe_short_horflip_short_600ms.mp4	263.3714538071208	263.97967031226926	0.608216505148448				
151.205078125	0.2	309668	65	14	0	0	0	65	38	stimuli\Videos_short_600ms\44.pushing_top_to_bottom_with_finger_short_short_600ms.mp4	44.pushing_top_to_bottom_with_finger_short_short_600ms.mp4	264.1713013791823	264.7796425127917	0.6083411336094287				
152.0048828125	0.2	311306	66	14	0	0	0	66	88	stimuli\Videos_short_600ms\9.single_touch_with_hammer_short_short_600ms.mp4	9.single_touch_with_hammer_short_short_600ms.mp4	264.9715251825737	265.5796267362948	0.6081015537210988				
152.8046875	0.2	312944	67	14	0	0	0	67	129	stimuli\Videos_short_600ms_horflip\45.scratching_with_finger_nails_short_horflip_short_600ms.mp4	45.scratching_with_finger_nails_short_horflip_short_600ms.mp4	265.7713281816332	266.3796083206071	0.6082801389738961				
153.60498046875	0.2	314583	68	14	0	0	0	68	244	stimuli\Videos_short_600ms_horvertflip\68.stroke_top_to_bottom_with_shawl_short_horvertflip_short_600ms.mp4	68.stroke_top_to_bottom_with_shawl_short_horvertflip_short_600ms.mp4	266.57127516321907	267.17958404005003	0.6083088768309608				
154.40478515625	0.2	316221	69	14	0	0	0	69	9	stimuli\Videos_short_600ms\18.single_stroke_from_top_to_bottom_with_rolling_pin_short_short_600ms.mp4	18.single_stroke_from_top_to_bottom_with_rolling_pin_short_short_600ms.mp4	267.3711992718181	267.97956063922356	0.6083613674054504				
155.20458984375	0.2	317859	70	14	0	0	0	70	304	stimuli\Videos_short_600ms_vertflip\40.repeated_push_with_finger_short_vertflip_short_600ms.mp4	40.repeated_push_with_finger_short_vertflip_short_600ms.mp4	268.17121193993444	268.77953635866743	0.608324418732991				
156.0048828125	0.2	319498	71	14	0	0	0	71	37	stimuli\Videos_short_600ms\43.touch_top_to_bottom_with_sharp_wooden_stick_short_short_600ms.mp4	43.touch_top_to_bottom_with_sharp_wooden_stick_short_short_600ms.mp4	268.9712436688742	269.57952087541435	0.6082772065401514				
156.8046875	0.2	321136	72	14	0	0	1	72	377	stimuli\Targets_short_600ms_horvertflip\hand-stroke_short_vertflip_short_600ms.mp4	hand-stroke_short_vertflip_short_600ms.mp4	269.77115722070903	270.37949688810113	0.6083396673921015				
157.6044921875	0.2	322774	73	14	0	0	0	73	190	stimuli\Videos_short_600ms_horvertflip\19.single_touch_with_rolling_pin_short_horvertflip_short_600ms.mp4	19.single_touch_with_rolling_pin_short_horvertflip_short_600ms.mp4	270.5714695836177	271.17947202105734	0.6080024374396089				
158.40478515625	0.2	324413	74	14	0	0	0	74	310	stimuli\Videos_short_600ms_vertflip\46.scratching_top_to_bottom_with_finger_nails_short_vertflip_short_600ms.mp4	46.scratching_top_to_bottom_with_finger_nails_short_vertflip_short_600ms.mp4	271.3715279977105	271.9794582972645	0.6079302995540274				
159.20458984375	0.2	326051	75	14	0	0	0	75	301	stimuli\Videos_short_600ms_vertflip\38.double_slap_with_pencil_short_vertflip_short_600ms.mp4	38.double_slap_with_pencil_short_vertflip_short_600ms.mp4	272.1711239669039	272.7794079180421	0.608283951138219				
160.00439453125	0.2	327689	76	14	0	0	0	76	226	stimuli\Videos_short_600ms_horvertflip\51.repeated_touch_with_hammer_short_horvertflip_short_600ms.mp4	51.repeated_touch_with_hammer_short_horvertflip_short_600ms.mp4	272.9710741741683	273.5793851037024	0.6083109295341274				
160.8046875	0.2	329328	77	14	0	0	0	77	135	stimuli\Videos_short_600ms_horflip\50.single_(long)hard_push_with_thumb_short_horflip_short_600ms.mp4	50.single_(long)hard_push_with_thumb_short_horflip_short_600ms.mp4	273.77107012740817	274.3793646353106	0.6082945079024284				
161.6044921875	0.2	330966	78	14	0	0	0	78	22	stimuli\Videos_short_600ms\3.single_push_with_finger_short_short_600ms.mp4	3.single_push_with_finger_short_short_600ms.mp4	274.57104731306936	275.17934944530043	0.6083021322310742				
162.404296875	0.2	332604	79	14	0	0	0	79	49	stimuli\Videos_short_600ms\54.repeated_touch_with_knife_short_short_600ms.mp4	54.repeated_touch_with_knife_short_short_600ms.mp4	275.37107933525203	275.9793275106922	0.608248175440167				
163.20458984375	0.2	334243	80	14	0	0	0	80	24	stimuli\Videos_short_600ms\31.hand_grabbing_wrist_short_short_600ms.mp4	31.hand_grabbing_wrist_short_short_600ms.mp4	276.17104185874086	276.7793375396177	0.6082956808768358				
164.00439453125	0.2	335881	81	14	0	0	0	81	356	stimuli\Videos_short_600ms_vertflip\88.repeated_stroke_with_plastic_brush_short_vertflip_short_600ms.mp4	88.repeated_stroke_with_plastic_brush_short_vertflip_short_600ms.mp4	276.970970365991	277.5793024090535	0.6083320430625463				
164.80419921875	0.2	337519	82	14	0	0	0	82	276	stimuli\Videos_short_600ms_vertflip\15.single_stroke_top_to_bottom_with_a_plastic_whisk_short_vertflip_short_600ms.mp4	15.single_stroke_top_to_bottom_with_a_plastic_whisk_short_vertflip_short_600ms.mp4	277.77104989361123	278.37927050416783	0.6082206105566001				
165.6044921875	0.2	339158	83	14	0	0	0	83	255	stimuli\Videos_short_600ms_horvertflip\78.single_stroke_top_to_bottom_with_soft_brush_short_horvertflip_short_600ms.mp4	78.single_stroke_top_to_bottom_with_soft_brush_short_horvertflip_short_600ms.mp4	278.5709065562196	279.1792494492893	0.6083428930696755				
166.404296875	0.2	340796	84	14	0	0	0	84	100	stimuli\Videos_short_600ms_horflip\19.single_touch_with_rolling_pin_short_horflip_short_600ms.mp4	19.single_touch_with_rolling_pin_short_horflip_short_600ms.mp4	279.37089253918293	279.979238951174	0.6083464119910786				
167.20458984375	0.2	342435	85	14	0	0	0	85	260	stimuli\Videos_short_600ms_horvertflip\82.repeated_touch_with_cotton_bud_short_horvertflip_short_600ms.mp4	82.repeated_touch_with_cotton_bud_short_horvertflip_short_600ms.mp4	280.1708984627012	280.77917566924043	0.6082772065392419				
168.00439453125	0.2	344073	86	14	0	0	0	86	345	stimuli\Videos_short_600ms_vertflip\78.single_stroke_top_to_bottom_with_soft_brush_short_vertflip_short_600ms.mp4	78.single_stroke_top_to_bottom_with_soft_brush_short_vertflip_short_600ms.mp4	280.9712169837212	281.57919390898223	0.6079769252610276				
168.80419921875	0.2	345711	87	14	0	0	0	87	330	stimuli\Videos_short_600ms_vertflip\64.repeated_touch_with_screwdriver_short_vertflip_short_600ms.mp4	64.repeated_touch_with_screwdriver_short_vertflip_short_600ms.mp4	281.77129299242006	282.37916786896494	0.6078748765448836				
169.6044921875	0.2	347350	88	14	0	0	0	88	3	stimuli\Videos_short_600ms\12.repeated_touch_with_nail_file_short_short_600ms.mp4	12.repeated_touch_with_nail_file_short_short_600ms.mp4	282.57083500482076	283.17915209246803	0.608317087647265				
170.404296875	0.2	348988	89	14	0	0	0	89	281	stimuli\Videos_short_600ms_vertflip\2.single_touch_with_finger_short_vertflip_short_600ms.mp4	2.single_touch_with_finger_short_vertflip_short_600ms.mp4	283.37076879045344	283.9791081646008	0.6083393741473628				
171.2041015625	0.2	350626	90	14	0	0	0	90	113	stimuli\Videos_short_600ms_horflip\30.finger_pulling_back_another_finger_short_horflip_short_600ms.mp4	30.finger_pulling_back_another_finger_short_horflip_short_600ms.mp4	284.1707711950494	284.779107636763	0.6083364417136181				
172.0048828125	0.2	352266	91	14	0	0	0	91	218	stimuli\Videos_short_600ms_horvertflip\44.pushing_top_to_bottom_with_finger_short_horvertflip_short_600ms.mp4	44.pushing_top_to_bottom_with_finger_short_horvertflip_short_600ms.mp4	284.97144366089833	285.57908423593653	0.6076405750382037	2.0	2.0	2.2454579524101064	1.0
207.419921875	0.2	424796	92	14	1	0	0	0	201	stimuli\Videos_short_600ms_horvertflip\29.single_pinch_with_tweezers_short_horvertflip_short_600ms.mp4	29.single_pinch_with_tweezers_short_horvertflip_short_600ms.mp4	321.18644212430263	321.7947765133122	0.6083343890095421				
208.2197265625	0.2	426434	93	14	1	0	0	1	126	stimuli\Videos_short_600ms_horflip\42.single_slap_with_plastic_whisk_short_horflip_short_600ms.mp4	42.single_slap_with_plastic_whisk_short_horflip_short_600ms.mp4	321.986441303221	322.59475223275604	0.6083109295350368				
209.01953125	0.2	428072	94	14	1	0	0	2	251	stimuli\Videos_short_600ms_horvertflip\74.fingers_walking_from_top_to_bottom_short_horvertflip_short_600ms.mp4	74.fingers_walking_from_top_to_bottom_short_horvertflip_short_600ms.mp4	322.7863953226497	323.394732350851	0.6083370282012766				
209.81982421875	0.2	429711	95	14	1	0	0	3	138	stimuli\Videos_short_600ms_horflip\53.touch_top_to_bottom_with_knife_short_horflip_short_600ms.mp4	53.touch_top_to_bottom_with_knife_short_horflip_short_600ms.mp4	323.5864508043078	324.1947112959715	0.6082604916637138				
210.61962890625	0.2	431349	96	14	1	0	0	4	348	stimuli\Videos_short_600ms_vertflip\80.stroke_with_sharp_stick_all_over_the_hand_short_vertflip_short_600ms.mp4	80.stroke_with_sharp_stick_all_over_the_hand_short_vertflip_short_600ms.mp4	324.3863514534323	324.99468906811944	0.608337614687116				
211.41943359375	0.2	432987	97	14	1	0	0	5	85	stimuli\Videos_short_600ms\87.single_stroke_top_to_bottom_with_plastic_brush_short_short_600ms.mp4	87.single_stroke_top_to_bottom_with_plastic_brush_short_short_600ms.mp4	325.1863130971906	325.79466742675413	0.6083543295635536				
212.2197265625	0.2	434626	98	14	1	0	0	6	59	stimuli\Videos_short_600ms\63.stroke_top_to_bottom_with_screwdriver_short_short_600ms.mp4	63.stroke_top_to_bottom_with_screwdriver_short_short_600ms.mp4	325.98657033033305	326.59464725160524	0.6080769212721862				
213.01953125	0.2	436264	99	14	1	0	0	7	124	stimuli\Videos_short_600ms_horflip\40.repeated_push_with_finger_short_horflip_short_600ms.mp4	40.repeated_push_with_finger_short_horflip_short_600ms.mp4	326.78629210096005	327.3946065494165	0.60831444845644				
213.8193359375	0.2	437902	100	14	1	0	0	8	21	stimuli\Videos_short_600ms\29.single_pinch_with_tweezers_short_short_600ms.mp4	29.single_pinch_with_tweezers_short_short_600ms.mp4	327.5863118069192	328.1946048486043	0.6082930416851013				
214.61962890625	0.2	439541	101	14	1	0	0	9	235	stimuli\Videos_short_600ms_horvertflip\6.single_touch_with_flat_hand_short_horvertflip_short_600ms.mp4	6.single_touch_with_flat_hand_short_horvertflip_short_600ms.mp4	328.38677782938885	328.9945612139809	0.6077833845920395				
215.41943359375	0.2	441179	102	14	1	0	0	10	86	stimuli\Videos_short_600ms\88.repeated_stroke_with_plastic_brush_short_short_600ms.mp4	88.repeated_stroke_with_plastic_brush_short_short_600ms.mp4	329.18628494582026	329.79453722666767	0.6082522808474096				
216.21923828125	0.2	442817	103	14	1	0	1	11	379	stimuli\Targets_short_600ms_vertflip\chopstick-silver-tap_short_horvertflip_short_600ms.mp4	chopstick-silver-tap_short_horvertflip_short_600ms.mp4	329.9862278219989	330.59451177313804	0.6082839511391285				
217.01953125	0.2	444456	104	14	1	0	0	12	217	stimuli\Videos_short_600ms_horvertflip\43.touch_top_to_bottom_with_sharp_wooden_stick_short_horvertflip_short_600ms.mp4	43.touch_top_to_bottom_with_sharp_wooden_stick_short_horvertflip_short_600ms.mp4	330.78617744277653	331.39450332772685	0.6083258849503181				
217.8193359375	0.2	446094	105	14	1	0	0	13	225	stimuli\Videos_short_600ms_horvertflip\50.single_(long)hard_push_with_thumb_short_horvertflip_short_600ms.mp4	50.single_(long)hard_push_with_thumb_short_horvertflip_short_600ms.mp4	331.58618190007655	332.19449576204624	0.6083138619696911				
218.619140625	0.2	447732	106	14	1	0	0	14	63	stimuli\Videos_short_600ms\67.single_touch_with_sponge_short_short_600ms.mp4	67.single_touch_with_sponge_short_short_600ms.mp4	332.3861596722245	332.99448350447074	0.6083238322462421				
219.41943359375	0.2	449371	107	14	1	0	0	15	321	stimuli\Videos_short_600ms_vertflip\56.repeated_touch_with_nail_file_short_vertflip_short_600ms.mp4	56.repeated_touch_with_nail_file_short_vertflip_short_600ms.mp4	333.1861359781551	333.79445394553204	0.6083179673769337				
220.21923828125	0.2	451009	108	14	1	0	0	16	60	stimuli\Videos_short_600ms\64.repeated_touch_with_screwdriver_short_short_600ms.mp4	64.repeated_touch_with_screwdriver_short_short_600ms.mp4	333.98611140435423	334.59444315417386	0.6083317498196266				
221.01904296875	0.2	452647	109	14	1	0	0	17	183	stimuli\Videos_short_600ms_horvertflip\12.repeated_touch_with_nail_file_short_horvertflip_short_600ms.mp4	12.repeated_touch_with_nail_file_short_horvertflip_short_600ms.mp4	334.7860897629889	335.394409489827	0.60831972683809				
221.8193359375	0.2	454286	110	14	1	0	0	18	228	stimuli\Videos_short_600ms_horvertflip\53.touch_top_to_bottom_with_knife_short_horvertflip_short_600ms.mp4	53.touch_top_to_bottom_with_knife_short_horvertflip_short_600ms.mp4	335.5860701743277	336.1943875552179	0.6083173808901847				
222.619140625	0.2	455924	111	14	1	0	0	19	36	stimuli\Videos_short_600ms\42.single_slap_with_plastic_whisk_short_short_600ms.mp4	42.single_slap_with_plastic_whisk_short_short_600ms.mp4	336.38607521811446	336.994365034122	0.6082898160075274				
223.41943359375	0.2	457563	112	14	1	0	0	20	27	stimuli\Videos_short_600ms\34.repeated_punch_with_hand_short_short_600ms.mp4	34.repeated_punch_with_hand_short_short_600ms.mp4	337.1860661862165	337.79434456573017	0.6082783795136493				
224.21923828125	0.2	459201	113	14	1	0	0	21	184	stimuli\Videos_short_600ms_horvertflip\13.single_touch_with_pen_short_horvertflip_short_600ms.mp4	13.single_touch_with_pen_short_horvertflip_short_600ms.mp4	337.9859858961636	338.5943232176078	0.6083373214441963				
225.01904296875	0.2	460839	114	14	1	0	0	22	29	stimuli\Videos_short_600ms\36.single_slap_with_full_hand_short_short_600ms.mp4	36.single_slap_with_full_hand_short_short_600ms.mp4	338.78598947373393	339.39430157624247	0.6083121025085347				
225.8193359375	0.2	462478	115	14	1	0	0	23	57	stimuli\Videos_short_600ms\61.single_hit_with_rolling_pin_short_short_600ms.mp4	61.single_hit_with_rolling_pin_short_short_600ms.mp4	339.5859429066759	340.1942816943374	0.6083387876615234				
226.619140625	0.2	464116	116	14	1	0	0	24	178	stimuli\Videos_short_600ms_horflip\9.single_touch_with_hammer_short_horflip_short_600ms.mp4	9.single_touch_with_hammer_short_horflip_short_600ms.mp4	340.3859520558708	340.9942565340507	0.608304478179889				
227.4189453125	0.2	465754	117	14	1	0	0	25	153	stimuli\Videos_short_600ms_horflip\67.single_touch_with_sponge_short_horflip_short_600ms.mp4	67.single_touch_with_sponge_short_horflip_short_600ms.mp4	341.1861626633072	341.7942363589018	0.6080736955946122				
228.21923828125	0.2	467393	118	14	1	0	0	26	68	stimuli\Videos_short_600ms\71.single_stroke_with_finger_top_to_bottom_short_short_600ms.mp4	71.single_stroke_with_finger_top_to_bottom_short_short_600ms.mp4	341.98607181649095	342.5942173567273	0.6081455402363645				
229.01904296875	0.2	469031	119	14	1	0	0	27	73	stimuli\Videos_short_600ms\76.tickle_with_fingers_from_top_to_bottom_short_short_600ms.mp4	76.tickle_with_fingers_from_top_to_bottom_short_short_600ms.mp4	342.78647743081183	343.39418339913755	0.6077059683257175				
229.81884765625	0.2	470669	120	14	1	0	0	28	70	stimuli\Videos_short_600ms\73.single_stroke_with_flat_hand_short_short_600ms.mp4	73.single_stroke_with_flat_hand_short_short_600ms.mp4	343.58605345945125	344.1941482685734	0.6080948091221217				
230.619140625	0.2	472308	121	14	1	0	0	29	55	stimuli\Videos_short_600ms\6.single_touch_with_flat_hand_short_short_600ms.mp4	6.single_touch_with_flat_hand_short_short_600ms.mp4	344.38584414228626	344.99410434070705	0.608260198420794				
231.4189453125	0.2	473946	122	14	1	0	0	30	144	stimuli\Videos_short_600ms_horflip\59.single_push_with_long_side_pencil_short_horflip_short_600ms.mp4	59.single_push_with_long_side_pencil_short_horflip_short_600ms.mp4	345.18581898199955	345.79410645205917	0.6082874700596221				
232.21875	0.2	475584	123	14	1	0	0	31	335	stimuli\Videos_short_600ms_vertflip\69.stroke_with_soft_sock_short_vertflip_short_600ms.mp4	69.stroke_with_soft_sock_short_vertflip_short_600ms.mp4	345.9858272514648	346.594108856656	0.6082816051912232				
233.01904296875	0.2	477223	124	14	1	0	0	32	53	stimuli\Videos_short_600ms\58.single_slap_with_pencil_short_short_600ms.mp4	58.single_slap_with_pencil_short_short_600ms.mp4	346.7857636762874	347.394068740954	0.6083050646666379				
233.81884765625	0.2	478861	125	14	1	0	0	33	263	stimuli\Videos_short_600ms_horvertflip\85.touch_top_to_bottom_with_fabric_short_horvertflip_short_600ms.mp4	85.touch_top_to_bottom_with_fabric_short_horvertflip_short_600ms.mp4	347.58574408762615	348.1940737847408	0.608329697114641				
234.61865234375	0.2	480499	126	14	1	0	0	34	234	stimuli\Videos_short_600ms_horvertflip\59.single_push_with_long_side_pencil_short_horvertflip_short_600ms.mp4	59.single_push_with_long_side_pencil_short_horvertflip_short_600ms.mp4	348.3857057313844	348.9940430528286	0.6083373214441963				
235.4189453125	0.2	482138	127	14	1	0	0	35	161	stimuli\Videos_short_600ms_horflip\74.fingers_walking_from_top_to_bottom_short_horflip_short_600ms.mp4	74.fingers_walking_from_top_to_bottom_short_horflip_short_600ms.mp4	349.1857019778681	349.794031088496	0.6083291106278921				
236.21875	0.2	483776	128	14	1	0	0	36	168	stimuli\Videos_short_600ms_horflip\80.stroke_with_sharp_stick_all_over_the_hand_short_horflip_short_600ms.mp4	80.stroke_with_sharp_stick_all_over_the_hand_short_horflip_short_600ms.mp4	349.9856847351548	350.5939985971236	0.6083138619687816				
237.0185546875	0.2	485414	129	14	1	0	0	37	92	stimuli\Videos_short_600ms_horflip\11.single_touch_with_lighter_short_horflip_short_600ms.mp4	11.single_touch_with_lighter_short_horflip_short_600ms.mp4	350.78563376944476	351.39397900846234	0.6083452390175808				
237.81884765625	0.2	487053	130	14	1	0	0	38	296	stimuli\Videos_short_600ms_vertflip\33.scratch_top_to_bottom_with_scissors_short_vertflip_short_600ms.mp4	33.scratch_top_to_bottom_with_scissors_short_vertflip_short_600ms.mp4	351.58565758081204	352.1939559008788	0.6082983200667513				
238.61865234375	0.2	488691	131	14	1	0	0	39	169	stimuli\Videos_short_600ms_horflip\81.single_stroke_top_to_bottom_with_cotton_pad_short_horflip_short_600ms.mp4	81.single_stroke_top_to_bottom_with_cotton_pad_short_horflip_short_600ms.mp4	352.38561981105795	352.9939319135665	0.6083121025085347				
239.41845703125	0.2	490329	132	14	1	0	0	40	83	stimuli\Videos_short_600ms\85.touch_top_to_bottom_with_fabric_short_short_600ms.mp4	85.touch_top_to_bottom_with_fabric_short_short_600ms.mp4	353.1855943575274	353.79390997895734	0.6083156214299379				
240.21875	0.2	491968	133	14	1	0	0	41	95	stimuli\Videos_short_600ms_horflip\14.repeated_touch_with_pencil_short_horflip_short_600ms.mp4	14.repeated_touch_with_pencil_short_horflip_short_600ms.mp4	353.9855706634571	354.5938903902952	0.60831972683809				
241.0185546875	0.2	493606	134	14	1	0	0	42	5	stimuli\Videos_short_600ms\14.repeated_touch_with_pencil_short_short_600ms.mp4	14.repeated_touch_with_pencil_short_short_600ms.mp4	354.78551090044493	355.3938687489299	0.6083578484849568				
241.81884765625	0.2	495245	135	14	1	0	0	43	274	stimuli\Videos_short_600ms_vertflip\13.single_touch_with_pen_short_vertflip_short_600ms.mp4	13.single_touch_with_pen_short_vertflip_short_600ms.mp4	355.58565640783854	356.19385121297273	0.6081948051341897				
242.61865234375	0.2	496883	136	14	1	0	0	44	204	stimuli\Videos_short_600ms_horvertflip\31.hand_grabbing_wrist_short_horvertflip_short_600ms.mp4	31.hand_grabbing_wrist_short_horvertflip_short_600ms.mp4	356.3862329830836	356.99382634592894	0.607593362845364				
243.41845703125	0.2	498521	137	14	1	0	0	45	7	stimuli\Videos_short_600ms\16.repeated_touch_with_plastic_brush_short_short_600ms.mp4	16.repeated_touch_with_plastic_brush_short_short_600ms.mp4	357.18548966962044	357.79377831265356	0.60828864303312				
244.21875	0.2	500160	138	14	1	0	0	46	309	stimuli\Videos_short_600ms_vertflip\45.scratching_with_finger_nails_short_vertflip_short_600ms.mp4	45.scratching_with_finger_nails_short_vertflip_short_600ms.mp4	357.98547066744595	358.59376370913105	0.6082930416851013				
245.0185546875	0.2	501798	139	14	1	0	0	47	112	stimuli\Videos_short_600ms_horflip\3.single_push_with_finger_short_horflip_short_600ms.mp4	3.single_push_with_finger_short_horflip_short_600ms.mp4	358.7854487328368	359.39373972181784	0.6082909889810253				
245.818359375	0.2	503436	140	14	1	0	0	48	181	stimuli\Videos_short_600ms_horvertflip\10.single_touch_with_knife_short_horvertflip_short_600ms.mp4	10.single_touch_with_knife_short_horvertflip_short_600ms.mp4	359.58587487419845	360.1937145615311	0.607839687332671				
246.61865234375	0.2	505075	141	14	1	0	0	49	187	stimuli\Videos_short_600ms_horvertflip\16.repeated_touch_with_plastic_brush_short_horvertflip_short_600ms.mp4	16.repeated_touch_with_plastic_brush_short_horvertflip_short_600ms.mp4	360.385673181363	360.9936937998955	0.6080206185324641				
247.41845703125	0.2	506713	142	14	1	0	0	50	331	stimuli\Videos_short_600ms_vertflip\65.stroke_top_to_bottom_with_stanley_knife_short_vertflip_short_600ms.mp4	65.stroke_top_to_bottom_with_stanley_knife_short_vertflip_short_600ms.mp4	361.18554098722143	361.7936768504251	0.6081358632036427				
248.21826171875	0.2	508351	143	14	1	0	0	51	322	stimuli\Videos_short_600ms_vertflip\57.single_touch_with_nail_file_short_vertflip_short_600ms.mp4	57.single_touch_with_nail_file_short_vertflip_short_600ms.mp4	361.9853557160186	362.5936557955465	0.6083000795279077				
249.0185546875	0.2	509990	144	14	1	0	0	52	227	stimuli\Videos_short_600ms_horvertflip\52.touch_top_to_bottom_with_hammer_short_horvertflip_short_600ms.mp4	52.touch_top_to_bottom_with_hammer_short_horvertflip_short_600ms.mp4	362.7853094422044	363.3936608393333	0.6083513971288994				
249.818359375	0.2	511628	145	14	1	0	0	53	270	stimuli\Videos_short_600ms_vertflip\1.repeated_touch_with_finger_fast_short_vertflip_short_600ms.mp4	1.repeated_touch_with_finger_fast_short_vertflip_short_600ms.mp4	363.5853124332871	364.1936327466119	0.6083203133248389				
250.6181640625	0.2	513266	146	14	1	0	0	54	80	stimuli\Videos_short_600ms\82.repeated_touch_with_cotton_bud_short_short_600ms.mp4	82.repeated_touch_with_cotton_bud_short_short_600ms.mp4	364.3852899121912	364.9936157971415	0.6083258849503181				
251.41845703125	0.2	514905	147	14	1	0	0	55	99	stimuli\Videos_short_600ms_horflip\18.single_stroke_from_top_to_bottom_with_rolling_pin_short_horflip_short_600ms.mp4	18.single_stroke_from_top_to_bottom_with_rolling_pin_short_horflip_short_600ms.mp4	365.185321347888	365.7935859449599	0.6082645970718659				
252.21826171875	0.2	516543	148	14	1	0	0	56	146	stimuli\Videos_short_600ms_horflip\60.single_push_with_tip_of_pencil_short_horflip_short_600ms.mp4	60.single_push_with_tip_of_pencil_short_horflip_short_600ms.mp4	365.98524750919023	366.5935666495416	0.608319140351341				
253.01806640625	0.2	518181	149	14	1	0	0	57	318	stimuli\Videos_short_600ms_vertflip\53.touch_top_to_bottom_with_knife_short_vertflip_short_600ms.mp4	53.touch_top_to_bottom_with_knife_short_vertflip_short_600ms.mp4	366.78522293539027	367.39354383520185	0.6083208998115879				
253.818359375	0.2	519820	150	14	1	0	0	58	133	stimuli\Videos_short_600ms_horflip\49.repeated_slap_with_hand_short_horflip_short_600ms.mp4	49.repeated_slap_with_hand_short_horflip_short_600ms.mp4	367.5851875115832	368.19352248707946	0.608334975496291				
254.6181640625	0.2	521458	151	14	1	0	0	59	165	stimuli\Videos_short_600ms_horflip\78.single_stroke_top_to_bottom_with_soft_brush_short_horflip_short_600ms.mp4	78.single_stroke_top_to_bottom_with_soft_brush_short_horflip_short_600ms.mp4	368.3851884499627	368.9934993794968	0.6083109295341274				
255.41796875	0.2	523096	152	14	1	0	0	60	266	stimuli\Videos_short_600ms_horvertflip\88.repeated_stroke_with_plastic_brush_short_horvertflip_short_600ms.mp4	88.repeated_stroke_with_plastic_brush_short_horvertflip_short_600ms.mp4	369.1851201828904	369.7934780313744	0.6083578484840473				
256.21826171875	0.2	524735	153	14	1	0	0	61	170	stimuli\Videos_short_600ms_horflip\82.repeated_touch_with_cotton_bud_short_horflip_short_600ms.mp4	82.repeated_touch_with_cotton_bud_short_horflip_short_600ms.mp4	369.9851114442354	370.5934581494703	0.6083467052349079				
257.01806640625	0.2	526373	154	14	1	0	0	62	253	stimuli\Videos_short_600ms_horvertflip\76.tickle_with_fingers_from_top_to_bottom_short_horvertflip_short_600ms.mp4	76.tickle_with_fingers_from_top_to_bottom_short_horvertflip_short_600ms.mp4	370.7854680869032	371.3934356283735	0.6079675414703161				
257.82666015625	0.2	528029	155	14	1	0	0	63	54	stimuli\Videos_short_600ms\59.single_push_with_long_side_pencil_short_short_600ms.mp4	59.single_push_with_long_side_pencil_short_short_600ms.mp4	371.59343087783054	372.20174737899015	0.6083165011596066				
258.62646484375	0.2	529667	156	14	1	0	0	64	231	stimuli\Videos_short_600ms_horvertflip\56.repeated_touch_with_nail_file_short_horvertflip_short_600ms.mp4	56.repeated_touch_with_nail_file_short_horvertflip_short_600ms.mp4	372.393409822951	373.00172837681566	0.6083185538645921				
259.42626953125	0.2	531305	157	14	1	0	0	65	19	stimuli\Videos_short_600ms\27.single_push_with_a_plastic_whisk_short_short_600ms.mp4	27.single_push_with_a_plastic_whisk_short_short_600ms.mp4	373.19345093568154	373.8016888476004	0.6082379119188772				
260.2265625	0.2	532944	158	14	1	0	0	66	47	stimuli\Videos_short_600ms\52.touch_top_to_bottom_with_hammer_short_short_600ms.mp4	52.touch_top_to_bottom_with_hammer_short_short_600ms.mp4	373.9933219672175	374.6016845075974	0.6083625403798578				
261.0263671875	0.2	534582	159	14	1	0	0	67	206	stimuli\Videos_short_600ms_horvertflip\33.scratch_top_to_bottom_with_scissors_short_horvertflip_short_600ms.mp4	33.scratch_top_to_bottom_with_scissors_short_horvertflip_short_600ms.mp4	374.793307363695	375.4016602270413	0.6083528633462265				
261.826171875	0.2	536220	160	14	1	0	0	68	205	stimuli\Videos_short_600ms_horvertflip\32.single_(long)pinch_with_fingers_short_horvertflip_short_600ms.mp4	32.single_(long)pinch_with_fingers_short_horvertflip_short_600ms.mp4	375.5933124074818	376.2016418113535	0.6083294038717213				
262.62646484375	0.2	537859	161	14	1	0	1	69	378	stimuli\Targets_short_600ms_vertflip\brush-stroke_short_horvertflip_short_600ms.mp4	brush-stroke_short_horvertflip_short_600ms.mp4	376.3932813823267	377.00161841052704	0.6083370282003671				
263.42626953125	0.2	539497	162	14	1	0	0	70	351	stimuli\Videos_short_600ms_vertflip\83.single_stroke_top_to_bottom_with_cotton_bud_short_vertflip_short_600ms.mp4	83.single_stroke_top_to_bottom_with_cotton_bud_short_vertflip_short_600ms.mp4	377.1932685382635	377.8015979421352	0.6083294038717213				
264.22607421875	0.2	541135	163	14	1	0	0	71	288	stimuli\Videos_short_600ms_vertflip\26.single_touch_with_a_blunt_syringe_short_vertflip_short_600ms.mp4	26.single_touch_with_a_blunt_syringe_short_vertflip_short_600ms.mp4	377.99323721986457	378.6015713156312	0.6083340957666223				
265.0263671875	0.2	542774	164	14	1	0	1	72	372	stimuli\Targets_short_600ms_horvertflip\brush-stroke_short_vertflip_short_600ms.mp4	brush-stroke_short_vertflip_short_600ms.mp4	378.7932425568952	379.40152973371187	0.6082871768167024				
265.826171875	0.2	544412	165	14	1	0	0	73	121	stimuli\Videos_short_600ms_horflip\38.double_slap_with_pencil_short_horflip_short_600ms.mp4	38.double_slap_with_pencil_short_horflip_short_600ms.mp4	379.5931898317249	380.2015163031619	0.6083264714370671				
266.6259765625	0.2	546050	166	14	1	0	0	74	41	stimuli\Videos_short_600ms\47.(long)scratching_with_finger_nails_short_short_600ms.mp4	47.(long)scratching_with_finger_nails_short_short_600ms.mp4	380.39316907009015	381.0014835185457	0.6083144484555305				
267.42626953125	0.2	547689	167	14	1	0	0	75	295	stimuli\Videos_short_600ms_vertflip\32.single_(long)pinch_with_fingers_short_vertflip_short_600ms.mp4	32.single_(long)pinch_with_fingers_short_vertflip_short_600ms.mp4	381.19316385035654	381.8014680352926	0.6083041849360598				
268.22607421875	0.2	549327	168	14	1	0	0	76	256	stimuli\Videos_short_600ms_horvertflip\79.long_with_soft_brush_all_over_the_hand_short_horvertflip_short_600ms.mp4	79.long_with_soft_brush_all_over_the_hand_short_horvertflip_short_600ms.mp4	381.9931454346688	382.6014528452824	0.6083074106136337				
269.02587890625	0.2	550965	169	14	1	0	0	77	232	stimuli\Videos_short_600ms_horvertflip\57.single_touch_with_nail_file_short_horvertflip_short_600ms.mp4	57.single_touch_with_nail_file_short_horvertflip_short_600ms.mp4	382.7932135257952	383.40145231744464	0.6082387916494554				
269.826171875	0.2	552604	170	14	1	0	0	78	143	stimuli\Videos_short_600ms_horflip\58.single_slap_with_pencil_short_horflip_short_600ms.mp4	58.single_slap_with_pencil_short_horflip_short_600ms.mp4	383.59310273842493	384.20143096932225	0.6083282308973139				
270.6259765625	0.2	554242	171	14	1	0	0	79	8	stimuli\Videos_short_600ms\17.repeated_touch_with_rolling_pin_short_short_600ms.mp4	17.repeated_touch_with_rolling_pin_short_short_600ms.mp4	384.39306496866993	385.0014017036274	0.6083367349574473				
271.42578125	0.2	555880	172	14	1	0	0	80	12	stimuli\Videos_short_600ms\20.single_touch_with_screwdriver_short_short_600ms.mp4	20.single_touch_with_screwdriver_short_short_600ms.mp4	385.19301546917814	385.8013838744264	0.6083684052482567				
272.22607421875	0.2	557519	173	14	1	0	0	81	268	stimuli\Videos_short_600ms_horvertflip\9.single_touch_with_hammer_short_horvertflip_short_600ms.mp4	9.single_touch_with_hammer_short_horvertflip_short_600ms.mp4	385.9930272575639	386.60135754116527	0.60833028360139				
273.02587890625	0.2	559157	174	14	1	0	0	82	358	stimuli\Videos_short_600ms_vertflip\9.single_touch_with_hammer_short_vertflip_short_600ms.mp4	9.single_touch_with_hammer_short_vertflip_short_600ms.mp4	386.79301236079755	387.40134059169486	0.6083282308973139				
273.82568359375	0.2	560795	175	14	1	0	0	83	91	stimuli\Videos_short_600ms_horflip\10.single_touch_with_knife_short_horflip_short_600ms.mp4	10.single_touch_with_knife_short_horflip_short_600ms.mp4	387.59300156943937	388.2013136719479	0.6083121025085347				
274.6259765625	0.2	562434	176	14	1	0	0	84	243	stimuli\Videos_short_600ms_horvertflip\67.single_touch_with_sponge_short_horvertflip_short_600ms.mp4	67.single_touch_with_sponge_short_horvertflip_short_600ms.mp4	388.3929793415864	389.001293496799	0.6083141552126108				
275.42578125	0.2	564072	177	14	1	0	0	85	308	stimuli\Videos_short_600ms_vertflip\44.pushing_top_to_bottom_with_finger_short_vertflip_short_600ms.mp4	44.pushing_top_to_bottom_with_finger_short_vertflip_short_600ms.mp4	389.1929122474885	389.8012718554337	0.6083596079452036				
276.2255859375	0.2	565710	178	14	1	0	0	86	298	stimuli\Videos_short_600ms_vertflip\35.single_punch_with_hand_short_vertflip_short_600ms.mp4	35.single_punch_with_hand_short_vertflip_short_600ms.mp4	389.9929152385712	390.60124992082456	0.6083346822533713				
277.02587890625	0.2	567349	179	14	1	0	0	87	291	stimuli\Videos_short_600ms_vertflip\29.single_pinch_with_tweezers_short_vertflip_short_600ms.mp4	29.single_pinch_with_tweezers_short_vertflip_short_600ms.mp4	390.79286984448754	391.4011901578124	0.6083203133248389				
277.82568359375	0.2	568987	180	14	1	0	0	88	216	stimuli\Videos_short_600ms_horvertflip\42.single_slap_with_plastic_whisk_short_horvertflip_short_600ms.mp4	42.single_slap_with_plastic_whisk_short_horvertflip_short_600ms.mp4	391.5928740085438	392.20120927728385	0.6083352687401202				
278.6259765625	0.2	570626	181	14	1	0	0	89	87	stimuli\Videos_short_600ms\89.single_touch_with_plastic_brush_short_short_600ms.mp4	89.single_touch_with_plastic_brush_short_short_600ms.mp4	392.3929136550569	393.0011814778063	0.6082678227494398				
279.42578125	0.2	572264	182	14	1	0	0	90	105	stimuli\Videos_short_600ms_horflip\23.single_push_with_a_spoon_short_horflip_short_600ms.mp4	23.single_push_with_a_spoon_short_horflip_short_600ms.mp4	393.1928899609866	393.80113696345234	0.6082470024657596				
280.2255859375	0.2	573902	183	14	1	0	0	91	236	stimuli\Videos_short_600ms_horvertflip\60.single_push_with_tip_of_pencil_short_horvertflip_short_600ms.mp4	60.single_push_with_tip_of_pencil_short_horvertflip_short_600ms.mp4	393.99289823045183	394.6011167883043	0.6082185578525241				
281.02587890625	0.2	575541	184	14	1	0	0	92	333	stimuli\Videos_short_600ms_vertflip\67.single_touch_with_sponge_short_vertflip_short_600ms.mp4	67.single_touch_with_sponge_short_vertflip_short_600ms.mp4	394.79280210525303	395.4010948536952	0.6082927484421816	3.0	3.0	3.0455445178722584	1.0
316.5078125	0.2	648208	185	14	2	0	0	0	316	stimuli\Videos_short_600ms_vertflip\51.repeated_touch_with_hammer_short_vertflip_short_600ms.mp4	51.repeated_touch_with_hammer_short_vertflip_short_600ms.mp4	430.27517993417314	430.88343104204614	0.6082511078730022				
317.3076171875	0.2	649846	186	14	2	0	0	1	111	stimuli\Videos_short_600ms_horflip\29.single_pinch_with_tweezers_short_horflip_short_600ms.mp4	29.single_pinch_with_tweezers_short_horflip_short_600ms.mp4	431.0751521346947	431.6833856479625	0.6082335132678054				
318.10791015625	0.2	651485	187	14	2	0	0	2	347	stimuli\Videos_short_600ms_vertflip\8.single_touch_with_hairbrush_short_vertflip_short_600ms.mp4	8.single_touch_with_hairbrush_short_vertflip_short_600ms.mp4	431.87515102037014	432.4834516863848	0.6083006660146566				
318.90771484375	0.2	653123	188	14	2	0	0	3	32	stimuli\Videos_short_600ms\39.single_stab_with_scissors_short_short_600ms.mp4	39.single_stab_with_scissors_short_short_600ms.mp4	432.67512615332635	433.28340658554407	0.6082804322177253				
319.70751953125	0.2	654761	189	14	2	0	0	4	94	stimuli\Videos_short_600ms_horflip\13.single_touch_with_pen_short_horflip_short_600ms.mp4	13.single_touch_with_pen_short_horflip_short_600ms.mp4	433.4750901430325	434.0833946212115	0.6083044781789795				
320.5078125	0.2	656400	190	14	2	0	0	5	13	stimuli\Videos_short_600ms\21.repeated_touch_with_metal_chopstick_short_short_600ms.mp4	21.repeated_touch_with_metal_chopstick_short_short_600ms.mp4	434.2752353571823	434.8833964393207	0.6081610821383947				
321.3076171875	0.2	658038	191	14	2	0	0	6	110	stimuli\Videos_short_600ms_horflip\28.single_injection_with_sharp_needle_short_horflip_short_600ms.mp4	28.single_injection_with_sharp_needle_short_horflip_short_600ms.mp4	435.0750515521959	435.6833613087574	0.608309756561539				
322.107421875	0.2	659676	192	14	2	0	1	7	363	stimuli\Targets_short_600ms\finger-tap_short_short_600ms.mp4	finger-tap_short_short_600ms.mp4	435.87503782840304	436.483339960635	0.6083021322319837				
322.90771484375	0.2	661315	193	14	2	0	0	8	219	stimuli\Videos_short_600ms_horvertflip\45.scratching_with_finger_nails_short_horvertflip_short_600ms.mp4	45.scratching_with_finger_nails_short_horvertflip_short_600ms.mp4	436.6749795316082	437.2833156800789	0.6083361484706984				
323.70751953125	0.2	662953	194	14	2	0	0	9	275	stimuli\Videos_short_600ms_vertflip\14.repeated_touch_with_pencil_short_vertflip_short_600ms.mp4	14.repeated_touch_with_pencil_short_vertflip_short_600ms.mp4	437.4751309038702	438.0832957981738	0.6081648943036271				
324.5078125	0.2	664592	195	14	2	0	0	10	324	stimuli\Videos_short_600ms_vertflip\59.single_push_with_long_side_pencil_short_vertflip_short_600ms.mp4	59.single_push_with_long_side_pencil_short_vertflip_short_600ms.mp4	438.2749330231991	438.8832738635647	0.6083408403655994				
325.3076171875	0.2	666230	196	14	2	0	1	11	360	stimuli\Targets_short_600ms\brush-stroke_short_short_600ms.mp4	brush-stroke_short_short_600ms.mp4	439.0749151939981	439.6832513424688	0.6083361484706984				
326.107421875	0.2	667868	197	14	2	0	0	12	352	stimuli\Videos_short_600ms_vertflip\84.single_touch_with_cotton_bud_short_vertflip_short_600ms.mp4	84.single_touch_with_cotton_bud_short_vertflip_short_600ms.mp4	439.8752111352742	440.4832285281291	0.6080173928548902				
326.90771484375	0.2	669507	198	14	2	0	0	13	273	stimuli\Videos_short_600ms_vertflip\12.repeated_touch_with_nail_file_short_vertflip_short_600ms.mp4	12.repeated_touch_with_nail_file_short_vertflip_short_600ms.mp4	440.67485050449613	441.2832074732505	0.6083569687543786				
327.70751953125	0.2	671145	199	14	2	0	0	14	69	stimuli\Videos_short_600ms\72.(short)stroke_with_finger_all_over_the_hand_short_short_600ms.mp4	72.(short)stroke_with_finger_all_over_the_hand_short_short_600ms.mp4	441.47491097129296	442.08318524539754	0.6082742741045877				
328.50732421875	0.2	672783	200	14	2	0	0	15	349	stimuli\Videos_short_600ms_vertflip\81.single_stroke_top_to_bottom_with_cotton_pad_short_vertflip_short_600ms.mp4	81.single_stroke_top_to_bottom_with_cotton_pad_short_vertflip_short_600ms.mp4	442.27483244070027	442.88316477700573	0.608332336305466				
329.3076171875	0.2	674422	201	14	2	0	0	16	17	stimuli\Videos_short_600ms\25.single_touch_with_stanley_knife_short_short_600ms.mp4	25.single_touch_with_stanley_knife_short_short_600ms.mp4	443.0754087227024	443.68314342888425	0.6077347061818728				
330.107421875	0.2	676060	202	14	2	0	0	17	210	stimuli\Videos_short_600ms_horvertflip\37.single_stab_with_nail_file_short_horvertflip_short_600ms.mp4	37.single_stab_with_nail_file_short_horvertflip_short_600ms.mp4	443.87478124039626	444.4831176821099	0.6083364417136181				
330.9072265625	0.2	677698	203	14	2	0	1	18	380	stimuli\Targets_short_600ms_vertflip\chopstickwood-tap_short_horvertflip_short_600ms.mp4	chopstickwood-tap_short_horvertflip_short_600ms.mp4	444.6747889233747	445.28307697992113	0.6082880565463711				
331.70751953125	0.2	679337	204	14	2	0	0	19	163	stimuli\Videos_short_600ms_horflip\76.tickle_with_fingers_from_top_to_bottom_short_horflip_short_600ms.mp4	76.tickle_with_fingers_from_top_to_bottom_short_horflip_short_600ms.mp4	445.4747611238963	446.0830421426008	0.6082810187044743				
332.50732421875	0.2	680975	205	14	2	0	0	20	323	stimuli\Videos_short_600ms_vertflip\58.single_slap_with_pencil_short_vertflip_short_600ms.mp4	58.single_slap_with_pencil_short_vertflip_short_600ms.mp4	446.2747116244045	446.8830357498937	0.6083241254891618				
333.30712890625	0.2	682613	206	14	2	0	1	21	375	stimuli\Targets_short_600ms_horvertflip\finger-tap_short_vertflip_short_600ms.mp4	finger-tap_short_vertflip_short_600ms.mp4	447.074799656084	447.6830179206927	0.6082182646086949				
334.107421875	0.2	684252	207	14	2	0	0	22	248	stimuli\Videos_short_600ms_horvertflip\71.single_stroke_with_finger_top_to_bottom_short_horvertflip_short_600ms.mp4	71.single_stroke_with_finger_top_to_bottom_short_horvertflip_short_600ms.mp4	447.8746982525035	448.482992760406	0.6082945079024284				
334.9072265625	0.2	685890	208	14	2	0	0	23	328	stimuli\Videos_short_600ms_vertflip\62.touch_top_to_bottom_with_scissors_short_vertflip_short_600ms.mp4	62.touch_top_to_bottom_with_scissors_short_vertflip_short_600ms.mp4	448.6746751449209	449.282981675804	0.6083065308830555				
335.70703125	0.2	687528	209	14	2	0	0	24	269	stimuli\Videos_short_600ms_horvertflip\90.repeated_touch_with_sponge_short_horvertflip_short_600ms.mp4	90.repeated_touch_with_sponge_short_horvertflip_short_600ms.mp4	449.47470892656474	450.08297528309777	0.6082663565330222				
336.50732421875	0.2	689167	210	14	2	0	0	25	130	stimuli\Videos_short_600ms_horflip\46.scratching_top_to_bottom_with_finger_nails_short_horflip_short_600ms.mp4	46.scratching_top_to_bottom_with_finger_nails_short_horflip_short_600ms.mp4	450.2748629380176	450.8829454309152	0.6080824928976654				
337.30712890625	0.2	690805	211	14	2	0	0	26	77	stimuli\Videos_short_600ms\8.single_touch_with_hairbrush_short_short_600ms.mp4	8.single_touch_with_hairbrush_short_short_600ms.mp4	451.0746090478506	451.68292525576726	0.6083162079166868				
338.10693359375	0.2	692443	212	14	2	0	0	27	303	stimuli\Videos_short_600ms_vertflip\4.repeated_tap_with_finger_slow_short_vertflip_short_600ms.mp4	4.repeated_tap_with_finger_slow_short_vertflip_short_600ms.mp4	451.87465866464026	452.4829042008887	0.6082455362484325				
338.9072265625	0.2	694082	213	14	2	0	0	28	157	stimuli\Videos_short_600ms_horflip\70.(long)stroke_with_finger_all_over_the_hand_short_horflip_short_600ms.mp4	70.(long)stroke_with_finger_all_over_the_hand_short_horflip_short_600ms.mp4	452.6746285192148	453.2828828527663	0.6082543335514856				
339.70703125	0.2	695720	214	14	2	0	0	29	164	stimuli\Videos_short_600ms_horflip\77.tapping_with_all_fingers_short_horflip_short_600ms.mp4	77.tapping_with_all_fingers_short_horflip_short_600ms.mp4	453.4745291683385	454.08286062491334	0.6083314565748879				
340.5068359375	0.2	697358	215	14	2	0	0	30	224	stimuli\Videos_short_600ms_horvertflip\5.repeated_tap_with_finger_moving_from_top_to_bottom_short_horvertflip_short_600ms.mp4	5.repeated_tap_with_finger_moving_from_top_to_bottom_short_horvertflip_short_600ms.mp4	454.2745371445599	454.8828398632786	0.6083027187187326				
341.30712890625	0.2	698997	216	14	2	0	0	31	45	stimuli\Videos_short_600ms\50.single_(long)hard_push_with_thumb_short_short_600ms.mp4	50.single_(long)hard_push_with_thumb_short_short_600ms.mp4	455.07450465318743	455.6828173421827	0.6083126889952837				
342.10693359375	0.2	700635	217	14	2	0	0	32	302	stimuli\Videos_short_600ms_vertflip\39.single_stab_with_scissors_short_vertflip_short_600ms.mp4	39.single_stab_with_scissors_short_vertflip_short_600ms.mp4	455.8745196672507	456.4827927683827	0.6082731011319993				
342.90673828125	0.2	702273	218	14	2	0	0	33	289	stimuli\Videos_short_600ms_vertflip\27.single_push_with_a_plastic_whisk_short_vertflip_short_600ms.mp4	27.single_push_with_a_plastic_whisk_short_vertflip_short_600ms.mp4	456.674494506964	457.2827717135033	0.6082772065392419				
343.70703125	0.2	703912	219	14	2	0	0	34	15	stimuli\Videos_short_600ms\23.single_push_with_a_spoon_short_short_600ms.mp4	23.single_push_with_a_spoon_short_short_600ms.mp4	457.4744505790977	458.082750072138	0.6082994930402492				
344.5068359375	0.2	705550	220	14	2	0	0	35	122	stimuli\Videos_short_600ms_horflip\39.single_stab_with_scissors_short_horflip_short_600ms.mp4	39.single_stab_with_scissors_short_horflip_short_600ms.mp4	458.2743928687887	458.8827313632064	0.6083384944176942				
345.30712890625	0.2	707189	221	14	2	0	0	36	332	stimuli\Videos_short_600ms_vertflip\66.stroke_top_to_bottom_with_sponge_short_vertflip_short_600ms.mp4	66.stroke_top_to_bottom_with_sponge_short_vertflip_short_600ms.mp4	459.0745081721079	459.6826865556095	0.6081783835015813				
346.10693359375	0.2	708827	222	14	2	0	0	37	312	stimuli\Videos_short_600ms_vertflip\48.single_slap_with_hand_short_vertflip_short_600ms.mp4	48.single_slap_with_hand_short_vertflip_short_600ms.mp4	459.8743730455326	460.4826613953228	0.6082883497902003				
346.90673828125	0.2	710465	223	14	2	0	0	38	306	stimuli\Videos_short_600ms_vertflip\42.single_slap_with_plastic_whisk_short_vertflip_short_600ms.mp4	42.single_slap_with_plastic_whisk_short_vertflip_short_600ms.mp4	460.6744531596396	461.282640926931	0.6081877672913834				
347.70703125	0.2	712104	224	14	2	0	0	39	271	stimuli\Videos_short_600ms_vertflip\10.single_touch_with_knife_short_vertflip_short_600ms.mp4	10.single_touch_with_knife_short_vertflip_short_600ms.mp4	461.47430513035306	462.08260520988006	0.6083000795269982				
348.5068359375	0.2	713742	225	14	2	0	0	40	250	stimuli\Videos_short_600ms_horvertflip\73.single_stroke_with_flat_hand_short_horvertflip_short_600ms.mp4	73.single_stroke_with_flat_hand_short_horvertflip_short_600ms.mp4	462.27427997006544	462.8826216901616	0.6083417200961776				
349.306640625	0.2	715380	226	14	2	0	0	41	74	stimuli\Videos_short_600ms\77.tapping_with_all_fingers_short_short_600ms.mp4	77.tapping_with_all_fingers_short_short_600ms.mp4	463.07428208141846	463.68257864202496	0.6082965606065045				
350.10693359375	0.2	717019	227	14	2	0	1	42	383	stimuli\Targets_short_600ms_vertflip\hand-stroke_short_horvertflip_short_600ms.mp4	hand-stroke_short_horvertflip_short_600ms.mp4	463.87425252247976	464.48258720473314	0.6083346822533713				
350.90673828125	0.2	718657	228	14	2	0	0	43	106	stimuli\Videos_short_600ms_horflip\24.single_stroke_top_to_bottom_with_a_spoon_short_horflip_short_600ms.mp4	24.single_stroke_top_to_bottom_with_a_spoon_short_horflip_short_600ms.mp4	464.67421680542975	465.2825690822892	0.6083522768594776				
351.70654296875	0.2	720295	229	14	2	0	0	44	346	stimuli\Videos_short_600ms_vertflip\79.long_with_soft_brush_all_over_the_hand_short_vertflip_short_600ms.mp4	79.long_with_soft_brush_all_over_the_hand_short_vertflip_short_600ms.mp4	465.4742183302951	466.0825321922648	0.6083138619696911				
352.5068359375	0.2	721934	230	14	2	0	0	45	343	stimuli\Videos_short_600ms_vertflip\76.tickle_with_fingers_from_top_to_bottom_short_vertflip_short_600ms.mp4	76.tickle_with_fingers_from_top_to_bottom_short_vertflip_short_600ms.mp4	466.2742157497533	466.88251025765567	0.6082945079024284				
353.306640625	0.2	723572	231	14	2	0	1	46	366	stimuli\Targets_short_600ms_horflip\brush-stroke_short_horflip_short_600ms.mp4	brush-stroke_short_horflip_short_600ms.mp4	467.07417446107775	467.6824880298027	0.6083135687249523				
354.1064453125	0.2	725210	232	14	2	0	0	47	52	stimuli\Videos_short_600ms\57.single_touch_with_nail_file_short_short_600ms.mp4	57.single_touch_with_nail_file_short_short_600ms.mp4	467.8745105767048	468.4824678546547	0.6079572779499358				
354.90673828125	0.2	726849	233	14	2	0	0	48	75	stimuli\Videos_short_600ms\78.single_stroke_top_to_bottom_with_soft_brush_short_short_600ms.mp4	78.single_stroke_top_to_bottom_with_soft_brush_short_short_600ms.mp4	468.6741323513197	469.28244562680175	0.6083132754820326				
355.70654296875	0.2	728487	234	14	2	0	0	49	246	stimuli\Videos_short_600ms_horvertflip\7.repeated_touch_with_hairbrush_short_horvertflip_short_600ms.mp4	7.repeated_touch_with_hairbrush_short_horvertflip_short_600ms.mp4	469.4741022058942	470.0824233989497	0.6083211930554171				
356.50634765625	0.2	730125	235	14	2	0	0	50	127	stimuli\Videos_short_600ms_horflip\43.touch_top_to_bottom_with_sharp_wooden_stick_short_horflip_short_600ms.mp4	43.touch_top_to_bottom_with_sharp_wooden_stick_short_horflip_short_600ms.mp4	470.2741057834646	470.8824017575844	0.6082959741197556				
357.306640625	0.2	731764	236	14	2	0	0	51	282	stimuli\Videos_short_600ms_vertflip\20.single_touch_with_screwdriver_short_vertflip_short_600ms.mp4	20.single_touch_with_screwdriver_short_vertflip_short_600ms.mp4	471.07405305829434	471.6823815824355	0.6083285241411431				
358.1064453125	0.2	733402	237	14	2	0	0	52	299	stimuli\Videos_short_600ms_vertflip\36.single_slap_with_full_hand_short_vertflip_short_600ms.mp4	36.single_slap_with_full_hand_short_vertflip_short_600ms.mp4	471.87443316043755	472.4823578883661	0.6079247279285482				
358.90625	0.2	735040	238	14	2	0	0	53	238	stimuli\Videos_short_600ms_horvertflip\62.touch_top_to_bottom_with_scissors_short_horvertflip_short_600ms.mp4	62.touch_top_to_bottom_with_scissors_short_horvertflip_short_600ms.mp4	472.6739819174372	473.28233126186205	0.6083493444248234				
359.70654296875	0.2	736679	239	14	2	0	0	54	261	stimuli\Videos_short_600ms_horvertflip\83.single_stroke_top_to_bottom_with_cotton_bud_short_horvertflip_short_600ms.mp4	83.single_stroke_top_to_bottom_with_cotton_bud_short_horvertflip_short_600ms.mp4	473.4739907733883	474.082311379957	0.6083206065686682				
360.50634765625	0.2	738317	240	14	2	0	0	55	167	stimuli\Videos_short_600ms_horflip\8.single_touch_with_hairbrush_short_horflip_short_600ms.mp4	8.single_touch_with_hairbrush_short_horflip_short_600ms.mp4	474.27395564282506	474.882289152104	0.6083335092789639				
361.30615234375	0.2	739955	241	14	2	0	0	56	104	stimuli\Videos_short_600ms_horflip\22.single_touch_with_metal_chopstick_short_horflip_short_600ms.mp4	22.single_touch_with_metal_chopstick_short_horflip_short_600ms.mp4	475.07410202994834	475.6822540215408	0.6081519915924218				
362.1064453125	0.2	741594	242	14	2	0	0	57	171	stimuli\Videos_short_600ms_horflip\83.single_stroke_top_to_bottom_with_cotton_bud_short_horflip_short_600ms.mp4	83.single_stroke_top_to_bottom_with_cotton_bud_short_horflip_short_600ms.mp4	475.8739789263536	476.4822288612541	0.6082499349004138				
362.90625	0.2	743232	243	14	2	0	0	58	114	stimuli\Videos_short_600ms_horflip\31.hand_grabbing_wrist_short_horflip_short_600ms.mp4	31.hand_grabbing_wrist_short_horflip_short_600ms.mp4	476.6739185768547	477.28222246854693	0.6083038916922305				
363.70654296875	0.2	744871	244	14	2	0	0	59	1	stimuli\Videos_short_600ms\10.single_touch_with_knife_short_short_600ms.mp4	10.single_touch_with_knife_short_short_600ms.mp4	477.4738878449425	478.08218821771334	0.6083003727708274				
364.50634765625	0.2	746509	245	14	2	0	0	60	286	stimuli\Videos_short_600ms_vertflip\24.single_stroke_top_to_bottom_with_a_spoon_short_vertflip_short_600ms.mp4	24.single_stroke_top_to_bottom_with_a_spoon_short_vertflip_short_600ms.mp4	478.27384684950994	478.88216686959095	0.6083200200810097				
365.30615234375	0.2	748147	246	14	2	0	0	61	215	stimuli\Videos_short_600ms_horvertflip\41.injection_with_blunt_syringe_short_horvertflip_short_600ms.mp4	41.injection_with_blunt_syringe_short_horvertflip_short_600ms.mp4	479.0737926581232	479.6821493336338	0.6083566755105494				
366.1064453125	0.2	749786	247	14	2	0	0	62	155	stimuli\Videos_short_600ms_horflip\69.stroke_with_soft_sock_short_horflip_short_600ms.mp4	69.stroke_with_soft_sock_short_horflip_short_600ms.mp4	479.87381793570694	480.4821482193083	0.60833028360139				
366.90625	0.2	751424	248	14	2	0	0	63	262	stimuli\Videos_short_600ms_horvertflip\84.single_touch_with_cotton_bud_short_horvertflip_short_600ms.mp4	84.single_touch_with_cotton_bud_short_horvertflip_short_600ms.mp4	480.6738009862366	481.28211778064	0.6083167944034358				
367.7060546875	0.2	753062	249	14	2	0	0	64	154	stimuli\Videos_short_600ms_horflip\68.stroke_top_to_bottom_with_shawl_short_horflip_short_600ms.mp4	68.stroke_top_to_bottom_with_shawl_short_horflip_short_600ms.mp4	481.4737614570213	482.0821257568614	0.6083642998401046				
368.50634765625	0.2	754701	250	14	2	0	0	65	315	stimuli\Videos_short_600ms_vertflip\50.single_(long)hard_push_with_thumb_short_vertflip_short_600ms.mp4	50.single_(long)hard_push_with_thumb_short_vertflip_short_600ms.mp4	482.2739260252374	482.8820847614288	0.6081587361913989				
369.30615234375	0.2	756339	251	14	2	0	0	66	20	stimuli\Videos_short_600ms\28.single_injection_with_sharp_needle_short_short_600ms.mp4	28.single_injection_with_sharp_needle_short_short_600ms.mp4	483.0737345959224	483.6820537362737	0.608319140351341				
370.10595703125	0.2	757977	252	14	2	0	0	67	148	stimuli\Videos_short_600ms_horflip\62.touch_top_to_bottom_with_scissors_short_horflip_short_600ms.mp4	62.touch_top_to_bottom_with_scissors_short_horflip_short_600ms.mp4	483.8737182329387	484.48202916247374	0.6083109295350368				
370.90625	0.2	759616	253	14	2	0	0	68	147	stimuli\Videos_short_600ms_horflip\61.single_hit_with_rolling_pin_short_horflip_short_600ms.mp4	61.single_hit_with_rolling_pin_short_horflip_short_600ms.mp4	484.6737021631979	485.2820388981554	0.6083367349574473				
371.7060546875	0.2	761254	254	14	2	0	0	69	278	stimuli\Videos_short_600ms_vertflip\17.repeated_touch_with_rolling_pin_short_vertflip_short_600ms.mp4	17.repeated_touch_with_rolling_pin_short_vertflip_short_600ms.mp4	485.4736503177592	486.08201315138194	0.6083628336227775				
372.505859375	0.2	762892	255	14	2	0	0	70	109	stimuli\Videos_short_600ms_horflip\27.single_push_with_a_plastic_whisk_short_horflip_short_600ms.mp4	27.single_push_with_a_plastic_whisk_short_horflip_short_600ms.mp4	486.27360785610927	486.8819844721738	0.608376616064561				
373.30615234375	0.2	764531	256	14	2	0	0	71	132	stimuli\Videos_short_600ms_horflip\48.single_slap_with_hand_short_horflip_short_600ms.mp4	48.single_slap_with_hand_short_horflip_short_600ms.mp4	487.0735856282563	487.68195051458406	0.6083648863277631				
374.10595703125	0.2	766169	257	14	2	0	0	72	220	stimuli\Videos_short_600ms_horvertflip\46.scratching_top_to_bottom_with_finger_nails_short_horvertflip_short_600ms.mp4	46.scratching_top_to_bottom_with_finger_nails_short_horvertflip_short_600ms.mp4	487.8736367112633	488.48192770024434	0.6082909889810253				
374.90576171875	0.2	767807	258	14	2	0	0	73	207	stimuli\Videos_short_600ms_horvertflip\34.repeated_punch_with_hand_short_horvertflip_short_600ms.mp4	34.repeated_punch_with_hand_short_horvertflip_short_600ms.mp4	488.67357342932974	489.28189110346375	0.6083176741340139				
375.7060546875	0.2	769446	259	14	2	0	1	74	368	stimuli\Targets_short_600ms_horflip\chopstickwood-tap_short_horflip_short_600ms.mp4	chopstickwood-tap_short_horflip_short_600ms.mp4	489.4738063232671	490.0818448296495	0.6080385063823996				
376.505859375	0.2	771084	260	14	2	0	0	75	211	stimuli\Videos_short_600ms_horvertflip\38.double_slap_with_pencil_short_horvertflip_short_600ms.mp4	38.double_slap_with_pencil_short_horvertflip_short_600ms.mp4	490.27359466015423	490.8818228950404	0.6082282348861554				
377.3056640625	0.2	772722	261	14	2	0	0	76	123	stimuli\Videos_short_600ms_horflip\4.repeated_tap_with_finger_slow_short_horflip_short_600ms.mp4	4.repeated_tap_with_finger_slow_short_horflip_short_600ms.mp4	491.07351378361454	491.6817956820496	0.6082818984350524				
378.10595703125	0.2	774361	262	14	2	0	0	77	158	stimuli\Videos_short_600ms_horflip\71.single_stroke_with_finger_top_to_bottom_short_horflip_short_600ms.mp4	71.single_stroke_with_finger_top_to_bottom_short_horflip_short_600ms.mp4	491.8735408206594	492.48178635690783	0.6082455362484325				
378.90576171875	0.2	775999	263	14	2	0	0	78	249	stimuli\Videos_short_600ms_horvertflip\72.(short)stroke_with_finger_all_over_the_hand_short_horvertflip_short_600ms.mp4	72.(short)stroke_with_finger_all_over_the_hand_short_horvertflip_short_600ms.mp4	492.67347343331767	493.2817787912272	0.6083053579095576				
379.70556640625	0.2	777637	264	14	2	0	0	79	10	stimuli\Videos_short_600ms\19.single_touch_with_rolling_pin_short_short_600ms.mp4	19.single_touch_with_rolling_pin_short_short_600ms.mp4	493.4734274527473	494.081761548513	0.6083340957657128				
380.505859375	0.2	779276	265	14	2	0	0	80	339	stimuli\Videos_short_600ms_vertflip\72.(short)stroke_with_finger_all_over_the_hand_short_vertflip_short_600ms.mp4	72.(short)stroke_with_finger_all_over_the_hand_short_vertflip_short_600ms.mp4	494.27343044383	494.8817572085099	0.6083267646799868				
381.3056640625	0.2	780914	266	14	2	0	0	81	81	stimuli\Videos_short_600ms\83.single_stroke_top_to_bottom_with_cotton_bud_short_short_600ms.mp4	83.single_stroke_top_to_bottom_with_cotton_bud_short_short_600ms.mp4	495.0733882754239	495.68173586038847	0.6083475849645765				
382.10546875	0.2	782552	267	14	2	0	0	82	203	stimuli\Videos_short_600ms_horvertflip\30.finger_pulling_back_another_finger_short_horvertflip_short_600ms.mp4	30.finger_pulling_back_another_finger_short_horvertflip_short_600ms.mp4	495.87334082863526	496.4816995568508	0.6083587282155349				
382.90576171875	0.2	784191	268	14	2	0	0	83	76	stimuli\Videos_short_600ms\79.long_with_soft_brush_all_over_the_hand_short_short_600ms.mp4	79.long_with_soft_brush_all_over_the_hand_short_short_600ms.mp4	496.67383734842224	497.2816673587213	0.6078300102990397				
383.70556640625	0.2	785829	269	14	2	0	0	84	90	stimuli\Videos_short_600ms_horflip\1.repeated_touch_with_finger_fast_short_horflip_short_600ms.mp4	1.repeated_touch_with_finger_fast_short_horflip_short_600ms.mp4	497.4734409419452	498.0816348673488	0.6081939254036115				
384.505859375	0.2	787468	270	14	2	0	0	85	128	stimuli\Videos_short_600ms_horflip\44.pushing_top_to_bottom_with_finger_short_horflip_short_600ms.mp4	44.pushing_top_to_bottom_with_finger_short_horflip_short_600ms.mp4	498.2733198910546	498.881605601654	0.6082857105993753				
385.3056640625	0.2	789106	271	14	2	0	0	86	141	stimuli\Videos_short_600ms_horflip\56.repeated_touch_with_nail_file_short_horflip_short_600ms.mp4	56.repeated_touch_with_nail_file_short_horflip_short_600ms.mp4	499.073265699667	499.6815754562286	0.608309756561539				
386.10546875	0.2	790744	272	14	2	0	0	87	350	stimuli\Videos_short_600ms_vertflip\82.repeated_touch_with_cotton_bud_short_vertflip_short_600ms.mp4	82.repeated_touch_with_cotton_bud_short_vertflip_short_600ms.mp4	499.8732490434404	500.48154472431634	0.6082956808759263				
386.90576171875	0.2	792383	273	14	2	0	0	88	245	stimuli\Videos_short_600ms_horvertflip\69.stroke_with_soft_sock_short_horvertflip_short_600ms.mp4	69.stroke_with_soft_sock_short_horvertflip_short_600ms.mp4	500.67334587242294	501.2815151653776	0.6081692929546989				
387.70556640625	0.2	794021	274	14	2	0	1	89	382	stimuli\Targets_short_600ms_vertflip\hand-pinch_short_horvertflip_short_600ms.mp4	hand-pinch_short_horvertflip_short_600ms.mp4	501.473292267523	502.0814841402225	0.6081918726995355				
388.50537109375	0.2	795659	275	14	2	0	0	90	336	stimuli\Videos_short_600ms_vertflip\7.repeated_touch_with_hairbrush_short_vertflip_short_600ms.mp4	7.repeated_touch_with_hairbrush_short_vertflip_short_600ms.mp4	502.2731917436722	502.8814273096441	0.6082355659718814				
389.3056640625	0.2	797298	276	14	2	0	0	91	172	stimuli\Videos_short_600ms_horflip\84.single_touch_with_cotton_bud_short_horflip_short_600ms.mp4	84.single_touch_with_cotton_bud_short_horflip_short_600ms.mp4	503.0732070509803	503.6814443764124	0.6082373254321283				
390.10546875	0.2	798936	277	14	2	0	0	92	257	stimuli\Videos_short_600ms_horvertflip\8.single_touch_with_hairbrush_short_horvertflip_short_600ms.mp4	8.single_touch_with_hairbrush_short_horvertflip_short_600ms.mp4	503.87321209476704	504.4814327053237	0.6082206105566001				
390.9052734375	0.2	800574	278	14	2	0	0	93	280	stimuli\Videos_short_600ms_vertflip\19.single_touch_with_rolling_pin_short_vertflip_short_600ms.mp4	19.single_touch_with_rolling_pin_short_vertflip_short_600ms.mp4	504.6731517452681	505.281396401786	0.6082446565178543				
391.70556640625	0.2	802213	279	14	2	0	0	94	115	stimuli\Videos_short_600ms_horflip\32.single_(long)pinch_with_fingers_short_horflip_short_600ms.mp4	32.single_(long)pinch_with_fingers_short_horflip_short_600ms.mp4	505.4731257052508	506.08136772257785	0.6082420173270293				
392.50537109375	0.2	803851	280	14	2	0	0	95	272	stimuli\Videos_short_600ms_vertflip\11.single_touch_with_lighter_short_vertflip_short_600ms.mp4	11.single_touch_with_lighter_short_vertflip_short_600ms.mp4	506.2731020111805	506.8813481339166	0.6082461227360909				
393.30517578125	0.2	805489	281	14	2	0	0	96	277	stimuli\Videos_short_600ms_vertflip\16.repeated_touch_with_plastic_brush_short_vertflip_short_600ms.mp4	16.repeated_touch_with_plastic_brush_short_vertflip_short_600ms.mp4	507.0734982417125	507.6813259060637	0.6078276643511344				
394.10546875	0.2	807128	282	14	2	0	0	97	66	stimuli\Videos_short_600ms\7.repeated_touch_with_hairbrush_short_short_600ms.mp4	7.repeated_touch_with_hairbrush_short_short_600ms.mp4	507.873140836612	508.4813060241586	0.6081651875465468	8.0	8.0	1.867280953018053	1.0
428.50439453125	0.2	877577	283	14	3	0	0	0	149	stimuli\Videos_short_600ms_horflip\63.stroke_top_to_bottom_with_screwdriver_short_horflip_short_600ms.mp4	63.stroke_top_to_bottom_with_screwdriver_short_horflip_short_600ms.mp4	542.2721906105799	542.880447876566	0.6082572659861398				
429.30419921875	0.2	879215	284	14	3	0	0	1	354	stimuli\Videos_short_600ms_vertflip\86.touch_top_to_bottom_with_hair_brush_short_vertflip_short_600ms.mp4	86.touch_top_to_bottom_with_hair_brush_short_vertflip_short_600ms.mp4	543.0720938988943	543.6804115730283	0.6083176741340139				
430.10400390625	0.2	880853	285	14	3	0	0	2	223	stimuli\Videos_short_600ms_horvertflip\49.repeated_slap_with_hand_short_horvertflip_short_600ms.mp4	49.repeated_slap_with_hand_short_horvertflip_short_600ms.mp4	543.8720617007648	544.4803881722019	0.6083264714370671				
430.904296875	0.2	882492	286	14	3	0	0	3	44	stimuli\Videos_short_600ms\5.repeated_tap_with_finger_moving_from_top_to_bottom_short_short_600ms.mp4	5.repeated_tap_with_finger_moving_from_top_to_bottom_short_short_600ms.mp4	544.6720359539913	545.280365357863	0.6083294038717213				
431.7041015625	0.2	884130	287	14	3	0	0	4	61	stimuli\Videos_short_600ms\65.stroke_top_to_bottom_with_stanley_knife_short_short_600ms.mp4	65.stroke_top_to_bottom_with_stanley_knife_short_short_600ms.mp4	545.4720245761464	546.0803445962274	0.6083200200810097				
432.50390625	0.2	885768	288	14	3	0	0	5	162	stimuli\Videos_short_600ms_horflip\75.(long)stroke_with_fingers_all_over_the_hand_short_horflip_short_600ms.mp4	75.(long)stroke_with_fingers_all_over_the_hand_short_horflip_short_600ms.mp4	546.2720472145393	546.8803241278356	0.6082769132963222				
433.30419921875	0.2	887407	289	14	3	0	0	6	340	stimuli\Videos_short_600ms_vertflip\73.single_stroke_with_flat_hand_short_vertflip_short_600ms.mp4	73.single_stroke_with_flat_hand_short_vertflip_short_600ms.mp4	547.0719411190639	547.6803007270091	0.6083596079452036				
434.10400390625	0.2	889045	290	14	3	0	0	7	229	stimuli\Videos_short_600ms_horvertflip\54.repeated_touch_with_knife_short_horvertflip_short_600ms.mp4	54.repeated_touch_with_knife_short_horvertflip_short_600ms.mp4	547.8719083344477	548.4802814315908	0.6083730971431578				
434.90380859375	0.2	890683	291	14	3	0	0	8	191	stimuli\Videos_short_600ms_horvertflip\2.single_touch_with_finger_short_horvertflip_short_600ms.mp4	2.single_touch_with_finger_short_horvertflip_short_600ms.mp4	548.6719761323302	549.2802559780612	0.6082798457309764				
435.7041015625	0.2	892322	292	14	3	0	0	9	177	stimuli\Videos_short_600ms_horflip\89.single_touch_with_plastic_brush_short_horflip_short_600ms.mp4	89.single_touch_with_plastic_brush_short_horflip_short_600ms.mp4	549.4724688399529	550.0802360961561	0.6077672562032603				
436.50390625	0.2	893960	293	14	3	0	0	10	71	stimuli\Videos_short_600ms\74.fingers_walking_from_top_to_bottom_short_short_600ms.mp4	74.fingers_walking_from_top_to_bottom_short_short_600ms.mp4	550.2721436916299	550.8801865966634	0.6080429050334715				
437.3037109375	0.2	895598	294	14	3	0	0	11	199	stimuli\Videos_short_600ms_horvertflip\27.single_push_with_a_plastic_whisk_short_horvertflip_short_600ms.mp4	27.single_push_with_a_plastic_whisk_short_horvertflip_short_600ms.mp4	551.0720962448422	551.6801649552981	0.608068710455882				
438.10400390625	0.2	897237	295	14	3	0	0	12	194	stimuli\Videos_short_600ms_horvertflip\22.single_touch_with_metal_chopstick_short_horvertflip_short_600ms.mp4	22.single_touch_with_metal_chopstick_short_horvertflip_short_600ms.mp4	551.8719106803956	552.480143020689	0.608232340293398				
438.90380859375	0.2	898875	296	14	3	0	0	13	64	stimuli\Videos_short_600ms\68.stroke_top_to_bottom_with_shawl_short_short_600ms.mp4	68.stroke_top_to_bottom_with_shawl_short_short_600ms.mp4	552.6718409471059	553.280122845541	0.6082818984350524				
439.70361328125	0.2	900513	297	14	3	0	0	14	252	stimuli\Videos_short_600ms_horvertflip\75.(long)stroke_with_fingers_all_over_the_hand_short_horvertflip_short_600ms.mp4	75.(long)stroke_with_fingers_all_over_the_hand_short_horvertflip_short_600ms.mp4	553.4717630030009	554.0801082420176	0.6083452390166713				
440.50390625	0.2	902152	298	14	3	0	0	15	46	stimuli\Videos_short_600ms\51.repeated_touch_with_hammer_short_short_600ms.mp4	51.repeated_touch_with_hammer_short_short_600ms.mp4	554.2718091008692	554.8800898263298	0.608280725460645				
441.3037109375	0.2	903790	299	14	3	0	0	16	307	stimuli\Videos_short_600ms_vertflip\43.touch_top_to_bottom_with_sharp_wooden_stick_short_vertflip_short_600ms.mp4	43.touch_top_to_bottom_with_sharp_wooden_stick_short_vertflip_short_600ms.mp4	555.0717358486581	555.6800854863268	0.6083496376686526				
442.103515625	0.2	905428	300	14	3	0	0	17	131	stimuli\Videos_short_600ms_horflip\47.(long)scratching_with_finger_nails_short_horflip_short_600ms.mp4	47.(long)scratching_with_finger_nails_short_horflip_short_600ms.mp4	555.8717417721755	556.4800700030737	0.6083282308982234				
442.90380859375	0.2	907067	301	14	3	0	0	18	284	stimuli\Videos_short_600ms_vertflip\22.single_touch_with_metal_chopstick_short_vertflip_short_600ms.mp4	22.single_touch_with_metal_chopstick_short_vertflip_short_600ms.mp4	556.6718148484406	557.2800383914309	0.6082235429903449				
443.70361328125	0.2	908705	302	14	3	0	0	19	4	stimuli\Videos_short_600ms\13.single_touch_with_pen_short_short_600ms.mp4	13.single_touch_with_pen_short_short_600ms.mp4	557.4717119786428	558.0800146973615	0.6083027187187326				
444.50341796875	0.2	910343	303	14	3	0	0	20	209	stimuli\Videos_short_600ms_horvertflip\36.single_slap_with_full_hand_short_horvertflip_short_600ms.mp4	36.single_slap_with_full_hand_short_horvertflip_short_600ms.mp4	558.2716944426847	558.8799933492392	0.6082989065544098				
445.3037109375	0.2	911982	304	14	3	0	0	21	48	stimuli\Videos_short_600ms\53.touch_top_to_bottom_with_knife_short_short_600ms.mp4	53.touch_top_to_bottom_with_knife_short_short_600ms.mp4	559.0716294012909	559.6799755200382	0.6083461187472494				
446.103515625	0.2	913620	305	14	3	0	0	22	50	stimuli\Videos_short_600ms\55.touch_top_to_bottom_with_nail_file_short_short_600ms.mp4	55.touch_top_to_bottom_with_nail_file_short_short_600ms.mp4	559.8715925112665	560.4799509462382	0.6083584349717057				
446.90380859375	0.2	915259	306	14	3	0	0	23	186	stimuli\Videos_short_600ms_horvertflip\15.single_stroke_top_to_bottom_with_a_plastic_whisk_short_horvertflip_short_600ms.mp4	15.single_stroke_top_to_bottom_with_a_plastic_whisk_short_horvertflip_short_600ms.mp4	560.6716086983042	561.2799281318985	0.6083194335942608				
447.70361328125	0.2	916897	307	14	3	0	0	24	25	stimuli\Videos_short_600ms\32.single_(long)pinch_with_fingers_short_short_600ms.mp4	32.single_(long)pinch_with_fingers_short_short_600ms.mp4	561.4716351488623	562.0799056108026	0.6082704619402648				
448.50341796875	0.2	918535	308	14	3	0	0	25	78	stimuli\Videos_short_600ms\80.stroke_with_sharp_stick_all_over_the_hand_short_short_600ms.mp4	80.stroke_with_sharp_stick_all_over_the_hand_short_short_600ms.mp4	562.2716322750766	562.87988250322	0.6082502281433335				
449.3037109375	0.2	920174	309	14	3	0	0	26	300	stimuli\Videos_short_600ms_vertflip\37.single_stab_with_nail_file_short_vertflip_short_600ms.mp4	37.single_stab_with_nail_file_short_vertflip_short_600ms.mp4	563.0715361498778	563.6798608618546	0.6083247119768203				
450.103515625	0.2	921812	310	14	3	0	0	27	326	stimuli\Videos_short_600ms_vertflip\60.single_push_with_tip_of_pencil_short_vertflip_short_600ms.mp4	60.single_push_with_tip_of_pencil_short_vertflip_short_600ms.mp4	563.8715731572001	564.4798412731925	0.6082681159923595				
450.9033203125	0.2	923450	311	14	3	0	0	28	79	stimuli\Videos_short_600ms\81.single_stroke_top_to_bottom_with_cotton_pad_short_short_600ms.mp4	81.single_stroke_top_to_bottom_with_cotton_pad_short_short_600ms.mp4	564.6719377174404	565.2798140602017	0.6078763427613012				
451.70361328125	0.2	925089	312	14	3	0	0	29	108	stimuli\Videos_short_600ms_horflip\26.single_touch_with_a_blunt_syringe_short_horflip_short_600ms.mp4	26.single_touch_with_a_blunt_syringe_short_horflip_short_600ms.mp4	565.471504655533	566.0797408079916	0.6082361524586304				
452.50341796875	0.2	926727	313	14	3	0	0	30	200	stimuli\Videos_short_600ms_horvertflip\28.single_injection_with_sharp_needle_short_horvertflip_short_600ms.mp4	28.single_injection_with_sharp_needle_short_horvertflip_short_600ms.mp4	566.2717155562123	566.8797660855753	0.6080505293630267				
453.30322265625	0.2	928365	314	14	3	0	0	31	160	stimuli\Videos_short_600ms_horflip\73.single_stroke_with_flat_hand_short_horflip_short_600ms.mp4	73.single_stroke_with_flat_hand_short_horflip_short_600ms.mp4	567.0717425932571	567.6797382860977	0.6079956928406318				
454.103515625	0.2	930004	315	14	3	0	0	32	265	stimuli\Videos_short_600ms_horvertflip\87.single_stroke_top_to_bottom_with_plastic_brush_short_horvertflip_short_600ms.mp4	87.single_stroke_top_to_bottom_with_plastic_brush_short_horvertflip_short_600ms.mp4	567.8722455644001	568.4796835082243	0.6074379438241522				
454.9033203125	0.2	931642	316	14	3	0	0	33	40	stimuli\Videos_short_600ms\46.scratching_top_to_bottom_with_finger_nails_short_short_600ms.mp4	46.scratching_top_to_bottom_with_finger_nails_short_short_600ms.mp4	568.671686994302	569.279715237164	0.6080282428620194				
455.703125	0.2	933280	317	14	3	0	0	34	175	stimuli\Videos_short_600ms_horflip\87.single_stroke_top_to_bottom_with_plastic_brush_short_horflip_short_600ms.mp4	87.single_stroke_top_to_bottom_with_plastic_brush_short_horflip_short_600ms.mp4	569.4713468905638	570.0796522484734	0.6083053579095576				
456.50341796875	0.2	934919	318	14	3	0	0	35	239	stimuli\Videos_short_600ms_horvertflip\63.stroke_top_to_bottom_with_screwdriver_short_horvertflip_short_600ms.mp4	63.stroke_top_to_bottom_with_screwdriver_short_horvertflip_short_600ms.mp4	570.2713853641026	570.8796646233468	0.6082792592442274				
457.30322265625	0.2	936557	319	14	3	0	0	36	56	stimuli\Videos_short_600ms\60.single_push_with_tip_of_pencil_short_short_600ms.mp4	60.single_push_with_tip_of_pencil_short_short_600ms.mp4	571.0713279470383	571.6796544184754	0.6083264714370671				
458.10302734375	0.2	938195	320	14	3	0	0	37	134	stimuli\Videos_short_600ms_horflip\5.repeated_tap_with_finger_moving_from_top_to_bottom_short_horflip_short_600ms.mp4	5.repeated_tap_with_finger_moving_from_top_to_bottom_short_horflip_short_600ms.mp4	571.8713010272904	572.4796201676418	0.608319140351341				
458.9033203125	0.2	939834	321	14	3	0	0	38	120	stimuli\Videos_short_600ms_horflip\37.single_stab_with_nail_file_short_horflip_short_600ms.mp4	37.single_stab_with_nail_file_short_horflip_short_600ms.mp4	572.6712814386292	573.2795982330326	0.6083167944034358				
459.703125	0.2	941472	322	14	3	0	1	39	373	stimuli\Targets_short_600ms_horvertflip\chopstick-silver-tap_short_vertflip_short_600ms.mp4	chopstick-silver-tap_short_vertflip_short_600ms.mp4	573.4712565715854	574.079583922753	0.6083273511676452				
460.5029296875	0.2	943110	323	14	3	0	0	40	34	stimuli\Videos_short_600ms\40.repeated_push_with_finger_short_short_600ms.mp4	40.repeated_push_with_finger_short_short_600ms.mp4	574.271250765366	574.8795567097623	0.6083059443963066				
461.30322265625	0.2	944749	324	14	3	0	0	41	11	stimuli\Videos_short_600ms\2.single_touch_with_finger_short_short_600ms.mp4	2.single_touch_with_finger_short_short_600ms.mp4	575.0712212064273	575.679533015692	0.6083118092647055				
462.10302734375	0.2	946387	325	14	3	0	0	42	287	stimuli\Videos_short_600ms_vertflip\25.single_touch_with_stanley_knife_short_vertflip_short_600ms.mp4	25.single_touch_with_stanley_knife_short_vertflip_short_600ms.mp4	575.8712564542884	576.479508441892	0.6082519876035803				
462.90283203125	0.2	948025	326	14	3	0	0	43	142	stimuli\Videos_short_600ms_horflip\57.single_touch_with_nail_file_short_horflip_short_600ms.mp4	57.single_touch_with_nail_file_short_horflip_short_600ms.mp4	576.6712679494312	577.2794868005267	0.6082188510954438				
463.71142578125	0.2	949681	327	14	3	0	0	44	242	stimuli\Videos_short_600ms_horvertflip\66.stroke_top_to_bottom_with_sponge_short_horvertflip_short_600ms.mp4	66.stroke_top_to_bottom_with_sponge_short_horvertflip_short_600ms.mp4	577.479486155391	578.0877979646557	0.6083118092647055				
464.51123046875	0.2	951319	328	14	3	0	0	45	174	stimuli\Videos_short_600ms_horflip\86.touch_top_to_bottom_with_hair_brush_short_horflip_short_600ms.mp4	86.touch_top_to_bottom_with_hair_brush_short_horflip_short_600ms.mp4	578.2794225802136	578.8877783759945	0.6083557957808807				
465.3115234375	0.2	952958	329	14	3	0	0	46	285	stimuli\Videos_short_600ms_vertflip\23.single_push_with_a_spoon_short_vertflip_short_600ms.mp4	23.single_push_with_a_spoon_short_vertflip_short_600ms.mp4	579.0795185294664	579.6877540954383	0.6082355659718814				
466.111328125	0.2	954596	330	14	3	0	0	47	51	stimuli\Videos_short_600ms\56.repeated_touch_with_nail_file_short_short_600ms.mp4	56.repeated_touch_with_nail_file_short_short_600ms.mp4	579.8794156596687	580.4877339202894	0.6083182606207629				
466.9111328125	0.2	956234	331	14	3	0	0	48	28	stimuli\Videos_short_600ms\35.single_punch_with_hand_short_short_600ms.mp4	35.single_punch_with_hand_short_short_600ms.mp4	580.6794297940023	581.2877108127068	0.6082810187044743				
467.71142578125	0.2	957873	332	14	3	0	0	49	357	stimuli\Videos_short_600ms_vertflip\89.single_touch_with_plastic_brush_short_vertflip_short_600ms.mp4	89.single_touch_with_plastic_brush_short_vertflip_short_600ms.mp4	581.479401701281	582.0876894645844	0.6082877633034514				
468.51123046875	0.2	959511	333	14	3	0	0	50	89	stimuli\Videos_short_600ms\90.repeated_touch_with_sponge_short_short_600ms.mp4	90.repeated_touch_with_sponge_short_short_600ms.mp4	582.27932580988	582.8876663570018	0.6083405471217702				
469.31103515625	0.2	961149	334	14	3	0	0	51	39	stimuli\Videos_short_600ms\45.scratching_with_finger_nails_short_short_600ms.mp4	45.scratching_with_finger_nails_short_short_600ms.mp4	583.0793114996004	583.6876455953661	0.6083340957657128				
470.111328125	0.2	962788	335	14	3	0	1	52	361	stimuli\Targets_short_600ms\chopstick-silver-tap_short_short_600ms.mp4	chopstick-silver-tap_short_short_600ms.mp4	583.8793071595974	584.4876277661651	0.6083206065677587				
470.9111328125	0.2	964426	336	14	3	0	0	53	313	stimuli\Videos_short_600ms_vertflip\49.repeated_slap_with_hand_short_vertflip_short_600ms.mp4	49.repeated_slap_with_hand_short_vertflip_short_600ms.mp4	584.6792693898424	585.2876028991222	0.6083335092798734				
471.7109375	0.2	966064	337	14	3	0	0	54	311	stimuli\Videos_short_600ms_vertflip\47.(long)scratching_with_finger_nails_short_vertflip_short_600ms.mp4	47.(long)scratching_with_finger_nails_short_vertflip_short_600ms.mp4	585.4792474552332	586.0875733401836	0.6083258849503181				
472.51123046875	0.2	967703	338	14	3	0	0	55	173	stimuli\Videos_short_600ms_horflip\85.touch_top_to_bottom_with_fabric_short_horflip_short_600ms.mp4	85.touch_top_to_bottom_with_fabric_short_horflip_short_600ms.mp4	586.2792665747056	586.8877188475772	0.6084522728715456				
473.31103515625	0.2	969341	339	14	3	0	1	56	365	stimuli\Targets_short_600ms\hand-stroke_short_short_600ms.mp4	hand-stroke_short_short_600ms.mp4	587.079307980679	587.6875016128388	0.6081936321597823				
474.11083984375	0.2	970979	340	14	3	0	0	57	67	stimuli\Videos_short_600ms\70.(long)stroke_with_finger_all_over_the_hand_short_short_600ms.mp4	70.(long)stroke_with_finger_all_over_the_hand_short_short_600ms.mp4	587.8792045243945	588.4874679484928	0.608263424098368				
474.9111328125	0.2	972618	341	14	3	0	0	58	192	stimuli\Videos_short_600ms_horvertflip\20.single_touch_with_screwdriver_short_horvertflip_short_600ms.mp4	20.single_touch_with_screwdriver_short_horvertflip_short_600ms.mp4	588.6791550249027	589.2874732855234	0.6083182606207629				
475.7109375	0.2	974256	342	14	3	0	0	59	185	stimuli\Videos_short_600ms_horvertflip\14.repeated_touch_with_pencil_short_horvertflip_short_600ms.mp4	14.repeated_touch_with_pencil_short_horvertflip_short_600ms.mp4	589.4791351429976	590.087449884697	0.6083147416993597				
476.5107421875	0.2	975894	343	14	3	0	0	60	188	stimuli\Videos_short_600ms_horvertflip\17.repeated_touch_with_rolling_pin_short_horvertflip_short_600ms.mp4	17.repeated_touch_with_rolling_pin_short_horvertflip_short_600ms.mp4	590.2791167273099	590.8875918731692	0.6084751458593018				
477.31103515625	0.2	977533	344	14	3	0	0	61	42	stimuli\Videos_short_600ms\48.single_slap_with_hand_short_short_600ms.mp4	48.single_slap_with_hand_short_short_600ms.mp4	591.0791601859864	591.687429768197	0.6082695822105961				
478.11083984375	0.2	979171	345	14	3	0	0	62	294	stimuli\Videos_short_600ms_vertflip\31.hand_grabbing_wrist_short_vertflip_short_600ms.mp4	31.hand_grabbing_wrist_short_vertflip_short_600ms.mp4	591.8798652018568	592.4874028484492	0.607537646592391				
478.91064453125	0.2	980809	346	14	3	0	0	63	359	stimuli\Videos_short_600ms_vertflip\90.repeated_touch_with_sponge_short_vertflip_short_600ms.mp4	90.repeated_touch_with_sponge_short_vertflip_short_600ms.mp4	592.6797077887804	593.2873812070839	0.6076734183034205				
479.7109375	0.2	982448	347	14	3	0	0	64	329	stimuli\Videos_short_600ms_vertflip\63.stroke_top_to_bottom_with_screwdriver_short_vertflip_short_600ms.mp4	63.stroke_top_to_bottom_with_screwdriver_short_vertflip_short_600ms.mp4	593.4794893810686	594.0873598589615	0.6078704778929023				
480.5107421875	0.2	984086	348	14	3	0	0	65	180	stimuli\Videos_short_600ms_horvertflip\1.repeated_touch_with_finger_fast_short_horvertflip_short_600ms.mp4	1.repeated_touch_with_finger_fast_short_horvertflip_short_600ms.mp4	594.2792014746628	594.88733851084	0.6081370361771405				
481.310546875	0.2	985724	349	14	3	0	0	66	212	stimuli\Videos_short_600ms_horvertflip\39.single_stab_with_scissors_short_horvertflip_short_600ms.mp4	39.single_stab_with_scissors_short_horvertflip_short_600ms.mp4	595.0789942102019	595.6873174559605	0.6083232457585837				
482.11083984375	0.2	987363	350	14	3	0	1	67	371	stimuli\Targets_short_600ms_horflip\hand-stroke_short_horflip_short_600ms.mp4	hand-stroke_short_horflip_short_600ms.mp4	595.8789593728816	596.4872925889176	0.6083332160360442				
482.91064453125	0.2	989001	351	14	3	0	0	68	101	stimuli\Videos_short_600ms_horflip\2.single_touch_with_finger_short_horflip_short_600ms.mp4	2.single_touch_with_finger_short_horflip_short_600ms.mp4	596.6789101666327	597.2872712407952	0.6083610741625307				
483.7109375	0.2	990640	352	14	3	0	0	69	297	stimuli\Videos_short_600ms_vertflip\34.repeated_punch_with_hand_short_vertflip_short_600ms.mp4	34.repeated_punch_with_hand_short_vertflip_short_600ms.mp4	597.4788899914847	598.0872469602391	0.6083569687543786				
484.5107421875	0.2	992278	353	14	3	0	0	70	237	stimuli\Videos_short_600ms_horvertflip\61.single_hit_with_rolling_pin_short_horvertflip_short_600ms.mp4	61.single_hit_with_rolling_pin_short_horvertflip_short_600ms.mp4	598.2789155623122	598.8872253188729	0.6083097565606295				
485.310546875	0.2	993916	354	14	3	0	0	71	241	stimuli\Videos_short_600ms_horvertflip\65.stroke_top_to_bottom_with_stanley_knife_short_horvertflip_short_600ms.mp4	65.stroke_top_to_bottom_with_stanley_knife_short_horvertflip_short_600ms.mp4	599.0788643033593	599.6872030910208	0.6083387876615234				
486.11083984375	0.2	995555	355	14	3	0	0	72	254	stimuli\Videos_short_600ms_horvertflip\77.tapping_with_all_fingers_short_horvertflip_short_600ms.mp4	77.tapping_with_all_fingers_short_horvertflip_short_600ms.mp4	599.8788473538889	600.487189367228	0.6083420133390973				
486.91064453125	0.2	997193	356	14	3	0	0	73	198	stimuli\Videos_short_600ms_horvertflip\26.single_touch_with_a_blunt_syringe_short_horvertflip_short_600ms.mp4	26.single_touch_with_a_blunt_syringe_short_horvertflip_short_600ms.mp4	600.6788500517287	601.2871416271964	0.6082915754677742				
487.71044921875	0.2	998831	357	14	3	0	0	74	82	stimuli\Videos_short_600ms\84.single_touch_with_cotton_bud_short_short_600ms.mp4	84.single_touch_with_cotton_bud_short_short_600ms.mp4	601.4788251846849	602.0871267304301	0.6083015457452348				
488.5107421875	0.2	1000470	358	14	3	0	0	75	16	stimuli\Videos_short_600ms\24.single_stroke_top_to_bottom_with_a_spoon_short_short_600ms.mp4	24.single_stroke_top_to_bottom_with_a_spoon_short_short_600ms.mp4	602.2787976784502	602.8870728322863	0.6082751538360753				
489.310546875	0.2	1002108	359	14	3	0	0	76	259	stimuli\Videos_short_600ms_horvertflip\81.single_stroke_top_to_bottom_with_cotton_pad_short_horvertflip_short_600ms.mp4	81.single_stroke_top_to_bottom_with_cotton_pad_short_horvertflip_short_600ms.mp4	603.0788581452471	603.68706907877	0.6082109335229688				
490.1103515625	0.2	1003746	360	14	3	0	0	77	156	stimuli\Videos_short_600ms_horflip\7.repeated_touch_with_hairbrush_short_horflip_short_600ms.mp4	7.repeated_touch_with_hairbrush_short_horflip_short_600ms.mp4	603.8788734525542	604.4870538887599	0.6081804362056573				
490.91064453125	0.2	1005385	361	14	3	0	1	78	374	stimuli\Targets_short_600ms_horvertflip\chopstickwood-tap_short_vertflip_short_600ms.mp4	chopstickwood-tap_short_vertflip_short_600ms.mp4	604.6787101746086	605.2870319541507	0.608321779542166				
491.71044921875	0.2	1007023	362	14	3	0	0	79	6	stimuli\Videos_short_600ms\15.single_stroke_top_to_bottom_with_a_plastic_whisk_short_short_600ms.mp4	15.single_stroke_top_to_bottom_with_a_plastic_whisk_short_short_600ms.mp4	605.4787081805534	606.0870320127997	0.6083238322462421				
492.51025390625	0.2	1008661	363	14	3	0	0	80	140	stimuli\Videos_short_600ms_horflip\55.touch_top_to_bottom_with_nail_file_short_horflip_short_600ms.mp4	55.touch_top_to_bottom_with_nail_file_short_horflip_short_600ms.mp4	606.278686832431	606.8870226876579	0.6083358552268692				
493.310546875	0.2	1010300	364	14	3	0	0	81	208	stimuli\Videos_short_600ms_horvertflip\35.single_punch_with_hand_short_horvertflip_short_600ms.mp4	35.single_punch_with_hand_short_horvertflip_short_600ms.mp4	607.0786531680851	607.6869855043906	0.608332336305466				
494.1103515625	0.2	1011938	365	14	3	0	0	82	137	stimuli\Videos_short_600ms_horflip\52.touch_top_to_bottom_with_hammer_short_horflip_short_600ms.mp4	52.touch_top_to_bottom_with_hammer_short_horflip_short_600ms.mp4	607.8786412037525	608.4869641562682	0.6083229525156639				
494.91015625	0.2	1013576	366	14	3	0	0	83	325	stimuli\Videos_short_600ms_vertflip\6.single_touch_with_flat_hand_short_vertflip_short_600ms.mp4	6.single_touch_with_flat_hand_short_vertflip_short_600ms.mp4	608.678591117774	609.286939875712	0.6083487579380744				
495.71044921875	0.2	1015215	367	14	3	0	0	84	26	stimuli\Videos_short_600ms\33.scratch_top_to_bottom_with_scissors_short_short_600ms.mp4	33.scratch_top_to_bottom_with_scissors_short_short_600ms.mp4	609.4786348696944	610.0869182343458	0.60828336465147				
496.51025390625	0.2	1016853	368	14	3	0	0	85	247	stimuli\Videos_short_600ms_horvertflip\70.(long)stroke_with_finger_all_over_the_hand_short_horvertflip_short_600ms.mp4	70.(long)stroke_with_finger_all_over_the_hand_short_horvertflip_short_600ms.mp4	610.2785797985771	610.8868942470335	0.60831444845644				
497.31005859375	0.2	1018491	369	14	3	0	0	86	102	stimuli\Videos_short_600ms_horflip\20.single_touch_with_screwdriver_short_horflip_short_600ms.mp4	20.single_touch_with_screwdriver_short_horflip_short_600ms.mp4	611.0785722328965	611.686873192154	0.6083009592575763				
498.1103515625	0.2	1020130	370	14	3	0	0	87	182	stimuli\Videos_short_600ms_horvertflip\11.single_touch_with_lighter_short_horvertflip_short_600ms.mp4	11.single_touch_with_lighter_short_horvertflip_short_600ms.mp4	611.8785514712608	612.4868530170061	0.6083015457452348				
498.91015625	0.2	1021768	371	14	3	0	0	88	84	stimuli\Videos_short_600ms\86.touch_top_to_bottom_with_hair_brush_short_short_600ms.mp4	86.touch_top_to_bottom_with_hair_brush_short_short_600ms.mp4	612.6784679555303	613.2868310823969	0.6083631268666068				
499.7099609375	0.2	1023406	372	14	3	0	1	89	369	stimuli\Targets_short_600ms_horflip\finger-tap_short_horflip_short_600ms.mp4	finger-tap_short_horflip_short_600ms.mp4	613.4784457276783	614.0868079748143	0.6083622471360286				
500.51025390625	0.2	1025045	373	14	3	0	0	90	258	stimuli\Videos_short_600ms_horvertflip\80.stroke_with_sharp_stick_all_over_the_hand_short_horvertflip_short_600ms.mp4	80.stroke_with_sharp_stick_all_over_the_hand_short_horvertflip_short_600ms.mp4	614.2784425606487	614.886781934797	0.6083393741482723				
501.31005859375	0.2	1026683	374	14	3	0	0	91	65	stimuli\Videos_short_600ms\69.stroke_with_soft_sock_short_short_600ms.mp4	69.stroke_with_soft_sock_short_short_600ms.mp4	615.0784385138895	615.6867468042328	0.6083082903433024				
