onset	duration	onsetsample	eventnumber	subjectnr	sequencenumber	blocksequencenumber	istarget	presentationnumber	stimnumber	stim	stimname	time_stimon	time_stimoff	stimdur	cresp	resp	rt	correct
5.13232421875	0.2	10511	0	68	0	0	0	0	339	stimuli\Videos_short_600ms_vertflip\72.(short)stroke_with_finger_all_over_the_hand_short_vertflip_short_600ms.mp4	72.(short)stroke_with_finger_all_over_the_hand_short_vertflip_short_600ms.mp4	37.24973864379808	37.85783336954955	0.6080947257514708				
5.93212890625	0.2	12149	1	68	0	0	0	1	240	stimuli\Videos_short_600ms_horvertflip\64.repeated_touch_with_screwdriver_short_horvertflip_short_600ms.mp4	64.repeated_touch_with_screwdriver_short_horvertflip_short_600ms.mp4	38.04947425249247	38.6577994702202	0.6083252177277245				
6.732421875	0.2	13788	2	68	0	0	0	2	6	stimuli\Videos_short_600ms\15.single_stroke_top_to_bottom_with_a_plastic_whisk_short_short_600ms.mp4	15.single_stroke_top_to_bottom_with_a_plastic_whisk_short_short_600ms.mp4	38.84946293316625	39.45780076050687	0.6083378273406197				
7.5322265625	0.2	15426	3	68	0	0	0	3	87	stimuli\Videos_short_600ms\89.single_touch_with_plastic_brush_short_short_600ms.mp4	89.single_touch_with_plastic_brush_short_short_600ms.mp4	39.64945337332029	40.25780175754517	0.6083483842248825				
8.33203125	0.2	17064	4	68	0	0	0	4	190	stimuli\Videos_short_600ms_horvertflip\19.single_touch_with_rolling_pin_short_horvertflip_short_600ms.mp4	19.single_touch_with_rolling_pin_short_horvertflip_short_600ms.mp4	40.44944234724153	41.05779806263581	0.608355715394282				
9.13232421875	0.2	18703	5	68	0	0	0	5	181	stimuli\Videos_short_600ms_horvertflip\10.single_touch_with_knife_short_horvertflip_short_600ms.mp4	10.single_touch_with_knife_short_horvertflip_short_600ms.mp4	41.24945566064525	41.85778586356992	0.6083302029246624				
9.93212890625	0.2	20341	6	68	0	0	0	6	175	stimuli\Videos_short_600ms_horflip\87.single_stroke_top_to_bottom_with_plastic_brush_short_horflip_short_600ms.mp4	87.single_stroke_top_to_bottom_with_plastic_brush_short_horflip_short_600ms.mp4	42.049448740021035	42.65776252112482	0.6083137811037886				
10.73193359375	0.2	21979	7	68	0	0	0	7	33	stimuli\Videos_short_600ms\4.repeated_tap_with_finger_slow_short_short_600ms.mp4	4.repeated_tap_with_finger_slow_short_short_600ms.mp4	42.849428623291715	43.4577512017986	0.6083225785068862				
11.5322265625	0.2	23618	8	68	0	0	0	8	102	stimuli\Videos_short_600ms_horflip\20.single_touch_with_screwdriver_short_horflip_short_600ms.mp4	20.single_touch_with_screwdriver_short_horflip_short_600ms.mp4	43.64941495799121	44.257737829745565	0.6083228717543534				
12.33203125	0.2	25256	9	68	0	0	0	9	268	stimuli\Videos_short_600ms_horvertflip\9.single_touch_with_hammer_short_horvertflip_short_600ms.mp4	9.single_touch_with_hammer_short_horvertflip_short_600ms.mp4	44.44939777372929	45.05772563067876	0.6083278569494723				
13.1318359375	0.2	26894	10	68	0	0	0	10	136	stimuli\Videos_short_600ms_horflip\51.repeated_touch_with_hammer_short_horflip_short_600ms.mp4	51.repeated_touch_with_hammer_short_horflip_short_600ms.mp4	45.24939114635163	45.8577131383654	0.6083219920137708				
13.93212890625	0.2	28533	11	68	0	0	0	11	204	stimuli\Videos_short_600ms_horvertflip\31.hand_grabbing_wrist_short_horvertflip_short_600ms.mp4	31.hand_grabbing_wrist_short_horvertflip_short_600ms.mp4	46.049374841830286	46.65770093929859	0.6083260974683071				
14.73193359375	0.2	30171	12	68	0	0	0	12	73	stimuli\Videos_short_600ms\76.tickle_with_fingers_from_top_to_bottom_short_short_600ms.mp4	76.tickle_with_fingers_from_top_to_bottom_short_short_600ms.mp4	46.84935325886636	47.457690206466395	0.6083369476000371				
15.5322265625	0.2	31810	13	68	0	0	0	13	161	stimuli\Videos_short_600ms_horflip\74.fingers_walking_from_top_to_bottom_short_horflip_short_600ms.mp4	74.fingers_walking_from_top_to_bottom_short_horflip_short_600ms.mp4	47.64932845018848	48.25767771415303	0.6083492639645556				
16.33203125	0.2	33448	14	68	0	0	0	14	91	stimuli\Videos_short_600ms_horflip\10.single_touch_with_knife_short_horflip_short_600ms.mp4	10.single_touch_with_knife_short_horflip_short_600ms.mp4	48.449296603586845	49.05766287586539	0.6083662722785448				
17.1318359375	0.2	35086	15	68	0	0	0	15	34	stimuli\Videos_short_600ms\40.repeated_push_with_finger_short_short_600ms.mp4	40.repeated_push_with_finger_short_short_600ms.mp4	49.24930845075687	49.85765009030547	0.6083416395485983				
17.93212890625	0.2	36725	16	68	0	0	0	16	353	stimuli\Videos_short_600ms_vertflip\85.touch_top_to_bottom_with_fabric_short_vertflip_short_600ms.mp4	85.touch_top_to_bottom_with_fabric_short_vertflip_short_600ms.mp4	50.04934756987859	50.65763437227724	0.6082868023986521				
18.73193359375	0.2	38363	17	68	0	0	0	17	294	stimuli\Videos_short_600ms_vertflip\31.hand_grabbing_wrist_short_vertflip_short_600ms.mp4	31.hand_grabbing_wrist_short_vertflip_short_600ms.mp4	50.849321001719545	51.45758405112883	0.6082630494092882				
19.53173828125	0.2	40001	18	68	0	0	0	18	113	stimuli\Videos_short_600ms_horflip\30.finger_pulling_back_another_finger_short_horflip_short_600ms.mp4	30.finger_pulling_back_another_finger_short_horflip_short_600ms.mp4	51.64927859823365	52.257572145308586	0.6082935470749362				
20.33203125	0.2	41640	19	68	0	0	1	19	373	stimuli\Targets_short_600ms_horvertflip\chopstick-silver-tap_short_vertflip_short_600ms.mp4	chopstick-silver-tap_short_vertflip_short_600ms.mp4	52.449279595272856	53.057559652995224	0.6082800577223679				
21.1318359375	0.2	43278	20	68	0	0	0	20	10	stimuli\Videos_short_600ms\19.single_touch_with_rolling_pin_short_short_600ms.mp4	19.single_touch_with_rolling_pin_short_short_600ms.mp4	53.2492715016615	53.857574139387	0.608302637725501				
21.931640625	0.2	44916	21	68	0	0	0	21	314	stimuli\Videos_short_600ms_vertflip\5.repeated_tap_with_finger_moving_from_top_to_bottom_short_vertflip_short_600ms.mp4	5.repeated_tap_with_finger_moving_from_top_to_bottom_short_vertflip_short_600ms.mp4	54.050061625813214	54.65756633902219	0.6075047132089821				
22.73193359375	0.2	46555	22	68	0	0	0	22	194	stimuli\Videos_short_600ms_horvertflip\22.single_touch_with_metal_chopstick_short_horvertflip_short_600ms.mp4	22.single_touch_with_metal_chopstick_short_horvertflip_short_600ms.mp4	54.84922159105736	55.45755795216428	0.6083363611069217				
23.53173828125	0.2	48193	23	68	0	0	0	23	245	stimuli\Videos_short_600ms_horvertflip\69.stroke_with_soft_sock_short_horvertflip_short_600ms.mp4	69.stroke_with_soft_sock_short_horvertflip_short_600ms.mp4	55.64921173796574	56.25755718972232	0.608345451756577				
24.33154296875	0.2	49831	24	68	0	0	0	24	297	stimuli\Videos_short_600ms_vertflip\34.repeated_punch_with_hand_short_vertflip_short_600ms.mp4	34.repeated_punch_with_hand_short_vertflip_short_600ms.mp4	56.44922505136947	57.05754997585154	0.6083249244820763				
25.1318359375	0.2	51470	25	68	0	0	0	25	138	stimuli\Videos_short_600ms_horflip\53.touch_top_to_bottom_with_knife_short_horflip_short_600ms.mp4	53.touch_top_to_bottom_with_knife_short_horflip_short_600ms.mp4	57.24921578477097	57.85753161860248	0.6083158338315116				
25.931640625	0.2	53108	26	68	0	0	0	26	36	stimuli\Videos_short_600ms\42.single_slap_with_plastic_whisk_short_short_600ms.mp4	42.single_slap_with_plastic_whisk_short_short_600ms.mp4	58.04920270596449	58.65751971278223	0.6083170068177424				
26.7314453125	0.2	54746	27	68	0	0	0	27	74	stimuli\Videos_short_600ms\77.tapping_with_all_fingers_short_short_600ms.mp4	77.tapping_with_all_fingers_short_short_600ms.mp4	58.849192852871965	59.457508979950035	0.6083161270780693				
27.53173828125	0.2	56385	28	68	0	0	0	28	25	stimuli\Videos_short_600ms\32.single_(long)pinch_with_fingers_short_short_600ms.mp4	32.single_(long)pinch_with_fingers_short_short_600ms.mp4	59.649186225494304	60.25749296867525	0.6083067431809468				
28.33154296875	0.2	58023	29	68	0	0	0	29	274	stimuli\Videos_short_600ms_vertflip\13.single_touch_with_pen_short_vertflip_short_600ms.mp4	13.single_touch_with_pen_short_vertflip_short_600ms.mp4	60.44916317629668	61.05748164934903	0.6083184730523499				
29.13134765625	0.2	59661	30	68	0	0	0	30	254	stimuli\Videos_short_600ms_horvertflip\77.tapping_with_all_fingers_short_horvertflip_short_600ms.mp4	77.tapping_with_all_fingers_short_horvertflip_short_600ms.mp4	61.24915390969818	61.857470623270274	0.6083167135720942				
29.931640625	0.2	61300	31	68	0	0	0	31	188	stimuli\Videos_short_600ms_horvertflip\17.repeated_touch_with_rolling_pin_short_horvertflip_short_600ms.mp4	17.repeated_touch_with_rolling_pin_short_horvertflip_short_600ms.mp4	62.04913291322828	62.65745989043717	0.6083269772088897				
30.7314453125	0.2	62938	32	68	0	0	0	32	247	stimuli\Videos_short_600ms_horvertflip\70.(long)stroke_with_finger_all_over_the_hand_short_horvertflip_short_600ms.mp4	70.(long)stroke_with_finger_all_over_the_hand_short_horvertflip_short_600ms.mp4	62.84910751805637	63.45744534539699	0.6083378273406197				
31.53125	0.2	64576	33	68	0	0	0	33	23	stimuli\Videos_short_600ms\30.finger_pulling_back_another_finger_short_short_600ms.mp4	30.finger_pulling_back_another_finger_short_short_600ms.mp4	63.64909121353503	64.25743490581044	0.6083436922754117				
32.33154296875	0.2	66215	34	68	0	0	0	34	232	stimuli\Videos_short_600ms_horvertflip\57.single_touch_with_nail_file_short_horvertflip_short_600ms.mp4	57.single_touch_with_nail_file_short_horvertflip_short_600ms.mp4	64.4490725630385	65.05742387973169	0.608351316693188				
33.13134765625	0.2	67853	35	68	0	0	0	35	4	stimuli\Videos_short_600ms\13.single_touch_with_pen_short_short_600ms.mp4	13.single_touch_with_pen_short_short_600ms.mp4	65.24907033436284	65.85740962793716	0.6083392935743177				
33.931640625	0.2	69492	36	68	0	0	0	36	322	stimuli\Videos_short_600ms_vertflip\57.single_touch_with_nail_file_short_vertflip_short_600ms.mp4	57.single_touch_with_nail_file_short_vertflip_short_600ms.mp4	66.0490657597129	66.65739684237724	0.6083310826643356				
34.7314453125	0.2	71130	37	68	0	0	0	37	176	stimuli\Videos_short_600ms_horflip\88.repeated_stroke_with_plastic_brush_short_horflip_short_600ms.mp4	88.repeated_stroke_with_plastic_brush_short_horflip_short_600ms.mp4	66.84903801856672	67.45734036304566	0.6083023444789433				
35.53125	0.2	72768	38	68	0	0	0	38	134	stimuli\Videos_short_600ms_horflip\5.repeated_tap_with_finger_moving_from_top_to_bottom_short_horflip_short_600ms.mp4	5.repeated_tap_with_finger_moving_from_top_to_bottom_short_horflip_short_600ms.mp4	67.64905045223077	68.25735778190483	0.6083073296740622				
36.33154296875	0.2	74407	39	68	0	0	0	39	142	stimuli\Videos_short_600ms_horflip\57.single_touch_with_nail_file_short_horflip_short_600ms.mp4	57.single_touch_with_nail_file_short_horflip_short_600ms.mp4	68.4490394261511	69.05734089088946	0.6083014647383607				
37.13134765625	0.2	76045	40	68	0	0	0	40	119	stimuli\Videos_short_600ms_horflip\36.single_slap_with_full_hand_short_horflip_short_600ms.mp4	36.single_slap_with_full_hand_short_horflip_short_600ms.mp4	69.24903661098233	69.85733250403155	0.6082958930492168				
37.93115234375	0.2	77683	41	68	0	0	0	41	195	stimuli\Videos_short_600ms_horvertflip\23.single_push_with_a_spoon_short_horvertflip_short_600ms.mp4	23.single_push_with_a_spoon_short_horvertflip_short_600ms.mp4	70.04899479398955	70.65732089145877	0.6083260974692166				
38.7314453125	0.2	79322	42	68	0	0	0	42	304	stimuli\Videos_short_600ms_vertflip\40.repeated_push_with_finger_short_vertflip_short_600ms.mp4	40.repeated_push_with_finger_short_vertflip_short_600ms.mp4	70.84901074661502	71.45733215213568	0.6083214055206554				
39.53125	0.2	80960	43	68	0	0	0	43	44	stimuli\Videos_short_600ms\5.repeated_tap_with_finger_moving_from_top_to_bottom_short_short_600ms.mp4	5.repeated_tap_with_finger_moving_from_top_to_bottom_short_short_600ms.mp4	71.6489950285877	72.25732552475802	0.6083304961703107				
40.3310546875	0.2	82598	44	68	0	0	0	44	197	stimuli\Videos_short_600ms_horvertflip\25.single_touch_with_stanley_knife_short_horvertflip_short_600ms.mp4	25.single_touch_with_stanley_knife_short_horvertflip_short_600ms.mp4	72.44897872406546	73.05730159581981	0.6083228717543534				
41.13134765625	0.2	84237	45	68	0	0	0	45	43	stimuli\Videos_short_600ms\49.repeated_slap_with_hand_short_short_600ms.mp4	49.repeated_slap_with_hand_short_short_600ms.mp4	73.24896652499956	73.8572879305193	0.6083214055197459				
41.93115234375	0.2	85875	46	68	0	0	0	46	178	stimuli\Videos_short_600ms_horflip\9.single_touch_with_hammer_short_horflip_short_600ms.mp4	9.single_touch_with_hammer_short_horflip_short_600ms.mp4	74.04895608541392	74.65727543820594	0.608319352792023				
42.73095703125	0.2	87513	47	68	0	0	0	47	3	stimuli\Videos_short_600ms\12.repeated_touch_with_nail_file_short_short_600ms.mp4	12.repeated_touch_with_nail_file_short_short_600ms.mp4	74.848943299854	75.45726382563316	0.6083205257791633				
43.53125	0.2	89152	48	68	0	0	0	48	169	stimuli\Videos_short_600ms_horflip\81.single_stroke_top_to_bottom_with_cotton_pad_short_horflip_short_600ms.mp4	81.single_stroke_top_to_bottom_with_cotton_pad_short_horflip_short_600ms.mp4	75.64892787507233	76.25725221306038	0.6083243379880514				
44.3310546875	0.2	90790	49	68	0	0	0	49	17	stimuli\Videos_short_600ms\25.single_touch_with_stanley_knife_short_short_600ms.mp4	25.single_touch_with_stanley_knife_short_short_600ms.mp4	76.44890247990043	77.05724323970844	0.6083407598080157				
45.130859375	0.2	92428	50	68	0	0	0	50	124	stimuli\Videos_short_600ms_horflip\40.repeated_push_with_finger_short_horflip_short_600ms.mp4	40.repeated_push_with_finger_short_horflip_short_600ms.mp4	77.24886095615511	77.85722722843366	0.6083662722785448				
45.93115234375	0.2	94067	51	68	0	0	0	51	273	stimuli\Videos_short_600ms_vertflip\12.repeated_touch_with_nail_file_short_vertflip_short_600ms.mp4	12.repeated_touch_with_nail_file_short_vertflip_short_600ms.mp4	78.04884846384175	78.65721942806886	0.608370964227106				
46.73095703125	0.2	95705	52	68	0	0	0	52	167	stimuli\Videos_short_600ms_horflip\8.single_touch_with_hairbrush_short_horflip_short_600ms.mp4	8.single_touch_with_hairbrush_short_horflip_short_600ms.mp4	78.84883773100864	79.45720371004154	0.6083659790328966				
47.53076171875	0.2	97343	53	68	0	0	0	53	214	stimuli\Videos_short_600ms_horvertflip\40.repeated_push_with_finger_short_horvertflip_short_600ms.mp4	40.repeated_push_with_finger_short_horvertflip_short_600ms.mp4	79.64885778908956	80.25717098369933	0.6083131946097637				
48.3310546875	0.2	98982	54	68	0	0	0	54	269	stimuli\Videos_short_600ms_horvertflip\90.repeated_touch_with_sponge_short_horvertflip_short_600ms.mp4	90.repeated_touch_with_sponge_short_horvertflip_short_600ms.mp4	80.44885526716735	81.05717696593365	0.6083216987663036				
49.130859375	0.2	100620	55	68	0	0	0	55	301	stimuli\Videos_short_600ms_vertflip\38.double_slap_with_pencil_short_vertflip_short_600ms.mp4	38.double_slap_with_pencil_short_vertflip_short_600ms.mp4	81.24883133822914	81.85716418037373	0.6083328421445913				
49.9306640625	0.2	102258	56	68	0	0	0	56	88	stimuli\Videos_short_600ms\9.single_touch_with_hammer_short_short_600ms.mp4	9.single_touch_with_hammer_short_short_600ms.mp4	82.04884758410117	82.65714289065727	0.6082953065561014				
50.73095703125	0.2	103897	57	68	0	0	0	57	246	stimuli\Videos_short_600ms_horvertflip\7.repeated_touch_with_hairbrush_short_horvertflip_short_600ms.mp4	7.repeated_touch_with_hairbrush_short_horvertflip_short_600ms.mp4	82.84881925646096	83.45714506068362	0.6083258042226589				
51.53076171875	0.2	105535	58	68	0	0	0	58	217	stimuli\Videos_short_600ms_horvertflip\43.touch_top_to_bottom_with_sharp_wooden_stick_short_horvertflip_short_600ms.mp4	43.touch_top_to_bottom_with_sharp_wooden_stick_short_horvertflip_short_600ms.mp4	83.64879972622475	84.25708652862431	0.6082868023995616				
52.33056640625	0.2	107173	59	68	0	0	0	59	75	stimuli\Videos_short_600ms\78.single_stroke_top_to_bottom_with_soft_brush_short_short_600ms.mp4	78.single_stroke_top_to_bottom_with_soft_brush_short_short_600ms.mp4	84.44879984352337	85.05709661631317	0.6082967727897994				
53.130859375	0.2	108812	60	68	0	0	0	60	230	stimuli\Videos_short_600ms_horvertflip\55.touch_top_to_bottom_with_nail_file_short_horvertflip_short_600ms.mp4	55.touch_top_to_bottom_with_nail_file_short_horvertflip_short_600ms.mp4	85.24878999043176	85.85709497413154	0.6083049836997816				
53.9306640625	0.2	110450	61	68	0	0	0	61	2	stimuli\Videos_short_600ms\11.single_touch_with_lighter_short_short_600ms.mp4	11.single_touch_with_lighter_short_short_600ms.mp4	86.04878131032638	86.65709450493705	0.6083131946106732				
54.73095703125	0.2	112089	62	68	0	0	0	62	85	stimuli\Videos_short_600ms\87.single_stroke_top_to_bottom_with_plastic_brush_short_short_600ms.mp4	87.single_stroke_top_to_bottom_with_plastic_brush_short_short_600ms.mp4	86.84876119359706	87.45708670457225	0.6083255109751917				
55.53076171875	0.2	113727	63	68	0	0	0	63	14	stimuli\Videos_short_600ms\22.single_touch_with_metal_chopstick_short_short_600ms.mp4	22.single_touch_with_metal_chopstick_short_short_600ms.mp4	87.64874987427083	88.25707040005	0.6083205257791633				
56.33056640625	0.2	115365	64	68	0	0	1	64	365	stimuli\Targets_short_600ms\hand-stroke_short_short_600ms.mp4	hand-stroke_short_short_600ms.mp4	88.44873855494461	89.0570699308555	0.6083313759108933				
57.130859375	0.2	117004	65	68	0	0	0	65	262	stimuli\Videos_short_600ms_horvertflip\84.single_touch_with_cotton_bud_short_horvertflip_short_600ms.mp4	84.single_touch_with_cotton_bud_short_horvertflip_short_600ms.mp4	89.2487301680867	89.85704658841132	0.608316420324627				
57.9306640625	0.2	118642	66	68	0	0	0	66	259	stimuli\Videos_short_600ms_horvertflip\81.single_stroke_top_to_bottom_with_cotton_pad_short_horvertflip_short_600ms.mp4	81.single_stroke_top_to_bottom_with_cotton_pad_short_horvertflip_short_600ms.mp4	90.04871181083763	90.65703497583854	0.6083231650009111				
58.73046875	0.2	120280	67	68	0	0	0	67	140	stimuli\Videos_short_600ms_horflip\55.touch_top_to_bottom_with_nail_file_short_horflip_short_600ms.mp4	55.touch_top_to_bottom_with_nail_file_short_horflip_short_600ms.mp4	90.84869785228966	91.457020724044	0.6083228717543534				
59.53076171875	0.2	121919	68	68	0	0	0	68	272	stimuli\Videos_short_600ms_vertflip\11.single_touch_with_lighter_short_vertflip_short_600ms.mp4	11.single_touch_with_lighter_short_vertflip_short_600ms.mp4	91.64869474387432	92.25700999121182	0.6083152473374867				
60.33056640625	0.2	123557	69	68	0	0	0	69	312	stimuli\Videos_short_600ms_vertflip\48.single_slap_with_hand_short_vertflip_short_600ms.mp4	48.single_slap_with_hand_short_vertflip_short_600ms.mp4	92.44863621181504	93.05699661915789	0.6083604073428432				
61.13037109375	0.2	125195	70	68	0	0	0	70	72	stimuli\Videos_short_600ms\75.(long)stroke_with_fingers_all_over_the_hand_short_short_600ms.mp4	75.(long)stroke_with_fingers_all_over_the_hand_short_short_600ms.mp4	93.24863838184136	93.85698588632567	0.6083475044842999				
61.9306640625	0.2	126834	71	68	0	0	0	71	185	stimuli\Videos_short_600ms_horvertflip\14.repeated_touch_with_pencil_short_horvertflip_short_600ms.mp4	14.repeated_touch_with_pencil_short_horvertflip_short_600ms.mp4	94.04908071529916	94.65697691297372	0.6078961976745632				
62.73046875	0.2	128472	72	68	0	0	0	72	287	stimuli\Videos_short_600ms_vertflip\25.single_touch_with_stanley_knife_short_vertflip_short_600ms.mp4	25.single_touch_with_stanley_knife_short_vertflip_short_600ms.mp4	94.84861486344836	95.4569606084524	0.6083457450040441				
63.5302734375	0.2	130110	73	68	0	0	0	73	16	stimuli\Videos_short_600ms\24.single_stroke_top_to_bottom_with_a_spoon_short_short_600ms.mp4	24.single_stroke_top_to_bottom_with_a_spoon_short_short_600ms.mp4	95.6486434256858	96.2569489958796	0.6083055701938065				
64.33056640625	0.2	131749	74	68	0	0	0	74	52	stimuli\Videos_short_600ms\57.single_touch_with_nail_file_short_short_600ms.mp4	57.single_touch_with_nail_file_short_short_600ms.mp4	96.44859427752364	97.05694324824252	0.6083489707189074				
65.13037109375	0.2	133387	75	68	0	0	0	75	296	stimuli\Videos_short_600ms_vertflip\33.scratch_top_to_bottom_with_scissors_short_vertflip_short_600ms.mp4	33.scratch_top_to_bottom_with_scissors_short_vertflip_short_600ms.mp4	97.24859967326483	97.85693280865598	0.608333135391149				
65.93017578125	0.2	135025	76	68	0	0	0	76	162	stimuli\Videos_short_600ms_horflip\75.(long)stroke_with_fingers_all_over_the_hand_short_horflip_short_600ms.mp4	75.(long)stroke_with_fingers_all_over_the_hand_short_horflip_short_600ms.mp4	98.04859685809517	98.65688747270268	0.6082906146075402				
66.73046875	0.2	136664	77	68	0	0	0	77	319	stimuli\Videos_short_600ms_vertflip\54.repeated_touch_with_knife_short_vertflip_short_600ms.mp4	54.repeated_touch_with_knife_short_vertflip_short_600ms.mp4	98.8485805535738	99.45685621259508	0.6082756590212739				
67.5302734375	0.2	138302	78	68	0	0	0	78	276	stimuli\Videos_short_600ms_vertflip\15.single_stroke_top_to_bottom_with_a_plastic_whisk_short_vertflip_short_600ms.mp4	15.single_stroke_top_to_bottom_with_a_plastic_whisk_short_vertflip_short_600ms.mp4	99.64856278281876	100.25688858704052	0.6083258042217494				
68.330078125	0.2	139940	79	68	0	0	0	79	97	stimuli\Videos_short_600ms_horflip\16.repeated_touch_with_plastic_brush_short_horflip_short_600ms.mp4	16.repeated_touch_with_plastic_brush_short_horflip_short_600ms.mp4	100.44853210920428	101.05685937965973	0.6083272704554474				
69.13037109375	0.2	141579	80	68	0	0	0	80	356	stimuli\Videos_short_600ms_vertflip\88.repeated_stroke_with_plastic_brush_short_vertflip_short_600ms.mp4	88.repeated_stroke_with_plastic_brush_short_vertflip_short_600ms.mp4	101.24853926442574	101.85685216578896	0.608312901363206				
69.93017578125	0.2	143217	81	68	0	0	0	81	112	stimuli\Videos_short_600ms_horflip\3.single_push_with_finger_short_horflip_short_600ms.mp4	3.single_push_with_finger_short_horflip_short_600ms.mp4	102.04852999782725	102.6568616669847	0.608331669157451				
70.72998046875	0.2	144855	82	68	0	0	0	82	320	stimuli\Videos_short_600ms_vertflip\55.touch_top_to_bottom_with_nail_file_short_vertflip_short_600ms.mp4	55.touch_top_to_bottom_with_nail_file_short_vertflip_short_600ms.mp4	102.84851603928018	103.45683744479992	0.6083214055197459				
71.5302734375	0.2	146494	83	68	0	0	0	83	77	stimuli\Videos_short_600ms\8.single_touch_with_hairbrush_short_short_600ms.mp4	8.single_touch_with_hairbrush_short_short_600ms.mp4	103.64850325372026	104.25683345664402	0.608330202923753				
72.330078125	0.2	148132	84	68	0	0	0	84	182	stimuli\Videos_short_600ms_horvertflip\11.single_touch_with_lighter_short_horvertflip_short_600ms.mp4	11.single_touch_with_lighter_short_horvertflip_short_600ms.mp4	104.4484922276406	105.05681509939495	0.6083228717543534				
73.1298828125	0.2	149770	85	68	0	0	0	85	264	stimuli\Videos_short_600ms_horvertflip\86.touch_top_to_bottom_with_hair_brush_short_horvertflip_short_600ms.mp4	86.touch_top_to_bottom_with_hair_brush_short_horvertflip_short_600ms.mp4	105.24848032182126	105.85680378006872	0.6083234582474688				
73.93017578125	0.2	151409	86	68	0	0	0	86	324	stimuli\Videos_short_600ms_vertflip\59.single_push_with_long_side_pencil_short_vertflip_short_600ms.mp4	59.single_push_with_long_side_pencil_short_vertflip_short_600ms.mp4	106.04847281470302	106.6567909945088	0.6083181798057922				
74.72998046875	0.2	153047	87	68	0	0	0	87	148	stimuli\Videos_short_600ms_horflip\62.touch_top_to_bottom_with_scissors_short_horflip_short_600ms.mp4	62.touch_top_to_bottom_with_scissors_short_horflip_short_600ms.mp4	106.8484488857648	107.45677674271428	0.6083278569494723				
75.5302734375	0.2	154686	88	68	0	0	0	88	55	stimuli\Videos_short_600ms\6.single_touch_with_flat_hand_short_short_600ms.mp4	6.single_touch_with_flat_hand_short_short_600ms.mp4	107.64844401786831	108.25676600988209	0.6083219920137708				
76.330078125	0.2	156324	89	68	0	0	0	89	42	stimuli\Videos_short_600ms\48.single_slap_with_hand_short_short_600ms.mp4	48.single_slap_with_hand_short_short_600ms.mp4	108.44843914997182	109.05675410406276	0.608314954090929				
77.1298828125	0.2	157962	90	68	0	0	0	90	58	stimuli\Videos_short_600ms\62.touch_top_to_bottom_with_scissors_short_short_600ms.mp4	62.touch_top_to_bottom_with_scissors_short_short_600ms.mp4	109.24837387323625	109.85673985226822	0.6083659790319871				
77.93017578125	0.2	159601	91	68	0	0	0	91	271	stimuli\Videos_short_600ms_vertflip\10.single_touch_with_knife_short_vertflip_short_600ms.mp4	10.single_touch_with_knife_short_vertflip_short_600ms.mp4	110.04837721624972	110.65673087891628	0.6083536626665591	2.0	2.0	0.542899512828626	1.0
111.3955078125	0.2	228138	92	68	1	0	0	0	266	stimuli\Videos_short_600ms_horvertflip\88.repeated_stroke_with_plastic_brush_short_horvertflip_short_600ms.mp4	88.repeated_stroke_with_plastic_brush_short_horvertflip_short_600ms.mp4	143.51457715132435	144.12289327840244	0.6083161270780693				
112.1953125	0.2	229776	93	68	1	0	0	1	0	stimuli\Videos_short_600ms\1.repeated_touch_with_finger_fast_short_short_600ms.mp4	1.repeated_touch_with_finger_fast_short_short_600ms.mp4	144.31454823719105	144.92287433466026	0.6083260974692166				
112.99560546875	0.2	231415	94	68	1	0	0	2	57	stimuli\Videos_short_600ms\61.single_hit_with_rolling_pin_short_short_600ms.mp4	61.single_hit_with_rolling_pin_short_short_600ms.mp4	145.11453955708657	145.7228633085806	0.6083237514940265				
113.79541015625	0.2	233053	95	68	1	0	0	3	89	stimuli\Videos_short_600ms\90.repeated_touch_with_sponge_short_short_600ms.mp4	90.repeated_touch_with_sponge_short_short_600ms.mp4	145.91452295931776	146.52284641756523	0.6083234582474688				
114.59521484375	0.2	234691	96	68	1	0	0	4	233	stimuli\Videos_short_600ms_horvertflip\58.single_slap_with_pencil_short_horvertflip_short_600ms.mp4	58.single_slap_with_pencil_short_horvertflip_short_600ms.mp4	146.71451222648557	147.32283920369446	0.6083269772088897				
115.3955078125	0.2	236330	97	68	1	0	0	5	160	stimuli\Videos_short_600ms_horflip\73.single_stroke_with_flat_hand_short_horflip_short_600ms.mp4	73.single_stroke_with_flat_hand_short_horflip_short_600ms.mp4	147.51449856118506	148.12282495190084	0.6083263907157743				
116.1953125	0.2	237968	98	68	1	0	0	6	235	stimuli\Videos_short_600ms_horvertflip\6.single_touch_with_flat_hand_short_horvertflip_short_600ms.mp4	6.single_touch_with_flat_hand_short_horvertflip_short_600ms.mp4	148.31447228627258	148.9228130460806	0.6083407598080157				
116.99560546875	0.2	239607	99	68	1	0	0	7	216	stimuli\Videos_short_600ms_horvertflip\42.single_slap_with_plastic_whisk_short_horvertflip_short_600ms.mp4	42.single_slap_with_plastic_whisk_short_horvertflip_short_600ms.mp4	149.11530023926025	149.72279820779295	0.607497968532698				
117.79541015625	0.2	241245	100	68	1	0	0	8	250	stimuli\Videos_short_600ms_horvertflip\73.single_stroke_with_flat_hand_short_horvertflip_short_600ms.mp4	73.single_stroke_with_flat_hand_short_horvertflip_short_600ms.mp4	149.9144587382707	150.5227901141816	0.6083313759108933				
118.59521484375	0.2	242883	101	68	1	0	0	9	61	stimuli\Videos_short_600ms\65.stroke_top_to_bottom_with_stanley_knife_short_short_600ms.mp4	65.stroke_top_to_bottom_with_stanley_knife_short_short_600ms.mp4	150.7144060711471	151.32277615563453	0.6083700844874329				
119.3955078125	0.2	244522	102	68	1	0	0	10	163	stimuli\Videos_short_600ms_horflip\76.tickle_with_fingers_from_top_to_bottom_short_horflip_short_600ms.mp4	76.tickle_with_fingers_from_top_to_bottom_short_horflip_short_600ms.mp4	151.5144290616954	152.12276249033405	0.6083334286386162				
120.1953125	0.2	246160	103	68	1	0	0	11	330	stimuli\Videos_short_600ms_vertflip\64.repeated_touch_with_screwdriver_short_vertflip_short_600ms.mp4	64.repeated_touch_with_screwdriver_short_vertflip_short_600ms.mp4	152.3144124639275	152.92273123022642	0.6083187662989076				
120.9951171875	0.2	247798	104	68	1	0	0	12	203	stimuli\Videos_short_600ms_horvertflip\30.finger_pulling_back_another_finger_short_horvertflip_short_600ms.mp4	30.finger_pulling_back_another_finger_short_horvertflip_short_600ms.mp4	153.11441170148555	153.72269879713167	0.6082870956461193				
121.79541015625	0.2	249437	105	68	1	0	0	13	196	stimuli\Videos_short_600ms_horvertflip\24.single_stroke_top_to_bottom_with_a_spoon_short_horvertflip_short_600ms.mp4	24.single_stroke_top_to_bottom_with_a_spoon_short_horvertflip_short_600ms.mp4	153.91441035255048	154.52269158325998	0.6082812307095082				
122.59521484375	0.2	251075	106	68	1	0	0	14	27	stimuli\Videos_short_600ms\34.repeated_punch_with_hand_short_short_600ms.mp4	34.repeated_punch_with_hand_short_short_600ms.mp4	154.71439551426283	155.32266882730892	0.6082733130460838				
123.39501953125	0.2	252713	107	68	1	0	0	15	141	stimuli\Videos_short_600ms_horflip\56.repeated_touch_with_nail_file_short_horflip_short_600ms.mp4	56.repeated_touch_with_nail_file_short_horflip_short_600ms.mp4	155.51438888688517	156.12265868097074	0.6082697940855724				
124.1953125	0.2	254352	108	68	1	0	1	16	380	stimuli\Targets_short_600ms_vertflip\chopstickwood-tap_short_horvertflip_short_600ms.mp4	chopstickwood-tap_short_horvertflip_short_600ms.mp4	156.31436847690838	156.92267815255764	0.6083096756492523				
124.9951171875	0.2	255990	109	68	1	0	0	17	79	stimuli\Videos_short_600ms\81.single_stroke_top_to_bottom_with_cotton_pad_short_short_600ms.mp4	81.single_stroke_top_to_bottom_with_cotton_pad_short_short_600ms.mp4	157.11435422511477	157.72266888595823	0.6083146608434618				
125.794921875	0.2	257628	110	68	1	0	0	18	298	stimuli\Videos_short_600ms_vertflip\35.single_punch_with_hand_short_vertflip_short_600ms.mp4	35.single_punch_with_hand_short_vertflip_short_600ms.mp4	157.91434143955485	158.52267780066086	0.6083363611060122				
126.59521484375	0.2	259267	111	68	1	0	0	19	329	stimuli\Videos_short_600ms_vertflip\63.stroke_top_to_bottom_with_screwdriver_short_vertflip_short_600ms.mp4	63.stroke_top_to_bottom_with_screwdriver_short_vertflip_short_600ms.mp4	158.7143371581515	159.32266853406236	0.6083313759108933				
127.39501953125	0.2	260905	112	68	1	0	0	20	11	stimuli\Videos_short_600ms\2.single_touch_with_finger_short_short_600ms.mp4	2.single_touch_with_finger_short_short_600ms.mp4	159.51431557518754	160.12264607135876	0.6083304961712201				
128.19482421875	0.2	262543	113	68	1	0	0	21	101	stimuli\Videos_short_600ms_horflip\2.single_touch_with_finger_short_horflip_short_600ms.mp4	2.single_touch_with_finger_short_horflip_short_600ms.mp4	160.31430454910878	160.92262566138197	0.6083211122731882				
128.9951171875	0.2	264182	114	68	1	0	0	22	126	stimuli\Videos_short_600ms_horflip\42.single_slap_with_plastic_whisk_short_horflip_short_600ms.mp4	42.single_slap_with_plastic_whisk_short_horflip_short_600ms.mp4	161.1142914703014	161.72261522179633	0.608323751494936				
129.794921875	0.2	265820	115	68	1	0	1	23	363	stimuli\Targets_short_600ms\finger-tap_short_short_600ms.mp4	finger-tap_short_short_600ms.mp4	161.91428396318406	162.5226039024701	0.6083199392860479				
130.5947265625	0.2	267458	116	68	1	0	0	24	156	stimuli\Videos_short_600ms_horflip\7.repeated_touch_with_hairbrush_short_horflip_short_600ms.mp4	7.repeated_touch_with_hairbrush_short_horflip_short_600ms.mp4	162.7142700046361	163.3225902371696	0.6083202325335151				
131.39501953125	0.2	269097	117	68	1	0	0	25	47	stimuli\Videos_short_600ms\52.touch_top_to_bottom_with_hammer_short_short_600ms.mp4	52.touch_top_to_bottom_with_hammer_short_short_600ms.mp4	163.51421851050054	164.12258038407708	0.6083618735765413				
132.19482421875	0.2	270735	118	68	1	0	0	26	145	stimuli\Videos_short_600ms_horflip\6.single_touch_with_flat_hand_short_horflip_short_600ms.mp4	6.single_touch_with_flat_hand_short_horflip_short_600ms.mp4	164.3142934057305	164.92256906475086	0.6082756590203644				
132.99462890625	0.2	272373	119	68	1	0	0	27	355	stimuli\Videos_short_600ms_vertflip\87.single_stroke_top_to_bottom_with_plastic_brush_short_vertflip_short_600ms.mp4	87.single_stroke_top_to_bottom_with_plastic_brush_short_vertflip_short_600ms.mp4	165.11420701522547	165.72255276022952	0.6083457450040441				
133.794921875	0.2	274012	120	68	1	0	0	28	66	stimuli\Videos_short_600ms\7.repeated_touch_with_hairbrush_short_short_600ms.mp4	7.repeated_touch_with_hairbrush_short_short_600ms.mp4	165.91419628239328	166.5225414409033	0.6083451585100192				
134.5947265625	0.2	275650	121	68	1	0	0	29	307	stimuli\Videos_short_600ms_vertflip\43.touch_top_to_bottom_with_sharp_wooden_stick_short_vertflip_short_600ms.mp4	43.touch_top_to_bottom_with_sharp_wooden_stick_short_vertflip_short_600ms.mp4	166.71418203059966	167.32252894858993	0.608346917990275				
135.39453125	0.2	277288	122	68	1	0	0	30	41	stimuli\Videos_short_600ms\47.(long)scratching_with_finger_nails_short_short_600ms.mp4	47.(long)scratching_with_finger_nails_short_short_600ms.mp4	167.51418596010626	168.12249974121005	0.6083137811037886				
136.19482421875	0.2	278927	123	68	1	0	0	31	270	stimuli\Videos_short_600ms_vertflip\1.repeated_touch_with_finger_fast_short_vertflip_short_600ms.mp4	1.repeated_touch_with_finger_fast_short_vertflip_short_600ms.mp4	168.3141822651969	168.92250953565235	0.6083272704554474				
136.99462890625	0.2	280565	124	68	1	0	0	32	168	stimuli\Videos_short_600ms_horflip\80.stroke_with_sharp_stick_all_over_the_hand_short_horflip_short_600ms.mp4	80.stroke_with_sharp_stick_all_over_the_hand_short_horflip_short_600ms.mp4	169.11419323262635	169.72246947814074	0.6082762455143893				
137.794921875	0.2	282204	125	68	1	0	0	33	95	stimuli\Videos_short_600ms_horflip\14.repeated_touch_with_pencil_short_horflip_short_600ms.mp4	14.repeated_touch_with_pencil_short_horflip_short_600ms.mp4	169.91415698732362	170.5224355788123	0.6082785914886699				
138.5947265625	0.2	283842	126	68	1	0	0	34	229	stimuli\Videos_short_600ms_horvertflip\54.repeated_touch_with_knife_short_horvertflip_short_600ms.mp4	54.repeated_touch_with_knife_short_horvertflip_short_600ms.mp4	170.7141544654014	171.32242865818807	0.6082741927866664				
139.39453125	0.2	285480	127	68	1	0	0	35	193	stimuli\Videos_short_600ms_horvertflip\21.repeated_touch_with_metal_chopstick_short_horvertflip_short_600ms.mp4	21.repeated_touch_with_metal_chopstick_short_horvertflip_short_600ms.mp4	171.5141334689306	172.12243698639668	0.6083035174660836				
140.19482421875	0.2	287119	128	68	1	0	0	36	344	stimuli\Videos_short_600ms_vertflip\77.tapping_with_all_fingers_short_vertflip_short_600ms.mp4	77.tapping_with_all_fingers_short_vertflip_short_600ms.mp4	172.3141195103835	172.92242508057734	0.6083055701938065				
140.99462890625	0.2	288757	129	68	1	0	0	37	281	stimuli\Videos_short_600ms_vertflip\2.single_touch_with_finger_short_vertflip_short_600ms.mp4	2.single_touch_with_finger_short_vertflip_short_600ms.mp4	173.11411581547418	173.72243868722853	0.6083228717543534				
141.79443359375	0.2	290395	130	68	1	0	0	38	236	stimuli\Videos_short_600ms_horvertflip\60.single_push_with_tip_of_pencil_short_horvertflip_short_600ms.mp4	60.single_push_with_tip_of_pencil_short_horvertflip_short_600ms.mp4	173.91409569874395	174.522424435434	0.6083287366900549				
142.5947265625	0.2	292034	131	68	1	0	0	39	90	stimuli\Videos_short_600ms_horflip\1.repeated_touch_with_finger_fast_short_horflip_short_600ms.mp4	1.repeated_touch_with_finger_fast_short_horflip_short_600ms.mp4	174.71408349967805	175.32240519844436	0.6083216987663036				
143.39453125	0.2	293672	132	68	1	0	1	40	360	stimuli\Targets_short_600ms\brush-stroke_short_short_600ms.mp4	brush-stroke_short_short_600ms.mp4	175.51407188710527	176.1223927061319	0.6083208190266305				
144.1943359375	0.2	295310	133	68	1	0	0	41	45	stimuli\Videos_short_600ms\50.single_(long)hard_push_with_thumb_short_short_600ms.mp4	50.single_(long)hard_push_with_thumb_short_short_600ms.mp4	176.3140124753054	176.92238168005224	0.6083692047468503				
144.99462890625	0.2	296949	134	68	1	0	0	42	172	stimuli\Videos_short_600ms_horflip\84.single_touch_with_cotton_bud_short_horflip_short_600ms.mp4	84.single_touch_with_cotton_bud_short_horflip_short_600ms.mp4	177.11404924845283	177.72237329319432	0.6083240447414937				
145.79443359375	0.2	298587	135	68	1	0	0	43	313	stimuli\Videos_short_600ms_vertflip\49.repeated_slap_with_hand_short_vertflip_short_600ms.mp4	49.repeated_slap_with_hand_short_vertflip_short_600ms.mp4	177.91403030470974	178.52235552243835	0.608325217728634				
146.59423828125	0.2	300225	136	68	1	0	0	44	46	stimuli\Videos_short_600ms\51.repeated_touch_with_hammer_short_short_600ms.mp4	51.repeated_touch_with_hammer_short_short_600ms.mp4	178.71401048122698	179.32234713558046	0.6083366543534794				
147.39453125	0.2	301864	137	68	1	0	0	45	249	stimuli\Videos_short_600ms_horvertflip\72.(short)stroke_with_finger_all_over_the_hand_short_horvertflip_short_600ms.mp4	72.(short)stroke_with_finger_all_over_the_hand_short_horvertflip_short_600ms.mp4	179.5139657317668	180.1223322972928	0.608366565526012				
148.1943359375	0.2	303502	138	68	1	0	0	46	26	stimuli\Videos_short_600ms\33.scratch_top_to_bottom_with_scissors_short_short_600ms.mp4	33.scratch_top_to_bottom_with_scissors_short_short_600ms.mp4	180.31395294620688	180.922320098226	0.6083671520191274				
148.994140625	0.2	305140	139	68	1	0	0	47	106	stimuli\Videos_short_600ms_horflip\24.single_stroke_top_to_bottom_with_a_spoon_short_horflip_short_600ms.mp4	24.single_stroke_top_to_bottom_with_a_spoon_short_horflip_short_600ms.mp4	181.11394543908864	181.7223078991601	0.6083624600714757				
149.79443359375	0.2	306779	140	68	1	0	1	48	371	stimuli\Targets_short_600ms_horflip\hand-stroke_short_horflip_short_600ms.mp4	hand-stroke_short_horflip_short_600ms.mp4	181.91394496989415	182.5222980460676	0.6083530761734437				
150.59423828125	0.2	308417	141	68	1	0	0	49	132	stimuli\Videos_short_600ms_horflip\48.single_slap_with_hand_short_horflip_short_600ms.mp4	48.single_slap_with_hand_short_horflip_short_600ms.mp4	182.7139477264136	183.32228174154625	0.6083340151326411				
151.39404296875	0.2	310055	142	68	1	0	0	50	39	stimuli\Videos_short_600ms\45.scratching_with_finger_nails_short_short_600ms.mp4	45.scratching_with_finger_nails_short_short_600ms.mp4	183.51403376502185	184.12227159520717	0.6082378301853169				
152.1943359375	0.2	311694	143	68	1	0	0	51	71	stimuli\Videos_short_600ms\74.fingers_walking_from_top_to_bottom_short_short_600ms.mp4	74.fingers_walking_from_top_to_bottom_short_short_600ms.mp4	184.31393828386717	184.92224062834612	0.6083023444789433				
152.994140625	0.2	313332	144	68	1	0	1	52	383	stimuli\Targets_short_600ms_vertflip\hand-stroke_short_horvertflip_short_600ms.mp4	hand-stroke_short_horvertflip_short_600ms.mp4	185.1139252050607	185.72222080486335	0.6082955998026591				
153.7939453125	0.2	314970	145	68	1	0	0	53	300	stimuli\Videos_short_600ms_vertflip\37.single_stab_with_nail_file_short_vertflip_short_600ms.mp4	37.single_stab_with_nail_file_short_vertflip_short_600ms.mp4	185.91391271274733	186.52221065852427	0.6082979457769397				
154.59423828125	0.2	316609	146	68	1	0	0	54	21	stimuli\Videos_short_600ms\29.single_pinch_with_tweezers_short_short_600ms.mp4	29.single_pinch_with_tweezers_short_short_600ms.mp4	186.71388467835368	187.32220725686147	0.6083225785077957				
155.39404296875	0.2	318247	147	68	1	0	0	55	76	stimuli\Videos_short_600ms\79.long_with_soft_brush_all_over_the_hand_short_short_600ms.mp4	79.long_with_soft_brush_all_over_the_hand_short_short_600ms.mp4	187.51389036734145	188.12219212532727	0.6083017579858279				
156.19384765625	0.2	319885	148	68	1	0	0	56	109	stimuli\Videos_short_600ms_horflip\27.single_push_with_a_plastic_whisk_short_horflip_short_600ms.mp4	27.single_push_with_a_plastic_whisk_short_horflip_short_600ms.mp4	188.31387318307952	188.922201040029	0.6083278569494723				
156.994140625	0.2	321524	149	68	1	0	0	57	308	stimuli\Videos_short_600ms_vertflip\44.pushing_top_to_bottom_with_finger_short_vertflip_short_600ms.mp4	44.pushing_top_to_bottom_with_finger_short_vertflip_short_600ms.mp4	189.1138618637533	189.72219265317108	0.6083307894177779				
157.7939453125	0.2	323162	150	68	1	0	0	58	198	stimuli\Videos_short_600ms_horvertflip\26.single_touch_with_a_blunt_syringe_short_horvertflip_short_600ms.mp4	26.single_touch_with_a_blunt_syringe_short_horvertflip_short_600ms.mp4	189.9138980504076	190.52217282968832	0.6082747792806913				
158.59423828125	0.2	324801	151	68	1	0	0	59	277	stimuli\Videos_short_600ms_vertflip\16.repeated_touch_with_plastic_brush_short_vertflip_short_600ms.mp4	16.repeated_touch_with_plastic_brush_short_vertflip_short_600ms.mp4	190.71383922510176	191.322139516853	0.6083002917512204				
159.39404296875	0.2	326439	152	68	1	0	0	60	278	stimuli\Videos_short_600ms_vertflip\17.repeated_touch_with_rolling_pin_short_vertflip_short_600ms.mp4	17.repeated_touch_with_rolling_pin_short_vertflip_short_600ms.mp4	191.5138331842172	192.12214872480217	0.6083155405849539				
160.19384765625	0.2	328077	153	68	1	0	0	61	209	stimuli\Videos_short_600ms_horvertflip\36.single_slap_with_full_hand_short_horvertflip_short_600ms.mp4	36.single_slap_with_full_hand_short_horvertflip_short_600ms.mp4	192.3137910739788	192.92213945820367	0.6083483842248825				
160.994140625	0.2	329716	154	68	1	0	0	62	328	stimuli\Videos_short_600ms_vertflip\62.touch_top_to_bottom_with_scissors_short_vertflip_short_600ms.mp4	62.touch_top_to_bottom_with_scissors_short_vertflip_short_600ms.mp4	193.11380116166765	193.7221249131626	0.608323751494936				
161.7939453125	0.2	331354	155	68	1	0	0	63	157	stimuli\Videos_short_600ms_horflip\70.(long)stroke_with_finger_all_over_the_hand_short_horflip_short_600ms.mp4	70.(long)stroke_with_finger_all_over_the_hand_short_horflip_short_600ms.mp4	193.91378456389975	194.52211066136897	0.6083260974692166				
162.59375	0.2	332992	156	68	1	0	0	64	225	stimuli\Videos_short_600ms_horvertflip\50.single_(long)hard_push_with_thumb_short_horvertflip_short_600ms.mp4	50.single_(long)hard_push_with_thumb_short_horvertflip_short_600ms.mp4	194.7137720715864	195.3220981690556	0.6083260974692166				
163.39404296875	0.2	334631	157	68	1	0	0	65	183	stimuli\Videos_short_600ms_horvertflip\12.repeated_touch_with_nail_file_short_horvertflip_short_600ms.mp4	12.repeated_touch_with_nail_file_short_horvertflip_short_600ms.mp4	195.51374022498476	196.12208655648192	0.6083463314971596				
164.19384765625	0.2	336269	158	68	1	0	0	66	13	stimuli\Videos_short_600ms\21.repeated_touch_with_metal_chopstick_short_short_600ms.mp4	21.repeated_touch_with_metal_chopstick_short_short_600ms.mp4	196.31372685293172	196.922074357416	0.6083475044842999				
164.99365234375	0.2	337907	159	68	1	0	0	67	201	stimuli\Videos_short_600ms_horvertflip\29.single_pinch_with_tweezers_short_horvertflip_short_600ms.mp4	29.single_pinch_with_tweezers_short_horvertflip_short_600ms.mp4	197.11370263074696	197.72206567731064	0.6083630465636816				
165.7939453125	0.2	339546	160	68	1	0	0	68	295	stimuli\Videos_short_600ms_vertflip\32.single_(long)pinch_with_fingers_short_vertflip_short_600ms.mp4	32.single_(long)pinch_with_fingers_short_vertflip_short_600ms.mp4	197.91370743999417	198.5220587566864	0.6083513166922785				
166.59375	0.2	341184	161	68	1	0	0	69	158	stimuli\Videos_short_600ms_horflip\71.single_stroke_with_finger_top_to_bottom_short_horflip_short_600ms.mp4	71.single_stroke_with_finger_top_to_bottom_short_horflip_short_600ms.mp4	198.71370022612248	199.3220318952808	0.6083316691583605				
167.3935546875	0.2	342822	162	68	1	0	0	70	137	stimuli\Videos_short_600ms_horflip\52.touch_top_to_bottom_with_hammer_short_horflip_short_600ms.mp4	52.touch_top_to_bottom_with_hammer_short_horflip_short_600ms.mp4	199.51371471251423	200.12204344920428	0.6083287366900549				
168.19384765625	0.2	344461	163	68	1	0	0	71	220	stimuli\Videos_short_600ms_horvertflip\46.scratching_top_to_bottom_with_finger_nails_short_horvertflip_short_600ms.mp4	46.scratching_top_to_bottom_with_finger_nails_short_horvertflip_short_600ms.mp4	200.313690783576	200.9219869698727	0.608296186296684				
168.99365234375	0.2	346099	164	68	1	0	0	72	129	stimuli\Videos_short_600ms_horflip\45.scratching_with_finger_nails_short_horflip_short_600ms.mp4	45.scratching_with_finger_nails_short_horflip_short_600ms.mp4	201.113677411523	201.72197447755937	0.6082970660363571				
169.79345703125	0.2	347737	165	68	1	0	0	73	345	stimuli\Videos_short_600ms_vertflip\78.single_stroke_top_to_bottom_with_soft_brush_short_vertflip_short_600ms.mp4	78.single_stroke_top_to_bottom_with_soft_brush_short_vertflip_short_600ms.mp4	201.91366257323537	202.52197107589657	0.6083085026612025				
170.59375	0.2	349376	166	68	1	0	0	74	303	stimuli\Videos_short_600ms_vertflip\4.repeated_tap_with_finger_slow_short_vertflip_short_600ms.mp4	4.repeated_tap_with_finger_slow_short_vertflip_short_600ms.mp4	202.713650080922	203.3219621025446	0.6083120216226234				
171.3935546875	0.2	351014	167	68	1	0	0	75	99	stimuli\Videos_short_600ms_horflip\18.single_stroke_from_top_to_bottom_with_rolling_pin_short_horflip_short_600ms.mp4	18.single_stroke_from_top_to_bottom_with_rolling_pin_short_horflip_short_600ms.mp4	203.5136370021146	204.12197453620865	0.608337534094062				
172.193359375	0.2	352652	168	68	1	0	0	76	310	stimuli\Videos_short_600ms_vertflip\46.scratching_top_to_bottom_with_finger_nails_short_vertflip_short_600ms.mp4	46.scratching_top_to_bottom_with_finger_nails_short_vertflip_short_600ms.mp4	204.31363418694585	204.9219561789596	0.6083219920137708				
172.99365234375	0.2	354291	169	68	1	0	0	77	231	stimuli\Videos_short_600ms_horvertflip\56.repeated_touch_with_nail_file_short_horvertflip_short_600ms.mp4	56.repeated_touch_with_nail_file_short_horvertflip_short_600ms.mp4	205.1136140702156	205.72193694196991	0.6083228717543534				
173.79345703125	0.2	355929	170	68	1	0	0	78	29	stimuli\Videos_short_600ms\36.single_slap_with_full_hand_short_short_600ms.mp4	36.single_slap_with_full_hand_short_short_600ms.mp4	205.91360128465567	206.52193793900915	0.6083366543534794				
174.59326171875	0.2	357567	171	68	1	0	0	79	348	stimuli\Videos_short_600ms_vertflip\80.stroke_with_sharp_stick_all_over_the_hand_short_vertflip_short_600ms.mp4	80.stroke_with_sharp_stick_all_over_the_hand_short_vertflip_short_600ms.mp4	206.7135890855889	207.32191313033036	0.6083240447414937				
175.3935546875	0.2	359206	172	68	1	0	0	80	133	stimuli\Videos_short_600ms_horflip\49.repeated_slap_with_hand_short_horflip_short_600ms.mp4	49.repeated_slap_with_hand_short_horflip_short_600ms.mp4	207.51352820755528	208.1218988785367	0.6083706709814578				
176.193359375	0.2	360844	173	68	1	0	1	81	381	stimuli\Targets_short_600ms_vertflip\finger-tap_short_horvertflip_short_600ms.mp4	finger-tap_short_horvertflip_short_600ms.mp4	208.31356468745616	208.9218869727165	0.6083222852603285				
176.99365234375	0.2	362483	174	68	1	0	0	82	174	stimuli\Videos_short_600ms_horflip\86.touch_top_to_bottom_with_hair_brush_short_horflip_short_600ms.mp4	86.touch_top_to_bottom_with_hair_brush_short_horflip_short_600ms.mp4	209.11355923306564	209.72187360066343	0.6083143675978135				
177.79345703125	0.2	364121	175	68	1	0	0	83	139	stimuli\Videos_short_600ms_horflip\54.repeated_touch_with_knife_short_horflip_short_600ms.mp4	54.repeated_touch_with_knife_short_horflip_short_600ms.mp4	209.9135584706246	210.5218611083501	0.608302637725501				
178.59326171875	0.2	365759	176	68	1	0	0	84	54	stimuli\Videos_short_600ms\59.single_push_with_long_side_pencil_short_short_600ms.mp4	59.single_push_with_long_side_pencil_short_short_600ms.mp4	210.7135028710327	211.321850962011	0.6083480909783248				
179.3935546875	0.2	367398	177	68	1	0	1	85	376	stimuli\Targets_short_600ms_horvertflip\hand-pinch_short_vertflip_short_600ms.mp4	hand-pinch_short_vertflip_short_600ms.mp4	211.5134936044342	212.12181764917568	0.6083240447414937				
180.193359375	0.2	369036	178	68	1	0	0	86	234	stimuli\Videos_short_600ms_horvertflip\59.single_push_with_long_side_pencil_short_horvertflip_short_600ms.mp4	59.single_push_with_long_side_pencil_short_horvertflip_short_600ms.mp4	212.31348081887427	212.92182539089117	0.6083445720169038				
180.9931640625	0.2	370674	179	68	1	0	0	87	15	stimuli\Videos_short_600ms\23.single_push_with_a_spoon_short_short_600ms.mp4	23.single_push_with_a_spoon_short_short_600ms.mp4	213.1134765374709	213.7218196432541	0.6083431057832058				
181.79345703125	0.2	372313	180	68	1	0	0	88	8	stimuli\Videos_short_600ms\17.repeated_touch_with_rolling_pin_short_short_600ms.mp4	17.repeated_touch_with_rolling_pin_short_short_600ms.mp4	213.91345876671585	214.52179806029017	0.6083392935743177				
182.59326171875	0.2	373951	181	68	1	0	0	89	351	stimuli\Videos_short_600ms_vertflip\83.single_stroke_top_to_bottom_with_cotton_bud_short_vertflip_short_600ms.mp4	83.single_stroke_top_to_bottom_with_cotton_bud_short_vertflip_short_600ms.mp4	214.71347530583444	215.32178292875597	0.6083076229215294				
183.39306640625	0.2	375589	182	68	1	0	0	90	86	stimuli\Videos_short_600ms\88.repeated_stroke_with_plastic_brush_short_short_600ms.mp4	88.repeated_stroke_with_plastic_brush_short_short_600ms.mp4	215.51346134728735	216.12175196189492	0.6082906146075402				
184.193359375	0.2	377228	183	68	1	0	0	91	154	stimuli\Videos_short_600ms_horflip\68.stroke_top_to_bottom_with_shawl_short_horflip_short_600ms.mp4	68.stroke_top_to_bottom_with_shawl_short_horflip_short_600ms.mp4	216.31344856172743	216.92174034932216	0.6082917875946805				
184.9931640625	0.2	378866	184	68	1	0	0	92	343	stimuli\Videos_short_600ms_vertflip\76.tickle_with_fingers_from_top_to_bottom_short_vertflip_short_600ms.mp4	76.tickle_with_fingers_from_top_to_bottom_short_vertflip_short_600ms.mp4	217.1134287382447	217.7217090892136	0.6082803509689256				
185.79296875	0.2	380504	185	68	1	0	0	93	336	stimuli\Videos_short_600ms_vertflip\7.repeated_touch_with_hairbrush_short_vertflip_short_600ms.mp4	7.repeated_touch_with_hairbrush_short_vertflip_short_600ms.mp4	217.91342856229585	218.5217241620985	0.6082955998026591				
186.59326171875	0.2	382143	186	68	1	0	0	94	202	stimuli\Videos_short_600ms_horvertflip\3.single_push_with_finger_short_horvertflip_short_600ms.mp4	3.single_push_with_finger_short_horvertflip_short_600ms.mp4	218.71340258063083	219.32171753472176	0.608314954090929				
187.39306640625	0.2	383781	187	68	1	0	0	95	189	stimuli\Videos_short_600ms_horvertflip\18.single_stroke_from_top_to_bottom_with_rolling_pin_short_horvertflip_short_600ms.mp4	18.single_stroke_from_top_to_bottom_with_rolling_pin_short_horvertflip_short_600ms.mp4	219.51339243429177	220.12172234396897	0.6083299096771952				
188.19287109375	0.2	385419	188	68	1	0	0	96	292	stimuli\Videos_short_600ms_vertflip\3.single_push_with_finger_short_vertflip_short_600ms.mp4	3.single_push_with_finger_short_vertflip_short_600ms.mp4	220.31338140821208	220.92170134749813	0.6083199392860479	7.0	7.0	1.541196335470886	1.0
221.35009765625	0.2	453325	189	68	2	0	1	0	361	stimuli\Targets_short_600ms\chopstick-silver-tap_short_short_600ms.mp4	chopstick-silver-tap_short_short_600ms.mp4	253.47119949960415	254.0795047765505	0.6083052769463393				
222.150390625	0.2	454964	190	68	2	0	0	1	350	stimuli\Videos_short_600ms_vertflip\82.repeated_touch_with_cotton_bud_short_vertflip_short_600ms.mp4	82.repeated_touch_with_cotton_bud_short_vertflip_short_600ms.mp4	254.27118730053735	254.8794896450163	0.6083023444789433				
222.9501953125	0.2	456602	191	68	2	0	0	2	211	stimuli\Videos_short_600ms_horvertflip\38.double_slap_with_pencil_short_horvertflip_short_600ms.mp4	38.double_slap_with_pencil_short_horvertflip_short_600ms.mp4	255.07118976381025	255.67949709348431	0.6083073296740622				
223.75	0.2	458240	192	68	2	0	0	3	104	stimuli\Videos_short_600ms_horflip\22.single_touch_with_metal_chopstick_short_horflip_short_600ms.mp4	22.single_touch_with_metal_chopstick_short_horflip_short_600ms.mp4	255.87117316604235	256.4794966242898	0.6083234582474688				
224.55029296875	0.2	459879	193	68	2	0	1	4	369	stimuli\Targets_short_600ms_horflip\finger-tap_short_horflip_short_600ms.mp4	finger-tap_short_horflip_short_600ms.mp4	256.67114982359726	257.27945627353165	0.6083064499343891				
225.35009765625	0.2	461517	194	68	2	0	0	5	248	stimuli\Videos_short_600ms_horvertflip\71.single_stroke_with_finger_top_to_bottom_short_horvertflip_short_600ms.mp4	71.single_stroke_with_finger_top_to_bottom_short_horvertflip_short_600ms.mp4	257.47114085024623	258.07944026225687	0.6082994120106378				
226.14990234375	0.2	463155	195	68	2	0	0	6	170	stimuli\Videos_short_600ms_horflip\82.repeated_touch_with_cotton_bud_short_horflip_short_600ms.mp4	82.repeated_touch_with_cotton_bud_short_horflip_short_600ms.mp4	258.27112542546456	258.8794462444912	0.6083208190266305				
226.9501953125	0.2	464794	196	68	2	0	1	7	379	stimuli\Targets_short_600ms_vertflip\chopstick-silver-tap_short_horvertflip_short_600ms.mp4	chopstick-silver-tap_short_horvertflip_short_600ms.mp4	259.0710730515875	259.679435511659	0.6083624600714757				
227.75	0.2	466432	197	68	2	0	0	8	35	stimuli\Videos_short_600ms\41.injection_with_blunt_syringe_short_short_600ms.mp4	41.injection_with_blunt_syringe_short_short_600ms.mp4	259.8711007340853	260.4794218463585	0.6083211122731882				
228.55029296875	0.2	468071	198	68	2	0	0	9	123	stimuli\Videos_short_600ms_horflip\4.repeated_tap_with_finger_slow_short_horflip_short_600ms.mp4	4.repeated_tap_with_finger_slow_short_horflip_short_600ms.mp4	260.6710879485245	261.27940319586196	0.6083152473374867				
229.35009765625	0.2	469709	199	68	2	0	0	10	7	stimuli\Videos_short_600ms\16.repeated_touch_with_plastic_brush_short_short_600ms.mp4	16.repeated_touch_with_plastic_brush_short_short_600ms.mp4	261.4710329354266	262.0793783871841	0.6083454517574864				
230.14990234375	0.2	471347	200	68	2	0	0	11	213	stimuli\Videos_short_600ms_horvertflip\4.repeated_tap_with_finger_slow_short_horvertflip_short_600ms.mp4	4.repeated_tap_with_finger_slow_short_horvertflip_short_600ms.mp4	262.27104097038864	262.87940753591465	0.608366565526012				
230.9501953125	0.2	472986	201	68	2	0	0	12	226	stimuli\Videos_short_600ms_horvertflip\51.repeated_touch_with_hammer_short_horvertflip_short_600ms.mp4	51.repeated_touch_with_hammer_short_horvertflip_short_600ms.mp4	263.0710070710602	263.6794076532133	0.6084005821530809				
231.75	0.2	474624	202	68	2	0	0	13	69	stimuli\Videos_short_600ms\72.(short)stroke_with_finger_all_over_the_hand_short_short_600ms.mp4	72.(short)stroke_with_finger_all_over_the_hand_short_short_600ms.mp4	263.87104208472647	264.479358505052	0.6083164203255365				
232.5498046875	0.2	476262	203	68	2	0	1	14	375	stimuli\Targets_short_600ms_horvertflip\finger-tap_short_vertflip_short_600ms.mp4	finger-tap_short_vertflip_short_600ms.mp4	264.6710143435803	265.2793861875489	0.6083718439685981				
233.35009765625	0.2	477901	204	68	2	0	0	15	131	stimuli\Videos_short_600ms_horflip\47.(long)scratching_with_finger_nails_short_horflip_short_600ms.mp4	47.(long)scratching_with_finger_nails_short_horflip_short_600ms.mp4	265.47102296503635	266.07933381367184	0.6083108486354831				
234.14990234375	0.2	479539	205	68	2	0	0	16	341	stimuli\Videos_short_600ms_vertflip\74.fingers_walking_from_top_to_bottom_short_vertflip_short_600ms.mp4	74.fingers_walking_from_top_to_bottom_short_vertflip_short_600ms.mp4	266.27100929973585	266.87928026680765	0.6082709670718032				
234.94970703125	0.2	481177	206	68	2	0	0	17	146	stimuli\Videos_short_600ms_horflip\60.single_push_with_tip_of_pencil_short_horflip_short_600ms.mp4	60.single_push_with_tip_of_pencil_short_horflip_short_600ms.mp4	267.07099123573335	267.6792891815103	0.6082979457769397				
235.75	0.2	482816	207	68	2	0	0	18	280	stimuli\Videos_short_600ms_vertflip\19.single_touch_with_rolling_pin_short_vertflip_short_600ms.mp4	19.single_touch_with_rolling_pin_short_vertflip_short_600ms.mp4	267.8709772771863	268.4792781554306	0.6083008782443358				
236.5498046875	0.2	484454	208	68	2	0	0	19	105	stimuli\Videos_short_600ms_horflip\23.single_push_with_a_spoon_short_horflip_short_600ms.mp4	23.single_push_with_a_spoon_short_horflip_short_600ms.mp4	268.6709471900658	269.2792659563647	0.6083187662989076				
237.349609375	0.2	486092	209	68	2	0	1	20	368	stimuli\Targets_short_600ms_horflip\chopstickwood-tap_short_horflip_short_600ms.mp4	chopstickwood-tap_short_horflip_short_600ms.mp4	269.470960210223	270.0792736980802	0.6083134878572309				
238.14990234375	0.2	487731	210	68	2	0	0	21	347	stimuli\Videos_short_600ms_vertflip\8.single_touch_with_hairbrush_short_vertflip_short_600ms.mp4	8.single_touch_with_hairbrush_short_vertflip_short_600ms.mp4	270.27094243946794	270.87927146940456	0.6083290299366126				
238.94970703125	0.2	489369	211	68	2	0	0	22	24	stimuli\Videos_short_600ms\31.hand_grabbing_wrist_short_short_600ms.mp4	31.hand_grabbing_wrist_short_short_600ms.mp4	271.07092730793283	271.6792454877386	0.6083181798057922				
239.74951171875	0.2	491007	212	68	2	0	0	23	31	stimuli\Videos_short_600ms\38.double_slap_with_pencil_short_short_600ms.mp4	38.double_slap_with_pencil_short_short_600ms.mp4	271.87091364263233	272.47923592789357	0.608322285261238				
240.5498046875	0.2	492646	213	68	2	0	0	24	107	stimuli\Videos_short_600ms_horflip\25.single_touch_with_stanley_knife_short_horflip_short_600ms.mp4	25.single_touch_with_stanley_knife_short_horflip_short_600ms.mp4	272.67088736771984	273.2792240220733	0.6083366543534794				
241.349609375	0.2	494284	214	68	2	0	0	25	64	stimuli\Videos_short_600ms\68.stroke_top_to_bottom_with_shawl_short_short_600ms.mp4	68.stroke_top_to_bottom_with_shawl_short_short_600ms.mp4	273.4708889512531	274.07918807001715	0.60829911876408				
242.1494140625	0.2	495922	215	68	2	0	0	26	122	stimuli\Videos_short_600ms_horflip\39.single_stab_with_scissors_short_horflip_short_600ms.mp4	39.single_stab_with_scissors_short_horflip_short_600ms.mp4	274.2708782184209	274.8791975712129	0.608319352792023				
242.94970703125	0.2	497561	216	68	2	0	0	27	318	stimuli\Videos_short_600ms_vertflip\53.touch_top_to_bottom_with_knife_short_vertflip_short_600ms.mp4	53.touch_top_to_bottom_with_knife_short_vertflip_short_600ms.mp4	275.0708686585749	275.67916425837757	0.6082955998026591				
243.74951171875	0.2	499199	217	68	2	0	0	28	260	stimuli\Videos_short_600ms_horvertflip\82.repeated_touch_with_cotton_bud_short_horvertflip_short_600ms.mp4	82.repeated_touch_with_cotton_bud_short_horvertflip_short_600ms.mp4	275.8708198036602	276.4791731730802	0.6083533694200014				
244.54931640625	0.2	500837	218	68	2	0	0	29	332	stimuli\Videos_short_600ms_vertflip\66.stroke_top_to_bottom_with_sponge_short_vertflip_short_600ms.mp4	66.stroke_top_to_bottom_with_sponge_short_vertflip_short_600ms.mp4	276.6708216804391	277.279141033232	0.6083193527929325				
245.349609375	0.2	502476	219	68	2	0	0	30	289	stimuli\Videos_short_600ms_vertflip\27.single_push_with_a_plastic_whisk_short_vertflip_short_600ms.mp4	27.single_push_with_a_plastic_whisk_short_vertflip_short_600ms.mp4	277.4708080151386	278.0791707684566	0.6083627533180334				
246.1494140625	0.2	504114	220	68	2	0	0	31	331	stimuli\Videos_short_600ms_vertflip\65.stroke_top_to_bottom_with_stanley_knife_short_vertflip_short_600ms.mp4	65.stroke_top_to_bottom_with_stanley_knife_short_vertflip_short_600ms.mp4	278.2707711833418	278.87914273406295	0.6083715507211309				
246.94921875	0.2	505752	221	68	2	0	0	32	186	stimuli\Videos_short_600ms_horvertflip\15.single_stroke_top_to_bottom_with_a_plastic_whisk_short_horvertflip_short_600ms.mp4	15.single_stroke_top_to_bottom_with_a_plastic_whisk_short_horvertflip_short_600ms.mp4	279.0707862562267	279.67913933240015	0.6083530761734437				
247.74951171875	0.2	507391	222	68	2	0	0	33	128	stimuli\Videos_short_600ms_horflip\44.pushing_top_to_bottom_with_finger_short_horflip_short_600ms.mp4	44.pushing_top_to_bottom_with_finger_short_horflip_short_600ms.mp4	279.870851474313	280.4791010343697	0.6082495600567199				
248.54931640625	0.2	509029	223	68	2	0	0	34	92	stimuli\Videos_short_600ms_horflip\11.single_touch_with_lighter_short_horflip_short_600ms.mp4	11.single_touch_with_lighter_short_horflip_short_600ms.mp4	280.6707823853694	281.27905687140264	0.6082744860332241				
249.349609375	0.2	510668	224	68	2	0	0	35	323	stimuli\Videos_short_600ms_vertflip\58.single_slap_with_pencil_short_vertflip_short_600ms.mp4	58.single_slap_with_pencil_short_vertflip_short_600ms.mp4	281.47078396890174	282.0790584549359	0.6082744860341336				
250.1494140625	0.2	512306	225	68	2	0	0	36	311	stimuli\Videos_short_600ms_vertflip\47.(long)scratching_with_finger_nails_short_vertflip_short_600ms.mp4	47.(long)scratching_with_finger_nails_short_vertflip_short_600ms.mp4	282.27075564126244	282.87903159352936	0.6082759522669221				
250.94921875	0.2	513944	226	68	2	0	0	37	357	stimuli\Videos_short_600ms_vertflip\89.single_touch_with_plastic_brush_short_vertflip_short_600ms.mp4	89.single_touch_with_plastic_brush_short_vertflip_short_600ms.mp4	283.07074050972733	283.6790205674506	0.6082800577232774				
251.74951171875	0.2	515583	227	68	2	0	1	38	377	stimuli\Targets_short_600ms_horvertflip\hand-stroke_short_vertflip_short_600ms.mp4	hand-stroke_short_vertflip_short_600ms.mp4	283.8707066103989	284.4790332943612	0.608326683962332				
252.54931640625	0.2	517221	228	68	2	0	0	39	187	stimuli\Videos_short_600ms_horvertflip\16.repeated_touch_with_plastic_brush_short_horvertflip_short_600ms.mp4	16.repeated_touch_with_plastic_brush_short_horvertflip_short_600ms.mp4	284.67071816432235	285.2790272534776	0.6083090891552274				
253.34912109375	0.2	518859	229	68	2	0	0	40	256	stimuli\Videos_short_600ms_horvertflip\79.long_with_soft_brush_all_over_the_hand_short_horvertflip_short_600ms.mp4	79.long_with_soft_brush_all_over_the_hand_short_horvertflip_short_600ms.mp4	285.47070361928127	286.07903147623074	0.6083278569494723				
254.1494140625	0.2	520498	230	68	2	0	0	41	111	stimuli\Videos_short_600ms_horflip\29.single_pinch_with_tweezers_short_horflip_short_600ms.mp4	29.single_pinch_with_tweezers_short_horflip_short_600ms.mp4	286.2707008041125	286.87900872027967	0.6083079161671776				
254.94921875	0.2	522136	231	68	2	0	1	42	372	stimuli\Targets_short_600ms_horvertflip\brush-stroke_short_vertflip_short_600ms.mp4	brush-stroke_short_vertflip_short_600ms.mp4	287.0706765819277	287.67900033342175	0.6083237514940265				
255.7490234375	0.2	523774	232	68	2	0	0	43	120	stimuli\Videos_short_600ms_horflip\37.single_stab_with_nail_file_short_horflip_short_600ms.mp4	37.single_stab_with_nail_file_short_horflip_short_600ms.mp4	287.87066408961437	288.47898432214697	0.6083202325326056				
256.54931640625	0.2	525413	233	68	2	0	0	44	98	stimuli\Videos_short_600ms_horflip\17.repeated_touch_with_rolling_pin_short_horflip_short_600ms.mp4	17.repeated_touch_with_rolling_pin_short_horflip_short_600ms.mp4	288.67065775548326	289.2789727095742	0.608314954090929				
257.34912109375	0.2	527051	234	68	2	0	0	45	62	stimuli\Videos_short_600ms\66.stroke_top_to_bottom_with_sponge_short_short_600ms.mp4	66.stroke_top_to_bottom_with_sponge_short_short_600ms.mp4	289.4706194574528	290.07894086297256	0.6083214055197459				
258.14892578125	0.2	528689	235	68	2	0	0	46	206	stimuli\Videos_short_600ms_horvertflip\33.scratch_top_to_bottom_with_scissors_short_horvertflip_short_600ms.mp4	33.scratch_top_to_bottom_with_scissors_short_horvertflip_short_600ms.mp4	290.2706365830654	290.87894713845435	0.6083105553889254				
258.94921875	0.2	530328	236	68	2	0	0	47	108	stimuli\Videos_short_600ms_horflip\26.single_touch_with_a_blunt_syringe_short_horflip_short_600ms.mp4	26.single_touch_with_a_blunt_syringe_short_horflip_short_600ms.mp4	291.07058890113694	291.6789366988687	0.6083477977317671				
259.7490234375	0.2	531966	237	68	2	0	0	48	59	stimuli\Videos_short_600ms\63.stroke_top_to_bottom_with_screwdriver_short_short_600ms.mp4	63.stroke_top_to_bottom_with_screwdriver_short_short_600ms.mp4	291.8705896049296	292.47892332681477	0.6083337218851739				
260.548828125	0.2	533604	238	68	2	0	0	49	116	stimuli\Videos_short_600ms_horflip\33.scratch_top_to_bottom_with_scissors_short_horflip_short_600ms.mp4	33.scratch_top_to_bottom_with_scissors_short_horflip_short_600ms.mp4	292.67058503027965	293.2789571674939	0.6083721372142463				
261.34912109375	0.2	535243	239	68	2	0	0	50	20	stimuli\Videos_short_600ms\28.single_injection_with_sharp_needle_short_short_600ms.mp4	28.single_injection_with_sharp_needle_short_short_600ms.mp4	293.47053294964917	294.0789663754431	0.608433425793919				
262.14892578125	0.2	536881	240	68	2	0	0	51	184	stimuli\Videos_short_600ms_horvertflip\13.single_touch_with_pen_short_horvertflip_short_600ms.mp4	13.single_touch_with_pen_short_horvertflip_short_600ms.mp4	294.27055095500236	294.8789527101435	0.6084017551411307				
262.94873046875	0.2	538519	241	68	2	0	0	52	118	stimuli\Videos_short_600ms_horflip\35.single_punch_with_hand_short_horflip_short_600ms.mp4	35.single_punch_with_hand_short_horflip_short_600ms.mp4	295.07053523697414	295.67888127522474	0.6083460382506019				
263.7490234375	0.2	540158	242	68	2	0	0	53	279	stimuli\Videos_short_600ms_vertflip\18.single_stroke_from_top_to_bottom_with_rolling_pin_short_vertflip_short_600ms.mp4	18.single_stroke_from_top_to_bottom_with_rolling_pin_short_vertflip_short_600ms.mp4	295.87054796388475	296.4788209836852	0.6082730198004356				
264.548828125	0.2	541796	243	68	2	0	0	54	352	stimuli\Videos_short_600ms_vertflip\84.single_touch_with_cotton_bud_short_vertflip_short_600ms.mp4	84.single_touch_with_cotton_bud_short_vertflip_short_600ms.mp4	296.6705392837803	297.2788064386441	0.6082671548638245				
265.3486328125	0.2	543434	244	68	2	0	0	55	286	stimuli\Videos_short_600ms_vertflip\24.single_stroke_top_to_bottom_with_a_spoon_short_vertflip_short_600ms.mp4	24.single_stroke_top_to_bottom_with_a_spoon_short_vertflip_short_600ms.mp4	297.4705156480886	298.07879394633073	0.6082782982421122				
266.14892578125	0.2	545073	245	68	2	0	0	56	49	stimuli\Videos_short_600ms\54.repeated_touch_with_knife_short_short_600ms.mp4	54.repeated_touch_with_knife_short_short_600ms.mp4	298.2705028625287	298.8788019812928	0.60829911876408				
266.94873046875	0.2	546711	246	68	2	0	0	57	82	stimuli\Videos_short_600ms\84.single_touch_with_cotton_bud_short_short_600ms.mp4	84.single_touch_with_cotton_bud_short_short_600ms.mp4	299.0704897837222	299.678794767422	0.6083049836997816				
267.74853515625	0.2	548349	247	68	2	0	0	58	80	stimuli\Videos_short_600ms\82.repeated_touch_with_cotton_bud_short_short_600ms.mp4	82.repeated_touch_with_cotton_bud_short_short_600ms.mp4	299.87047435894056	300.4787787561472	0.6083043972066662				
268.548828125	0.2	549988	248	68	2	0	0	59	221	stimuli\Videos_short_600ms_horvertflip\47.(long)scratching_with_finger_nails_short_horvertflip_short_600ms.mp4	47.(long)scratching_with_finger_nails_short_horvertflip_short_600ms.mp4	300.67046597208264	301.278788843837	0.6083228717543534				
269.3486328125	0.2	551626	249	68	2	0	0	60	93	stimuli\Videos_short_600ms_horflip\12.repeated_touch_with_nail_file_short_horflip_short_600ms.mp4	12.repeated_touch_with_nail_file_short_horflip_short_600ms.mp4	301.47045670548414	302.0787719528216	0.6083152473374867				
270.14892578125	0.2	553265	250	68	2	0	0	61	103	stimuli\Videos_short_600ms_horflip\21.repeated_touch_with_metal_chopstick_short_horflip_short_600ms.mp4	21.repeated_touch_with_metal_chopstick_short_horflip_short_600ms.mp4	302.2704383482351	302.8787606334954	0.6083222852603285				
270.94873046875	0.2	554903	251	68	2	0	0	62	151	stimuli\Videos_short_600ms_horflip\65.stroke_top_to_bottom_with_stanley_knife_short_horflip_short_600ms.mp4	65.stroke_top_to_bottom_with_stanley_knife_short_horflip_short_600ms.mp4	303.07042849514255	303.6787463817018	0.6083178865592345				
271.74853515625	0.2	556541	252	68	2	0	0	63	212	stimuli\Videos_short_600ms_horvertflip\39.single_stab_with_scissors_short_horvertflip_short_600ms.mp4	39.single_stab_with_scissors_short_horvertflip_short_600ms.mp4	303.87041834880347	304.47873300964784	0.6083146608443712				
272.548828125	0.2	558180	253	68	2	0	0	64	325	stimuli\Videos_short_600ms_vertflip\6.single_touch_with_flat_hand_short_vertflip_short_600ms.mp4	6.single_touch_with_flat_hand_short_vertflip_short_600ms.mp4	304.67040644298413	305.2787211038285	0.6083146608443712				
273.3486328125	0.2	559818	254	68	2	0	0	65	173	stimuli\Videos_short_600ms_horflip\85.touch_top_to_bottom_with_fabric_short_horflip_short_600ms.mp4	85.touch_top_to_bottom_with_fabric_short_horflip_short_600ms.mp4	305.4703775288508	306.0787089047617	0.6083313759108933				
274.1484375	0.2	561456	255	68	2	0	0	66	180	stimuli\Videos_short_600ms_horvertflip\1.repeated_touch_with_finger_fast_short_horvertflip_short_600ms.mp4	1.repeated_touch_with_finger_fast_short_horvertflip_short_600ms.mp4	306.27034949445715	306.8786967056949	0.6083472112377422				
274.94873046875	0.2	563095	256	68	2	0	0	67	28	stimuli\Videos_short_600ms\35.single_punch_with_hand_short_short_600ms.mp4	35.single_punch_with_hand_short_short_600ms.mp4	307.07032175331096	307.6786868526033	0.608365099292314				
275.74853515625	0.2	564733	257	68	2	0	0	68	349	stimuli\Videos_short_600ms_vertflip\81.single_stroke_top_to_bottom_with_cotton_pad_short_vertflip_short_600ms.mp4	81.single_stroke_top_to_bottom_with_cotton_pad_short_vertflip_short_600ms.mp4	307.87030896775104	308.478700752501	0.6083917847499833				
276.54833984375	0.2	566371	258	68	2	0	0	69	321	stimuli\Videos_short_600ms_vertflip\56.repeated_touch_with_nail_file_short_vertflip_short_600ms.mp4	56.repeated_touch_with_nail_file_short_vertflip_short_600ms.mp4	308.67042169181695	309.27866831940537	0.6082466275884144				
277.3486328125	0.2	568010	259	68	2	0	0	70	40	stimuli\Videos_short_600ms\46.scratching_top_to_bottom_with_finger_nails_short_short_600ms.mp4	46.scratching_top_to_bottom_with_finger_nails_short_short_600ms.mp4	309.470315067284	310.0786464431949	0.6083313759108933				
278.1484375	0.2	569648	260	68	2	0	0	71	302	stimuli\Videos_short_600ms_vertflip\39.single_stab_with_scissors_short_vertflip_short_600ms.mp4	39.single_stab_with_scissors_short_vertflip_short_600ms.mp4	310.2702967100349	310.87863453737555	0.6083378273406197				
278.9482421875	0.2	571286	261	68	2	0	0	72	316	stimuli\Videos_short_600ms_vertflip\51.repeated_touch_with_hammer_short_vertflip_short_600ms.mp4	51.repeated_touch_with_hammer_short_vertflip_short_600ms.mp4	311.070309143699	311.67861647337304	0.6083073296740622				
279.74853515625	0.2	572925	262	68	2	0	0	73	261	stimuli\Videos_short_600ms_horvertflip\83.single_stroke_top_to_bottom_with_cotton_bud_short_horvertflip_short_600ms.mp4	83.single_stroke_top_to_bottom_with_cotton_bud_short_horvertflip_short_600ms.mp4	311.8702922526836	312.478568498198	0.6082762455143893				
280.54833984375	0.2	574563	263	68	2	0	0	74	12	stimuli\Videos_short_600ms\20.single_touch_with_screwdriver_short_short_600ms.mp4	20.single_touch_with_screwdriver_short_short_600ms.mp4	312.67027682790285	313.2785879697849	0.6083111418820408				
281.34814453125	0.2	576201	264	68	2	0	0	75	243	stimuli\Videos_short_600ms_horvertflip\67.single_touch_with_sponge_short_horvertflip_short_600ms.mp4	67.single_touch_with_sponge_short_horvertflip_short_600ms.mp4	313.4702634558489	314.0785435135722	0.6082800577232774				
282.1484375	0.2	577840	265	68	2	0	0	76	127	stimuli\Videos_short_600ms_horflip\43.touch_top_to_bottom_with_sharp_wooden_stick_short_horflip_short_600ms.mp4	43.touch_top_to_bottom_with_sharp_wooden_stick_short_horflip_short_600ms.mp4	314.27024949730185	314.87855741346993	0.6083079161680871				
282.9482421875	0.2	579478	266	68	2	0	0	77	359	stimuli\Videos_short_600ms_vertflip\90.repeated_touch_with_sponge_short_vertflip_short_600ms.mp4	90.repeated_touch_with_sponge_short_vertflip_short_600ms.mp4	315.0702390577162	315.6785625159637	0.6083234582474688				
283.748046875	0.2	581116	267	68	2	0	0	78	285	stimuli\Videos_short_600ms_vertflip\23.single_push_with_a_spoon_short_vertflip_short_600ms.mp4	23.single_push_with_a_spoon_short_vertflip_short_600ms.mp4	315.8702274451434	316.47855852780776	0.6083310826643356				
284.54833984375	0.2	582755	268	68	2	0	0	79	267	stimuli\Videos_short_600ms_horvertflip\89.single_touch_with_plastic_brush_short_horvertflip_short_600ms.mp4	89.single_touch_with_plastic_brush_short_horvertflip_short_600ms.mp4	316.67024075854715	317.2785348921161	0.6082941335689611				
285.34814453125	0.2	584393	269	68	2	0	0	80	147	stimuli\Videos_short_600ms_horflip\61.single_hit_with_rolling_pin_short_horflip_short_600ms.mp4	61.single_hit_with_rolling_pin_short_horflip_short_600ms.mp4	317.4702194688307	318.07852239980275	0.6083029309720587				
286.14794921875	0.2	586031	270	68	2	0	0	81	153	stimuli\Videos_short_600ms_horflip\67.single_touch_with_sponge_short_horflip_short_600ms.mp4	67.single_touch_with_sponge_short_horflip_short_600ms.mp4	318.27019876560735	318.87850814800913	0.6083093824017851				
286.9482421875	0.2	587670	271	68	2	0	0	82	238	stimuli\Videos_short_600ms_horvertflip\62.touch_top_to_bottom_with_scissors_short_horvertflip_short_600ms.mp4	62.touch_top_to_bottom_with_scissors_short_horvertflip_short_600ms.mp4	319.07018275433256	319.6784997611503	0.6083170068177424				
287.748046875	0.2	589308	272	68	2	0	0	83	56	stimuli\Videos_short_600ms\60.single_push_with_tip_of_pencil_short_short_600ms.mp4	60.single_push_with_tip_of_pencil_short_short_600ms.mp4	319.87016469033006	320.47848521611013	0.6083205257800728				
288.5478515625	0.2	590946	273	68	2	0	0	84	219	stimuli\Videos_short_600ms_horvertflip\45.scratching_with_finger_nails_short_horvertflip_short_600ms.mp4	45.scratching_with_finger_nails_short_horvertflip_short_600ms.mp4	320.67014809256216	321.27847125756307	0.6083231650009111				
289.34814453125	0.2	592585	274	68	2	0	0	85	135	stimuli\Videos_short_600ms_horflip\50.single_(long)hard_push_with_thumb_short_horflip_short_600ms.mp4	50.single_(long)hard_push_with_thumb_short_horflip_short_600ms.mp4	321.4701221108962	322.07845993823685	0.6083378273406197				
290.14794921875	0.2	594223	275	68	2	0	0	86	114	stimuli\Videos_short_600ms_horflip\31.hand_grabbing_wrist_short_horflip_short_600ms.mp4	31.hand_grabbing_wrist_short_horflip_short_600ms.mp4	322.2700946629966	322.87844773917004	0.6083530761734437				
290.9482421875	0.2	595862	276	68	2	0	0	87	110	stimuli\Videos_short_600ms_horflip\28.single_injection_with_sharp_needle_short_horflip_short_600ms.mp4	28.single_injection_with_sharp_needle_short_horflip_short_600ms.mp4	323.0700971262695	323.6784320211418	0.6083348948723142				
291.748046875	0.2	597500	277	68	2	0	0	88	334	stimuli\Videos_short_600ms_vertflip\68.stroke_top_to_bottom_with_shawl_short_vertflip_short_600ms.mp4	68.stroke_top_to_bottom_with_shawl_short_vertflip_short_600ms.mp4	323.870083460969	324.4784212883096	0.6083378273406197				
292.5478515625	0.2	599138	278	68	2	0	0	89	152	stimuli\Videos_short_600ms_horflip\66.stroke_top_to_bottom_with_sponge_short_horflip_short_600ms.mp4	66.stroke_top_to_bottom_with_sponge_short_horflip_short_600ms.mp4	324.6700712619031	325.2784114352171	0.6083401733139908				
293.34814453125	0.2	600777	279	68	2	0	0	90	67	stimuli\Videos_short_600ms\70.(long)stroke_with_finger_all_over_the_hand_short_short_600ms.mp4	70.(long)stroke_with_finger_all_over_the_hand_short_short_600ms.mp4	325.47006375478486	326.0784080335543	0.6083442787694366				
294.14794921875	0.2	602415	280	68	2	0	0	91	257	stimuli\Videos_short_600ms_horvertflip\8.single_touch_with_hairbrush_short_horvertflip_short_600ms.mp4	8.single_touch_with_hairbrush_short_horvertflip_short_600ms.mp4	326.2700653383172	326.87839260877354	0.6083272704563569				
294.94775390625	0.2	604053	281	68	2	0	0	92	346	stimuli\Videos_short_600ms_vertflip\79.long_with_soft_brush_all_over_the_hand_short_vertflip_short_600ms.mp4	79.long_with_soft_brush_all_over_the_hand_short_vertflip_short_600ms.mp4	327.07006457587613	327.67835079178167	0.6082862159055367				
295.748046875	0.2	605692	282	68	2	0	0	93	84	stimuli\Videos_short_600ms\86.touch_top_to_bottom_with_hair_brush_short_short_600ms.mp4	86.touch_top_to_bottom_with_hair_brush_short_short_600ms.mp4	327.8700424064182	328.4783382994683	0.6082958930501263				
296.5478515625	0.2	607330	283	68	2	0	0	94	159	stimuli\Videos_short_600ms_horflip\72.(short)stroke_with_finger_all_over_the_hand_short_horflip_short_600ms.mp4	72.(short)stroke_with_finger_all_over_the_hand_short_horflip_short_600ms.mp4	328.6700439899514	329.27832580715494	0.6082818172035331				
297.34765625	0.2	608968	284	68	2	0	0	95	207	stimuli\Videos_short_600ms_horvertflip\34.repeated_punch_with_hand_short_horvertflip_short_600ms.mp4	34.repeated_punch_with_hand_short_horvertflip_short_600ms.mp4	329.47002270023404	330.07832005951786	0.6082973592838243				
298.14794921875	0.2	610607	285	68	2	0	0	96	282	stimuli\Videos_short_600ms_vertflip\20.single_touch_with_screwdriver_short_vertflip_short_600ms.mp4	20.single_touch_with_screwdriver_short_vertflip_short_600ms.mp4	330.270004929479	330.87830140902133	0.6082964795423322	7.0	6.0	1.6798944428855975	0.0
330.58837890625	0.2	677045	286	68	3	0	0	0	222	stimuli\Videos_short_600ms_horvertflip\48.single_slap_with_hand_short_horvertflip_short_600ms.mp4	48.single_slap_with_hand_short_horvertflip_short_600ms.mp4	362.71114135462994	363.3194797684646	0.6083384138346446				
331.38818359375	0.2	678683	287	68	3	0	0	1	358	stimuli\Videos_short_600ms_vertflip\9.single_touch_with_hammer_short_vertflip_short_600ms.mp4	9.single_touch_with_hammer_short_vertflip_short_600ms.mp4	363.5111288623175	364.1194669829046	0.6083381205871774				
332.1884765625	0.2	680322	288	68	3	0	0	2	218	stimuli\Videos_short_600ms_horvertflip\44.pushing_top_to_bottom_with_finger_short_horvertflip_short_600ms.mp4	44.pushing_top_to_bottom_with_finger_short_horvertflip_short_600ms.mp4	364.31111461052296	364.919452144617	0.608337534094062				
332.98828125	0.2	681960	289	68	3	0	0	3	50	stimuli\Videos_short_600ms\55.touch_top_to_bottom_with_nail_file_short_short_600ms.mp4	55.touch_top_to_bottom_with_nail_file_short_short_600ms.mp4	365.1111006519759	365.7194417050305	0.6083410530545734				
333.7880859375	0.2	683598	290	68	3	0	0	4	144	stimuli\Videos_short_600ms_horflip\59.single_push_with_long_side_pencil_short_horflip_short_600ms.mp4	59.single_push_with_long_side_pencil_short_horflip_short_600ms.mp4	365.9110919718705	366.5194427020697	0.6083507301991631				
334.58837890625	0.2	685237	291	68	3	0	0	5	290	stimuli\Videos_short_600ms_vertflip\28.single_injection_with_sharp_needle_short_vertflip_short_600ms.mp4	28.single_injection_with_sharp_needle_short_vertflip_short_600ms.mp4	366.7110835850126	367.3194143744304	0.6083307894177779				
335.38818359375	0.2	686875	292	68	3	0	0	6	115	stimuli\Videos_short_600ms_horflip\32.single_(long)pinch_with_fingers_short_horflip_short_600ms.mp4	32.single_(long)pinch_with_fingers_short_horflip_short_600ms.mp4	367.5110992443915	368.1193341421085	0.6082348977170113				
336.18798828125	0.2	688513	293	68	3	0	0	7	338	stimuli\Videos_short_600ms_vertflip\71.single_stroke_with_finger_top_to_bottom_short_vertflip_short_600ms.mp4	71.single_stroke_with_finger_top_to_bottom_short_vertflip_short_600ms.mp4	368.3110750222067	368.9193697422688	0.6082947200620765				
336.98828125	0.2	690152	294	68	3	0	0	8	309	stimuli\Videos_short_600ms_vertflip\45.scratching_with_finger_nails_short_vertflip_short_600ms.mp4	45.scratching_with_finger_nails_short_vertflip_short_600ms.mp4	369.1110666353479	369.7193569567089	0.6082903213609825				
337.7880859375	0.2	691790	295	68	3	0	0	9	166	stimuli\Videos_short_600ms_horflip\79.long_with_soft_brush_all_over_the_hand_short_horflip_short_600ms.mp4	79.long_with_soft_brush_all_over_the_hand_short_horflip_short_600ms.mp4	369.91104827809886	370.5193485698501	0.6083002917512204				
338.587890625	0.2	693428	296	68	3	0	0	10	78	stimuli\Videos_short_600ms\80.stroke_with_sharp_stick_all_over_the_hand_short_short_600ms.mp4	80.stroke_with_sharp_stick_all_over_the_hand_short_short_600ms.mp4	370.7110425304618	371.31933519779705	0.6082926673352631				
339.38818359375	0.2	695067	297	68	3	0	0	11	192	stimuli\Videos_short_600ms_horvertflip\20.single_touch_with_screwdriver_short_horvertflip_short_600ms.mp4	20.single_touch_with_screwdriver_short_horvertflip_short_600ms.mp4	371.5110197745107	372.11934645847305	0.608326683962332				
340.18798828125	0.2	696705	298	68	3	0	0	12	242	stimuli\Videos_short_600ms_horvertflip\66.stroke_top_to_bottom_with_sponge_short_horvertflip_short_600ms.mp4	66.stroke_top_to_bottom_with_sponge_short_horvertflip_short_600ms.mp4	372.3110075754448	372.91933513914773	0.6083275637029146				
340.98779296875	0.2	698343	299	68	3	0	0	13	317	stimuli\Videos_short_600ms_vertflip\52.touch_top_to_bottom_with_hammer_short_vertflip_short_600ms.mp4	52.touch_top_to_bottom_with_hammer_short_vertflip_short_600ms.mp4	373.1109947898849	373.7193185413789	0.6083237514940265				
341.7880859375	0.2	699982	300	68	3	0	0	14	121	stimuli\Videos_short_600ms_horflip\38.double_slap_with_pencil_short_horflip_short_600ms.mp4	38.double_slap_with_pencil_short_horflip_short_600ms.mp4	373.9109837638052	374.519301943611	0.6083181798057922				
342.587890625	0.2	701620	301	68	3	0	0	15	210	stimuli\Videos_short_600ms_horvertflip\37.single_stab_with_nail_file_short_horvertflip_short_600ms.mp4	37.single_stab_with_nail_file_short_horvertflip_short_600ms.mp4	374.7109665795433	375.3192932635056	0.608326683962332				
343.38818359375	0.2	703259	302	68	3	0	0	16	283	stimuli\Videos_short_600ms_vertflip\21.repeated_touch_with_metal_chopstick_short_vertflip_short_600ms.mp4	21.repeated_touch_with_metal_chopstick_short_vertflip_short_600ms.mp4	375.51095613995767	376.1192810644389	0.6083249244811668				
344.18798828125	0.2	704897	303	68	3	0	0	17	19	stimuli\Videos_short_600ms\27.single_push_with_a_plastic_whisk_short_short_600ms.mp4	27.single_push_with_a_plastic_whisk_short_short_600ms.mp4	376.3109427679037	376.9192662261512	0.6083234582474688				
344.98779296875	0.2	706535	304	68	3	0	0	18	237	stimuli\Videos_short_600ms_horvertflip\61.single_hit_with_rolling_pin_short_horvertflip_short_600ms.mp4	61.single_hit_with_rolling_pin_short_horvertflip_short_600ms.mp4	377.11092880935666	377.7192519743576	0.6083231650009111				
345.7880859375	0.2	708174	305	68	3	0	0	19	65	stimuli\Videos_short_600ms\69.stroke_with_soft_sock_short_short_600ms.mp4	69.stroke_with_soft_sock_short_short_600ms.mp4	377.9108679313231	378.51924153477194	0.6083736034488538				
346.587890625	0.2	709812	306	68	3	0	0	20	275	stimuli\Videos_short_600ms_vertflip\14.repeated_touch_with_pencil_short_vertflip_short_600ms.mp4	14.repeated_touch_with_pencil_short_vertflip_short_600ms.mp4	378.7108721540771	379.31922786947143	0.608355715394282				
347.3876953125	0.2	711450	307	68	3	0	0	21	96	stimuli\Videos_short_600ms_horflip\15.single_stroke_top_to_bottom_with_a_plastic_whisk_short_horflip_short_600ms.mp4	15.single_stroke_top_to_bottom_with_a_plastic_whisk_short_horflip_short_600ms.mp4	379.51086787267377	380.11921537715807	0.6083475044842999				
348.18798828125	0.2	713089	308	68	3	0	0	22	284	stimuli\Videos_short_600ms_vertflip\22.single_touch_with_metal_chopstick_short_vertflip_short_600ms.mp4	22.single_touch_with_metal_chopstick_short_vertflip_short_600ms.mp4	380.3108612452961	380.919205230819	0.6083439855228789				
348.98779296875	0.2	714727	309	68	3	0	0	23	155	stimuli\Videos_short_600ms_horflip\69.stroke_with_soft_sock_short_horflip_short_600ms.mp4	69.stroke_with_soft_sock_short_horflip_short_600ms.mp4	381.110851098957	381.71919244525907	0.6083413463020406				
349.78759765625	0.2	716365	310	68	3	0	0	24	125	stimuli\Videos_short_600ms_horflip\41.injection_with_blunt_syringe_short_horflip_short_600ms.mp4	41.injection_with_blunt_syringe_short_horflip_short_600ms.mp4	381.91084681755456	382.51917379476345	0.6083269772088897				
350.587890625	0.2	718004	311	68	3	0	0	25	1	stimuli\Videos_short_600ms\10.single_touch_with_knife_short_short_600ms.mp4	10.single_touch_with_knife_short_short_600ms.mp4	382.7108469348532	383.3191472266044	0.6083002917512204				
351.3876953125	0.2	719642	312	68	3	0	0	26	48	stimuli\Videos_short_600ms\53.touch_top_to_bottom_with_knife_short_short_600ms.mp4	53.touch_top_to_bottom_with_knife_short_short_600ms.mp4	383.51083209656554	384.1191285761078	0.6082964795423322				
352.1875	0.2	721280	313	68	3	0	0	27	223	stimuli\Videos_short_600ms_horvertflip\49.repeated_slap_with_hand_short_horvertflip_short_600ms.mp4	49.repeated_slap_with_hand_short_horvertflip_short_600ms.mp4	384.3108254691879	384.9191157905479	0.608290321360073				
352.98779296875	0.2	722919	314	68	3	0	0	28	149	stimuli\Videos_short_600ms_horflip\63.stroke_top_to_bottom_with_screwdriver_short_horflip_short_600ms.mp4	63.stroke_top_to_bottom_with_screwdriver_short_horflip_short_600ms.mp4	385.1108065254448	385.71910212524745	0.6082955998026591				
353.78759765625	0.2	724557	315	68	3	0	0	29	70	stimuli\Videos_short_600ms\73.single_stroke_with_flat_hand_short_short_600ms.mp4	73.single_stroke_with_flat_hand_short_short_600ms.mp4	385.9107969655998	386.51909285864895	0.6082958930492168				
354.58740234375	0.2	726195	316	68	3	0	0	30	293	stimuli\Videos_short_600ms_vertflip\30.finger_pulling_back_another_finger_short_vertflip_short_600ms.mp4	30.finger_pulling_back_another_finger_short_vertflip_short_600ms.mp4	386.7107783151041	387.3190979611436	0.6083196460394902				
355.3876953125	0.2	727834	317	68	3	0	0	31	18	stimuli\Videos_short_600ms\26.single_touch_with_a_blunt_syringe_short_short_600ms.mp4	26.single_touch_with_a_blunt_syringe_short_short_600ms.mp4	387.5107652362967	388.1190637685677	0.6082985322709646				
356.1875	0.2	729472	318	68	3	0	0	32	164	stimuli\Videos_short_600ms_horflip\77.tapping_with_all_fingers_short_horflip_short_600ms.mp4	77.tapping_with_all_fingers_short_horflip_short_600ms.mp4	388.31075362372394	388.9190814806734	0.6083278569494723				
356.9873046875	0.2	731110	319	68	3	0	0	33	179	stimuli\Videos_short_600ms_horflip\90.repeated_touch_with_sponge_short_horflip_short_600ms.mp4	90.repeated_touch_with_sponge_short_horflip_short_600ms.mp4	389.1107417179046	389.7190399569281	0.6082982390234974				
357.78759765625	0.2	732749	320	68	3	0	0	34	100	stimuli\Videos_short_600ms_horflip\19.single_touch_with_rolling_pin_short_horflip_short_600ms.mp4	19.single_touch_with_rolling_pin_short_horflip_short_600ms.mp4	389.9107318648121	390.51902599838104	0.6082941335689611				
358.58740234375	0.2	734387	321	68	3	0	0	35	37	stimuli\Videos_short_600ms\43.touch_top_to_bottom_with_sharp_wooden_stick_short_short_600ms.mp4	43.touch_top_to_bottom_with_sharp_wooden_stick_short_short_600ms.mp4	390.7107164400313	391.3190425374996	0.6083260974683071				
359.38720703125	0.2	736025	322	68	3	0	0	36	81	stimuli\Videos_short_600ms\83.single_stroke_top_to_bottom_with_cotton_bud_short_short_600ms.mp4	83.single_stroke_top_to_bottom_with_cotton_bud_short_short_600ms.mp4	391.5107071734328	392.1190247667446	0.6083175933117673				
360.1875	0.2	737664	323	68	3	0	0	37	224	stimuli\Videos_short_600ms_horvertflip\5.repeated_tap_with_finger_moving_from_top_to_bottom_short_horvertflip_short_600ms.mp4	5.repeated_tap_with_finger_moving_from_top_to_bottom_short_horvertflip_short_600ms.mp4	392.3106876431966	392.91901579339265	0.60832815019603				
360.9873046875	0.2	739302	324	68	3	0	0	38	205	stimuli\Videos_short_600ms_horvertflip\32.single_(long)pinch_with_fingers_short_horvertflip_short_600ms.mp4	32.single_(long)pinch_with_fingers_short_horvertflip_short_600ms.mp4	393.1106340963324	393.71899919562475	0.608365099292314				
361.787109375	0.2	740940	325	68	3	0	0	39	258	stimuli\Videos_short_600ms_horvertflip\80.stroke_with_sharp_stick_all_over_the_hand_short_horvertflip_short_600ms.mp4	80.stroke_with_sharp_stick_all_over_the_hand_short_horvertflip_short_600ms.mp4	393.9106207242785	394.51898611681736	0.6083653925388717				
362.58740234375	0.2	742579	326	68	3	0	0	40	327	stimuli\Videos_short_600ms_vertflip\61.single_hit_with_rolling_pin_short_vertflip_short_600ms.mp4	61.single_hit_with_rolling_pin_short_vertflip_short_600ms.mp4	394.710607645472	395.3189753839851	0.6083677385131523				
363.38720703125	0.2	744217	327	68	3	0	0	41	305	stimuli\Videos_short_600ms_vertflip\41.injection_with_blunt_syringe_short_vertflip_short_600ms.mp4	41.injection_with_blunt_syringe_short_vertflip_short_600ms.mp4	395.51059661939235	396.11896611738666	0.6083694979943175				
364.1875	0.2	745856	328	68	3	0	0	42	263	stimuli\Videos_short_600ms_horvertflip\85.touch_top_to_bottom_with_fabric_short_horvertflip_short_600ms.mp4	85.touch_top_to_bottom_with_fabric_short_horvertflip_short_600ms.mp4	396.3106627172192	396.9189501061119	0.608287388892677				
364.9873046875	0.2	747494	329	68	3	0	0	43	326	stimuli\Videos_short_600ms_vertflip\60.single_push_with_tip_of_pencil_short_vertflip_short_600ms.mp4	60.single_push_with_tip_of_pencil_short_vertflip_short_600ms.mp4	397.11061767451247	397.7189162067825	0.6082985322700551				
365.787109375	0.2	749132	330	68	3	0	0	44	150	stimuli\Videos_short_600ms_horflip\64.repeated_touch_with_screwdriver_short_horflip_short_600ms.mp4	64.repeated_touch_with_screwdriver_short_horflip_short_600ms.mp4	397.91060782141994	398.5188790817392	0.6082712603192704				
366.58740234375	0.2	750771	331	68	3	0	0	45	251	stimuli\Videos_short_600ms_horvertflip\74.fingers_walking_from_top_to_bottom_short_horvertflip_short_600ms.mp4	74.fingers_walking_from_top_to_bottom_short_horvertflip_short_600ms.mp4	398.71078681926065	399.31889239514294	0.6081055758822913				
367.38720703125	0.2	752409	332	68	3	0	0	46	265	stimuli\Videos_short_600ms_horvertflip\87.single_stroke_top_to_bottom_with_plastic_brush_short_horvertflip_short_600ms.mp4	87.single_stroke_top_to_bottom_with_plastic_brush_short_horvertflip_short_600ms.mp4	399.5105860625081	400.11887931633646	0.6082932538283785				
368.18701171875	0.2	754047	333	68	3	0	0	47	38	stimuli\Videos_short_600ms\44.pushing_top_to_bottom_with_finger_short_short_600ms.mp4	44.pushing_top_to_bottom_with_finger_short_short_600ms.mp4	400.3105635998036	400.9188638915548	0.6083002917512204				
368.9873046875	0.2	755686	334	68	3	0	0	48	228	stimuli\Videos_short_600ms_horvertflip\53.touch_top_to_bottom_with_knife_short_horvertflip_short_600ms.mp4	53.touch_top_to_bottom_with_knife_short_horvertflip_short_600ms.mp4	401.1105496412565	401.7188540384632	0.6083043972066662				
369.787109375	0.2	757324	335	68	3	0	0	49	165	stimuli\Videos_short_600ms_horflip\78.single_stroke_top_to_bottom_with_soft_brush_short_horflip_short_600ms.mp4	78.single_stroke_top_to_bottom_with_soft_brush_short_horflip_short_600ms.mp4	401.9105392016709	402.5188609004381	0.6083216987672131				
370.5869140625	0.2	758962	336	68	3	0	0	50	9	stimuli\Videos_short_600ms\18.single_stroke_from_top_to_bottom_with_rolling_pin_short_short_600ms.mp4	18.single_stroke_from_top_to_bottom_with_rolling_pin_short_short_600ms.mp4	402.7106173226157	403.3188428364356	0.6082255138198889				
371.38720703125	0.2	760601	337	68	3	0	0	51	143	stimuli\Videos_short_600ms_horflip\58.single_slap_with_pencil_short_horflip_short_600ms.mp4	58.single_slap_with_pencil_short_horflip_short_600ms.mp4	403.5106162669272	404.1188321036034	0.6082158366762087				
372.18701171875	0.2	762239	338	68	3	0	0	52	291	stimuli\Videos_short_600ms_vertflip\29.single_pinch_with_tweezers_short_vertflip_short_600ms.mp4	29.single_pinch_with_tweezers_short_vertflip_short_600ms.mp4	404.31050583018623	404.9188199045366	0.6083140743503463				
372.98681640625	0.2	763877	339	68	3	0	0	53	22	stimuli\Videos_short_600ms\3.single_push_with_finger_short_short_600ms.mp4	3.single_push_with_finger_short_short_600ms.mp4	405.1104880594312	405.71880711897666	0.6083190595454653				
373.787109375	0.2	765516	340	68	3	0	0	54	227	stimuli\Videos_short_600ms_horvertflip\52.touch_top_to_bottom_with_hammer_short_horvertflip_short_600ms.mp4	52.touch_top_to_bottom_with_hammer_short_horvertflip_short_600ms.mp4	405.9104743941307	406.51878758874045	0.6083131946097637				
374.5869140625	0.2	767154	341	68	3	0	0	55	255	stimuli\Videos_short_600ms_horvertflip\78.single_stroke_top_to_bottom_with_soft_brush_short_horvertflip_short_600ms.mp4	78.single_stroke_top_to_bottom_with_soft_brush_short_horvertflip_short_600ms.mp4	406.7104613153233	407.3187844803242	0.6083231650009111				
375.38671875	0.2	768792	342	68	3	0	0	56	288	stimuli\Videos_short_600ms_vertflip\26.single_touch_with_a_blunt_syringe_short_vertflip_short_600ms.mp4	26.single_touch_with_a_blunt_syringe_short_vertflip_short_600ms.mp4	407.5104247767731	408.1187719880109	0.6083472112377422				
376.18701171875	0.2	770431	343	68	3	0	0	57	5	stimuli\Videos_short_600ms\14.repeated_touch_with_pencil_short_short_600ms.mp4	14.repeated_touch_with_pencil_short_short_600ms.mp4	408.3103935166655	408.918738968423	0.6083454517574864				
376.98681640625	0.2	772069	344	68	3	0	0	58	68	stimuli\Videos_short_600ms\71.single_stroke_with_finger_top_to_bottom_short_short_600ms.mp4	71.single_stroke_with_finger_top_to_bottom_short_short_600ms.mp4	409.1104458318932	409.7187467101376	0.6083008782443358				
377.78662109375	0.2	773707	345	68	3	0	0	59	32	stimuli\Videos_short_600ms\39.single_stab_with_scissors_short_short_600ms.mp4	39.single_stab_with_scissors_short_short_600ms.mp4	409.9103661860645	410.5187318718499	0.6083656857854294				
378.5869140625	0.2	775346	346	68	3	0	1	60	367	stimuli\Targets_short_600ms_horflip\chopstick-silver-tap_short_horflip_short_600ms.mp4	chopstick-silver-tap_short_horflip_short_600ms.mp4	410.7103648371294	411.3187217255109	0.6083568883814223				
379.38671875	0.2	776984	347	68	3	0	0	61	215	stimuli\Videos_short_600ms_horvertflip\41.injection_with_blunt_syringe_short_horvertflip_short_600ms.mp4	41.injection_with_blunt_syringe_short_horvertflip_short_600ms.mp4	411.5103719923509	412.1187121656658	0.6083401733149003				
380.1865234375	0.2	778622	348	68	3	0	1	62	362	stimuli\Targets_short_600ms\chopstickwood-tap_short_short_600ms.mp4	chopstickwood-tap_short_short_600ms.mp4	412.3103618460118	412.9186911691959	0.6083293231840798				
380.98681640625	0.2	780261	349	68	3	0	0	63	299	stimuli\Videos_short_600ms_vertflip\36.single_slap_with_full_hand_short_vertflip_short_600ms.mp4	36.single_slap_with_full_hand_short_vertflip_short_600ms.mp4	413.1103681214936	413.7186390885654	0.6082709670718032				
381.78662109375	0.2	781899	350	68	3	0	0	64	335	stimuli\Videos_short_600ms_vertflip\69.stroke_with_soft_sock_short_vertflip_short_600ms.mp4	69.stroke_with_soft_sock_short_vertflip_short_600ms.mp4	413.9103485912574	414.5186239570312	0.6082753657738067				
382.58642578125	0.2	783537	351	68	3	0	0	65	60	stimuli\Videos_short_600ms\64.repeated_touch_with_screwdriver_short_short_600ms.mp4	64.repeated_touch_with_screwdriver_short_short_600ms.mp4	414.71034401660745	415.3186337514744	0.6082897348669576				
383.38671875	0.2	785176	352	68	3	0	0	66	53	stimuli\Videos_short_600ms\58.single_slap_with_pencil_short_short_600ms.mp4	58.single_slap_with_pencil_short_short_600ms.mp4	415.5103233133841	416.118620672667	0.6082973592829148				
384.1865234375	0.2	786814	353	68	3	0	1	67	370	stimuli\Targets_short_600ms_horflip\hand-pinch_short_horflip_short_600ms.mp4	hand-pinch_short_horflip_short_600ms.mp4	416.31031375353905	416.9186111128219	0.6082973592829148				
384.98681640625	0.2	788453	354	68	3	0	0	68	306	stimuli\Videos_short_600ms_vertflip\42.single_slap_with_plastic_whisk_short_vertflip_short_600ms.mp4	42.single_slap_with_plastic_whisk_short_vertflip_short_600ms.mp4	417.11029862200394	417.7186077111592	0.6083090891552274				
385.78662109375	0.2	790091	355	68	3	0	0	69	200	stimuli\Videos_short_600ms_horvertflip\28.single_injection_with_sharp_needle_short_horvertflip_short_600ms.mp4	28.single_injection_with_sharp_needle_short_horvertflip_short_600ms.mp4	417.9102861296906	418.51860518923695	0.6083190595463748				
386.58642578125	0.2	791729	356	68	3	0	0	70	340	stimuli\Videos_short_600ms_vertflip\73.single_stroke_with_flat_hand_short_vertflip_short_600ms.mp4	73.single_stroke_with_flat_hand_short_vertflip_short_600ms.mp4	418.7102707049098	419.3186135174456	0.6083428125357386				
387.38671875	0.2	793368	357	68	3	0	0	71	315	stimuli\Videos_short_600ms_vertflip\50.single_(long)hard_push_with_thumb_short_vertflip_short_600ms.mp4	50.single_(long)hard_push_with_thumb_short_vertflip_short_600ms.mp4	419.5102587990905	420.1185884155202	0.608329616429728				
388.1865234375	0.2	795006	358	68	3	0	0	72	253	stimuli\Videos_short_600ms_horvertflip\76.tickle_with_fingers_from_top_to_bottom_short_horvertflip_short_600ms.mp4	76.tickle_with_fingers_from_top_to_bottom_short_horvertflip_short_600ms.mp4	420.3102061319669	420.91857299073945	0.6083668587725697				
388.986328125	0.2	796644	359	68	3	0	0	73	337	stimuli\Videos_short_600ms_vertflip\70.(long)stroke_with_finger_all_over_the_hand_short_vertflip_short_600ms.mp4	70.(long)stroke_with_finger_all_over_the_hand_short_vertflip_short_600ms.mp4	421.1102335212172	421.71856020517953	0.608326683962332				
389.78662109375	0.2	798283	360	68	3	0	0	74	244	stimuli\Videos_short_600ms_horvertflip\68.stroke_top_to_bottom_with_shawl_short_horvertflip_short_600ms.mp4	68.stroke_top_to_bottom_with_shawl_short_horvertflip_short_600ms.mp4	421.9102301195544	422.5185436074107	0.6083134878563214				
390.58642578125	0.2	799921	361	68	3	0	0	75	241	stimuli\Videos_short_600ms_horvertflip\65.stroke_top_to_bottom_with_stanley_knife_short_horvertflip_short_600ms.mp4	65.stroke_top_to_bottom_with_stanley_knife_short_horvertflip_short_600ms.mp4	422.71020208516074	423.3185460706836	0.6083439855228789				
391.38623046875	0.2	801559	362	68	3	0	0	76	130	stimuli\Videos_short_600ms_horflip\46.scratching_top_to_bottom_with_finger_nails_short_horflip_short_600ms.mp4	46.scratching_top_to_bottom_with_finger_nails_short_horflip_short_600ms.mp4	423.51021334583766	424.11857991136367	0.608366565526012				
392.1865234375	0.2	803198	363	68	3	0	0	77	199	stimuli\Videos_short_600ms_horvertflip\27.single_push_with_a_plastic_whisk_short_horvertflip_short_600ms.mp4	27.single_push_with_a_plastic_whisk_short_horvertflip_short_600ms.mp4	424.3101589192329	424.9185639000889	0.6084049808559939				
392.986328125	0.2	804836	364	68	3	0	0	78	171	stimuli\Videos_short_600ms_horflip\83.single_stroke_top_to_bottom_with_cotton_bud_short_horflip_short_600ms.mp4	83.single_stroke_top_to_bottom_with_cotton_bud_short_horflip_short_600ms.mp4	425.110125313151	425.7185581524518	0.6084328393008036				
393.7861328125	0.2	806474	365	68	3	0	0	79	63	stimuli\Videos_short_600ms\67.single_touch_with_sponge_short_short_600ms.mp4	67.single_touch_with_sponge_short_short_600ms.mp4	425.91013774681505	426.5184887702608	0.6083510234457208				
394.58642578125	0.2	808113	366	68	3	0	0	80	51	stimuli\Videos_short_600ms\56.repeated_touch_with_nail_file_short_short_600ms.mp4	56.repeated_touch_with_nail_file_short_short_600ms.mp4	426.71012554774825	427.318469533272	0.6083439855237884				
395.38623046875	0.2	809751	367	68	3	0	0	81	191	stimuli\Videos_short_600ms_horvertflip\2.single_touch_with_finger_short_horvertflip_short_600ms.mp4	2.single_touch_with_finger_short_horvertflip_short_600ms.mp4	427.5101224393329	428.1184497097883	0.6083272704554474				
396.18603515625	0.2	811389	368	68	3	0	0	82	30	stimuli\Videos_short_600ms\37.single_stab_with_nail_file_short_short_600ms.mp4	37.single_stab_with_nail_file_short_short_600ms.mp4	428.31020994417486	428.9184527595553	0.6082428153804358				
396.986328125	0.2	813028	369	68	3	0	0	83	94	stimuli\Videos_short_600ms_horflip\13.single_touch_with_pen_short_horflip_short_600ms.mp4	13.single_touch_with_pen_short_horflip_short_600ms.mp4	429.1101109440587	429.7183842571048	0.6082733130460838				
397.7861328125	0.2	814666	370	68	3	0	0	84	208	stimuli\Videos_short_600ms_horvertflip\35.single_punch_with_hand_short_horvertflip_short_600ms.mp4	35.single_punch_with_hand_short_horvertflip_short_600ms.mp4	429.9101028504474	430.51839258531345	0.6082897348660481				
398.5859375	0.2	816304	371	68	3	0	0	85	117	stimuli\Videos_short_600ms_horflip\34.repeated_punch_with_hand_short_horflip_short_600ms.mp4	34.repeated_punch_with_hand_short_horflip_short_600ms.mp4	430.7100827337172	431.3183803862475	0.608297652530382				
399.38623046875	0.2	817943	372	68	3	0	0	86	83	stimuli\Videos_short_600ms\85.touch_top_to_bottom_with_fabric_short_short_600ms.mp4	85.touch_top_to_bottom_with_fabric_short_short_600ms.mp4	431.5100696549107	432.1183681871807	0.6082985322700551				
400.18603515625	0.2	819581	373	68	3	0	0	87	239	stimuli\Videos_short_600ms_horvertflip\63.stroke_top_to_bottom_with_screwdriver_short_horvertflip_short_600ms.mp4	63.stroke_top_to_bottom_with_screwdriver_short_horvertflip_short_600ms.mp4	432.3100556963627	432.9183688909734	0.6083131946106732				
400.98583984375	0.2	821219	374	68	3	0	0	88	333	stimuli\Videos_short_600ms_vertflip\67.single_touch_with_sponge_short_vertflip_short_600ms.mp4	67.single_touch_with_sponge_short_vertflip_short_600ms.mp4	433.1100437905434	433.71834085657974	0.6082970660363571				
