onset	duration	onsetsample	eventnumber	subjectnr	sequencenumber	blocksequencenumber	istarget	presentationnumber	stimnumber	stim	stimname	time_stimon	time_stimoff	stimdur	cresp	resp	rt	correct
26.9677734375	0.2	55230	0	26	0	0	0	0	21	stimuli\Videos_short_600ms\29.single_pinch_with_tweezers_short_short_600ms.mp4	29.single_pinch_with_tweezers_short_short_600ms.mp4	87.50464000450415	88.1125281001348	0.6078880956306421				
27.76806640625	0.2	56869	1	26	0	0	0	1	5	stimuli\Videos_short_600ms\14.repeated_touch_with_pencil_short_short_600ms.mp4	14.repeated_touch_with_pencil_short_short_600ms.mp4	88.30418641422625	88.91248299916197	0.6082965849357151				
28.56787109375	0.2	58507	2	26	0	0	0	2	96	stimuli\Videos_short_600ms_horflip\15.single_stroke_top_to_bottom_with_a_plastic_whisk_short_horflip_short_600ms.mp4	15.single_stroke_top_to_bottom_with_a_plastic_whisk_short_horflip_short_600ms.mp4	89.10417357012625	89.71245871853421	0.6082851484079583				
29.36767578125	0.2	60145	3	26	0	0	0	3	65	stimuli\Videos_short_600ms\69.stroke_with_soft_sock_short_short_600ms.mp4	69.stroke_with_soft_sock_short_short_600ms.mp4	89.90414547732257	90.51246258935883	0.6083171120362749				
30.16796875	0.2	61784	4	26	0	0	0	4	110	stimuli\Videos_short_600ms_horflip\28.single_injection_with_sharp_needle_short_horflip_short_600ms.mp4	28.single_injection_with_sharp_needle_short_horflip_short_600ms.mp4	90.70412706158072	91.31244563983842	0.6083185782576948				
30.9677734375	0.2	63422	5	26	0	0	0	5	22	stimuli\Videos_short_600ms\3.single_push_with_finger_short_short_600ms.mp4	3.single_push_with_finger_short_short_600ms.mp4	91.50410893908315	92.11242253218802	0.6083135931048673				
31.767578125	0.2	65060	6	26	0	0	1	6	360	stimuli\Targets_short_600ms\brush-stroke_short_short_600ms.mp4	brush-stroke_short_short_600ms.mp4	92.3040887638756	92.9124419449604	0.6083531810847944				
32.56787109375	0.2	66699	7	26	0	0	0	7	177	stimuli\Videos_short_600ms_horflip\89.single_touch_with_plastic_brush_short_horflip_short_600ms.mp4	89.single_touch_with_plastic_brush_short_horflip_short_600ms.mp4	93.10407034813376	93.71239743047612	0.6083270823423845				
33.36767578125	0.2	68337	8	26	0	0	0	8	243	stimuli\Videos_short_600ms_horvertflip\67.single_touch_with_sponge_short_horvertflip_short_600ms.mp4	67.single_touch_with_sponge_short_horvertflip_short_600ms.mp4	93.90405457159068	94.51237021740552	0.6083156458148551				
34.16748046875	0.2	69975	9	26	0	0	1	9	378	stimuli\Targets_short_600ms_vertflip\brush-stroke_short_horvertflip_short_600ms.mp4	brush-stroke_short_horvertflip_short_600ms.mp4	94.7040341031386	95.31235532059507	0.6083212174564778				
34.9677734375	0.2	71614	10	26	0	0	0	10	289	stimuli\Videos_short_600ms_vertflip\27.single_push_with_a_plastic_whisk_short_vertflip_short_600ms.mp4	27.single_push_with_a_plastic_whisk_short_vertflip_short_600ms.mp4	95.5040130481982	96.11233778458632	0.6083247363881128				
35.767578125	0.2	73252	11	26	0	0	0	11	324	stimuli\Videos_short_600ms_vertflip\59.single_push_with_long_side_pencil_short_vertflip_short_600ms.mp4	59.single_push_with_long_side_pencil_short_vertflip_short_600ms.mp4	96.30399727165512	96.9123146769357	0.6083174052805589				
36.5673828125	0.2	74890	12	26	0	0	0	12	225	stimuli\Videos_short_600ms_horvertflip\50.single_(long)hard_push_with_thumb_short_horvertflip_short_600ms.mp4	50.single_(long)hard_push_with_thumb_short_horvertflip_short_600ms.mp4	97.10397826942472	97.7122971409267	0.6083188715019787				
37.36767578125	0.2	76529	13	26	0	0	0	13	272	stimuli\Videos_short_600ms_vertflip\11.single_touch_with_lighter_short_vertflip_short_600ms.mp4	11.single_touch_with_lighter_short_vertflip_short_600ms.mp4	97.9039592671943	98.5122775522077	0.6083182850134108				
38.16748046875	0.2	78167	14	26	0	0	1	14	383	stimuli\Targets_short_600ms_vertflip\hand-stroke_short_horvertflip_short_600ms.mp4	hand-stroke_short_horvertflip_short_600ms.mp4	98.70391797839716	99.31226177566464	0.6083437972674801				
38.96728515625	0.2	79805	15	26	0	0	0	15	261	stimuli\Videos_short_600ms_horvertflip\83.single_stroke_top_to_bottom_with_cotton_bud_short_horvertflip_short_600ms.mp4	83.single_stroke_top_to_bottom_with_cotton_bud_short_horvertflip_short_600ms.mp4	99.50389692345676	100.1122413072128	0.608344383756048				
39.767578125	0.2	81444	16	26	0	0	0	16	316	stimuli\Videos_short_600ms_vertflip\51.repeated_touch_with_hammer_short_vertflip_short_600ms.mp4	51.repeated_touch_with_hammer_short_vertflip_short_600ms.mp4	100.30444505569584	100.91222113200502	0.6077760763091646				
40.5673828125	0.2	83082	17	26	0	0	0	17	267	stimuli\Videos_short_600ms_horvertflip\89.single_touch_with_plastic_brush_short_horvertflip_short_600ms.mp4	89.single_touch_with_plastic_brush_short_horvertflip_short_600ms.mp4	101.10387240823366	101.71220388924051	0.6083314810068714				
41.3671875	0.2	84720	18	26	0	0	0	18	285	stimuli\Videos_short_600ms_vertflip\23.single_push_with_a_spoon_short_vertflip_short_600ms.mp4	23.single_push_with_a_spoon_short_vertflip_short_600ms.mp4	101.90386982768382	102.51218459376582	0.6083147660820032				
42.16748046875	0.2	86359	19	26	0	0	0	19	191	stimuli\Videos_short_600ms_horvertflip\2.single_touch_with_finger_short_horvertflip_short_600ms.mp4	2.single_touch_with_finger_short_horvertflip_short_600ms.mp4	102.70385170518624	103.31216265909234	0.6083109539060843				
42.96728515625	0.2	87997	20	26	0	0	0	20	248	stimuli\Videos_short_600ms_horvertflip\71.single_stroke_with_finger_top_to_bottom_short_horvertflip_short_600ms.mp4	71.single_stroke_with_finger_top_to_bottom_short_horvertflip_short_600ms.mp4	103.5038274245585	104.1121301676244	0.6083027430659058				
43.76708984375	0.2	89635	21	26	0	0	0	21	190	stimuli\Videos_short_600ms_horvertflip\19.single_touch_with_rolling_pin_short_horvertflip_short_600ms.mp4	19.single_touch_with_rolling_pin_short_horvertflip_short_600ms.mp4	104.3038163399242	104.91210940592804	0.6082930660038528				
44.5673828125	0.2	91274	22	26	0	0	1	22	365	stimuli\Targets_short_600ms\hand-stroke_short_short_600ms.mp4	hand-stroke_short_short_600ms.mp4	105.10379088631908	105.71208688476622	0.6082959984471472				
45.3671875	0.2	92912	23	26	0	0	0	23	244	stimuli\Videos_short_600ms_horvertflip\68.stroke_top_to_bottom_with_shawl_short_horvertflip_short_600ms.mp4	68.stroke_top_to_bottom_with_shawl_short_horvertflip_short_600ms.mp4	105.90378420034926	106.5120678825358	0.6082836821865385				
46.16748046875	0.2	94551	24	26	0	0	0	24	290	stimuli\Videos_short_600ms_vertflip\28.single_injection_with_sharp_needle_short_vertflip_short_600ms.mp4	28.single_injection_with_sharp_needle_short_vertflip_short_600ms.mp4	106.70375317510252	107.31207615202491	0.608322976922409				
46.96728515625	0.2	96189	25	26	0	0	0	25	223	stimuli\Videos_short_600ms_horvertflip\49.repeated_slap_with_hand_short_horvertflip_short_600ms.mp4	49.repeated_slap_with_hand_short_horvertflip_short_600ms.mp4	107.50373563909376	108.11205656330594	0.6083209242121939				
47.76708984375	0.2	97827	26	26	0	0	0	26	193	stimuli\Videos_short_600ms_horvertflip\21.repeated_touch_with_metal_chopstick_short_horvertflip_short_600ms.mp4	21.repeated_touch_with_metal_chopstick_short_horvertflip_short_600ms.mp4	108.30371634361904	108.91203902729694	0.6083226836778977				
48.5673828125	0.2	99466	27	26	0	0	0	27	356	stimuli\Videos_short_600ms_vertflip\88.repeated_stroke_with_plastic_brush_short_vertflip_short_600ms.mp4	88.repeated_stroke_with_plastic_brush_short_vertflip_short_600ms.mp4	109.10369499543413	109.71202618319673	0.6083311877625874				
49.3671875	0.2	101104	28	26	0	0	0	28	72	stimuli\Videos_short_600ms\75.(long)stroke_with_fingers_all_over_the_hand_short_short_600ms.mp4	75.(long)stroke_with_fingers_all_over_the_hand_short_short_600ms.mp4	109.90368009862392	110.51199779714877	0.6083176985248429				
50.1669921875	0.2	102742	29	26	0	0	0	29	169	stimuli\Videos_short_600ms_horflip\81.single_stroke_top_to_bottom_with_cotton_pad_short_horflip_short_600ms.mp4	81.single_stroke_top_to_bottom_with_cotton_pad_short_horflip_short_600ms.mp4	110.70366754776796	111.31198055438426	0.6083130066162994				
50.96728515625	0.2	104381	30	26	0	0	0	30	192	stimuli\Videos_short_600ms_horvertflip\20.single_touch_with_screwdriver_short_horvertflip_short_600ms.mp4	20.single_touch_with_screwdriver_short_horvertflip_short_600ms.mp4	111.5036415076745	112.11196037917672	0.6083188715022061				
51.76708984375	0.2	106019	31	26	0	0	0	31	215	stimuli\Videos_short_600ms_horvertflip\41.injection_with_blunt_syringe_short_horvertflip_short_600ms.mp4	41.injection_with_blunt_syringe_short_horvertflip_short_600ms.mp4	112.30362279868837	112.91194284316772	0.608320044479342				
52.56689453125	0.2	107657	32	26	0	0	0	32	311	stimuli\Videos_short_600ms_vertflip\47.(long)scratching_with_finger_nails_short_vertflip_short_600ms.mp4	47.(long)scratching_with_finger_nails_short_vertflip_short_600ms.mp4	113.10360643565672	113.71192442742586	0.6083179917691268				
53.3671875	0.2	109296	33	26	0	0	0	33	325	stimuli\Videos_short_600ms_vertflip\6.single_touch_with_flat_hand_short_vertflip_short_600ms.mp4	6.single_touch_with_flat_hand_short_vertflip_short_600ms.mp4	113.90358977938058	114.51190835763828	0.6083185782576948				
54.1669921875	0.2	110934	34	26	0	0	0	34	299	stimuli\Videos_short_600ms_vertflip\36.single_slap_with_full_hand_short_vertflip_short_600ms.mp4	36.single_slap_with_full_hand_short_vertflip_short_600ms.mp4	114.70354907707224	115.31188730269788	0.60833822562563				
54.966796875	0.2	112572	35	26	0	0	0	35	317	stimuli\Videos_short_600ms_vertflip\52.touch_top_to_bottom_with_hammer_short_vertflip_short_600ms.mp4	52.touch_top_to_bottom_with_hammer_short_vertflip_short_600ms.mp4	115.50352479644448	116.1118694734446	0.6083446770001046				
55.76708984375	0.2	114211	36	26	0	0	1	36	377	stimuli\Targets_short_600ms_horvertflip\hand-stroke_short_vertflip_short_600ms.mp4	hand-stroke_short_vertflip_short_600ms.mp4	116.30352984024626	116.91184871174846	0.6083188715022061				
56.56689453125	0.2	115849	37	26	0	0	0	37	111	stimuli\Videos_short_600ms_horflip\29.single_pinch_with_tweezers_short_horflip_short_600ms.mp4	29.single_pinch_with_tweezers_short_horflip_short_600ms.mp4	117.103507905573	117.71183234871684	0.6083244431438288				
57.36669921875	0.2	117487	38	26	0	0	1	38	364	stimuli\Targets_short_600ms\hand-pinch_short_short_600ms.mp4	hand-pinch_short_short_600ms.mp4	117.9035003398701	118.5118171586621	0.608316818791991				
58.1669921875	0.2	119126	39	26	0	0	0	39	19	stimuli\Videos_short_600ms\27.single_push_with_a_plastic_whisk_short_short_600ms.mp4	27.single_push_with_a_plastic_whisk_short_short_600ms.mp4	118.7034836835942	119.31177674959804	0.6082930660038528				
58.966796875	0.2	120764	40	26	0	0	0	40	334	stimuli\Videos_short_600ms_vertflip\68.stroke_top_to_bottom_with_shawl_short_vertflip_short_600ms.mp4	68.stroke_top_to_bottom_with_shawl_short_vertflip_short_600ms.mp4	119.50346321514212	120.1117542284362	0.6082910132940924				
59.7666015625	0.2	122402	41	26	0	0	1	41	382	stimuli\Targets_short_600ms_vertflip\hand-pinch_short_horvertflip_short_600ms.mp4	hand-pinch_short_horvertflip_short_600ms.mp4	120.30343952100291	120.91173200051844	0.6082924795155122				
60.56689453125	0.2	124041	42	26	0	0	0	42	62	stimuli\Videos_short_600ms\66.stroke_top_to_bottom_with_sponge_short_short_600ms.mp4	66.stroke_top_to_bottom_with_sponge_short_short_600ms.mp4	121.1034366472088	121.7117135847766	0.6082769375677799				
61.36669921875	0.2	125679	43	26	0	0	0	43	249	stimuli\Videos_short_600ms_horvertflip\72.(short)stroke_with_finger_all_over_the_hand_short_horvertflip_short_600ms.mp4	72.(short)stroke_with_finger_all_over_the_hand_short_horvertflip_short_600ms.mp4	121.9034012232978	122.51169722174495	0.6082959984471472				
62.16650390625	0.2	127317	44	26	0	0	0	44	122	stimuli\Videos_short_600ms_horflip\39.single_stab_with_scissors_short_horflip_short_600ms.mp4	39.single_stab_with_scissors_short_horflip_short_600ms.mp4	122.70338398053332	123.31170461150124	0.6083206309679099				
62.966796875	0.2	128956	45	26	0	0	0	45	41	stimuli\Videos_short_600ms\47.(long)scratching_with_finger_nails_short_short_600ms.mp4	47.(long)scratching_with_finger_nails_short_short_600ms.mp4	123.50336116612698	124.11168971469078	0.6083285485638044				
63.7666015625	0.2	130594	46	26	0	0	0	46	306	stimuli\Videos_short_600ms_vertflip\42.single_slap_with_plastic_whisk_short_vertflip_short_600ms.mp4	42.single_slap_with_plastic_whisk_short_vertflip_short_600ms.mp4	124.3033474422939	124.9116639678416	0.608316525547707				
64.56689453125	0.2	132233	47	26	0	0	0	47	119	stimuli\Videos_short_600ms_horflip\36.single_slap_with_full_hand_short_horflip_short_600ms.mp4	36.single_slap_with_full_hand_short_horflip_short_600ms.mp4	125.1033260941092	125.7116490710314	0.6083229769221816				
65.36669921875	0.2	133871	48	26	0	0	0	48	277	stimuli\Videos_short_600ms_vertflip\16.repeated_touch_with_plastic_brush_short_vertflip_short_600ms.mp4	16.repeated_touch_with_plastic_brush_short_vertflip_short_600ms.mp4	125.9033067986345	126.51164003910708	0.6083332404725752				
66.16650390625	0.2	135509	49	26	0	0	0	49	341	stimuli\Videos_short_600ms_vertflip\74.fingers_walking_from_top_to_bottom_short_vertflip_short_600ms.mp4	74.fingers_walking_from_top_to_bottom_short_vertflip_short_600ms.mp4	126.70328808964835	127.3116098935934	0.6083218039450458				
66.966796875	0.2	137148	50	26	0	0	0	50	238	stimuli\Videos_short_600ms_horvertflip\62.touch_top_to_bottom_with_scissors_short_horvertflip_short_600ms.mp4	62.touch_top_to_bottom_with_scissors_short_horvertflip_short_600ms.mp4	127.50326967390652	128.11159177109585	0.6083220971893297				
67.7666015625	0.2	138786	51	26	0	0	0	51	256	stimuli\Videos_short_600ms_horvertflip\79.long_with_soft_brush_all_over_the_hand_short_horvertflip_short_600ms.mp4	79.long_with_soft_brush_all_over_the_hand_short_horvertflip_short_600ms.mp4	128.30325096492038	128.9115715958883	0.6083206309679099				
68.56640625	0.2	140424	52	26	0	0	0	52	29	stimuli\Videos_short_600ms\36.single_slap_with_full_hand_short_short_600ms.mp4	36.single_slap_with_full_hand_short_short_600ms.mp4	129.10323518837708	129.71155318014644	0.6083179917693542				
69.36669921875	0.2	142063	53	26	0	0	0	53	357	stimuli\Videos_short_600ms_vertflip\89.single_touch_with_plastic_brush_short_vertflip_short_600ms.mp4	89.single_touch_with_plastic_brush_short_vertflip_short_600ms.mp4	129.90321237397097	130.5115338846717	0.6083215107007618				
70.16650390625	0.2	143701	54	26	0	0	0	54	168	stimuli\Videos_short_600ms_horflip\80.stroke_with_sharp_stick_all_over_the_hand_short_horflip_short_600ms.mp4	80.stroke_with_sharp_stick_all_over_the_hand_short_horflip_short_600ms.mp4	130.70317137841835	131.31151605541845	0.6083446770001046				
70.96630859375	0.2	145339	55	26	0	0	0	55	350	stimuli\Videos_short_600ms_vertflip\82.repeated_touch_with_cotton_bud_short_vertflip_short_600ms.mp4	82.repeated_touch_with_cotton_bud_short_vertflip_short_600ms.mp4	131.50315354916506	132.1114955869666	0.6083420378015489				
71.7666015625	0.2	146978	56	26	0	0	0	56	319	stimuli\Videos_short_600ms_vertflip\54.repeated_touch_with_knife_short_vertflip_short_600ms.mp4	54.repeated_touch_with_knife_short_vertflip_short_600ms.mp4	132.30313454693464	132.91147775771333	0.6083432107786848				
72.56640625	0.2	148616	57	26	0	0	0	57	73	stimuli\Videos_short_600ms\76.tickle_with_fingers_from_top_to_bottom_short_short_600ms.mp4	76.tickle_with_fingers_from_top_to_bottom_short_short_600ms.mp4	133.10313841775928	133.7114608081929	0.6083223904336137				
73.3662109375	0.2	150254	58	26	0	0	0	58	123	stimuli\Videos_short_600ms_horflip\4.repeated_tap_with_finger_slow_short_horflip_short_600ms.mp4	4.repeated_tap_with_finger_slow_short_horflip_short_600ms.mp4	133.90312410743763	134.51144063298534	0.608316525547707				
74.16650390625	0.2	151893	59	26	0	0	0	59	143	stimuli\Videos_short_600ms_horflip\58.single_slap_with_pencil_short_horflip_short_600ms.mp4	58.single_slap_with_pencil_short_horflip_short_600ms.mp4	134.70310598494007	135.31140081040985	0.608294825469784				
74.96630859375	0.2	153531	60	26	0	0	0	60	232	stimuli\Videos_short_600ms_horvertflip\57.single_touch_with_nail_file_short_horvertflip_short_600ms.mp4	57.single_touch_with_nail_file_short_horvertflip_short_600ms.mp4	135.50309284759555	136.11140233528022	0.6083094876846644				
75.76611328125	0.2	155169	61	26	0	0	0	61	59	stimuli\Videos_short_600ms\63.stroke_top_to_bottom_with_screwdriver_short_short_600ms.mp4	63.stroke_top_to_bottom_with_screwdriver_short_short_600ms.mp4	136.30306798047923	136.91138538576	0.6083174052807863				
76.56640625	0.2	156808	62	26	0	0	0	62	239	stimuli\Videos_short_600ms_horvertflip\63.stroke_top_to_bottom_with_screwdriver_short_horvertflip_short_600ms.mp4	63.stroke_top_to_bottom_with_screwdriver_short_horvertflip_short_600ms.mp4	137.1030475120274	137.71134263074146	0.6082951187140679				
77.3662109375	0.2	158446	63	26	0	0	0	63	198	stimuli\Videos_short_600ms_horvertflip\26.single_touch_with_a_blunt_syringe_short_horvertflip_short_600ms.mp4	26.single_touch_with_a_blunt_syringe_short_horvertflip_short_600ms.mp4	137.90303144224004	138.51134562183324	0.6083141795932079				
78.166015625	0.2	160084	64	26	0	0	0	64	174	stimuli\Videos_short_600ms_horflip\86.touch_top_to_bottom_with_hair_brush_short_horflip_short_600ms.mp4	86.touch_top_to_bottom_with_hair_brush_short_horflip_short_600ms.mp4	138.70301097378797	139.31133160475588	0.6083206309679099				
78.96630859375	0.2	161723	65	26	0	0	0	65	24	stimuli\Videos_short_600ms\31.hand_grabbing_wrist_short_short_600ms.mp4	31.hand_grabbing_wrist_short_short_600ms.mp4	139.50299050533613	140.11132345256442	0.6083329472282912				
79.76611328125	0.2	163361	66	26	0	0	0	66	104	stimuli\Videos_short_600ms_horflip\22.single_touch_with_metal_chopstick_short_horflip_short_600ms.mp4	22.single_touch_with_metal_chopstick_short_horflip_short_600ms.mp4	140.30297296932713	140.91129125434077	0.6083182850136382				
80.56591796875	0.2	164999	67	26	0	0	0	67	14	stimuli\Videos_short_600ms\22.single_touch_with_metal_chopstick_short_short_600ms.mp4	22.single_touch_with_metal_chopstick_short_short_600ms.mp4	141.1029539670967	141.71127401157605	0.608320044479342				
81.3662109375	0.2	166638	68	26	0	0	0	68	344	stimuli\Videos_short_600ms_vertflip\77.tapping_with_all_fingers_short_vertflip_short_600ms.mp4	77.tapping_with_all_fingers_short_vertflip_short_600ms.mp4	141.90293789730936	142.51125442285706	0.608316525547707				
82.166015625	0.2	168276	69	26	0	0	0	69	237	stimuli\Videos_short_600ms_horvertflip\61.single_hit_with_rolling_pin_short_horvertflip_short_600ms.mp4	61.single_hit_with_rolling_pin_short_horvertflip_short_600ms.mp4	142.70291713561323	143.31124128551255	0.6083241498993175				
82.96630859375	0.2	169915	70	26	0	0	0	70	115	stimuli\Videos_short_600ms_horflip\32.single_(long)pinch_with_fingers_short_horflip_short_600ms.mp4	32.single_(long)pinch_with_fingers_short_horflip_short_600ms.mp4	143.50290077258137	144.11121817786193	0.6083174052805589				
83.76611328125	0.2	171553	71	26	0	0	1	71	375	stimuli\Targets_short_600ms_horvertflip\finger-tap_short_vertflip_short_600ms.mp4	finger-tap_short_vertflip_short_600ms.mp4	144.30288147710667	144.9111997621203	0.6083182850136382				
84.56591796875	0.2	173191	72	26	0	0	0	72	98	stimuli\Videos_short_600ms_horflip\17.repeated_touch_with_rolling_pin_short_horflip_short_600ms.mp4	17.repeated_touch_with_rolling_pin_short_horflip_short_600ms.mp4	145.10285103834872	145.71118193286702	0.6083308945183035				
85.3662109375	0.2	174830	73	26	0	0	0	73	51	stimuli\Videos_short_600ms\56.repeated_touch_with_nail_file_short_short_600ms.mp4	56.repeated_touch_with_nail_file_short_short_600ms.mp4	145.90282675772096	146.51116322388089	0.6083364661599262				
86.166015625	0.2	176468	74	26	0	0	0	74	349	stimuli\Videos_short_600ms_vertflip\81.single_stroke_top_to_bottom_with_cotton_pad_short_vertflip_short_600ms.mp4	81.single_stroke_top_to_bottom_with_cotton_pad_short_vertflip_short_600ms.mp4	146.70280130411606	147.31114480813903	0.6083435040229688				
86.9658203125	0.2	178106	75	26	0	0	0	75	134	stimuli\Videos_short_600ms_horflip\5.repeated_tap_with_finger_moving_from_top_to_bottom_short_horflip_short_600ms.mp4	5.repeated_tap_with_finger_moving_from_top_to_bottom_short_horflip_short_600ms.mp4	147.50280840062806	148.11112551266433	0.6083171120362749				
87.76611328125	0.2	179745	76	26	0	0	0	76	91	stimuli\Videos_short_600ms_horflip\10.single_touch_with_knife_short_horflip_short_600ms.mp4	10.single_touch_with_knife_short_horflip_short_600ms.mp4	148.30276476587665	148.91110621718963	0.608341451312981				
88.56591796875	0.2	181383	77	26	0	0	0	77	292	stimuli\Videos_short_600ms_vertflip\3.single_push_with_finger_short_vertflip_short_600ms.mp4	3.single_push_with_finger_short_vertflip_short_600ms.mp4	149.10279913410818	149.7110889744249	0.6082898403167292				
89.36572265625	0.2	183021	78	26	0	0	0	78	259	stimuli\Videos_short_600ms_horvertflip\81.single_stroke_top_to_bottom_with_cotton_pad_short_horvertflip_short_600ms.mp4	81.single_stroke_top_to_bottom_with_cotton_pad_short_horvertflip_short_600ms.mp4	149.90275256691393	150.5110740776147	0.6083215107007618				
90.166015625	0.2	184660	79	26	0	0	0	79	293	stimuli\Videos_short_600ms_vertflip\30.finger_pulling_back_another_finger_short_vertflip_short_600ms.mp4	30.finger_pulling_back_another_finger_short_vertflip_short_600ms.mp4	150.7033300235828	151.31102692393188	0.6076969003490831				
90.9658203125	0.2	186298	80	26	0	0	0	80	298	stimuli\Videos_short_600ms_vertflip\35.single_punch_with_hand_short_vertflip_short_600ms.mp4	35.single_punch_with_hand_short_vertflip_short_600ms.mp4	151.50269608806252	152.11100821494574	0.6083121268832201				
91.765625	0.2	187936	81	26	0	0	0	81	294	stimuli\Videos_short_600ms_vertflip\31.hand_grabbing_wrist_short_vertflip_short_600ms.mp4	31.hand_grabbing_wrist_short_vertflip_short_600ms.mp4	152.30270083862	152.91098921271532	0.6082883740953093				
92.56591796875	0.2	189575	82	26	0	0	0	82	304	stimuli\Videos_short_600ms_vertflip\40.repeated_push_with_finger_short_vertflip_short_600ms.mp4	40.repeated_push_with_finger_short_vertflip_short_600ms.mp4	153.10268271612244	153.71099748220445	0.6083147660820032				
93.36572265625	0.2	191213	83	26	0	0	0	83	286	stimuli\Videos_short_600ms_vertflip\24.single_stroke_top_to_bottom_with_a_spoon_short_vertflip_short_600ms.mp4	24.single_stroke_top_to_bottom_with_a_spoon_short_vertflip_short_600ms.mp4	153.9026581422504	154.51097818672974	0.608320044479342				
94.16552734375	0.2	192851	84	26	0	0	0	84	138	stimuli\Videos_short_600ms_horflip\53.touch_top_to_bottom_with_knife_short_horflip_short_600ms.mp4	53.touch_top_to_bottom_with_knife_short_horflip_short_600ms.mp4	154.70264265895162	155.31096270343096	0.608320044479342				
94.9658203125	0.2	194490	85	26	0	0	0	85	107	stimuli\Videos_short_600ms_horflip\25.single_touch_with_stanley_knife_short_horflip_short_600ms.mp4	25.single_touch_with_stanley_knife_short_horflip_short_600ms.mp4	155.50262277698835	156.1109404755132	0.6083176985248429				
95.765625	0.2	196128	86	26	0	0	0	86	151	stimuli\Videos_short_600ms_horflip\65.stroke_top_to_bottom_with_stanley_knife_short_horflip_short_600ms.mp4	65.stroke_top_to_bottom_with_stanley_knife_short_horflip_short_600ms.mp4	156.3026043612465	156.91092352599276	0.6083191647462627				
96.5654296875	0.2	197766	87	26	0	0	0	87	80	stimuli\Videos_short_600ms\82.repeated_touch_with_cotton_bud_short_short_600ms.mp4	82.repeated_touch_with_cotton_bud_short_short_600ms.mp4	157.10258418603894	157.71090393727377	0.6083197512348306				
97.36572265625	0.2	199405	88	26	0	0	0	88	75	stimuli\Videos_short_600ms\78.single_stroke_top_to_bottom_with_soft_brush_short_short_600ms.mp4	78.single_stroke_top_to_bottom_with_soft_brush_short_short_600ms.mp4	157.90256606354137	158.51088493504335	0.6083188715019787				
98.16552734375	0.2	201043	89	26	0	0	0	89	254	stimuli\Videos_short_600ms_horvertflip\77.tapping_with_all_fingers_short_horvertflip_short_600ms.mp4	77.tapping_with_all_fingers_short_horvertflip_short_600ms.mp4	158.7025564451285	159.31086945174457	0.608313006616072				
98.96533203125	0.2	202681	90	26	0	0	0	90	242	stimuli\Videos_short_600ms_horvertflip\66.stroke_top_to_bottom_with_sponge_short_horvertflip_short_600ms.mp4	66.stroke_top_to_bottom_with_sponge_short_horvertflip_short_600ms.mp4	159.50252629961483	160.1108475170713	0.6083212174564778				
99.765625	0.2	204320	91	26	0	0	0	91	245	stimuli\Videos_short_600ms_horvertflip\69.stroke_with_soft_sock_short_horvertflip_short_600ms.mp4	69.stroke_with_soft_sock_short_horvertflip_short_600ms.mp4	160.3025372083025	160.910831740528	0.6082945322255				
100.5654296875	0.2	205958	92	26	0	0	0	92	173	stimuli\Videos_short_600ms_horflip\85.touch_top_to_bottom_with_fabric_short_horflip_short_600ms.mp4	85.touch_top_to_bottom_with_fabric_short_horflip_short_600ms.mp4	161.1024680612975	161.71081215180902	0.6083440905115367				
101.365234375	0.2	207596	93	26	0	0	0	93	228	stimuli\Videos_short_600ms_horvertflip\53.touch_top_to_bottom_with_knife_short_horvertflip_short_600ms.mp4	53.touch_top_to_bottom_with_knife_short_horvertflip_short_600ms.mp4	161.9024739848321	162.51079197660147	0.6083179917693542				
102.16552734375	0.2	209235	94	26	0	0	0	94	265	stimuli\Videos_short_600ms_horvertflip\87.single_stroke_top_to_bottom_with_plastic_brush_short_horvertflip_short_600ms.mp4	87.single_stroke_top_to_bottom_with_plastic_brush_short_horvertflip_short_600ms.mp4	162.7024350419897	163.31077444059247	0.6083393986027659				
102.96533203125	0.2	210873	95	26	0	0	0	95	30	stimuli\Videos_short_600ms\37.single_stab_with_nail_file_short_short_600ms.mp4	37.single_stab_with_nail_file_short_short_600ms.mp4	163.50241310731622	164.11075309240778	0.6083399850915612				
103.765625	0.2	212512	96	26	0	0	0	96	9	stimuli\Videos_short_600ms\18.single_stroke_from_top_to_bottom_with_rolling_pin_short_short_600ms.mp4	18.single_stroke_from_top_to_bottom_with_rolling_pin_short_short_600ms.mp4	164.30241697814108	164.91073584964306	0.6083188715019787				
104.5654296875	0.2	214150	97	26	0	0	0	97	99	stimuli\Videos_short_600ms_horflip\18.single_stroke_from_top_to_bottom_with_rolling_pin_short_horflip_short_600ms.mp4	18.single_stroke_from_top_to_bottom_with_rolling_pin_short_horflip_short_600ms.mp4	165.10240823946083	165.7107159676798	0.6083077282189606	8.0	8.0	2.0924300157823836	1.0
138.9140625	0.2	284496	98	26	1	0	0	0	50	stimuli\Videos_short_600ms\55.touch_top_to_bottom_with_nail_file_short_short_600ms.mp4	55.touch_top_to_bottom_with_nail_file_short_short_600ms.mp4	199.45160237480968	200.059899839478	0.6082974646683397				
139.71435546875	0.2	286135	99	26	1	0	0	1	136	stimuli\Videos_short_600ms_horflip\51.repeated_touch_with_hammer_short_horflip_short_600ms.mp4	51.repeated_touch_with_hammer_short_horflip_short_600ms.mp4	200.25158395906783	200.85990488328	0.6083209242121939				
140.51416015625	0.2	287773	100	26	1	0	0	2	338	stimuli\Videos_short_600ms_vertflip\71.single_stroke_with_finger_top_to_bottom_short_vertflip_short_600ms.mp4	71.single_stroke_with_finger_top_to_bottom_short_vertflip_short_600ms.mp4	201.051563490616	201.65988470807247	0.6083212174564778				
141.31396484375	0.2	289411	101	26	1	0	0	3	217	stimuli\Videos_short_600ms_horvertflip\43.touch_top_to_bottom_with_sharp_wooden_stick_short_horvertflip_short_600ms.mp4	43.touch_top_to_bottom_with_sharp_wooden_stick_short_horvertflip_short_600ms.mp4	201.8515433154082	202.45987303694935	0.6083297215411676				
142.1142578125	0.2	291050	102	26	1	0	0	4	82	stimuli\Videos_short_600ms\84.single_touch_with_cotton_bud_short_short_600ms.mp4	84.single_touch_with_cotton_bud_short_short_600ms.mp4	202.651528418598	203.25984435765713	0.608315939059139				
142.9140625	0.2	292688	103	26	1	0	0	5	2	stimuli\Videos_short_600ms\11.single_touch_with_lighter_short_short_600ms.mp4	11.single_touch_with_lighter_short_short_600ms.mp4	203.45150941636757	204.0598285811141	0.6083191647464901				
143.71435546875	0.2	294327	104	26	1	0	1	6	361	stimuli\Targets_short_600ms\chopstick-silver-tap_short_short_600ms.mp4	chopstick-silver-tap_short_short_600ms.mp4	204.25148924116	204.85981309781505	0.6083238566550335				
144.51416015625	0.2	295965	105	26	1	0	0	7	340	stimuli\Videos_short_600ms_vertflip\73.single_stroke_with_flat_hand_short_vertflip_short_600ms.mp4	73.single_stroke_with_flat_hand_short_vertflip_short_600ms.mp4	205.05146935919672	205.6597908698975	0.6083215107007618				
145.31396484375	0.2	297603	106	26	1	0	0	8	54	stimuli\Videos_short_600ms\59.single_push_with_long_side_pencil_short_short_600ms.mp4	59.single_push_with_long_side_pencil_short_short_600ms.mp4	205.8514524096763	206.4597759730873	0.6083235634109769				
146.1142578125	0.2	299242	107	26	1	0	0	9	17	stimuli\Videos_short_600ms\25.single_touch_with_stanley_knife_short_short_600ms.mp4	25.single_touch_with_stanley_knife_short_short_600ms.mp4	206.6514357534004	207.25975315868095	0.6083174052805589				
146.9140625	0.2	300880	108	26	1	0	0	10	133	stimuli\Videos_short_600ms_horflip\49.repeated_slap_with_hand_short_horflip_short_600ms.mp4	49.repeated_slap_with_hand_short_horflip_short_600ms.mp4	207.45141528494833	208.05974031458072	0.6083250296323968				
147.7138671875	0.2	302518	109	26	1	0	0	11	94	stimuli\Videos_short_600ms_horflip\13.single_touch_with_pen_short_horflip_short_600ms.mp4	13.single_touch_with_pen_short_horflip_short_600ms.mp4	208.25141974226176	208.85971632719725	0.6082965849354878				
148.51416015625	0.2	304157	110	26	1	0	0	12	46	stimuli\Videos_short_600ms\51.repeated_touch_with_hammer_short_short_600ms.mp4	51.repeated_touch_with_hammer_short_short_600ms.mp4	209.05135206147816	209.6596961519897	0.6083440905115367				
149.31396484375	0.2	305795	111	26	1	0	0	13	291	stimuli\Videos_short_600ms_vertflip\29.single_pinch_with_tweezers_short_vertflip_short_600ms.mp4	29.single_pinch_with_tweezers_short_vertflip_short_600ms.mp4	209.85133481871344	210.4596762700264	0.608341451312981				
150.11376953125	0.2	307433	112	26	1	0	0	14	36	stimuli\Videos_short_600ms\42.single_slap_with_plastic_whisk_short_short_600ms.mp4	42.single_slap_with_plastic_whisk_short_short_600ms.mp4	210.65134572740135	211.25966049348312	0.6083147660817758				
150.9140625	0.2	309072	113	26	1	0	0	15	255	stimuli\Videos_short_600ms_horvertflip\78.single_stroke_top_to_bottom_with_soft_brush_short_horvertflip_short_600ms.mp4	78.single_stroke_top_to_bottom_with_soft_brush_short_horvertflip_short_600ms.mp4	211.4513311238352	212.0596256560607	0.6082945322255				
151.7138671875	0.2	310710	114	26	1	0	0	16	269	stimuli\Videos_short_600ms_horvertflip\90.repeated_touch_with_sponge_short_horvertflip_short_600ms.mp4	90.repeated_touch_with_sponge_short_horvertflip_short_600ms.mp4	212.25130654996315	212.8596245417325	0.6083179917693542				
152.513671875	0.2	312348	115	26	1	0	0	17	252	stimuli\Videos_short_600ms_horvertflip\75.(long)stroke_with_fingers_all_over_the_hand_short_horvertflip_short_600ms.mp4	75.(long)stroke_with_fingers_all_over_the_hand_short_horvertflip_short_600ms.mp4	213.05128402880132	213.65960436652497	0.6083203377236259				
153.31396484375	0.2	313987	116	26	1	0	0	18	328	stimuli\Videos_short_600ms_vertflip\62.touch_top_to_bottom_with_scissors_short_vertflip_short_600ms.mp4	62.touch_top_to_bottom_with_scissors_short_vertflip_short_600ms.mp4	213.851268252258	214.45955926555212	0.6082910132940924				
154.11376953125	0.2	315625	117	26	1	0	0	19	302	stimuli\Videos_short_600ms_vertflip\39.single_stab_with_scissors_short_vertflip_short_600ms.mp4	39.single_stab_with_scissors_short_vertflip_short_600ms.mp4	214.65124602434048	215.25956108366677	0.6083150593262872				
154.91357421875	0.2	317263	118	26	1	0	0	20	282	stimuli\Videos_short_600ms_vertflip\20.single_touch_with_screwdriver_short_vertflip_short_600ms.mp4	20.single_touch_with_screwdriver_short_vertflip_short_600ms.mp4	215.4512261423772	216.05955175849817	0.6083256161209647				
155.7138671875	0.2	318902	119	26	1	0	1	21	376	stimuli\Targets_short_600ms_horvertflip\hand-pinch_short_vertflip_short_600ms.mp4	hand-pinch_short_vertflip_short_600ms.mp4	216.25121124556676	216.85953656844345	0.6083253228766807				
156.513671875	0.2	320540	120	26	1	0	0	22	146	stimuli\Videos_short_600ms_horflip\60.single_push_with_tip_of_pencil_short_horflip_short_600ms.mp4	60.single_push_with_tip_of_pencil_short_horflip_short_600ms.mp4	217.05119253658088	217.6595140472816	0.6083215107007618				
157.3134765625	0.2	322178	121	26	1	0	0	23	230	stimuli\Videos_short_600ms_horvertflip\55.touch_top_to_bottom_with_nail_file_short_horvertflip_short_600ms.mp4	55.touch_top_to_bottom_with_nail_file_short_horvertflip_short_600ms.mp4	217.85117382759472	218.45949357882955	0.6083197512348306				
158.11376953125	0.2	323817	122	26	1	0	0	24	86	stimuli\Videos_short_600ms\88.repeated_stroke_with_plastic_brush_short_short_600ms.mp4	88.repeated_stroke_with_plastic_brush_short_short_600ms.mp4	218.6511539456312	219.259473403622	0.608319457990774				
158.91357421875	0.2	325455	123	26	1	0	0	25	92	stimuli\Videos_short_600ms_horflip\11.single_touch_with_lighter_short_horflip_short_600ms.mp4	11.single_touch_with_lighter_short_horflip_short_600ms.mp4	219.4511375825996	220.05945322841444	0.6083156458148551				
159.71337890625	0.2	327093	124	26	1	0	0	26	109	stimuli\Videos_short_600ms_horflip\27.single_push_with_a_plastic_whisk_short_horflip_short_600ms.mp4	27.single_push_with_a_plastic_whisk_short_horflip_short_600ms.mp4	220.25111740739203	220.85943539916116	0.6083179917691268				
160.513671875	0.2	328732	125	26	1	0	0	27	132	stimuli\Videos_short_600ms_horflip\48.single_slap_with_hand_short_horflip_short_600ms.mp4	48.single_slap_with_hand_short_horflip_short_600ms.mp4	221.05110163084873	221.6594169834193	0.6083153525705711				
161.3134765625	0.2	330370	126	26	1	0	0	28	74	stimuli\Videos_short_600ms\77.tapping_with_all_fingers_short_short_600ms.mp4	77.tapping_with_all_fingers_short_short_600ms.mp4	221.8510835083514	222.45939798118889	0.6083144728374918				
162.11376953125	0.2	332009	127	26	1	0	0	29	170	stimuli\Videos_short_600ms_horflip\82.repeated_touch_with_cotton_bud_short_horflip_short_600ms.mp4	82.repeated_touch_with_cotton_bud_short_horflip_short_600ms.mp4	222.6510436857759	223.25937780598133	0.6083341202054271				
162.91357421875	0.2	333647	128	26	1	0	0	30	68	stimuli\Videos_short_600ms\71.single_stroke_with_finger_top_to_bottom_short_short_600ms.mp4	71.single_stroke_with_finger_top_to_bottom_short_short_600ms.mp4	223.45101676594936	224.059361736194	0.608344970244616				
163.71337890625	0.2	335285	129	26	1	0	0	31	236	stimuli\Videos_short_600ms_horvertflip\60.single_push_with_tip_of_pencil_short_horvertflip_short_600ms.mp4	60.single_push_with_tip_of_pencil_short_horvertflip_short_600ms.mp4	224.25100216238343	224.8593415609862	0.6083393986027659				
164.513671875	0.2	336924	130	26	1	0	0	32	337	stimuli\Videos_short_600ms_vertflip\70.(long)stroke_with_finger_all_over_the_hand_short_vertflip_short_600ms.mp4	70.(long)stroke_with_finger_all_over_the_hand_short_vertflip_short_600ms.mp4	225.05096204656363	225.65932578444313	0.608363737879472				
165.3134765625	0.2	338562	131	26	1	0	0	33	152	stimuli\Videos_short_600ms_horflip\66.stroke_top_to_bottom_with_sponge_short_horflip_short_600ms.mp4	66.stroke_top_to_bottom_with_sponge_short_horflip_short_600ms.mp4	225.8509887904436	226.45930590247983	0.6083171120362749				
166.11328125	0.2	340200	132	26	1	0	0	34	148	stimuli\Videos_short_600ms_horflip\62.touch_top_to_bottom_with_scissors_short_horflip_short_600ms.mp4	62.touch_top_to_bottom_with_scissors_short_horflip_short_600ms.mp4	226.65098239771785	227.2592833813178	0.6083009835999746				
166.91357421875	0.2	341839	133	26	1	0	0	35	339	stimuli\Videos_short_600ms_vertflip\72.(short)stroke_with_finger_all_over_the_hand_short_vertflip_short_600ms.mp4	72.(short)stroke_with_finger_all_over_the_hand_short_vertflip_short_600ms.mp4	227.4509554778915	228.05924502496396	0.6082895470724452				
167.71337890625	0.2	343477	134	26	1	0	0	36	214	stimuli\Videos_short_600ms_horvertflip\40.repeated_push_with_finger_short_horvertflip_short_600ms.mp4	40.repeated_push_with_finger_short_horvertflip_short_600ms.mp4	228.25093178375232	228.85925270796452	0.6083209242121939				
168.51318359375	0.2	345115	135	26	1	0	0	37	333	stimuli\Videos_short_600ms_vertflip\67.single_touch_with_sponge_short_vertflip_short_600ms.mp4	67.single_touch_with_sponge_short_vertflip_short_600ms.mp4	229.05094239919572	229.65922637462657	0.6082839754308225				
169.3134765625	0.2	346754	136	26	1	0	0	38	257	stimuli\Videos_short_600ms_horvertflip\8.single_touch_with_hairbrush_short_horvertflip_short_600ms.mp4	8.single_touch_with_hairbrush_short_horvertflip_short_600ms.mp4	229.85089407253577	230.4592076656404	0.60831359310464				
170.11328125	0.2	348392	137	26	1	0	0	39	89	stimuli\Videos_short_600ms\90.repeated_touch_with_sponge_short_short_600ms.mp4	90.repeated_touch_with_sponge_short_short_600ms.mp4	230.6508759500382	231.25919042287592	0.6083144728377192				
170.9130859375	0.2	350030	138	26	1	0	0	40	61	stimuli\Videos_short_600ms\65.stroke_top_to_bottom_with_stanley_knife_short_short_600ms.mp4	65.stroke_top_to_bottom_with_stanley_knife_short_short_600ms.mp4	231.4508548950978	232.0591816841959	0.6083267890981006				
171.71337890625	0.2	351669	139	26	1	0	0	41	45	stimuli\Videos_short_600ms\50.single_(long)hard_push_with_thumb_short_short_600ms.mp4	50.single_(long)hard_push_with_thumb_short_short_600ms.mp4	232.2508388253102	232.85916473467543	0.6083259093652487				
172.51318359375	0.2	353307	140	26	1	0	0	42	204	stimuli\Videos_short_600ms_horvertflip\31.hand_grabbing_wrist_short_horvertflip_short_600ms.mp4	31.hand_grabbing_wrist_short_horvertflip_short_600ms.mp4	233.0508438691122	233.65913722836055	0.6082933592483641				
173.31298828125	0.2	354945	141	26	1	0	0	43	275	stimuli\Videos_short_600ms_vertflip\14.repeated_touch_with_pencil_short_vertflip_short_600ms.mp4	14.repeated_touch_with_pencil_short_vertflip_short_600ms.mp4	233.85080082084937	234.459123211283	0.6083223904336137				
174.11328125	0.2	356584	142	26	1	0	0	44	141	stimuli\Videos_short_600ms_horflip\56.repeated_touch_with_nail_file_short_horflip_short_600ms.mp4	56.repeated_touch_with_nail_file_short_horflip_short_600ms.mp4	234.65077976590896	235.2591018630983	0.6083220971893297				
174.9130859375	0.2	358222	143	26	1	0	0	45	16	stimuli\Videos_short_600ms\24.single_stroke_top_to_bottom_with_a_spoon_short_short_600ms.mp4	24.single_stroke_top_to_bottom_with_a_spoon_short_short_600ms.mp4	235.45076252314425	236.0590822743793	0.608319751235058				
175.712890625	0.2	359860	144	26	1	0	0	46	220	stimuli\Videos_short_600ms_horvertflip\46.scratching_top_to_bottom_with_finger_nails_short_horvertflip_short_600ms.mp4	46.scratching_top_to_bottom_with_finger_nails_short_horvertflip_short_600ms.mp4	236.25074498713525	236.8590650316146	0.608320044479342				
176.51318359375	0.2	361499	145	26	1	0	0	47	103	stimuli\Videos_short_600ms_horflip\21.repeated_touch_with_metal_chopstick_short_horflip_short_600ms.mp4	21.repeated_touch_with_metal_chopstick_short_horflip_short_600ms.mp4	237.05076205395335	237.6590436834299	0.6082816294765507				
177.31298828125	0.2	363137	146	26	1	0	0	48	60	stimuli\Videos_short_600ms\64.repeated_touch_with_screwdriver_short_short_600ms.mp4	64.repeated_touch_with_screwdriver_short_short_600ms.mp4	237.85070844889609	238.4590243879552	0.608315939059139				
178.11279296875	0.2	364775	147	26	1	0	0	49	309	stimuli\Videos_short_600ms_vertflip\45.scratching_with_finger_nails_short_vertflip_short_600ms.mp4	45.scratching_with_finger_nails_short_vertflip_short_600ms.mp4	238.65069149937565	239.25900567896903	0.6083141795934353				
178.9130859375	0.2	366414	148	26	1	0	0	50	318	stimuli\Videos_short_600ms_vertflip\53.touch_top_to_bottom_with_knife_short_vertflip_short_600ms.mp4	53.touch_top_to_bottom_with_knife_short_vertflip_short_600ms.mp4	239.45064346595996	240.0589893159372	0.6083458499772405				
179.712890625	0.2	368052	149	26	1	0	1	51	367	stimuli\Targets_short_600ms_horflip\chopstick-silver-tap_short_horflip_short_600ms.mp4	chopstick-silver-tap_short_horflip_short_600ms.mp4	240.2506250502181	240.85897119343983	0.6083461432217518				
180.5126953125	0.2	369690	150	26	1	0	0	52	52	stimuli\Videos_short_600ms\57.single_touch_with_nail_file_short_short_600ms.mp4	57.single_touch_with_nail_file_short_short_600ms.mp4	241.05065648600657	241.65894925876637	0.6082927727597962				
181.31298828125	0.2	371329	151	26	1	0	0	53	58	stimuli\Videos_short_600ms\62.touch_top_to_bottom_with_scissors_short_short_600ms.mp4	62.touch_top_to_bottom_with_scissors_short_short_600ms.mp4	241.85061549045395	242.4589323092459	0.608316818791991				
182.11279296875	0.2	372967	152	26	1	0	0	54	281	stimuli\Videos_short_600ms_vertflip\2.single_touch_with_finger_short_vertflip_short_600ms.mp4	2.single_touch_with_finger_short_vertflip_short_600ms.mp4	242.6506032328425	243.2589089083513	0.6083056755087455				
182.9130859375	0.2	374606	153	26	1	0	0	55	120	stimuli\Videos_short_600ms_horflip\37.single_stab_with_nail_file_short_horflip_short_600ms.mp4	37.single_stab_with_nail_file_short_horflip_short_600ms.mp4	243.4505836441233	244.0588696722643	0.6082860281410376				
183.712890625	0.2	376244	154	26	1	0	0	56	121	stimuli\Videos_short_600ms_horflip\38.double_slap_with_pencil_short_horflip_short_600ms.mp4	38.double_slap_with_pencil_short_horflip_short_600ms.mp4	244.25055701754127	244.85885067003392	0.6082936524926481				
184.5126953125	0.2	377882	155	26	1	0	1	57	380	stimuli\Targets_short_600ms_vertflip\chopstickwood-tap_short_horvertflip_short_600ms.mp4	chopstickwood-tap_short_horvertflip_short_600ms.mp4	245.05055297077	245.65883372051348	0.6082807497434715				
185.31298828125	0.2	379521	156	26	1	0	0	58	147	stimuli\Videos_short_600ms_horflip\61.single_hit_with_rolling_pin_short_horflip_short_600ms.mp4	61.single_hit_with_rolling_pin_short_horflip_short_600ms.mp4	245.85052135903493	246.4588396440483	0.6083182850134108				
186.11279296875	0.2	381159	157	26	1	0	0	59	128	stimuli\Videos_short_600ms_horflip\44.pushing_top_to_bottom_with_finger_short_horflip_short_600ms.mp4	44.pushing_top_to_bottom_with_finger_short_horflip_short_600ms.mp4	246.65050118382717	247.2588229877722	0.6083218039450458				
186.91259765625	0.2	382797	158	26	1	0	0	60	329	stimuli\Videos_short_600ms_vertflip\63.stroke_top_to_bottom_with_screwdriver_short_vertflip_short_600ms.mp4	63.stroke_top_to_bottom_with_screwdriver_short_vertflip_short_600ms.mp4	247.45048218159673	248.05880897069483	0.6083267890981006				
187.712890625	0.2	384436	159	26	1	0	0	61	208	stimuli\Videos_short_600ms_horvertflip\35.single_punch_with_hand_short_horvertflip_short_600ms.mp4	35.single_punch_with_hand_short_horvertflip_short_600ms.mp4	248.25046259287777	248.8587841035785	0.6083215107007618				
188.5126953125	0.2	386074	160	26	1	0	0	62	69	stimuli\Videos_short_600ms\72.(short)stroke_with_finger_all_over_the_hand_short_short_600ms.mp4	72.(short)stroke_with_finger_all_over_the_hand_short_short_600ms.mp4	249.05044505686897	249.6587744851656	0.6083294282966563				
189.3125	0.2	387712	161	26	1	0	0	63	216	stimuli\Videos_short_600ms_horvertflip\42.single_slap_with_plastic_whisk_short_horvertflip_short_600ms.mp4	42.single_slap_with_plastic_whisk_short_horvertflip_short_600ms.mp4	249.8504245884169	250.45874639236197	0.6083218039450458				
190.11279296875	0.2	389351	162	26	1	0	0	64	23	stimuli\Videos_short_600ms\30.finger_pulling_back_another_finger_short_short_600ms.mp4	30.finger_pulling_back_another_finger_short_short_600ms.mp4	250.65040910511811	251.2587303225746	0.6083212174564778				
190.91259765625	0.2	390989	163	26	1	0	0	65	330	stimuli\Videos_short_600ms_vertflip\64.repeated_touch_with_screwdriver_short_vertflip_short_600ms.mp4	64.repeated_touch_with_screwdriver_short_vertflip_short_600ms.mp4	251.4503918623534	252.0587107338556	0.6083188715022061				
191.71240234375	0.2	392627	164	26	1	0	0	66	129	stimuli\Videos_short_600ms_horflip\45.scratching_with_finger_nails_short_horflip_short_600ms.mp4	45.scratching_with_finger_nails_short_horflip_short_600ms.mp4	252.2503746195889	252.85869055864805	0.608315939059139				
192.5126953125	0.2	394266	165	26	1	0	0	67	295	stimuli\Videos_short_600ms_vertflip\32.single_(long)pinch_with_fingers_short_vertflip_short_600ms.mp4	32.single_(long)pinch_with_fingers_short_vertflip_short_600ms.mp4	253.05035942953415	253.65866950370744	0.6083100741732324				
193.3125	0.2	395904	166	26	1	0	0	68	276	stimuli\Videos_short_600ms_vertflip\15.single_stroke_top_to_bottom_with_a_plastic_whisk_short_vertflip_short_600ms.mp4	15.single_stroke_top_to_bottom_with_a_plastic_whisk_short_vertflip_short_600ms.mp4	253.85032928402052	254.45865519338577	0.6083259093652487				
194.1123046875	0.2	397542	167	26	1	0	0	69	231	stimuli\Videos_short_600ms_horvertflip\56.repeated_touch_with_nail_file_short_horvertflip_short_600ms.mp4	56.repeated_touch_with_nail_file_short_horvertflip_short_600ms.mp4	254.6503123345003	255.2586326722239	0.6083203377236259				
194.91259765625	0.2	399181	168	26	1	0	0	70	12	stimuli\Videos_short_600ms\20.single_touch_with_screwdriver_short_short_600ms.mp4	20.single_touch_with_screwdriver_short_short_600ms.mp4	255.45027837681073	256.0586016469772	0.6083232701664656				
195.71240234375	0.2	400819	169	26	1	0	0	71	260	stimuli\Videos_short_600ms_horvertflip\82.repeated_touch_with_cotton_bud_short_horvertflip_short_600ms.mp4	82.repeated_touch_with_cotton_bud_short_horvertflip_short_600ms.mp4	256.25026201377887	256.8585800055482	0.6083179917693542				
196.51220703125	0.2	402457	170	26	1	0	0	72	124	stimuli\Videos_short_600ms_horflip\40.repeated_push_with_finger_short_horflip_short_600ms.mp4	40.repeated_push_with_finger_short_horflip_short_600ms.mp4	257.05027350895534	257.65856158980637	0.6082880808510254				
197.3125	0.2	404096	171	26	1	0	0	73	209	stimuli\Videos_short_600ms_horvertflip\36.single_slap_with_full_hand_short_horvertflip_short_600ms.mp4	36.single_slap_with_full_hand_short_horvertflip_short_600ms.mp4	257.8502310471813	258.45854464028594	0.60831359310464				
198.1123046875	0.2	405734	172	26	1	0	0	74	240	stimuli\Videos_short_600ms_horvertflip\64.repeated_touch_with_screwdriver_short_horvertflip_short_600ms.mp4	64.repeated_touch_with_screwdriver_short_horvertflip_short_600ms.mp4	258.650213217928	259.2585042312219	0.608291013293865				
198.912109375	0.2	407372	173	26	1	0	0	75	185	stimuli\Videos_short_600ms_horvertflip\14.repeated_touch_with_pencil_short_horvertflip_short_600ms.mp4	14.repeated_touch_with_pencil_short_horvertflip_short_600ms.mp4	259.4501862981017	260.0584869884574	0.6083006903556907				
199.71240234375	0.2	409011	174	26	1	0	0	76	144	stimuli\Videos_short_600ms_horflip\59.single_push_with_long_side_pencil_short_horflip_short_600ms.mp4	59.single_push_with_long_side_pencil_short_horflip_short_600ms.mp4	260.2501881162161	260.8584653470282	0.6082772308120639				
200.51220703125	0.2	410649	175	26	1	0	0	77	153	stimuli\Videos_short_600ms_horflip\67.single_touch_with_sponge_short_horflip_short_600ms.mp4	67.single_touch_with_sponge_short_horflip_short_600ms.mp4	261.05014770715206	261.6584724435402	0.6083247363881128				
201.3125	0.2	412288	176	26	1	0	0	78	25	stimuli\Videos_short_600ms\32.single_(long)pinch_with_fingers_short_short_600ms.mp4	32.single_(long)pinch_with_fingers_short_short_600ms.mp4	261.8501301711433	262.45847807383075	0.6083479026874556				
202.1123046875	0.2	413926	177	26	1	0	1	79	379	stimuli\Targets_short_600ms_vertflip\chopstick-silver-tap_short_horvertflip_short_600ms.mp4	chopstick-silver-tap_short_horvertflip_short_600ms.mp4	262.65011175540144	263.2584309201477	0.6083191647462627				
202.912109375	0.2	415564	178	26	1	0	0	80	346	stimuli\Videos_short_600ms_vertflip\79.long_with_soft_brush_all_over_the_hand_short_vertflip_short_600ms.mp4	79.long_with_soft_brush_all_over_the_hand_short_vertflip_short_600ms.mp4	263.450092753171	264.05841279765036	0.608320044479342				
203.71240234375	0.2	417203	179	26	1	0	0	81	126	stimuli\Videos_short_600ms_horflip\42.single_slap_with_plastic_whisk_short_horflip_short_600ms.mp4	42.single_slap_with_plastic_whisk_short_horflip_short_600ms.mp4	264.25007463067345	264.85841168332195	0.6083370526484941				
204.51220703125	0.2	418841	180	26	1	0	0	82	106	stimuli\Videos_short_600ms_horflip\24.single_stroke_top_to_bottom_with_a_spoon_short_horflip_short_600ms.mp4	24.single_stroke_top_to_bottom_with_a_spoon_short_horflip_short_600ms.mp4	265.05006735821485	265.65834781471426	0.6082804564994149				
205.31201171875	0.2	420479	181	26	1	0	0	83	253	stimuli\Videos_short_600ms_horvertflip\76.tickle_with_fingers_from_top_to_bottom_short_horvertflip_short_600ms.mp4	76.tickle_with_fingers_from_top_to_bottom_short_horvertflip_short_600ms.mp4	265.85033661512807	266.4583578436691	0.6080212285410198				
206.1123046875	0.2	422118	182	26	1	0	0	84	343	stimuli\Videos_short_600ms_vertflip\76.tickle_with_fingers_from_top_to_bottom_short_vertflip_short_600ms.mp4	76.tickle_with_fingers_from_top_to_bottom_short_vertflip_short_600ms.mp4	266.65001410505056	267.2583364954844	0.6083223904338411				
206.912109375	0.2	423756	183	26	1	0	0	85	322	stimuli\Videos_short_600ms_vertflip\57.single_touch_with_nail_file_short_vertflip_short_600ms.mp4	57.single_touch_with_nail_file_short_vertflip_short_600ms.mp4	267.45000507312625	268.05831778649826	0.6083127133720154				
207.7119140625	0.2	425394	184	26	1	0	0	86	235	stimuli\Videos_short_600ms_horvertflip\6.single_touch_with_flat_hand_short_horvertflip_short_600ms.mp4	6.single_touch_with_flat_hand_short_horvertflip_short_600ms.mp4	268.25023855423524	268.858299957245	0.6080614030097422				
208.51220703125	0.2	427033	185	26	1	0	0	87	313	stimuli\Videos_short_600ms_vertflip\49.repeated_slap_with_hand_short_vertflip_short_600ms.mp4	49.repeated_slap_with_hand_short_vertflip_short_600ms.mp4	269.05006530550486	269.6582457656989	0.6081804601940348				
209.31201171875	0.2	428671	186	26	1	0	0	88	76	stimuli\Videos_short_600ms\79.long_with_soft_brush_all_over_the_hand_short_short_600ms.mp4	79.long_with_soft_brush_all_over_the_hand_short_short_600ms.mp4	269.8499161028067	270.4582792541976	0.608363151390904				
210.11181640625	0.2	430309	187	26	1	0	0	89	179	stimuli\Videos_short_600ms_horflip\90.repeated_touch_with_sponge_short_horflip_short_600ms.mp4	90.repeated_touch_with_sponge_short_horflip_short_600ms.mp4	270.6500014955459	271.25818400845014	0.60818251290425				
210.912109375	0.2	431948	188	26	1	0	0	90	194	stimuli\Videos_short_600ms_horvertflip\22.single_touch_with_metal_chopstick_short_horvertflip_short_600ms.mp4	22.single_touch_with_metal_chopstick_short_horvertflip_short_600ms.mp4	271.4498543455579	272.0581834806103	0.6083291350523723				
211.7119140625	0.2	433586	189	26	1	0	0	91	131	stimuli\Videos_short_600ms_horflip\47.(long)scratching_with_finger_nails_short_horflip_short_600ms.mp4	47.(long)scratching_with_finger_nails_short_horflip_short_600ms.mp4	272.24986114882563	272.85818529872495	0.6083241498993175				
212.51171875	0.2	435224	190	26	1	0	0	92	297	stimuli\Videos_short_600ms_vertflip\34.repeated_punch_with_hand_short_vertflip_short_600ms.mp4	34.repeated_punch_with_hand_short_vertflip_short_600ms.mp4	273.0498095964783	273.6581765600449	0.6083669635665956				
213.31201171875	0.2	436863	191	26	1	0	0	93	279	stimuli\Videos_short_600ms_vertflip\18.single_stroke_from_top_to_bottom_with_rolling_pin_short_vertflip_short_600ms.mp4	18.single_stroke_from_top_to_bottom_with_rolling_pin_short_vertflip_short_600ms.mp4	273.8498310619607	274.4581472942641	0.608316232303423				
214.11181640625	0.2	438501	192	26	1	0	0	94	314	stimuli\Videos_short_600ms_vertflip\5.repeated_tap_with_finger_moving_from_top_to_bottom_short_vertflip_short_600ms.mp4	5.repeated_tap_with_finger_moving_from_top_to_bottom_short_vertflip_short_600ms.mp4	274.6498501814888	275.2583499847219	0.6084998032331441	5.0	5.0	2.791406827783021	1.0
248.84423828125	0.2	509633	193	26	2	0	1	0	369	stimuli\Targets_short_600ms_horflip\finger-tap_short_horflip_short_600ms.mp4	finger-tap_short_horflip_short_600ms.mp4	309.3823647571967	309.990684801676	0.608320044479342				
249.64404296875	0.2	511271	194	26	2	0	0	1	31	stimuli\Videos_short_600ms\38.double_slap_with_pencil_short_short_600ms.mp4	38.double_slap_with_pencil_short_short_600ms.mp4	310.18237068073154	310.79064233990175	0.6082716591702138				
250.44384765625	0.2	512909	195	26	2	0	0	2	162	stimuli\Videos_short_600ms_horflip\75.(long)stroke_with_fingers_all_over_the_hand_short_horflip_short_600ms.mp4	75.(long)stroke_with_fingers_all_over_the_hand_short_horflip_short_600ms.mp4	310.98232997842297	311.59062099171706	0.6082910132940924				
251.244140625	0.2	514548	196	26	2	0	0	3	55	stimuli\Videos_short_600ms\6.single_touch_with_flat_hand_short_short_600ms.mp4	6.single_touch_with_flat_hand_short_short_600ms.mp4	311.7823086302383	312.39062134361006	0.608312713371788				
252.0439453125	0.2	516186	197	26	2	0	1	4	368	stimuli\Targets_short_600ms_horflip\chopstickwood-tap_short_horflip_short_600ms.mp4	chopstickwood-tap_short_horflip_short_600ms.mp4	312.58228962800786	313.19058855889784	0.6082989308899869				
252.84375	0.2	517824	198	26	2	0	0	5	56	stimuli\Videos_short_600ms\60.single_push_with_tip_of_pencil_short_short_600ms.mp4	60.single_push_with_tip_of_pencil_short_short_600ms.mp4	313.3822715055103	313.990594775677	0.608323270166693				
253.64404296875	0.2	519463	199	26	2	0	0	6	6	stimuli\Videos_short_600ms\15.single_stroke_top_to_bottom_with_a_plastic_whisk_short_short_600ms.mp4	15.single_stroke_top_to_bottom_with_a_plastic_whisk_short_short_600ms.mp4	314.18224957083703	314.79057753291227	0.6083279620752364				
254.44384765625	0.2	521101	200	26	2	0	0	7	97	stimuli\Videos_short_600ms_horflip\16.repeated_touch_with_plastic_brush_short_horflip_short_600ms.mp4	16.repeated_touch_with_plastic_brush_short_horflip_short_600ms.mp4	314.9822326213166	315.5905538387731	0.6083212174564778				
255.24365234375	0.2	522739	201	26	2	0	0	8	13	stimuli\Videos_short_600ms\21.repeated_touch_with_metal_chopstick_short_short_600ms.mp4	21.repeated_touch_with_metal_chopstick_short_short_600ms.mp4	315.7822153785519	316.3905357162755	0.6083203377236259				
256.0439453125	0.2	524378	202	26	2	0	1	9	372	stimuli\Targets_short_600ms_horvertflip\brush-stroke_short_vertflip_short_600ms.mp4	brush-stroke_short_vertflip_short_600ms.mp4	316.58219461685576	317.1905131951137	0.6083185782579221				
256.84375	0.2	526016	203	26	2	0	0	10	137	stimuli\Videos_short_600ms_horflip\52.touch_top_to_bottom_with_hammer_short_horflip_short_600ms.mp4	52.touch_top_to_bottom_with_hammer_short_horflip_short_600ms.mp4	317.3821762011139	317.990493899639	0.6083176985250702				
257.6435546875	0.2	527654	204	26	2	0	0	11	205	stimuli\Videos_short_600ms_horvertflip\32.single_(long)pinch_with_fingers_short_horvertflip_short_600ms.mp4	32.single_(long)pinch_with_fingers_short_horvertflip_short_600ms.mp4	318.18215573266207	318.7904731379426	0.6083174052805589				
258.44384765625	0.2	529293	205	26	2	0	0	12	278	stimuli\Videos_short_600ms_vertflip\17.repeated_touch_with_rolling_pin_short_vertflip_short_600ms.mp4	17.repeated_touch_with_rolling_pin_short_vertflip_short_600ms.mp4	318.9821390763859	319.5904564816667	0.6083174052807863				
259.24365234375	0.2	530931	206	26	2	0	0	13	63	stimuli\Videos_short_600ms\67.single_touch_with_sponge_short_short_600ms.mp4	67.single_touch_with_sponge_short_short_600ms.mp4	319.7821200741555	320.3904389456577	0.6083188715022061				
260.0439453125	0.2	532570	207	26	2	0	0	14	71	stimuli\Videos_short_600ms\74.fingers_walking_from_top_to_bottom_short_short_600ms.mp4	74.fingers_walking_from_top_to_bottom_short_short_600ms.mp4	320.5821004854365	321.19041877045015	0.6083182850136382				
260.84375	0.2	534208	208	26	2	0	0	15	161	stimuli\Videos_short_600ms_horflip\74.fingers_walking_from_top_to_bottom_short_horflip_short_600ms.mp4	74.fingers_walking_from_top_to_bottom_short_horflip_short_600ms.mp4	321.3820779642747	321.99040299390686	0.6083250296321694				
261.6435546875	0.2	535846	209	26	2	0	0	16	348	stimuli\Videos_short_600ms_vertflip\80.stroke_with_sharp_stick_all_over_the_hand_short_vertflip_short_600ms.mp4	80.stroke_with_sharp_stick_all_over_the_hand_short_vertflip_short_600ms.mp4	322.1820399011649	322.7903663970187	0.6083264958538166				
262.44384765625	0.2	537485	210	26	2	0	1	17	370	stimuli\Targets_short_600ms_horflip\hand-pinch_short_horflip_short_600ms.mp4	hand-pinch_short_horflip_short_600ms.mp4	322.9820208989345	323.5903602975375	0.6083393986029932				
263.24365234375	0.2	539123	211	26	2	0	0	18	202	stimuli\Videos_short_600ms_horvertflip\3.single_push_with_finger_short_horvertflip_short_600ms.mp4	3.single_push_with_finger_short_horvertflip_short_600ms.mp4	323.78202682246933	324.3903398290854	0.608313006616072				
264.04345703125	0.2	540761	212	26	2	0	0	19	18	stimuli\Videos_short_600ms\26.single_touch_with_a_blunt_syringe_short_short_600ms.mp4	26.single_touch_with_a_blunt_syringe_short_short_600ms.mp4	324.5820298135611	325.19030528490725	0.6082754713461327				
264.84375	0.2	542400	213	26	2	0	0	20	200	stimuli\Videos_short_600ms_horvertflip\28.single_injection_with_sharp_needle_short_horvertflip_short_600ms.mp4	28.single_injection_with_sharp_needle_short_horvertflip_short_600ms.mp4	325.3819908707185	325.99028833538705	0.608297464668567				
265.6435546875	0.2	544038	214	26	2	0	0	21	84	stimuli\Videos_short_600ms\86.touch_top_to_bottom_with_hair_brush_short_short_600ms.mp4	86.touch_top_to_bottom_with_hair_brush_short_short_600ms.mp4	326.1819692292895	326.79028282239415	0.60831359310464				
266.443359375	0.2	545676	215	26	2	0	0	22	288	stimuli\Videos_short_600ms_vertflip\26.single_touch_with_a_blunt_syringe_short_vertflip_short_600ms.mp4	26.single_touch_with_a_blunt_syringe_short_vertflip_short_600ms.mp4	326.98223350104945	327.5902424133301	0.6080089122806385				
267.24365234375	0.2	547315	216	26	2	0	0	23	116	stimuli\Videos_short_600ms_horflip\33.scratch_top_to_bottom_with_scissors_short_horflip_short_600ms.mp4	33.scratch_top_to_bottom_with_scissors_short_horflip_short_600ms.mp4	327.7819282923856	328.39022458407703	0.6082962916914312				
268.04345703125	0.2	548953	217	26	2	0	0	24	20	stimuli\Videos_short_600ms\28.single_injection_with_sharp_needle_short_short_600ms.mp4	28.single_injection_with_sharp_needle_short_short_600ms.mp4	328.58191046313254	329.19023050761166	0.6083200444791146				
268.84326171875	0.2	550591	218	26	2	0	0	25	301	stimuli\Videos_short_600ms_vertflip\38.double_slap_with_pencil_short_vertflip_short_600ms.mp4	38.double_slap_with_pencil_short_vertflip_short_600ms.mp4	329.3818914609021	329.99021531755716	0.6083238566550335				
269.6435546875	0.2	552230	219	26	2	0	0	26	312	stimuli\Videos_short_600ms_vertflip\48.single_slap_with_hand_short_vertflip_short_600ms.mp4	48.single_slap_with_hand_short_vertflip_short_600ms.mp4	330.1818721654274	330.7902013004798	0.6083291350523723				
270.443359375	0.2	553868	220	26	2	0	0	27	345	stimuli\Videos_short_600ms_vertflip\78.single_stroke_top_to_bottom_with_soft_brush_short_vertflip_short_600ms.mp4	78.single_stroke_top_to_bottom_with_soft_brush_short_vertflip_short_600ms.mp4	330.9818546294184	331.5901761401192	0.6083215107007618				
271.2431640625	0.2	555506	221	26	2	0	0	28	8	stimuli\Videos_short_600ms\17.repeated_touch_with_rolling_pin_short_short_600ms.mp4	17.repeated_touch_with_rolling_pin_short_short_600ms.mp4	331.7818391461194	332.39015303246856	0.6083138863491513				
272.04345703125	0.2	557145	222	26	2	0	0	29	182	stimuli\Videos_short_600ms_horvertflip\11.single_touch_with_lighter_short_horvertflip_short_600ms.mp4	11.single_touch_with_lighter_short_horvertflip_short_600ms.mp4	332.5818198506447	333.19013784241406	0.6083179917693542				
272.84326171875	0.2	558783	223	26	2	0	0	30	233	stimuli\Videos_short_600ms_horvertflip\58.single_slap_with_pencil_short_horvertflip_short_600ms.mp4	58.single_slap_with_pencil_short_horvertflip_short_600ms.mp4	333.3817990889486	333.99011473476344	0.6083156458148551				
273.64306640625	0.2	560421	224	26	2	0	0	31	105	stimuli\Videos_short_600ms_horflip\23.single_push_with_a_spoon_short_horflip_short_600ms.mp4	23.single_push_with_a_spoon_short_horflip_short_600ms.mp4	334.1817780340082	334.7900974919987	0.6083194579905467				
274.443359375	0.2	562060	225	26	2	0	0	32	70	stimuli\Videos_short_600ms\73.single_stroke_with_flat_hand_short_short_600ms.mp4	73.single_stroke_with_flat_hand_short_short_600ms.mp4	334.9817616709763	335.5900784897683	0.608316818791991				
275.2431640625	0.2	563698	226	26	2	0	0	33	43	stimuli\Videos_short_600ms\49.repeated_slap_with_hand_short_short_600ms.mp4	49.repeated_slap_with_hand_short_short_600ms.mp4	335.78171686324777	336.3900600740267	0.6083432107789122				
276.04296875	0.2	565336	227	26	2	0	0	34	287	stimuli\Videos_short_600ms_vertflip\25.single_touch_with_stanley_knife_short_vertflip_short_600ms.mp4	25.single_touch_with_stanley_knife_short_vertflip_short_600ms.mp4	336.5817010867047	337.1900425380177	0.608341451312981				
276.84326171875	0.2	566975	228	26	2	0	0	35	15	stimuli\Videos_short_600ms\23.single_push_with_a_spoon_short_short_600ms.mp4	23.single_push_with_a_spoon_short_short_600ms.mp4	337.38170114535365	337.9900226560544	0.6083215107007618				
277.64306640625	0.2	568613	229	26	2	0	0	36	85	stimuli\Videos_short_600ms\87.single_stroke_top_to_bottom_with_plastic_brush_short_short_600ms.mp4	87.single_stroke_top_to_bottom_with_plastic_brush_short_short_600ms.mp4	338.1816624957553	338.7900074659997	0.6083449702443886				
278.443359375	0.2	570252	230	26	2	0	0	37	300	stimuli\Videos_short_600ms_vertflip\37.single_stab_with_nail_file_short_vertflip_short_600ms.mp4	37.single_stab_with_nail_file_short_vertflip_short_600ms.mp4	338.98166871253443	339.58998054617336	0.6083118336389362				
279.2431640625	0.2	571890	231	26	2	0	0	38	336	stimuli\Videos_short_600ms_vertflip\7.repeated_touch_with_hairbrush_short_vertflip_short_600ms.mp4	7.repeated_touch_with_hairbrush_short_vertflip_short_600ms.mp4	339.78165234950256	340.38995128039255	0.6082989308899869				
280.04296875	0.2	573528	232	26	2	0	0	39	34	stimuli\Videos_short_600ms\40.repeated_push_with_finger_short_short_600ms.mp4	40.repeated_push_with_finger_short_short_600ms.mp4	340.5816380391809	341.18994606064416	0.6083080214632446				
280.84326171875	0.2	575167	233	26	2	0	0	40	117	stimuli\Videos_short_600ms_horflip\34.repeated_punch_with_hand_short_horflip_short_600ms.mp4	34.repeated_punch_with_hand_short_horflip_short_600ms.mp4	341.3816090666444	341.98990389211417	0.608294825469784				
281.64306640625	0.2	576805	234	26	2	0	0	41	266	stimuli\Videos_short_600ms_horvertflip\88.repeated_stroke_with_plastic_brush_short_horvertflip_short_600ms.mp4	88.repeated_stroke_with_plastic_brush_short_horvertflip_short_600ms.mp4	342.18159035765825	342.7898942737013	0.6083039160430417				
282.44287109375	0.2	578443	235	26	2	0	0	42	241	stimuli\Videos_short_600ms_horvertflip\65.stroke_top_to_bottom_with_stanley_knife_short_horvertflip_short_600ms.mp4	65.stroke_top_to_bottom_with_stanley_knife_short_horvertflip_short_600ms.mp4	342.9815728216495	343.5898867079984	0.6083138863489239				
283.2431640625	0.2	580082	236	26	2	0	0	43	262	stimuli\Videos_short_600ms_horvertflip\84.single_touch_with_cotton_bud_short_horvertflip_short_600ms.mp4	84.single_touch_with_cotton_bud_short_horvertflip_short_600ms.mp4	343.78155147346456	344.38987679634124	0.6083253228766807				
284.04296875	0.2	581720	237	26	2	0	0	44	274	stimuli\Videos_short_600ms_vertflip\13.single_touch_with_pen_short_vertflip_short_600ms.mp4	13.single_touch_with_pen_short_vertflip_short_600ms.mp4	344.581533350967	345.1898536886906	0.6083203377236259				
284.8427734375	0.2	583358	238	26	2	0	0	45	280	stimuli\Videos_short_600ms_vertflip\19.single_touch_with_rolling_pin_short_vertflip_short_600ms.mp4	19.single_touch_with_rolling_pin_short_vertflip_short_600ms.mp4	345.38151552171394	345.9898346864602	0.6083191647462627				
285.64306640625	0.2	584997	239	26	2	0	0	46	189	stimuli\Videos_short_600ms_horvertflip\18.single_stroke_from_top_to_bottom_with_rolling_pin_short_horvertflip_short_600ms.mp4	18.single_stroke_from_top_to_bottom_with_rolling_pin_short_horvertflip_short_600ms.mp4	346.18149769246065	346.7898171504514	0.608319457990774				
286.44287109375	0.2	586635	240	26	2	0	0	47	226	stimuli\Videos_short_600ms_horvertflip\51.repeated_touch_with_hammer_short_horvertflip_short_600ms.mp4	51.repeated_touch_with_hammer_short_horvertflip_short_600ms.mp4	346.98159100279577	347.5898075320383	0.6082165292425543				
287.24267578125	0.2	588273	241	26	2	0	0	48	307	stimuli\Videos_short_600ms_vertflip\43.touch_top_to_bottom_with_sharp_wooden_stick_short_vertflip_short_600ms.mp4	43.touch_top_to_bottom_with_sharp_wooden_stick_short_vertflip_short_600ms.mp4	347.7814558758239	348.389780612212	0.6083247363881128				
288.04296875	0.2	589912	242	26	2	0	0	49	219	stimuli\Videos_short_600ms_horvertflip\45.scratching_with_finger_nails_short_horvertflip_short_600ms.mp4	45.scratching_with_finger_nails_short_horvertflip_short_600ms.mp4	348.5818893495432	349.18975838429424	0.6078690347510474				
288.8427734375	0.2	591550	243	26	2	0	0	50	1	stimuli\Videos_short_600ms\10.single_touch_with_knife_short_short_600ms.mp4	10.single_touch_with_knife_short_short_600ms.mp4	349.38139177262065	349.98973732935383	0.6083455567331839				
289.642578125	0.2	593188	244	26	2	0	0	51	197	stimuli\Videos_short_600ms_horvertflip\25.single_touch_with_stanley_knife_short_horvertflip_short_600ms.mp4	25.single_touch_with_stanley_knife_short_horvertflip_short_600ms.mp4	350.18139652317836	350.78972155281076	0.6083250296323968				
290.44287109375	0.2	594827	245	26	2	0	0	52	44	stimuli\Videos_short_600ms\5.repeated_tap_with_finger_moving_from_top_to_bottom_short_short_600ms.mp4	5.repeated_tap_with_finger_moving_from_top_to_bottom_short_short_600ms.mp4	350.9813643249545	351.58970225733583	0.608337932381346				
291.24267578125	0.2	596465	246	26	2	0	0	53	0	stimuli\Videos_short_600ms\1.repeated_touch_with_finger_fast_short_short_600ms.mp4	1.repeated_touch_with_finger_fast_short_short_600ms.mp4	351.7813664363134	352.38968266861684	0.608316232303423				
292.04248046875	0.2	598103	247	26	2	0	0	54	10	stimuli\Videos_short_600ms\19.single_touch_with_rolling_pin_short_short_600ms.mp4	19.single_touch_with_rolling_pin_short_short_600ms.mp4	352.581329546181	353.18966337314214	0.6083338269611431				
292.8427734375	0.2	599742	248	26	2	0	0	55	271	stimuli\Videos_short_600ms_vertflip\10.single_touch_with_knife_short_vertflip_short_600ms.mp4	10.single_touch_with_knife_short_vertflip_short_600ms.mp4	353.3813219804781	353.98964378442315	0.6083218039450458				
293.642578125	0.2	601380	249	26	2	0	0	56	90	stimuli\Videos_short_600ms_horflip\1.repeated_touch_with_finger_fast_short_horflip_short_600ms.mp4	1.repeated_touch_with_finger_fast_short_horflip_short_600ms.mp4	354.18130356473625	354.789623022727	0.608319457990774				
294.4423828125	0.2	603018	250	26	2	0	0	57	353	stimuli\Videos_short_600ms_vertflip\85.touch_top_to_bottom_with_fabric_short_vertflip_short_600ms.mp4	85.touch_top_to_bottom_with_fabric_short_vertflip_short_600ms.mp4	354.9812898409032	355.5896046069852	0.6083147660820032				
295.24267578125	0.2	604657	251	26	2	0	0	58	188	stimuli\Videos_short_600ms_horvertflip\17.repeated_touch_with_rolling_pin_short_horvertflip_short_600ms.mp4	17.repeated_touch_with_rolling_pin_short_horvertflip_short_600ms.mp4	355.78128901981927	356.389570062807	0.6082810429877554				
296.04248046875	0.2	606295	252	26	2	0	0	59	321	stimuli\Videos_short_600ms_vertflip\56.repeated_touch_with_nail_file_short_vertflip_short_600ms.mp4	56.repeated_touch_with_nail_file_short_vertflip_short_600ms.mp4	356.58125007697663	357.1895449024464	0.608294825469784				
296.84228515625	0.2	607933	253	26	2	0	0	60	211	stimuli\Videos_short_600ms_horvertflip\38.double_slap_with_pencil_short_horvertflip_short_600ms.mp4	38.double_slap_with_pencil_short_horvertflip_short_600ms.mp4	357.3812299017691	357.9895464273168	0.608316525547707				
297.642578125	0.2	609572	254	26	2	0	0	61	38	stimuli\Videos_short_600ms\44.pushing_top_to_bottom_with_finger_short_short_600ms.mp4	44.pushing_top_to_bottom_with_finger_short_short_600ms.mp4	358.1812138319815	358.7895060182527	0.6082921862712283				
298.4423828125	0.2	611210	255	26	2	0	0	62	195	stimuli\Videos_short_600ms_horvertflip\23.single_push_with_a_spoon_short_horvertflip_short_600ms.mp4	23.single_push_with_a_spoon_short_horvertflip_short_600ms.mp4	358.9811927770411	359.5895131147647	0.6083203377236259				
299.24267578125	0.2	612849	256	26	2	0	0	63	201	stimuli\Videos_short_600ms_horvertflip\29.single_pinch_with_tweezers_short_horvertflip_short_600ms.mp4	29.single_pinch_with_tweezers_short_horvertflip_short_600ms.mp4	359.7811752410321	360.38949704497713	0.6083218039450458				
300.05078125	0.2	614504	257	26	2	0	0	64	155	stimuli\Videos_short_600ms_horflip\69.stroke_with_soft_sock_short_horflip_short_600ms.mp4	69.stroke_with_soft_sock_short_horflip_short_600ms.mp4	360.5894893619766	361.1977815482478	0.6082921862712283				
300.8505859375	0.2	616142	258	26	2	0	0	65	130	stimuli\Videos_short_600ms_horflip\46.scratching_top_to_bottom_with_finger_nails_short_horflip_short_600ms.mp4	46.scratching_top_to_bottom_with_finger_nails_short_horflip_short_600ms.mp4	361.3894794503194	361.99776929063614	0.6082898403167292				
301.65087890625	0.2	617781	259	26	2	0	0	66	78	stimuli\Videos_short_600ms\80.stroke_with_sharp_stick_all_over_the_hand_short_short_600ms.mp4	80.stroke_with_sharp_stick_all_over_the_hand_short_short_600ms.mp4	362.18947159137224	362.7977450100084	0.6082734186361449				
302.45068359375	0.2	619419	260	26	2	0	0	67	158	stimuli\Videos_short_600ms_horflip\71.single_stroke_with_finger_top_to_bottom_short_horflip_short_600ms.mp4	71.single_stroke_with_finger_top_to_bottom_short_horflip_short_600ms.mp4	362.9894446715459	363.5977257145337	0.6082810429877554				
303.25048828125	0.2	621057	261	26	2	0	0	68	273	stimuli\Videos_short_600ms_vertflip\12.repeated_touch_with_nail_file_short_vertflip_short_600ms.mp4	12.repeated_touch_with_nail_file_short_vertflip_short_600ms.mp4	363.78941393954346	364.39772694615976	0.6083130066162994				
304.05078125	0.2	622696	262	26	2	0	0	69	35	stimuli\Videos_short_600ms\41.injection_with_blunt_syringe_short_short_600ms.mp4	41.injection_with_blunt_syringe_short_short_600ms.mp4	364.5893937643359	365.19771556828096	0.6083218039450458				
304.8505859375	0.2	624334	263	26	2	0	0	70	47	stimuli\Videos_short_600ms\52.touch_top_to_bottom_with_hammer_short_short_600ms.mp4	52.touch_top_to_bottom_with_hammer_short_short_600ms.mp4	365.38937388237264	365.9976956863177	0.6083218039450458				
305.650390625	0.2	625972	264	26	2	0	0	71	4	stimuli\Videos_short_600ms\13.single_touch_with_pen_short_short_600ms.mp4	13.single_touch_with_pen_short_short_600ms.mp4	366.1893542936537	366.79768548141624	0.6083311877625874				
306.45068359375	0.2	627611	265	26	2	0	0	72	95	stimuli\Videos_short_600ms_horflip\14.repeated_touch_with_pencil_short_horflip_short_600ms.mp4	14.repeated_touch_with_pencil_short_horflip_short_600ms.mp4	366.98934086306485	367.59766765216295	0.6083267890981006				
307.25048828125	0.2	629249	266	26	2	0	0	73	315	stimuli\Videos_short_600ms_vertflip\50.single_(long)hard_push_with_thumb_short_vertflip_short_600ms.mp4	50.single_(long)hard_push_with_thumb_short_vertflip_short_600ms.mp4	367.7893189283916	368.397637213405	0.6083182850134108				
308.05029296875	0.2	630887	267	26	2	0	0	74	154	stimuli\Videos_short_600ms_horflip\68.stroke_top_to_bottom_with_shawl_short_horflip_short_600ms.mp4	68.stroke_top_to_bottom_with_shawl_short_horflip_short_600ms.mp4	368.5892972869624	369.1976182111746	0.6083209242121939				
308.8505859375	0.2	632526	268	26	2	0	0	75	102	stimuli\Videos_short_600ms_horflip\20.single_touch_with_screwdriver_short_horflip_short_600ms.mp4	20.single_touch_with_screwdriver_short_horflip_short_600ms.mp4	369.38991491809975	369.9976009684098	0.6076860503101216				
309.650390625	0.2	634164	269	26	2	0	0	76	83	stimuli\Videos_short_600ms\85.touch_top_to_bottom_with_fabric_short_short_600ms.mp4	85.touch_top_to_bottom_with_fabric_short_short_600ms.mp4	370.1892337702477	370.7975796202252	0.6083458499774679				
310.4501953125	0.2	635802	270	26	2	0	1	77	374	stimuli\Targets_short_600ms_horvertflip\chopstickwood-tap_short_vertflip_short_600ms.mp4	chopstickwood-tap_short_vertflip_short_600ms.mp4	370.9892467316456	371.5975612044833	0.6083144728377192				
311.25048828125	0.2	637441	271	26	2	0	0	78	49	stimuli\Videos_short_600ms\54.repeated_touch_with_knife_short_short_600ms.mp4	54.repeated_touch_with_knife_short_short_600ms.mp4	371.7892069090701	372.3975401495429	0.6083332404728026				
312.05029296875	0.2	639079	272	26	2	0	0	79	145	stimuli\Videos_short_600ms_horflip\6.single_touch_with_flat_hand_short_horflip_short_600ms.mp4	6.single_touch_with_flat_hand_short_horflip_short_600ms.mp4	372.5892055014976	373.19752173380107	0.608316232303423				
312.85009765625	0.2	640717	273	26	2	0	0	80	39	stimuli\Videos_short_600ms\45.scratching_with_finger_nails_short_short_600ms.mp4	45.scratching_with_finger_nails_short_short_600ms.mp4	373.3896471860571	373.9975074234794	0.607860237422301				
313.650390625	0.2	642356	274	26	2	0	0	81	160	stimuli\Videos_short_600ms_horflip\73.single_stroke_with_flat_hand_short_horflip_short_600ms.mp4	73.single_stroke_with_flat_hand_short_horflip_short_600ms.mp4	374.1891393455842	374.79748490231736	0.6083455567331839				
314.4501953125	0.2	643994	275	26	2	0	0	82	66	stimuli\Videos_short_600ms\7.repeated_touch_with_hairbrush_short_short_600ms.mp4	7.repeated_touch_with_hairbrush_short_short_600ms.mp4	374.98915553266943	375.5974644338655	0.6083089011960965				
315.25048828125	0.2	645633	276	26	2	0	0	83	227	stimuli\Videos_short_600ms_horvertflip\52.touch_top_to_bottom_with_hammer_short_horvertflip_short_600ms.mp4	52.touch_top_to_bottom_with_hammer_short_horvertflip_short_600ms.mp4	375.7891277331101	376.3974272504886	0.6082995173785548				
316.05029296875	0.2	647271	277	26	2	0	0	84	27	stimuli\Videos_short_600ms\34.repeated_punch_with_hand_short_short_600ms.mp4	34.repeated_punch_with_hand_short_short_600ms.mp4	376.5891157687429	377.19740267661655	0.6082869078736621				
316.85009765625	0.2	648909	278	26	2	0	0	85	180	stimuli\Videos_short_600ms_horvertflip\1.repeated_touch_with_finger_fast_short_horvertflip_short_600ms.mp4	1.repeated_touch_with_finger_fast_short_horvertflip_short_600ms.mp4	377.389092367848	377.9973836743861	0.608291306538149				
317.650390625	0.2	650548	279	26	2	0	0	86	212	stimuli\Videos_short_600ms_horvertflip\39.single_stab_with_scissors_short_horvertflip_short_600ms.mp4	39.single_stab_with_scissors_short_horvertflip_short_600ms.mp4	378.1890695534416	378.79736613837736	0.6082965849357151				
318.4501953125	0.2	652186	280	26	2	0	0	87	270	stimuli\Videos_short_600ms_vertflip\1.repeated_touch_with_finger_fast_short_vertflip_short_600ms.mp4	1.repeated_touch_with_finger_fast_short_vertflip_short_600ms.mp4	378.9890514309441	379.5973782200424	0.6083267890983279				
319.25	0.2	653824	281	26	2	0	0	88	164	stimuli\Videos_short_600ms_horflip\77.tapping_with_all_fingers_short_horflip_short_600ms.mp4	77.tapping_with_all_fingers_short_horflip_short_600ms.mp4	379.7890338949353	380.3973630299877	0.6083291350523723				
320.05029296875	0.2	655463	282	26	2	0	0	89	354	stimuli\Videos_short_600ms_vertflip\86.touch_top_to_bottom_with_hair_brush_short_vertflip_short_600ms.mp4	86.touch_top_to_bottom_with_hair_brush_short_vertflip_short_600ms.mp4	380.58901694541487	381.1973410953144	0.6083241498995449				
320.85009765625	0.2	657101	283	26	2	0	0	90	296	stimuli\Videos_short_600ms_vertflip\33.scratch_top_to_bottom_with_scissors_short_vertflip_short_600ms.mp4	33.scratch_top_to_bottom_with_scissors_short_vertflip_short_600ms.mp4	381.38899442425304	381.9973138822436	0.6083194579905467				
321.64990234375	0.2	658739	284	26	2	0	0	91	150	stimuli\Videos_short_600ms_horflip\64.repeated_touch_with_screwdriver_short_horflip_short_600ms.mp4	64.repeated_touch_with_screwdriver_short_horflip_short_600ms.mp4	382.18897864770975	382.7972942935246	0.6083156458148551				
322.4501953125	0.2	660378	285	26	2	0	0	92	176	stimuli\Videos_short_600ms_horflip\88.repeated_stroke_with_plastic_brush_short_horflip_short_600ms.mp4	88.repeated_stroke_with_plastic_brush_short_horflip_short_600ms.mp4	382.98895759276934	383.59727411831705	0.608316525547707				
323.25	0.2	662016	286	26	2	0	0	93	206	stimuli\Videos_short_600ms_horvertflip\33.scratch_top_to_bottom_with_scissors_short_horvertflip_short_600ms.mp4	33.scratch_top_to_bottom_with_scissors_short_horvertflip_short_600ms.mp4	383.7889380040503	384.3972565823081	0.6083185782576948				
324.0498046875	0.2	663654	287	26	2	0	0	94	203	stimuli\Videos_short_600ms_horvertflip\30.finger_pulling_back_another_finger_short_horvertflip_short_600ms.mp4	30.finger_pulling_back_another_finger_short_horvertflip_short_600ms.mp4	384.5889192950642	385.19723963278784	0.6083203377236259	5.0	4.0	2.538634056336832	0.0
359.86572265625	0.2	737005	288	26	3	0	1	0	363	stimuli\Targets_short_600ms\finger-tap_short_short_600ms.mp4	finger-tap_short_short_600ms.mp4	420.4047360713357	421.013053183372	0.6083171120362749				
360.66552734375	0.2	738643	289	26	3	0	0	1	114	stimuli\Videos_short_600ms_horflip\31.hand_grabbing_wrist_short_horflip_short_600ms.mp4	31.hand_grabbing_wrist_short_horflip_short_600ms.mp4	421.2047531381538	421.8130406325163	0.6082874943624574				
361.46533203125	0.2	740281	290	26	3	0	0	2	181	stimuli\Videos_short_600ms_horvertflip\10.single_touch_with_knife_short_horvertflip_short_600ms.mp4	10.single_touch_with_knife_short_horvertflip_short_600ms.mp4	422.0046945479435	422.6130222167744	0.6083276688309525				
362.265625	0.2	741920	291	26	3	0	0	3	33	stimuli\Videos_short_600ms\4.repeated_tap_with_finger_slow_short_short_600ms.mp4	4.repeated_tap_with_finger_slow_short_short_600ms.mp4	422.8046770119345	423.4129950037036	0.6083179917691268				
363.0654296875	0.2	743558	292	26	3	0	0	4	127	stimuli\Videos_short_600ms_horflip\43.touch_top_to_bottom_with_sharp_wooden_stick_short_horflip_short_600ms.mp4	43.touch_top_to_bottom_with_sharp_wooden_stick_short_horflip_short_600ms.mp4	423.6046571299712	424.21297717445054	0.608320044479342				
363.865234375	0.2	745196	293	26	3	0	0	5	305	stimuli\Videos_short_600ms_vertflip\41.injection_with_blunt_syringe_short_vertflip_short_600ms.mp4	41.injection_with_blunt_syringe_short_vertflip_short_600ms.mp4	424.4046381277408	425.0129564127542	0.6083182850134108				
364.66552734375	0.2	746835	294	26	3	0	0	6	53	stimuli\Videos_short_600ms\58.single_slap_with_pencil_short_short_600ms.mp4	58.single_slap_with_pencil_short_short_600ms.mp4	425.2046258701291	425.8129338915924	0.6083080214632446				
365.46533203125	0.2	748473	295	26	3	0	0	7	40	stimuli\Videos_short_600ms\46.scratching_top_to_bottom_with_finger_nails_short_short_600ms.mp4	46.scratching_top_to_bottom_with_finger_nails_short_short_600ms.mp4	426.0046004165242	426.6129204610036	0.608320044479342				
366.26513671875	0.2	750111	296	26	3	0	0	8	178	stimuli\Videos_short_600ms_horflip\9.single_touch_with_hammer_short_horflip_short_600ms.mp4	9.single_touch_with_hammer_short_horflip_short_600ms.mp4	426.8045987157072	427.4128996993072	0.6083009835999746				
367.0654296875	0.2	751750	297	26	3	0	0	9	48	stimuli\Videos_short_600ms\53.touch_top_to_bottom_with_knife_short_short_600ms.mp4	53.touch_top_to_bottom_with_knife_short_short_600ms.mp4	427.6045436444283	428.2128789376111	0.6083352931827903				
367.865234375	0.2	753388	298	26	3	0	0	10	140	stimuli\Videos_short_600ms_horflip\55.touch_top_to_bottom_with_nail_file_short_horflip_short_600ms.mp4	55.touch_top_to_bottom_with_nail_file_short_horflip_short_600ms.mp4	428.4045266949081	429.0128616948464	0.608334999938279				
368.6650390625	0.2	755026	299	26	3	0	0	11	157	stimuli\Videos_short_600ms_horflip\70.(long)stroke_with_finger_all_over_the_hand_short_horflip_short_600ms.mp4	70.(long)stroke_with_finger_all_over_the_hand_short_horflip_short_600ms.mp4	429.2045247008468	429.8128462115476	0.6083215107007618				
369.46533203125	0.2	756665	300	26	3	0	0	12	351	stimuli\Videos_short_600ms_vertflip\83.single_stroke_top_to_bottom_with_cotton_bud_short_vertflip_short_600ms.mp4	83.single_stroke_top_to_bottom_with_cotton_bud_short_vertflip_short_600ms.mp4	430.00451068376947	430.6128228106527	0.6083121268832201				
370.26513671875	0.2	758303	301	26	3	0	0	13	332	stimuli\Videos_short_600ms_vertflip\66.stroke_top_to_bottom_with_sponge_short_vertflip_short_600ms.mp4	66.stroke_top_to_bottom_with_sponge_short_vertflip_short_600ms.mp4	430.8044667557738	431.4128061543768	0.6083393986029932				
371.06494140625	0.2	759941	302	26	3	0	0	14	323	stimuli\Videos_short_600ms_vertflip\58.single_slap_with_pencil_short_vertflip_short_600ms.mp4	58.single_slap_with_pencil_short_vertflip_short_600ms.mp4	431.6044676941556	432.2127768885959	0.6083091944403805				
371.865234375	0.2	761580	303	26	3	0	0	15	284	stimuli\Videos_short_600ms_vertflip\22.single_touch_with_metal_chopstick_short_vertflip_short_600ms.mp4	22.single_touch_with_metal_chopstick_short_vertflip_short_600ms.mp4	432.4044522108568	433.01274762281514	0.6082954119583519				
372.6650390625	0.2	763218	304	26	3	0	0	16	113	stimuli\Videos_short_600ms_horflip\30.finger_pulling_back_another_finger_short_horflip_short_600ms.mp4	30.finger_pulling_back_another_finger_short_horflip_short_600ms.mp4	433.2044293964505	433.8127215827217	0.6082921862712283				
373.46484375	0.2	764856	305	26	3	0	0	17	88	stimuli\Videos_short_600ms\9.single_touch_with_hammer_short_short_600ms.mp4	9.single_touch_with_hammer_short_short_600ms.mp4	434.004419191549	434.6127084453772	0.6082892538281612				
374.26513671875	0.2	766495	306	26	3	0	0	18	93	stimuli\Videos_short_600ms_horflip\12.repeated_touch_with_nail_file_short_horflip_short_600ms.mp4	12.repeated_touch_with_nail_file_short_horflip_short_600ms.mp4	434.804387873058	435.41270293238426	0.6083150593262872				
375.06494140625	0.2	768133	307	26	3	0	0	19	26	stimuli\Videos_short_600ms\33.scratch_top_to_bottom_with_scissors_short_short_600ms.mp4	33.scratch_top_to_bottom_with_scissors_short_short_600ms.mp4	435.6043694573161	436.2126871558412	0.6083176985250702				
375.86474609375	0.2	769771	308	26	3	0	0	20	175	stimuli\Videos_short_600ms_horflip\87.single_stroke_top_to_bottom_with_plastic_brush_short_horflip_short_600ms.mp4	87.single_stroke_top_to_bottom_with_plastic_brush_short_horflip_short_600ms.mp4	436.4043545605059	437.0126795901383	0.6083250296323968				
376.6650390625	0.2	771410	309	26	3	0	0	21	67	stimuli\Videos_short_600ms\70.(long)stroke_with_finger_all_over_the_hand_short_short_600ms.mp4	70.(long)stroke_with_finger_all_over_the_hand_short_short_600ms.mp4	437.2043332123212	437.812652670312	0.608319457990774				
377.46484375	0.2	773048	310	26	3	0	0	22	81	stimuli\Videos_short_600ms\83.single_stroke_top_to_bottom_with_cotton_bud_short_short_600ms.mp4	83.single_stroke_top_to_bottom_with_cotton_bud_short_short_600ms.mp4	438.0043124506251	438.6126348410587	0.6083223904336137				
378.2646484375	0.2	774686	311	26	3	0	0	23	77	stimuli\Videos_short_600ms\8.single_touch_with_hairbrush_short_short_600ms.mp4	8.single_touch_with_hairbrush_short_short_600ms.mp4	438.8042928619059	439.41262522264583	0.6083323607399507				
379.06494140625	0.2	776325	312	26	3	0	0	24	308	stimuli\Videos_short_600ms_vertflip\44.pushing_top_to_bottom_with_finger_short_vertflip_short_600ms.mp4	44.pushing_top_to_bottom_with_finger_short_vertflip_short_600ms.mp4	439.6042759123857	440.21259449064337	0.6083185782576948				
379.86474609375	0.2	777963	313	26	3	0	0	25	3	stimuli\Videos_short_600ms\12.repeated_touch_with_nail_file_short_short_600ms.mp4	12.repeated_touch_with_nail_file_short_short_600ms.mp4	440.4042551506893	441.0125743154358	0.6083191647464901				
380.6650390625	0.2	779602	314	26	3	0	0	26	213	stimuli\Videos_short_600ms_horvertflip\4.repeated_tap_with_finger_slow_short_horvertflip_short_600ms.mp4	4.repeated_tap_with_finger_slow_short_horvertflip_short_600ms.mp4	441.2042364417034	441.8125550199611	0.6083185782576948				
381.46484375	0.2	781240	315	26	3	0	0	27	149	stimuli\Videos_short_600ms_horflip\63.stroke_top_to_bottom_with_screwdriver_short_horflip_short_600ms.mp4	63.stroke_top_to_bottom_with_screwdriver_short_horflip_short_600ms.mp4	442.00422154489297	442.6125348447535	0.6083132998605834				
382.2646484375	0.2	782878	316	26	3	0	0	28	159	stimuli\Videos_short_600ms_horflip\72.(short)stroke_with_finger_all_over_the_hand_short_horflip_short_600ms.mp4	72.(short)stroke_with_finger_all_over_the_hand_short_horflip_short_600ms.mp4	442.80419022640217	443.4125155492789	0.6083253228766807				
383.06494140625	0.2	784517	317	26	3	0	0	29	171	stimuli\Videos_short_600ms_horflip\83.single_stroke_top_to_bottom_with_cotton_bud_short_horflip_short_600ms.mp4	83.single_stroke_top_to_bottom_with_cotton_bud_short_horflip_short_600ms.mp4	443.6041759160805	444.21249830651414	0.6083223904336137				
383.86474609375	0.2	786155	318	26	3	0	0	30	139	stimuli\Videos_short_600ms_horflip\54.repeated_touch_with_knife_short_horflip_short_600ms.mp4	54.repeated_touch_with_knife_short_horflip_short_600ms.mp4	444.4041346272836	445.012477544818	0.6083429175344008				
384.66455078125	0.2	787793	319	26	3	0	0	31	11	stimuli\Videos_short_600ms\2.single_touch_with_finger_short_short_600ms.mp4	2.single_touch_with_finger_short_short_600ms.mp4	445.2041481751701	445.8124594223205	0.6083112471503682				
385.46484375	0.2	789432	320	26	3	0	0	32	57	stimuli\Videos_short_600ms\61.single_hit_with_rolling_pin_short_short_600ms.mp4	61.single_hit_with_rolling_pin_short_short_600ms.mp4	446.0041101120603	446.6124410065786	0.6083308945183035				
386.2646484375	0.2	791070	321	26	3	0	0	33	246	stimuli\Videos_short_600ms_horvertflip\7.repeated_touch_with_hairbrush_short_horvertflip_short_600ms.mp4	7.repeated_touch_with_hairbrush_short_horvertflip_short_600ms.mp4	446.80491571279185	447.4124091015992	0.6074933888073701				
387.064453125	0.2	792708	322	26	3	0	0	34	310	stimuli\Videos_short_600ms_vertflip\46.scratching_top_to_bottom_with_finger_nails_short_vertflip_short_600ms.mp4	46.scratching_top_to_bottom_with_finger_nails_short_vertflip_short_600ms.mp4	447.6040955671433	448.21240564131654	0.6083100741732324				
387.86474609375	0.2	794347	323	26	3	0	1	35	381	stimuli\Targets_short_600ms_vertflip\finger-tap_short_horvertflip_short_600ms.mp4	finger-tap_short_horvertflip_short_600ms.mp4	448.4040724594927	449.0123570214121	0.6082845619193904				
388.6728515625	0.2	796002	324	26	3	0	0	36	327	stimuli\Videos_short_600ms_vertflip\61.single_hit_with_rolling_pin_short_vertflip_short_600ms.mp4	61.single_hit_with_rolling_pin_short_vertflip_short_600ms.mp4	449.2123681060466	449.8206981208318	0.6083300147852242				
389.47265625	0.2	797640	325	26	3	0	0	37	359	stimuli\Videos_short_600ms_vertflip\90.repeated_touch_with_sponge_short_vertflip_short_600ms.mp4	90.repeated_touch_with_sponge_short_vertflip_short_600ms.mp4	450.0123432389302	450.6206770658914	0.6083338269611431				
390.27294921875	0.2	799279	326	26	3	0	0	38	320	stimuli\Videos_short_600ms_vertflip\55.touch_top_to_bottom_with_nail_file_short_vertflip_short_600ms.mp4	55.touch_top_to_bottom_with_nail_file_short_vertflip_short_600ms.mp4	450.8123177853251	451.420658063661	0.6083402783358451				
391.07275390625	0.2	800917	327	26	3	0	0	39	331	stimuli\Videos_short_600ms_vertflip\65.stroke_top_to_bottom_with_stanley_knife_short_vertflip_short_600ms.mp4	65.stroke_top_to_bottom_with_stanley_knife_short_vertflip_short_600ms.mp4	451.61232136290573	452.2206147221538	0.6082933592481368				
391.87255859375	0.2	802555	328	26	3	0	0	40	100	stimuli\Videos_short_600ms_horflip\19.single_touch_with_rolling_pin_short_horflip_short_600ms.mp4	19.single_touch_with_rolling_pin_short_horflip_short_600ms.mp4	452.4123026539196	453.0205948401906	0.6082921862710009				
392.6728515625	0.2	804194	329	26	3	0	0	41	224	stimuli\Videos_short_600ms_horvertflip\5.repeated_tap_with_finger_moving_from_top_to_bottom_short_horvertflip_short_600ms.mp4	5.repeated_tap_with_finger_moving_from_top_to_bottom_short_horvertflip_short_600ms.mp4	453.2122930355065	453.8205770109373	0.6082839754308225				
393.47265625	0.2	805832	330	26	3	0	0	42	335	stimuli\Videos_short_600ms_vertflip\69.stroke_with_soft_sock_short_vertflip_short_600ms.mp4	69.stroke_with_soft_sock_short_vertflip_short_600ms.mp4	454.01226699541303	454.62056270061566	0.6082957052026359				
394.2724609375	0.2	807470	331	26	3	0	0	43	268	stimuli\Videos_short_600ms_horvertflip\9.single_touch_with_hammer_short_horvertflip_short_600ms.mp4	9.single_touch_with_hammer_short_horvertflip_short_600ms.mp4	454.8122474066941	455.42053578078935	0.6082883740953093				
395.07275390625	0.2	809109	332	26	3	0	0	44	303	stimuli\Videos_short_600ms_vertflip\4.repeated_tap_with_finger_slow_short_vertflip_short_600ms.mp4	4.repeated_tap_with_finger_slow_short_vertflip_short_600ms.mp4	455.6122237125549	456.2205252826434	0.6083015700885426				
395.87255859375	0.2	810747	333	26	3	0	0	45	264	stimuli\Videos_short_600ms_horvertflip\86.touch_top_to_bottom_with_hair_brush_short_horvertflip_short_600ms.mp4	86.touch_top_to_bottom_with_hair_brush_short_horvertflip_short_600ms.mp4	456.41220822925607	457.02052680751376	0.6083185782576948				
396.6728515625	0.2	812386	334	26	3	0	0	46	358	stimuli\Videos_short_600ms_vertflip\9.single_touch_with_hammer_short_vertflip_short_600ms.mp4	9.single_touch_with_hammer_short_vertflip_short_600ms.mp4	457.2121860013383	457.820505459329	0.608319457990774				
397.47265625	0.2	814024	335	26	3	0	1	47	371	stimuli\Targets_short_600ms_horflip\hand-stroke_short_horflip_short_600ms.mp4	hand-stroke_short_horflip_short_600ms.mp4	458.0121711045281	458.620491735496	0.6083206309679099				
398.2724609375	0.2	815662	336	26	3	0	0	48	207	stimuli\Videos_short_600ms_horvertflip\34.repeated_punch_with_hand_short_horvertflip_short_600ms.mp4	34.repeated_punch_with_hand_short_horvertflip_short_600ms.mp4	458.812146530656	459.4204680413568	0.6083215107007618				
399.07275390625	0.2	817301	337	26	3	0	0	49	250	stimuli\Videos_short_600ms_horvertflip\73.single_stroke_with_flat_hand_short_horvertflip_short_600ms.mp4	73.single_stroke_with_flat_hand_short_horvertflip_short_600ms.mp4	459.6121304608687	460.2204478661493	0.6083174052805589				
399.87255859375	0.2	818939	338	26	3	0	0	50	283	stimuli\Videos_short_600ms_vertflip\21.repeated_touch_with_metal_chopstick_short_vertflip_short_600ms.mp4	21.repeated_touch_with_metal_chopstick_short_vertflip_short_600ms.mp4	460.41211145863826	461.0204276909417	0.608316232303423				
400.67236328125	0.2	820577	339	26	3	0	0	51	167	stimuli\Videos_short_600ms_horflip\8.single_touch_with_hairbrush_short_horflip_short_600ms.mp4	8.single_touch_with_hairbrush_short_horflip_short_600ms.mp4	461.2120895239648	461.8204078089784	0.6083182850136382				
401.47265625	0.2	822216	340	26	3	0	0	52	118	stimuli\Videos_short_600ms_horflip\35.single_punch_with_hand_short_horflip_short_600ms.mp4	35.single_punch_with_hand_short_horflip_short_600ms.mp4	462.0120787325747	462.62038939323656	0.6083106606618003				
402.2724609375	0.2	823854	341	26	3	0	0	53	156	stimuli\Videos_short_600ms_horflip\7.repeated_touch_with_hairbrush_short_horflip_short_600ms.mp4	7.repeated_touch_with_hairbrush_short_horflip_short_600ms.mp4	462.81205093301537	463.4203730302047	0.6083220971893297				
403.072265625	0.2	825492	342	26	3	0	0	54	172	stimuli\Videos_short_600ms_horflip\84.single_touch_with_cotton_bud_short_horflip_short_600ms.mp4	84.single_touch_with_cotton_bud_short_horflip_short_600ms.mp4	463.6120155091044	464.22035109553144	0.6083355864270743				
403.87255859375	0.2	827131	343	26	3	0	0	55	79	stimuli\Videos_short_600ms\81.single_stroke_top_to_bottom_with_cotton_pad_short_short_600ms.mp4	81.single_stroke_top_to_bottom_with_cotton_pad_short_short_600ms.mp4	464.4119888825221	465.020337958187	0.6083490756648189				
404.67236328125	0.2	828769	344	26	3	0	0	56	125	stimuli\Videos_short_600ms_horflip\41.injection_with_blunt_syringe_short_horflip_short_600ms.mp4	41.injection_with_blunt_syringe_short_horflip_short_600ms.mp4	465.2119704667805	465.8203186627122	0.6083481959317396				
405.47216796875	0.2	830407	345	26	3	0	0	57	142	stimuli\Videos_short_600ms_horflip\57.single_touch_with_nail_file_short_horflip_short_600ms.mp4	57.single_touch_with_nail_file_short_horflip_short_600ms.mp4	466.0119541037486	466.6202917428857	0.6083376391370621				
406.2724609375	0.2	832046	346	26	3	0	0	58	7	stimuli\Videos_short_600ms\16.repeated_touch_with_plastic_brush_short_short_600ms.mp4	16.repeated_touch_with_plastic_brush_short_short_600ms.mp4	466.811957681329	467.420277432564	0.608319751235058				
407.072265625	0.2	833684	347	26	3	0	0	59	165	stimuli\Videos_short_600ms_horflip\78.single_stroke_top_to_bottom_with_soft_brush_short_horflip_short_600ms.mp4	78.single_stroke_top_to_bottom_with_soft_brush_short_horflip_short_600ms.mp4	467.6119401453202	468.22024963300464	0.608309487684437				
407.8720703125	0.2	835322	348	26	3	0	0	60	258	stimuli\Videos_short_600ms_horvertflip\80.stroke_with_sharp_stick_all_over_the_hand_short_horvertflip_short_600ms.mp4	80.stroke_with_sharp_stick_all_over_the_hand_short_horvertflip_short_600ms.mp4	468.4119243687769	469.0202112766508	0.6082869078738895				
408.67236328125	0.2	836961	349	26	3	0	0	61	196	stimuli\Videos_short_600ms_horvertflip\24.single_stroke_top_to_bottom_with_a_spoon_short_horvertflip_short_600ms.mp4	24.single_stroke_top_to_bottom_with_a_spoon_short_horvertflip_short_600ms.mp4	469.2118974489506	469.8201913946875	0.6082939457369321				
409.47216796875	0.2	838599	350	26	3	0	0	62	352	stimuli\Videos_short_600ms_vertflip\84.single_touch_with_cotton_bud_short_vertflip_short_600ms.mp4	84.single_touch_with_cotton_bud_short_vertflip_short_600ms.mp4	470.01187903320874	470.6201990776881	0.608320044479342				
410.27197265625	0.2	840237	351	26	3	0	0	63	347	stimuli\Videos_short_600ms_vertflip\8.single_touch_with_hairbrush_short_vertflip_short_600ms.mp4	8.single_touch_with_hairbrush_short_vertflip_short_600ms.mp4	470.8118606174669	471.4201747970603	0.6083141795934353				
411.072265625	0.2	841876	352	26	3	0	0	64	199	stimuli\Videos_short_600ms_horvertflip\27.single_push_with_a_plastic_whisk_short_horvertflip_short_600ms.mp4	27.single_push_with_a_plastic_whisk_short_horvertflip_short_600ms.mp4	471.61184044225934	472.22016899082314	0.6083285485638044				
411.8720703125	0.2	843514	353	26	3	0	0	65	355	stimuli\Videos_short_600ms_vertflip\87.single_stroke_top_to_bottom_with_plastic_brush_short_vertflip_short_600ms.mp4	87.single_stroke_top_to_bottom_with_plastic_brush_short_vertflip_short_600ms.mp4	472.4123011876979	473.0201681697392	0.607866982041287				
412.671875	0.2	845152	354	26	3	0	0	66	218	stimuli\Videos_short_600ms_horvertflip\44.pushing_top_to_bottom_with_finger_short_horvertflip_short_600ms.mp4	44.pushing_top_to_bottom_with_finger_short_horvertflip_short_600ms.mp4	473.2118009715771	473.82012834716375	0.6083273755866685				
413.47216796875	0.2	846791	355	26	3	0	0	67	210	stimuli\Videos_short_600ms_horvertflip\37.single_stab_with_nail_file_short_horvertflip_short_600ms.mp4	37.single_stab_with_nail_file_short_horvertflip_short_600ms.mp4	474.0117828490795	474.6201005476043	0.6083176985248429				
414.27197265625	0.2	848429	356	26	3	0	0	68	326	stimuli\Videos_short_600ms_vertflip\60.single_push_with_tip_of_pencil_short_vertflip_short_600ms.mp4	60.single_push_with_tip_of_pencil_short_vertflip_short_600ms.mp4	474.8117635536048	475.4200818386182	0.6083182850134108				
415.072265625	0.2	850068	357	26	3	0	0	69	183	stimuli\Videos_short_600ms_horvertflip\12.repeated_touch_with_nail_file_short_horvertflip_short_600ms.mp4	12.repeated_touch_with_nail_file_short_horvertflip_short_600ms.mp4	475.6117445513744	476.22006400936493	0.6083194579905467				
415.8720703125	0.2	851706	358	26	3	0	0	70	251	stimuli\Videos_short_600ms_horvertflip\74.fingers_walking_from_top_to_bottom_short_horvertflip_short_600ms.mp4	74.fingers_walking_from_top_to_bottom_short_horvertflip_short_600ms.mp4	476.41171997750234	477.0200479395776	0.6083279620752364				
416.671875	0.2	853344	359	26	3	0	0	71	229	stimuli\Videos_short_600ms_horvertflip\54.repeated_touch_with_knife_short_horvertflip_short_600ms.mp4	54.repeated_touch_with_knife_short_horvertflip_short_600ms.mp4	477.2117074266464	477.8200236589498	0.608316232303423				
417.47216796875	0.2	854983	360	26	3	0	0	72	101	stimuli\Videos_short_600ms_horflip\2.single_touch_with_finger_short_horflip_short_600ms.mp4	2.single_touch_with_finger_short_horflip_short_600ms.mp4	478.01166056620787	478.62000582969654	0.6083452634886726				
418.27197265625	0.2	856621	361	26	3	0	0	73	342	stimuli\Videos_short_600ms_vertflip\75.(long)stroke_with_fingers_all_over_the_hand_short_vertflip_short_600ms.mp4	75.(long)stroke_with_fingers_all_over_the_hand_short_vertflip_short_600ms.mp4	478.81164948157334	479.41998888017633	0.6083393986029932				
419.07177734375	0.2	858259	362	26	3	0	1	74	362	stimuli\Targets_short_600ms\chopstickwood-tap_short_short_600ms.mp4	chopstickwood-tap_short_short_600ms.mp4	479.6116228549913	480.21997486309897	0.6083520081076585				
419.8720703125	0.2	859898	363	26	3	0	0	75	247	stimuli\Videos_short_600ms_horvertflip\70.(long)stroke_with_finger_all_over_the_hand_short_horvertflip_short_600ms.mp4	70.(long)stroke_with_finger_all_over_the_hand_short_horvertflip_short_600ms.mp4	480.4116020932952	481.01994735678386	0.6083452634886726				
420.671875	0.2	861536	364	26	3	0	0	76	186	stimuli\Videos_short_600ms_horvertflip\15.single_stroke_top_to_bottom_with_a_plastic_whisk_short_horvertflip_short_600ms.mp4	15.single_stroke_top_to_bottom_with_a_plastic_whisk_short_horvertflip_short_600ms.mp4	481.2115895424392	481.81993656539385	0.6083470229546037				
421.4716796875	0.2	863174	365	26	3	0	1	77	366	stimuli\Targets_short_600ms_horflip\brush-stroke_short_horflip_short_600ms.mp4	brush-stroke_short_horflip_short_600ms.mp4	482.0115986916612	482.61989469010814	0.6082959984469198				
422.27197265625	0.2	864813	366	26	3	0	0	78	28	stimuli\Videos_short_600ms\35.single_punch_with_hand_short_short_600ms.mp4	35.single_punch_with_hand_short_short_600ms.mp4	482.8115937651571	483.41987334192345	0.6082795767663356				
423.07177734375	0.2	866451	367	26	3	0	0	79	112	stimuli\Videos_short_600ms_horflip\3.single_push_with_finger_short_horflip_short_600ms.mp4	3.single_push_with_finger_short_horflip_short_600ms.mp4	483.6115627399104	484.21987603977095	0.6083132998605834				
423.87158203125	0.2	868089	368	26	3	0	1	80	373	stimuli\Targets_short_600ms_horvertflip\chopstick-silver-tap_short_vertflip_short_600ms.mp4	chopstick-silver-tap_short_vertflip_short_600ms.mp4	484.41153200790814	485.0198280063553	0.6082959984471472				
424.671875	0.2	869728	369	26	3	0	0	81	222	stimuli\Videos_short_600ms_horvertflip\48.single_slap_with_hand_short_horvertflip_short_600ms.mp4	48.single_slap_with_hand_short_horvertflip_short_600ms.mp4	485.2115188705636	485.8198057784375	0.6082869078738895				
425.4716796875	0.2	871366	370	26	3	0	0	82	184	stimuli\Videos_short_600ms_horvertflip\13.single_touch_with_pen_short_horvertflip_short_600ms.mp4	13.single_touch_with_pen_short_horvertflip_short_600ms.mp4	486.01147288985794	486.619792641093	0.608319751235058				
426.271484375	0.2	873004	371	26	3	0	1	83	366	stimuli\Targets_short_600ms_horflip\brush-stroke_short_horflip_short_600ms.mp4	brush-stroke_short_horflip_short_600ms.mp4	486.8114726552626	487.41979416596337	0.6083215107007618				
427.07177734375	0.2	874643	372	26	3	0	0	84	32	stimuli\Videos_short_600ms\39.single_stab_with_scissors_short_short_600ms.mp4	39.single_stab_with_scissors_short_short_600ms.mp4	487.6114794585303	488.2197754569772	0.6082959984469198				
427.87158203125	0.2	876281	373	26	3	0	0	85	135	stimuli\Videos_short_600ms_horflip\50.single_(long)hard_push_with_thumb_short_horflip_short_600ms.mp4	50.single_(long)hard_push_with_thumb_short_horflip_short_600ms.mp4	488.4114364102674	489.0197544020368	0.6083179917693542				
428.67138671875	0.2	877919	374	26	3	0	0	86	187	stimuli\Videos_short_600ms_horvertflip\16.repeated_touch_with_plastic_brush_short_horvertflip_short_600ms.mp4	16.repeated_touch_with_plastic_brush_short_horvertflip_short_600ms.mp4	489.2114147688385	489.8197353998064	0.6083206309679099				
429.4716796875	0.2	879558	375	26	3	0	0	87	37	stimuli\Videos_short_600ms\43.touch_top_to_bottom_with_sharp_wooden_stick_short_short_600ms.mp4	43.touch_top_to_bottom_with_sharp_wooden_stick_short_short_600ms.mp4	490.01135793809385	490.619716397576	0.6083584594821332				
