onset	duration	onsetsample	eventnumber	subjectnr	sequencenumber	blocksequencenumber	istarget	presentationnumber	stimnumber	stim	stimname	time_stimon	time_stimoff	stimdur	cresp	resp	rt	correct
24.73681640625	0.2	50661	0	61	0	0	0	0	80	stimuli\Videos_short_600ms\82.repeated_touch_with_cotton_bud_short_short_600ms.mp4	82.repeated_touch_with_cotton_bud_short_short_600ms.mp4	71.95245793619324	72.56077548072426	0.6083175445310189	n/a	n/a	n/a	n/a
25.53662109375	0.2	52299	1	61	0	0	0	1	79	stimuli\Videos_short_600ms\81.single_stroke_top_to_bottom_with_cotton_pad_short_short_600ms.mp4	81.single_stroke_top_to_bottom_with_cotton_pad_short_short_600ms.mp4	72.75243957905332	73.36075858980621	0.6083190107528935	n/a	n/a	n/a	n/a
26.33642578125	0.2	53937	2	61	0	0	0	2	208	stimuli\Videos_short_600ms_horvertflip\35.single_punch_with_hand_short_horvertflip_short_600ms.mp4	35.single_punch_with_hand_short_horvertflip_short_600ms.mp4	73.552452599135	74.16074140564524	0.6082888065102452	n/a	n/a	n/a	n/a
27.13671875	0.2	55576	3	61	0	0	0	3	237	stimuli\Videos_short_600ms_horvertflip\61.single_hit_with_rolling_pin_short_horvertflip_short_600ms.mp4	61.single_hit_with_rolling_pin_short_horvertflip_short_600ms.mp4	74.35247119087217	74.96072363499479	0.6082524441226269	n/a	n/a	n/a	n/a
27.9365234375	0.2	57214	4	61	0	0	0	4	154	stimuli\Videos_short_600ms_horflip\68.stroke_top_to_bottom_with_shawl_short_horflip_short_600ms.mp4	68.stroke_top_to_bottom_with_shawl_short_horflip_short_600ms.mp4	75.15286630927949	75.7607070373233	0.6078407280438114	n/a	n/a	n/a	n/a
28.736328125	0.2	58852	5	61	0	0	0	5	331	stimuli\Videos_short_600ms_vertflip\65.stroke_top_to_bottom_with_stanley_knife_short_vertflip_short_600ms.mp4	65.stroke_top_to_bottom_with_stanley_knife_short_vertflip_short_600ms.mp4	75.9523734816139	76.56068985316233	0.6083163715484261	n/a	n/a	n/a	n/a
29.53662109375	0.2	60491	6	61	0	0	1	6	360	stimuli\Targets_short_600ms\brush-stroke_short_short_600ms.mp4	brush-stroke_short_short_600ms.mp4	76.75232345400582	77.36067266900136	0.6083492149955418	n/a	n/a	n/a	n/a
30.33642578125	0.2	62129	7	61	0	0	0	7	48	stimuli\Videos_short_600ms\53.touch_top_to_bottom_with_knife_short_short_600ms.mp4	53.touch_top_to_bottom_with_knife_short_short_600ms.mp4	77.55234204574299	78.16065753755538	0.608315491812391	n/a	n/a	n/a	n/a
31.13671875	0.2	63768	8	61	0	0	0	8	183	stimuli\Videos_short_600ms_horvertflip\12.repeated_touch_with_nail_file_short_horvertflip_short_600ms.mp4	12.repeated_touch_with_nail_file_short_horvertflip_short_600ms.mp4	78.35249406398725	78.96063654121099	0.6081424772237369	n/a	n/a	n/a	n/a
31.9365234375	0.2	65406	9	61	0	0	0	9	128	stimuli\Videos_short_600ms_horflip\44.pushing_top_to_bottom_with_finger_short_horflip_short_600ms.mp4	44.pushing_top_to_bottom_with_finger_short_horflip_short_600ms.mp4	79.1523088504	79.76057859598222	0.6082697455822199	n/a	n/a	n/a	n/a
32.736328125	0.2	67044	10	61	0	0	0	10	16	stimuli\Videos_short_600ms\24.single_stroke_top_to_bottom_with_a_spoon_short_short_600ms.mp4	24.single_stroke_top_to_bottom_with_a_spoon_short_short_600ms.mp4	79.95274736907959	80.56056053208886	0.6078131630092685	n/a	n/a	n/a	n/a
33.53662109375	0.2	68683	11	61	0	0	0	11	10	stimuli\Videos_short_600ms\19.single_touch_with_rolling_pin_short_short_600ms.mp4	19.single_touch_with_rolling_pin_short_short_600ms.mp4	80.75231964181876	81.36054686686839	0.6082272250496317	n/a	n/a	n/a	n/a
34.33642578125	0.2	70321	12	61	0	0	1	12	375	stimuli\Targets_short_600ms_horvertflip\finger-tap_short_vertflip_short_600ms.mp4	finger-tap_short_vertflip_short_600ms.mp4	81.5522517262616	82.16055314231198	0.6083014160503808	n/a	n/a	n/a	n/a
35.13623046875	0.2	71959	13	61	0	0	0	13	255	stimuli\Videos_short_600ms_horvertflip\78.single_stroke_top_to_bottom_with_soft_brush_short_horvertflip_short_600ms.mp4	78.single_stroke_top_to_bottom_with_soft_brush_short_horvertflip_short_600ms.mp4	82.35222134607102	82.9605344919255	0.6083131458544813	n/a	n/a	n/a	n/a
35.9365234375	0.2	73598	14	61	0	0	0	14	175	stimuli\Videos_short_600ms_horflip\87.single_stroke_top_to_bottom_with_plastic_brush_short_horflip_short_600ms.mp4	87.single_stroke_top_to_bottom_with_plastic_brush_short_horflip_short_600ms.mp4	83.15221501197811	83.76053314299861	0.6083181310204964	n/a	n/a	n/a	n/a
36.736328125	0.2	75236	15	61	0	0	0	15	158	stimuli\Videos_short_600ms_horflip\71.single_stroke_with_finger_top_to_bottom_short_horflip_short_600ms.mp4	71.single_stroke_with_finger_top_to_bottom_short_horflip_short_600ms.mp4	83.95219870755318	84.56053091433569	0.6083322067825065	n/a	n/a	n/a	n/a
37.5361328125	0.2	76874	16	61	0	0	0	16	268	stimuli\Videos_short_600ms_horvertflip\9.single_touch_with_hammer_short_horvertflip_short_600ms.mp4	9.single_touch_with_hammer_short_horvertflip_short_600ms.mp4	84.75218328286064	85.36050288010665	0.6083195972460089	n/a	n/a	n/a	n/a
38.33642578125	0.2	78513	17	61	0	0	0	17	126	stimuli\Videos_short_600ms_horflip\42.single_slap_with_plastic_whisk_short_horflip_short_600ms.mp4	42.single_slap_with_plastic_whisk_short_horflip_short_600ms.mp4	85.55216433923124	86.16048598919224	0.6083216499609989	n/a	n/a	n/a	n/a
39.13623046875	0.2	80151	18	61	0	0	0	18	339	stimuli\Videos_short_600ms_vertflip\72.(short)stroke_with_finger_all_over_the_hand_short_vertflip_short_600ms.mp4	72.(short)stroke_with_finger_all_over_the_hand_short_vertflip_short_600ms.mp4	86.35273305872033	86.96046851178471	0.6077354530643788	n/a	n/a	n/a	n/a
39.93603515625	0.2	81789	19	61	0	0	0	19	20	stimuli\Videos_short_600ms\28.single_injection_with_sharp_needle_short_short_600ms.mp4	28.single_injection_with_sharp_needle_short_short_600ms.mp4	87.15247687982628	87.76045162086666	0.6079747410403797	n/a	n/a	n/a	n/a
40.736328125	0.2	83428	20	61	0	0	0	20	94	stimuli\Videos_short_600ms_horflip\13.single_touch_with_pen_short_horflip_short_600ms.mp4	13.single_touch_with_pen_short_horflip_short_600ms.mp4	87.95211454621676	88.5604370759138	0.608322529697034	n/a	n/a	n/a	n/a
41.5361328125	0.2	85066	21	61	0	0	0	21	28	stimuli\Videos_short_600ms\35.single_punch_with_hand_short_short_600ms.mp4	35.single_punch_with_hand_short_short_600ms.mp4	88.75210264046837	89.3603981916167	0.6082955511483306	n/a	n/a	n/a	n/a
42.3359375	0.2	86704	22	61	0	0	0	22	157	stimuli\Videos_short_600ms_horflip\70.(long)stroke_with_finger_all_over_the_hand_short_horflip_short_600ms.mp4	70.(long)stroke_with_finger_all_over_the_hand_short_horflip_short_600ms.mp4	89.55209865233337	90.16040270759186	0.6083040552584862	n/a	n/a	n/a	n/a
43.13623046875	0.2	88343	23	61	0	0	0	23	143	stimuli\Videos_short_600ms_horflip\58.single_slap_with_pencil_short_horflip_short_600ms.mp4	58.single_slap_with_pencil_short_horflip_short_600ms.mp4	90.35202252591262	90.96038552343089	0.6083629975182703	n/a	n/a	n/a	n/a
43.93603515625	0.2	89981	24	61	0	0	0	24	62	stimuli\Videos_short_600ms\66.stroke_top_to_bottom_with_sponge_short_short_600ms.mp4	66.stroke_top_to_bottom_with_sponge_short_short_600ms.mp4	91.15223289992718	91.7603677527768	0.6081348528496164	n/a	n/a	n/a	n/a
44.73583984375	0.2	91619	25	61	0	0	0	25	313	stimuli\Videos_short_600ms_vertflip\49.repeated_slap_with_hand_short_vertflip_short_600ms.mp4	49.repeated_slap_with_hand_short_vertflip_short_600ms.mp4	91.9521092678042	92.5603508618624	0.6082415940581996	n/a	n/a	n/a	n/a
45.5361328125	0.2	93258	26	61	0	0	0	26	65	stimuli\Videos_short_600ms\69.stroke_with_soft_sock_short_short_600ms.mp4	69.stroke_with_soft_sock_short_short_600ms.mp4	92.75209120390718	93.36033045200384	0.6082392480966519	n/a	n/a	n/a	n/a
46.3359375	0.2	94896	27	61	0	0	0	27	4	stimuli\Videos_short_600ms\13.single_touch_with_pen_short_short_600ms.mp4	13.single_touch_with_pen_short_short_600ms.mp4	93.55226492228758	94.16030417724689	0.6080392549592943	n/a	n/a	n/a	n/a
47.1357421875	0.2	96534	28	61	0	0	0	28	64	stimuli\Videos_short_600ms\68.stroke_top_to_bottom_with_shawl_short_short_600ms.mp4	68.stroke_top_to_bottom_with_shawl_short_short_600ms.mp4	94.35211020618954	94.9602752632818	0.6081650570922648	n/a	n/a	n/a	n/a
47.93603515625	0.2	98173	29	61	0	0	0	29	82	stimuli\Videos_short_600ms\84.single_touch_with_cotton_bud_short_short_600ms.mp4	84.single_touch_with_cotton_bud_short_short_600ms.mp4	95.15196047525752	95.76026071832894	0.6083002430714259	n/a	n/a	n/a	n/a
48.73583984375	0.2	99811	30	61	0	0	0	30	212	stimuli\Videos_short_600ms_horvertflip\39.single_stab_with_scissors_short_horvertflip_short_600ms.mp4	39.single_stab_with_scissors_short_horvertflip_short_600ms.mp4	95.95239400876744	96.56022154078528	0.6078275320178363	n/a	n/a	n/a	n/a
49.53564453125	0.2	101449	31	61	0	0	0	31	218	stimuli\Videos_short_600ms_horvertflip\44.pushing_top_to_bottom_with_finger_short_horvertflip_short_600ms.mp4	44.pushing_top_to_bottom_with_finger_short_horvertflip_short_600ms.mp4	96.7519592436256	97.36023837305402	0.6082791294284107	n/a	n/a	n/a	n/a
50.3359375	0.2	103088	32	61	0	0	0	32	240	stimuli\Videos_short_600ms_horvertflip\64.repeated_touch_with_screwdriver_short_horvertflip_short_600ms.mp4	64.repeated_touch_with_screwdriver_short_horvertflip_short_600ms.mp4	97.55191156197908	98.16021356451893	0.6083020025398582	n/a	n/a	n/a	n/a
51.1357421875	0.2	104726	33	61	0	0	0	33	287	stimuli\Videos_short_600ms_vertflip\25.single_touch_with_stanley_knife_short_vertflip_short_600ms.mp4	25.single_touch_with_stanley_knife_short_vertflip_short_600ms.mp4	98.35217149441088	98.96020107228104	0.6080295778701839	n/a	n/a	n/a	n/a
51.93603515625	0.2	106365	34	61	0	0	0	34	68	stimuli\Videos_short_600ms\71.single_stroke_with_finger_top_to_bottom_short_short_600ms.mp4	71.single_stroke_with_finger_top_to_bottom_short_short_600ms.mp4	99.1519326169764	99.76020910719308	0.6082764902166673	n/a	n/a	n/a	n/a
52.73583984375	0.2	108003	35	61	0	0	0	35	199	stimuli\Videos_short_600ms_horvertflip\27.single_push_with_a_plastic_whisk_short_horvertflip_short_600ms.mp4	27.single_push_with_a_plastic_whisk_short_horvertflip_short_600ms.mp4	99.95187437850473	100.56018429866162	0.6083099201568984	n/a	n/a	n/a	n/a
53.53564453125	0.2	109641	36	61	0	0	0	36	333	stimuli\Videos_short_600ms_vertflip\67.single_touch_with_sponge_short_vertflip_short_600ms.mp4	67.single_touch_with_sponge_short_vertflip_short_600ms.mp4	100.751913790642	101.3601659415217	0.6082521508797072	n/a	n/a	n/a	n/a
54.3359375	0.2	111280	37	61	0	0	0	37	34	stimuli\Videos_short_600ms\40.repeated_push_with_finger_short_short_600ms.mp4	40.repeated_push_with_finger_short_short_600ms.mp4	101.55198164754984	102.16014846411416	0.608166816564335	n/a	n/a	n/a	n/a
55.1357421875	0.2	112918	38	61	0	0	0	38	30	stimuli\Videos_short_600ms\37.single_stab_with_nail_file_short_short_600ms.mp4	37.single_stab_with_nail_file_short_short_600ms.mp4	102.35181344217926	102.9601368516087	0.6083234094294312	n/a	n/a	n/a	n/a
55.935546875	0.2	114556	39	61	0	0	0	39	160	stimuli\Videos_short_600ms_horflip\73.single_stroke_with_flat_hand_short_horflip_short_600ms.mp4	73.single_stroke_with_flat_hand_short_horflip_short_600ms.mp4	103.15179244583123	103.76011614850722	0.6083237026759889	n/a	n/a	n/a	n/a
56.73583984375	0.2	116195	40	61	0	0	0	40	32	stimuli\Videos_short_600ms\39.single_stab_with_scissors_short_short_600ms.mp4	39.single_stab_with_scissors_short_short_600ms.mp4	103.95177936710024	104.56010072381832	0.6083213567180792	n/a	n/a	n/a	n/a
57.53564453125	0.2	117833	41	61	0	0	0	41	350	stimuli\Videos_short_600ms_vertflip\82.repeated_touch_with_cotton_bud_short_vertflip_short_600ms.mp4	82.repeated_touch_with_cotton_bud_short_vertflip_short_600ms.mp4	104.75174605446227	105.36008295316424	0.608336898701964	n/a	n/a	n/a	n/a
58.33544921875	0.2	119471	42	61	0	0	0	42	332	stimuli\Videos_short_600ms_vertflip\66.stroke_top_to_bottom_with_sponge_short_vertflip_short_600ms.mp4	66.stroke_top_to_bottom_with_sponge_short_vertflip_short_600ms.mp4	105.5517297500337	106.16006811496482	0.6083383649311145	n/a	n/a	n/a	n/a
59.1357421875	0.2	121110	43	61	0	0	0	43	152	stimuli\Videos_short_600ms_horflip\66.stroke_top_to_bottom_with_sponge_short_horflip_short_600ms.mp4	66.stroke_top_to_bottom_with_sponge_short_horflip_short_600ms.mp4	106.35174335660486	106.9600471186168	0.6083037620119285	n/a	n/a	n/a	n/a
59.935546875	0.2	122748	44	61	0	0	0	44	45	stimuli\Videos_short_600ms\50.single_(long)hard_push_with_thumb_short_short_600ms.mp4	50.single_(long)hard_push_with_thumb_short_short_600ms.mp4	107.15176048212015	107.76002876147686	0.6082682793567074	n/a	n/a	n/a	n/a
60.7353515625	0.2	124386	45	61	0	0	0	45	145	stimuli\Videos_short_600ms_horflip\6.single_touch_with_flat_hand_short_horflip_short_600ms.mp4	6.single_touch_with_flat_hand_short_horflip_short_600ms.mp4	107.95169256655936	108.56001363003088	0.6083210634715215	n/a	n/a	n/a	n/a
61.53564453125	0.2	126025	46	61	0	0	0	46	279	stimuli\Videos_short_600ms_vertflip\18.single_stroke_from_top_to_bottom_with_rolling_pin_short_vertflip_short_600ms.mp4	18.single_stroke_from_top_to_bottom_with_rolling_pin_short_vertflip_short_600ms.mp4	108.75166042690034	109.35997914441032	0.6083187175099738	n/a	n/a	n/a	n/a
62.33544921875	0.2	127663	47	61	0	0	0	47	146	stimuli\Videos_short_600ms_horflip\60.single_push_with_tip_of_pencil_short_horflip_short_600ms.mp4	60.single_push_with_tip_of_pencil_short_horflip_short_600ms.mp4	109.55166670234394	110.1599874725689	0.6083207702249638	n/a	n/a	n/a	n/a
63.13525390625	0.2	129301	48	61	0	0	0	48	282	stimuli\Videos_short_600ms_vertflip\20.single_touch_with_screwdriver_short_vertflip_short_600ms.mp4	20.single_touch_with_screwdriver_short_vertflip_short_600ms.mp4	110.35179965966016	110.9599441895989	0.6081445299387269	n/a	n/a	n/a	n/a
63.935546875	0.2	130940	49	61	0	0	0	49	206	stimuli\Videos_short_600ms_horvertflip\33.scratch_top_to_bottom_with_scissors_short_horvertflip_short_600ms.mp4	33.scratch_top_to_bottom_with_scissors_short_horvertflip_short_600ms.mp4	111.15162764210254	111.7599032525868	0.6082756104842701	n/a	n/a	n/a	n/a
64.7353515625	0.2	132578	50	61	0	0	0	50	50	stimuli\Videos_short_600ms\55.touch_top_to_bottom_with_nail_file_short_short_600ms.mp4	55.touch_top_to_bottom_with_nail_file_short_short_600ms.mp4	111.95161075118448	112.55990659557938	0.6082958443948883	n/a	n/a	n/a	n/a
65.53515625	0.2	134216	51	61	0	0	1	51	370	stimuli\Targets_short_600ms_horflip\hand-pinch_short_horflip_short_600ms.mp4	hand-pinch_short_horflip_short_600ms.mp4	112.75165485524484	113.35988266678396	0.6082278115391091	n/a	n/a	n/a	n/a
66.33544921875	0.2	135855	52	61	0	0	0	52	200	stimuli\Videos_short_600ms_horvertflip\28.single_injection_with_sharp_needle_short_horvertflip_short_600ms.mp4	28.single_injection_with_sharp_needle_short_horvertflip_short_600ms.mp4	113.55237312971803	114.15988395706154	0.6075108273435035	n/a	n/a	n/a	n/a
67.13525390625	0.2	137493	53	61	0	0	0	53	309	stimuli\Videos_short_600ms_vertflip\45.scratching_with_finger_nails_short_vertflip_short_600ms.mp4	45.scratching_with_finger_nails_short_vertflip_short_600ms.mp4	114.35161139632328	114.95989316495616	0.6082817686328781	n/a	n/a	n/a	n/a
67.93505859375	0.2	139131	54	61	0	0	0	54	326	stimuli\Videos_short_600ms_vertflip\60.single_push_with_tip_of_pencil_short_vertflip_short_600ms.mp4	60.single_push_with_tip_of_pencil_short_vertflip_short_600ms.mp4	115.15154142805112	115.75986425099109	0.6083228229399538	n/a	n/a	n/a	n/a
68.7353515625	0.2	140770	55	61	0	0	0	55	271	stimuli\Videos_short_600ms_vertflip\10.single_touch_with_knife_short_vertflip_short_600ms.mp4	10.single_touch_with_knife_short_vertflip_short_600ms.mp4	115.9515239506436	116.55984648034064	0.608322529697034	n/a	n/a	n/a	n/a
69.53515625	0.2	142408	56	61	0	0	0	56	122	stimuli\Videos_short_600ms_horflip\39.single_stab_with_scissors_short_horflip_short_600ms.mp4	39.single_stab_with_scissors_short_horflip_short_600ms.mp4	116.7515085259547	117.35983105565174	0.608322529697034	n/a	n/a	n/a	n/a
70.3349609375	0.2	144046	57	61	0	0	0	57	303	stimuli\Videos_short_600ms_vertflip\4.repeated_tap_with_finger_slow_short_vertflip_short_600ms.mp4	4.repeated_tap_with_finger_slow_short_vertflip_short_600ms.mp4	117.55148283768722	118.15981240526526	0.6083295675780391	n/a	n/a	n/a	n/a
71.13525390625	0.2	145685	58	61	0	0	0	58	53	stimuli\Videos_short_600ms\58.single_slap_with_pencil_short_short_600ms.mp4	58.single_slap_with_pencil_short_short_600ms.mp4	118.35147533061172	118.95979463461116	0.6083193039994512	n/a	n/a	n/a	n/a
71.93505859375	0.2	147323	59	61	0	0	0	59	171	stimuli\Videos_short_600ms_horflip\83.single_stroke_top_to_bottom_with_cotton_bud_short_horflip_short_600ms.mp4	83.single_stroke_top_to_bottom_with_cotton_bud_short_horflip_short_600ms.mp4	119.15173555628644	119.7597786234328	0.6080430671463546	n/a	n/a	n/a	n/a
72.7353515625	0.2	148962	60	61	0	0	0	60	324	stimuli\Videos_short_600ms_vertflip\59.single_push_with_long_side_pencil_short_vertflip_short_600ms.mp4	59.single_push_with_long_side_pencil_short_vertflip_short_600ms.mp4	119.95150195726455	120.55976525145525	0.6082632941906922	n/a	n/a	n/a	n/a
73.53515625	0.2	150600	61	61	0	0	0	61	132	stimuli\Videos_short_600ms_horflip\48.single_slap_with_hand_short_horflip_short_600ms.mp4	48.single_slap_with_hand_short_horflip_short_600ms.mp4	120.75148242714204	121.35974865378375	0.6082662266417174	n/a	n/a	n/a	n/a
74.3349609375	0.2	152238	62	61	0	0	0	62	47	stimuli\Videos_short_600ms\52.touch_top_to_bottom_with_hammer_short_short_600ms.mp4	52.touch_top_to_bottom_with_hammer_short_short_600ms.mp4	121.55142536165296	122.15972853717176	0.6083031755188131	n/a	n/a	n/a	n/a
75.13525390625	0.2	153877	63	61	0	0	0	63	252	stimuli\Videos_short_600ms_horvertflip\75.(long)stroke_with_fingers_all_over_the_hand_short_horvertflip_short_600ms.mp4	75.(long)stroke_with_fingers_all_over_the_hand_short_horvertflip_short_600ms.mp4	122.35143515603704	122.9597139922189	0.608278836181853	n/a	n/a	n/a	n/a
75.93505859375	0.2	155515	64	61	0	0	0	64	204	stimuli\Videos_short_600ms_horvertflip\31.hand_grabbing_wrist_short_horvertflip_short_600ms.mp4	31.hand_grabbing_wrist_short_horvertflip_short_600ms.mp4	123.15135961610576	123.7596973945474	0.6083377784416371	n/a	n/a	n/a	n/a
76.73486328125	0.2	157153	65	61	0	0	0	65	340	stimuli\Videos_short_600ms_vertflip\73.single_stroke_with_flat_hand_short_vertflip_short_600ms.mp4	73.single_stroke_with_flat_hand_short_vertflip_short_600ms.mp4	123.951365891553	124.55967991713987	0.6083140255868784	n/a	n/a	n/a	n/a
77.53515625	0.2	158792	66	61	0	0	0	66	176	stimuli\Videos_short_600ms_horflip\88.repeated_stroke_with_plastic_brush_short_horflip_short_600ms.mp4	88.repeated_stroke_with_plastic_brush_short_horflip_short_600ms.mp4	124.75160793603207	125.35961903946372	0.608011103431636	n/a	n/a	n/a	n/a
78.3349609375	0.2	160430	67	61	0	0	0	67	187	stimuli\Videos_short_600ms_horvertflip\16.repeated_touch_with_plastic_brush_short_horvertflip_short_600ms.mp4	16.repeated_touch_with_plastic_brush_short_horvertflip_short_600ms.mp4	125.55184528859172	126.1596203297413	0.6077750411495799	n/a	n/a	n/a	n/a
79.14306640625	0.2	162085	68	61	0	0	0	68	139	stimuli\Videos_short_600ms_horflip\54.repeated_touch_with_knife_short_horflip_short_600ms.mp4	54.repeated_touch_with_knife_short_horflip_short_600ms.mp4	126.35962285165078	126.9679620963143	0.6083392446635116	n/a	n/a	n/a	n/a
79.943359375	0.2	163724	69	61	0	0	0	69	39	stimuli\Videos_short_600ms\45.scratching_with_finger_nails_short_short_600ms.mp4	45.scratching_with_finger_nails_short_short_600ms.mp4	127.15958250112816	127.7679434459278	0.6083609447996423	n/a	n/a	n/a	n/a
80.7431640625	0.2	165362	70	61	0	0	0	70	276	stimuli\Videos_short_600ms_vertflip\15.single_stroke_top_to_bottom_with_a_plastic_whisk_short_vertflip_short_600ms.mp4	15.single_stroke_top_to_bottom_with_a_plastic_whisk_short_vertflip_short_600ms.mp4	127.9596606216146	128.56792479554133	0.6082641739267274	n/a	n/a	n/a	n/a
81.54296875	0.2	167000	71	61	0	0	0	71	353	stimuli\Videos_short_600ms_vertflip\85.touch_top_to_bottom_with_fabric_short_vertflip_short_600ms.mp4	85.touch_top_to_bottom_with_fabric_short_vertflip_short_600ms.mp4	128.75963933202365	129.36791259654638	0.6082732645227225	n/a	n/a	n/a	n/a
82.34326171875	0.2	168639	72	61	0	0	0	72	78	stimuli\Videos_short_600ms\80.stroke_with_sharp_stick_all_over_the_hand_short_short_600ms.mp4	80.stroke_with_sharp_stick_all_over_the_hand_short_short_600ms.mp4	129.559699564561	130.1678696068193	0.6081700422582799	n/a	n/a	n/a	n/a
83.14306640625	0.2	170277	73	61	0	0	0	73	210	stimuli\Videos_short_600ms_horvertflip\37.single_stab_with_nail_file_short_horvertflip_short_600ms.mp4	37.single_stab_with_nail_file_short_horvertflip_short_600ms.mp4	130.35959704608467	130.96785535510935	0.6082583090246771	n/a	n/a	n/a	n/a
83.94287109375	0.2	171915	74	61	0	0	0	74	121	stimuli\Videos_short_600ms_horflip\38.double_slap_with_pencil_short_horflip_short_600ms.mp4	38.double_slap_with_pencil_short_horflip_short_600ms.mp4	131.1595470184766	131.76781764379484	0.608270625318255	n/a	n/a	n/a	n/a
84.7431640625	0.2	173554	75	61	0	0	0	75	31	stimuli\Videos_short_600ms\38.double_slap_with_pencil_short_short_600ms.mp4	38.double_slap_with_pencil_short_short_600ms.mp4	131.95961018346134	132.56780045963387	0.608190276172536	n/a	n/a	n/a	n/a
85.54296875	0.2	175192	76	61	0	0	0	76	291	stimuli\Videos_short_600ms_vertflip\29.single_pinch_with_tweezers_short_vertflip_short_600ms.mp4	29.single_pinch_with_tweezers_short_vertflip_short_600ms.mp4	132.75978067614778	133.36781172024348	0.6080310440956964	n/a	n/a	n/a	n/a
86.3427734375	0.2	176830	77	61	0	0	1	77	368	stimuli\Targets_short_600ms_horflip\chopstickwood-tap_short_horflip_short_600ms.mp4	chopstickwood-tap_short_horflip_short_600ms.mp4	133.55949077407058	134.16780157396352	0.6083107998929336	n/a	n/a	n/a	n/a
87.14306640625	0.2	178469	78	61	0	0	0	78	225	stimuli\Videos_short_600ms_horvertflip\50.single_(long)hard_push_with_thumb_short_horvertflip_short_600ms.mp4	50.single_(long)hard_push_with_thumb_short_horvertflip_short_600ms.mp4	134.35952725375682	134.96779054794752	0.6082632941906922	n/a	n/a	n/a	n/a
87.94287109375	0.2	180107	79	61	0	0	0	79	96	stimuli\Videos_short_600ms_horflip\15.single_stroke_top_to_bottom_with_a_plastic_whisk_short_horflip_short_600ms.mp4	15.single_stroke_top_to_bottom_with_a_plastic_whisk_short_horflip_short_600ms.mp4	135.15979305109067	135.76778919902063	0.6079961479299527	n/a	n/a	n/a	n/a
88.7431640625	0.2	181746	80	61	0	0	0	80	318	stimuli\Videos_short_600ms_vertflip\53.touch_top_to_bottom_with_knife_short_vertflip_short_600ms.mp4	53.touch_top_to_bottom_with_knife_short_vertflip_short_600ms.mp4	135.95945036489866	136.5677617512847	0.608311386386049	n/a	n/a	n/a	n/a
89.54296875	0.2	183384	81	61	0	0	0	81	266	stimuli\Videos_short_600ms_horvertflip\88.repeated_stroke_with_plastic_brush_short_horvertflip_short_600ms.mp4	88.repeated_stroke_with_plastic_brush_short_horvertflip_short_600ms.mp4	136.7594721823334	137.36774456712374	0.6082723847903253	n/a	n/a	n/a	n/a
90.3427734375	0.2	185022	82	61	0	0	0	82	242	stimuli\Videos_short_600ms_horvertflip\66.stroke_top_to_bottom_with_sponge_short_horvertflip_short_600ms.mp4	66.stroke_top_to_bottom_with_sponge_short_horvertflip_short_600ms.mp4	137.55940661273416	138.1677341275972	0.6083275148630491	n/a	n/a	n/a	n/a
91.14306640625	0.2	186661	83	61	0	0	0	83	19	stimuli\Videos_short_600ms\27.single_push_with_a_plastic_whisk_short_short_600ms.mp4	27.single_push_with_a_plastic_whisk_short_short_600ms.mp4	138.35938972181975	138.96771137178075	0.6083216499609989	n/a	n/a	n/a	n/a
91.94287109375	0.2	188299	84	61	0	0	0	84	317	stimuli\Videos_short_600ms_vertflip\52.touch_top_to_bottom_with_hammer_short_vertflip_short_600ms.mp4	52.touch_top_to_bottom_with_hammer_short_vertflip_short_600ms.mp4	139.15938045527582	139.76769536059874	0.6083149053229135	n/a	n/a	n/a	n/a
92.74267578125	0.2	189937	85	61	0	0	0	85	272	stimuli\Videos_short_600ms_vertflip\11.single_touch_with_lighter_short_vertflip_short_600ms.mp4	11.single_touch_with_lighter_short_vertflip_short_600ms.mp4	139.9593142991871	140.56768052239931	0.6083662232122151	n/a	n/a	n/a	n/a
93.54296875	0.2	191576	86	61	0	0	0	86	22	stimuli\Videos_short_600ms\3.single_push_with_finger_short_short_600ms.mp4	3.single_push_with_finger_short_short_600ms.mp4	140.7593311314522	141.36766040578732	0.6083292743351194	n/a	n/a	n/a	n/a
94.3427734375	0.2	193214	87	61	0	0	0	87	344	stimuli\Videos_short_600ms_vertflip\77.tapping_with_all_fingers_short_vertflip_short_600ms.mp4	77.tapping_with_all_fingers_short_vertflip_short_600ms.mp4	141.55930016477578	142.16764468785186	0.6083445230760844	n/a	n/a	n/a	n/a
95.142578125	0.2	194852	88	61	0	0	0	88	197	stimuli\Videos_short_600ms_horvertflip\25.single_touch_with_stanley_knife_short_horvertflip_short_600ms.mp4	25.single_touch_with_stanley_knife_short_horvertflip_short_600ms.mp4	142.35954748766744	142.9676310226314	0.6080835349639528	n/a	n/a	n/a	n/a
95.94287109375	0.2	196491	89	61	0	0	0	89	209	stimuli\Videos_short_600ms_horvertflip\36.single_slap_with_full_hand_short_horvertflip_short_600ms.mp4	36.single_slap_with_full_hand_short_horvertflip_short_600ms.mp4	143.15930948996902	143.76759037886222	0.608280888893205	n/a	n/a	n/a	n/a
96.74267578125	0.2	198129	90	61	0	0	0	90	24	stimuli\Videos_short_600ms\31.hand_grabbing_wrist_short_short_600ms.mp4	31.hand_grabbing_wrist_short_short_600ms.mp4	143.9592635677909	144.56759401510135	0.6083304473104363	n/a	n/a	n/a	n/a
97.54248046875	0.2	199767	91	61	0	0	0	91	70	stimuli\Videos_short_600ms\73.single_stroke_with_flat_hand_short_short_600ms.mp4	73.single_stroke_with_flat_hand_short_short_600ms.mp4	144.7592607526385	145.3675574767658	0.6082967241272854	n/a	n/a	n/a	n/a
98.3427734375	0.2	201406	92	61	0	0	0	92	231	stimuli\Videos_short_600ms_horvertflip\56.repeated_touch_with_nail_file_short_horvertflip_short_600ms.mp4	56.repeated_touch_with_nail_file_short_horvertflip_short_600ms.mp4	145.56002242738396	146.16754263856637	0.6075202111824183	n/a	n/a	n/a	n/a
99.142578125	0.2	203044	93	61	0	0	0	93	179	stimuli\Videos_short_600ms_horflip\90.repeated_touch_with_sponge_short_horflip_short_600ms.mp4	90.repeated_touch_with_sponge_short_horflip_short_600ms.mp4	146.3593093726704	146.96749935559274	0.6081899829223403	4.0	4.0	2.2617212254008336	1.0
133.94140625	0.2	274312	94	61	1	0	0	0	246	stimuli\Videos_short_600ms_horvertflip\7.repeated_touch_with_hairbrush_short_horvertflip_short_600ms.mp4	7.repeated_touch_with_hairbrush_short_horvertflip_short_600ms.mp4	181.15850541198597	181.7668335133385	0.6083281013525266	n/a	n/a	n/a	n/a
134.7412109375	0.2	275950	95	61	1	0	0	1	302	stimuli\Videos_short_600ms_vertflip\39.single_stab_with_scissors_short_vertflip_short_600ms.mp4	39.single_stab_with_scissors_short_vertflip_short_600ms.mp4	181.95848265616587	182.56681105076495	0.6083283945990843	n/a	n/a	n/a	n/a
135.54150390625	0.2	277589	96	61	1	0	0	2	21	stimuli\Videos_short_600ms\29.single_pinch_with_tweezers_short_short_600ms.mp4	29.single_pinch_with_tweezers_short_short_600ms.mp4	182.7584666449875	183.36679973150603	0.6083330865185417	n/a	n/a	n/a	n/a
136.34130859375	0.2	279227	97	61	1	0	0	3	249	stimuli\Videos_short_600ms_horvertflip\72.(short)stroke_with_finger_all_over_the_hand_short_horvertflip_short_600ms.mp4	72.(short)stroke_with_finger_all_over_the_hand_short_horvertflip_short_600ms.mp4	183.5585001922227	184.166771697277	0.6082715050542902	n/a	n/a	n/a	n/a
137.14111328125	0.2	280865	98	61	1	0	0	4	140	stimuli\Videos_short_600ms_horflip\55.touch_top_to_bottom_with_nail_file_short_horflip_short_600ms.mp4	55.touch_top_to_bottom_with_nail_file_short_horflip_short_600ms.mp4	184.35850265547924	184.966751580665	0.6082489251857623	n/a	n/a	n/a	n/a
137.94140625	0.2	282504	99	61	1	0	0	5	150	stimuli\Videos_short_600ms_horflip\64.repeated_touch_with_screwdriver_short_horflip_short_600ms.mp4	64.repeated_touch_with_screwdriver_short_horflip_short_600ms.mp4	185.15841919793456	185.76673938167005	0.6083201837354864	n/a	n/a	n/a	n/a
138.7412109375	0.2	284142	100	61	1	0	0	6	163	stimuli\Videos_short_600ms_horflip\76.tickle_with_fingers_from_top_to_bottom_short_horflip_short_600ms.mp4	76.tickle_with_fingers_from_top_to_bottom_short_horflip_short_600ms.mp4	185.95839350966708	186.56672219750908	0.608328687842004	n/a	n/a	n/a	n/a
139.54150390625	0.2	285781	101	61	1	0	0	7	278	stimuli\Videos_short_600ms_vertflip\17.repeated_touch_with_rolling_pin_short_vertflip_short_600ms.mp4	17.repeated_touch_with_rolling_pin_short_vertflip_short_600ms.mp4	186.75841356762976	187.36670618632704	0.6082926186973054	n/a	n/a	n/a	n/a
140.34130859375	0.2	287419	102	61	1	0	0	8	97	stimuli\Videos_short_600ms_horflip\16.repeated_touch_with_plastic_brush_short_horflip_short_600ms.mp4	16.repeated_touch_with_plastic_brush_short_horflip_short_600ms.mp4	187.5583450655795	188.16669076163816	0.6083456960586773	n/a	n/a	n/a	n/a
141.14111328125	0.2	289057	103	61	1	0	0	9	89	stimuli\Videos_short_600ms\90.repeated_touch_with_sponge_short_short_600ms.mp4	90.repeated_touch_with_sponge_short_short_600ms.mp4	188.3583393179761	188.96667416396667	0.6083348459906119	n/a	n/a	n/a	n/a
141.94140625	0.2	290696	104	61	1	0	0	10	312	stimuli\Videos_short_600ms_vertflip\48.single_slap_with_hand_short_vertflip_short_600ms.mp4	48.single_slap_with_hand_short_vertflip_short_600ms.mp4	189.15832653249163	189.76664964867817	0.6083231161865115	n/a	n/a	n/a	n/a
142.7412109375	0.2	292334	105	61	1	0	0	11	296	stimuli\Videos_short_600ms_vertflip\33.scratch_top_to_bottom_with_scissors_short_vertflip_short_600ms.mp4	33.scratch_top_to_bottom_with_scissors_short_vertflip_short_600ms.mp4	189.958388817744	190.5666368631937	0.6082480454497272	n/a	n/a	n/a	n/a
143.541015625	0.2	293972	106	61	1	0	0	12	286	stimuli\Videos_short_600ms_vertflip\24.single_stroke_top_to_bottom_with_a_spoon_short_vertflip_short_600ms.mp4	24.single_stroke_top_to_bottom_with_a_spoon_short_vertflip_short_600ms.mp4	190.75833585768487	191.36659563293503	0.6082597752501897	n/a	n/a	n/a	n/a
144.34130859375	0.2	295611	107	61	1	0	0	13	159	stimuli\Videos_short_600ms_horflip\72.(short)stroke_with_finger_all_over_the_hand_short_horflip_short_600ms.mp4	72.(short)stroke_with_finger_all_over_the_hand_short_horflip_short_600ms.mp4	191.5584362647969	192.16660953275277	0.6081732679558627	n/a	n/a	n/a	n/a
145.14111328125	0.2	297249	108	61	1	0	0	14	136	stimuli\Videos_short_600ms_horflip\51.repeated_touch_with_hammer_short_horflip_short_600ms.mp4	51.repeated_touch_with_hammer_short_horflip_short_600ms.mp4	192.3585067609129	192.96657475388565	0.6080679929727921	n/a	n/a	n/a	n/a
145.94091796875	0.2	298887	109	61	1	0	0	15	104	stimuli\Videos_short_600ms_horflip\22.single_touch_with_metal_chopstick_short_horflip_short_600ms.mp4	22.single_touch_with_metal_chopstick_short_horflip_short_600ms.mp4	193.1583048323555	193.76655082509023	0.6082459927347372	n/a	n/a	n/a	n/a
146.7412109375	0.2	300526	110	61	1	0	0	16	180	stimuli\Videos_short_600ms_horvertflip\1.repeated_touch_with_finger_fast_short_horvertflip_short_600ms.mp4	1.repeated_touch_with_finger_fast_short_horvertflip_short_600ms.mp4	193.95823427759387	194.5665242570867	0.608289979492838	n/a	n/a	n/a	n/a
147.541015625	0.2	302164	111	61	1	0	0	17	274	stimuli\Videos_short_600ms_vertflip\13.single_touch_with_pen_short_vertflip_short_600ms.mp4	13.single_touch_with_pen_short_vertflip_short_600ms.mp4	194.75821533396083	195.36651968246224	0.6083043485014059	n/a	n/a	n/a	n/a
148.3408203125	0.2	303802	112	61	1	0	0	18	229	stimuli\Videos_short_600ms_horvertflip\54.repeated_touch_with_knife_short_horvertflip_short_600ms.mp4	54.repeated_touch_with_knife_short_horvertflip_short_600ms.mp4	195.5582004957614	196.1665048442628	0.6083043485014059	n/a	n/a	n/a	n/a
149.14111328125	0.2	305441	113	61	1	0	0	19	55	stimuli\Videos_short_600ms\6.single_touch_with_flat_hand_short_short_600ms.mp4	6.single_touch_with_flat_hand_short_short_600ms.mp4	196.35847333097263	196.96648912632736	0.6080157953547314	n/a	n/a	n/a	n/a
149.94091796875	0.2	307079	114	61	1	0	0	20	51	stimuli\Videos_short_600ms\56.repeated_touch_with_nail_file_short_short_600ms.mp4	56.repeated_touch_with_nail_file_short_short_600ms.mp4	197.1581450137928	197.76648983011543	0.6083448163226421	n/a	n/a	n/a	n/a
150.74072265625	0.2	308717	115	61	1	0	0	21	347	stimuli\Videos_short_600ms_vertflip\8.single_touch_with_hairbrush_short_vertflip_short_600ms.mp4	8.single_touch_with_hairbrush_short_vertflip_short_600ms.mp4	197.95815392844452	198.56648144330393	0.6083275148594112	n/a	n/a	n/a	n/a
151.541015625	0.2	310356	116	61	1	0	0	22	349	stimuli\Videos_short_600ms_vertflip\81.single_stroke_top_to_bottom_with_cotton_pad_short_vertflip_short_600ms.mp4	81.single_stroke_top_to_bottom_with_cotton_pad_short_vertflip_short_600ms.mp4	198.75819803250124	199.3664548753004	0.6082568427991646	n/a	n/a	n/a	n/a
152.3408203125	0.2	311994	117	61	1	0	0	23	135	stimuli\Videos_short_600ms_horflip\50.single_(long)hard_push_with_thumb_short_horflip_short_600ms.mp4	50.single_(long)hard_push_with_thumb_short_horflip_short_600ms.mp4	199.55837966849867	200.1664403303475	0.6080606618488673	n/a	n/a	n/a	n/a
153.14892578125	0.2	313649	118	61	1	0	0	24	123	stimuli\Videos_short_600ms_horflip\4.repeated_tap_with_finger_slow_short_horflip_short_600ms.mp4	4.repeated_tap_with_finger_slow_short_horflip_short_600ms.mp4	200.36643346841083	200.97473371148223	0.6083002430714259	n/a	n/a	n/a	n/a
153.94921875	0.2	315288	119	61	1	0	0	25	239	stimuli\Videos_short_600ms_horvertflip\63.stroke_top_to_bottom_with_screwdriver_short_horvertflip_short_600ms.mp4	63.stroke_top_to_bottom_with_screwdriver_short_horvertflip_short_600ms.mp4	201.16658108797856	201.77473353553432	0.6081524475557671	n/a	n/a	n/a	n/a
154.7490234375	0.2	316926	120	61	1	0	0	26	13	stimuli\Videos_short_600ms\21.repeated_touch_with_metal_chopstick_short_short_600ms.mp4	21.repeated_touch_with_metal_chopstick_short_short_600ms.mp4	201.96645686936972	202.5747222162754	0.6082653469056822	n/a	n/a	n/a	n/a
155.54931640625	0.2	318565	121	61	1	0	0	27	290	stimuli\Videos_short_600ms_vertflip\28.single_injection_with_sharp_needle_short_vertflip_short_600ms.mp4	28.single_injection_with_sharp_needle_short_vertflip_short_600ms.mp4	202.7663851416255	203.3747020996634	0.6083169580379035	n/a	n/a	n/a	n/a
156.34912109375	0.2	320203	122	61	1	0	0	28	7	stimuli\Videos_short_600ms\16.repeated_touch_with_plastic_brush_short_short_600ms.mp4	16.repeated_touch_with_plastic_brush_short_short_600ms.mp4	203.5663661979925	204.1746881412	0.6083219432075566	n/a	n/a	n/a	n/a
157.14892578125	0.2	321841	123	61	1	0	1	29	381	stimuli\Targets_short_600ms_vertflip\finger-tap_short_horvertflip_short_600ms.mp4	finger-tap_short_horvertflip_short_600ms.mp4	204.3663490138315	204.97467535571195	0.6083263418804563	n/a	n/a	n/a	n/a
157.94921875	0.2	323480	124	61	1	0	0	30	49	stimuli\Videos_short_600ms\54.repeated_touch_with_knife_short_short_600ms.mp4	54.repeated_touch_with_knife_short_short_600ms.mp4	205.16633300264948	205.774661104002	0.6083281013525266	n/a	n/a	n/a	n/a
158.7490234375	0.2	325118	125	61	1	0	0	31	86	stimuli\Videos_short_600ms\88.repeated_stroke_with_plastic_brush_short_short_600ms.mp4	88.repeated_stroke_with_plastic_brush_short_short_600ms.mp4	205.96636537690577	206.57464245361552	0.6082770767097827	n/a	n/a	n/a	n/a
159.548828125	0.2	326756	126	61	1	0	0	32	38	stimuli\Videos_short_600ms\44.pushing_top_to_bottom_with_finger_short_short_600ms.mp4	44.pushing_top_to_bottom_with_finger_short_short_600ms.mp4	206.76634701976585	207.37462292349664	0.6082759037308278	n/a	n/a	n/a	n/a
160.34912109375	0.2	328395	127	61	1	0	1	33	369	stimuli\Targets_short_600ms_horflip\finger-tap_short_horflip_short_600ms.mp4	finger-tap_short_horflip_short_600ms.mp4	207.5662703068556	208.17462304079163	0.6083527339360444	n/a	n/a	n/a	n/a
161.14892578125	0.2	330033	128	61	1	0	0	34	119	stimuli\Videos_short_600ms_horflip\36.single_slap_with_full_hand_short_horflip_short_600ms.mp4	36.single_slap_with_full_hand_short_horflip_short_600ms.mp4	208.36627834177125	208.9745909011326	0.6083125593613659	n/a	n/a	n/a	n/a
161.94873046875	0.2	331671	129	61	1	0	0	35	167	stimuli\Videos_short_600ms_horflip\8.single_touch_with_hairbrush_short_horflip_short_600ms.mp4	8.single_touch_with_hairbrush_short_horflip_short_600ms.mp4	209.16625851840217	209.7745701980311	0.6083116796289687	n/a	n/a	n/a	n/a
162.7490234375	0.2	333310	130	61	1	0	1	36	361	stimuli\Targets_short_600ms\chopstick-silver-tap_short_short_600ms.mp4	chopstick-silver-tap_short_short_600ms.mp4	209.96622080708767	210.57455623956776	0.6083354324800894	n/a	n/a	n/a	n/a
163.548828125	0.2	334948	131	61	1	0	0	37	130	stimuli\Videos_short_600ms_horflip\46.scratching_top_to_bottom_with_finger_nails_short_horflip_short_600ms.mp4	46.scratching_top_to_bottom_with_finger_nails_short_horflip_short_600ms.mp4	210.76623060147176	211.3745393486497	0.6083087471779436	n/a	n/a	n/a	n/a
164.3486328125	0.2	336586	132	61	1	0	0	38	226	stimuli\Videos_short_600ms_horvertflip\51.repeated_touch_with_hammer_short_horvertflip_short_600ms.mp4	51.repeated_touch_with_hammer_short_horvertflip_short_600ms.mp4	211.56624039585583	212.17451600634377	0.6082756104879081	n/a	n/a	n/a	n/a
165.14892578125	0.2	338225	133	61	1	0	0	39	112	stimuli\Videos_short_600ms_horflip\3.single_push_with_finger_short_horflip_short_600ms.mp4	3.single_push_with_finger_short_horflip_short_600ms.mp4	212.36641147503175	212.97449090456576	0.6080794295339729	n/a	n/a	n/a	n/a
165.94873046875	0.2	339863	134	61	1	0	1	40	374	stimuli\Targets_short_600ms_horvertflip\chopstickwood-tap_short_vertflip_short_600ms.mp4	chopstickwood-tap_short_vertflip_short_600ms.mp4	213.16624033721016	213.77449424755832	0.6082539103481395	n/a	n/a	n/a	n/a
166.74853515625	0.2	341501	135	61	1	0	0	41	223	stimuli\Videos_short_600ms_horvertflip\49.repeated_slap_with_hand_short_horvertflip_short_600ms.mp4	49.repeated_slap_with_hand_short_horvertflip_short_600ms.mp4	213.96621816787956	214.57442838471616	0.6082102168365964	n/a	n/a	n/a	n/a
167.548828125	0.2	343140	136	61	1	0	0	42	93	stimuli\Videos_short_600ms_horflip\12.repeated_touch_with_nail_file_short_horflip_short_600ms.mp4	12.repeated_touch_with_nail_file_short_horflip_short_600ms.mp4	214.76619013365053	215.3744358331387	0.6082456994881795	n/a	n/a	n/a	n/a
168.3486328125	0.2	344778	137	61	1	0	0	43	170	stimuli\Videos_short_600ms_horflip\82.repeated_touch_with_cotton_bud_short_horflip_short_600ms.mp4	82.repeated_touch_with_cotton_bud_short_horflip_short_600ms.mp4	215.5662324782388	216.1744204084498	0.6081879302109883	n/a	n/a	n/a	n/a
169.1484375	0.2	346416	138	61	1	0	0	44	270	stimuli\Videos_short_600ms_vertflip\1.repeated_touch_with_finger_fast_short_vertflip_short_600ms.mp4	1.repeated_touch_with_finger_fast_short_vertflip_short_600ms.mp4	216.36613465168557	216.9744070364759	0.6082723847903253	n/a	n/a	n/a	n/a
169.94873046875	0.2	348055	139	61	1	0	0	45	106	stimuli\Videos_short_600ms_horflip\24.single_stroke_top_to_bottom_with_a_spoon_short_horflip_short_600ms.mp4	24.single_stroke_top_to_bottom_with_a_spoon_short_horflip_short_600ms.mp4	217.16608403758437	217.7744121389369	0.6083281013525266	n/a	n/a	n/a	n/a
170.74853515625	0.2	349693	140	61	1	0	0	46	164	stimuli\Videos_short_600ms_horflip\77.tapping_with_all_fingers_short_horflip_short_600ms.mp4	77.tapping_with_all_fingers_short_horflip_short_600ms.mp4	217.9660888468061	218.5743931953075	0.6083043485014059	n/a	n/a	n/a	n/a
171.54833984375	0.2	351331	141	61	1	0	0	47	330	stimuli\Videos_short_600ms_vertflip\64.repeated_touch_with_screwdriver_short_vertflip_short_600ms.mp4	64.repeated_touch_with_screwdriver_short_vertflip_short_600ms.mp4	218.76608016675164	219.37439096664457	0.6083107998929336	n/a	n/a	n/a	n/a
172.3486328125	0.2	352970	142	61	1	0	0	48	113	stimuli\Videos_short_600ms_horflip\30.finger_pulling_back_another_finger_short_horflip_short_600ms.mp4	30.finger_pulling_back_another_finger_short_horflip_short_600ms.mp4	219.56609142736124	220.17436381215157	0.6082723847903253	n/a	n/a	n/a	n/a
173.1484375	0.2	354608	143	61	1	0	0	49	182	stimuli\Videos_short_600ms_horvertflip\11.single_touch_with_lighter_short_horvertflip_short_600ms.mp4	11.single_touch_with_lighter_short_horvertflip_short_600ms.mp4	220.366016767166	220.97434486851853	0.6083281013525266	n/a	n/a	n/a	n/a
173.9482421875	0.2	356246	144	61	1	0	0	50	253	stimuli\Videos_short_600ms_horvertflip\76.tickle_with_fingers_from_top_to_bottom_short_horvertflip_short_600ms.mp4	76.tickle_with_fingers_from_top_to_bottom_short_horvertflip_short_600ms.mp4	221.16604503599228	221.77433794793615	0.6082929119438631	n/a	n/a	n/a	n/a
174.74853515625	0.2	357885	145	61	1	0	0	51	90	stimuli\Videos_short_600ms_horflip\1.repeated_touch_with_finger_fast_short_horflip_short_600ms.mp4	1.repeated_touch_with_finger_fast_short_horflip_short_600ms.mp4	221.9659853312951	222.5743409976858	0.6083556663907075	n/a	n/a	n/a	n/a
175.54833984375	0.2	359523	146	61	1	0	0	52	261	stimuli\Videos_short_600ms_horvertflip\83.single_stroke_top_to_bottom_with_cotton_bud_short_horvertflip_short_600ms.mp4	83.single_stroke_top_to_bottom_with_cotton_bud_short_horvertflip_short_600ms.mp4	222.76592650633393	223.37431384318916	0.6083873368552304	n/a	n/a	n/a	n/a
176.3486328125	0.2	361162	147	61	1	0	0	53	256	stimuli\Videos_short_600ms_horvertflip\79.long_with_soft_brush_all_over_the_hand_short_horvertflip_short_600ms.mp4	79.long_with_soft_brush_all_over_the_hand_short_horvertflip_short_600ms.mp4	223.5659310223091	224.1742737859131	0.6083427636040142	n/a	n/a	n/a	n/a
177.1484375	0.2	362800	148	61	1	0	0	54	275	stimuli\Videos_short_600ms_vertflip\14.repeated_touch_with_pencil_short_vertflip_short_600ms.mp4	14.repeated_touch_with_pencil_short_vertflip_short_600ms.mp4	224.36594521536972	224.9742563085092	0.6083110931394913	n/a	n/a	n/a	n/a
177.9482421875	0.2	364438	149	61	1	0	0	55	185	stimuli\Videos_short_600ms_horvertflip\14.repeated_touch_with_pencil_short_horvertflip_short_600ms.mp4	14.repeated_touch_with_pencil_short_horvertflip_short_600ms.mp4	225.1658957742511	225.7742402973272	0.6083445230760844	n/a	n/a	n/a	n/a
178.74853515625	0.2	366077	150	61	1	0	0	56	168	stimuli\Videos_short_600ms_horflip\80.stroke_with_sharp_stick_all_over_the_hand_short_horflip_short_600ms.mp4	80.stroke_with_sharp_stick_all_over_the_hand_short_horflip_short_600ms.mp4	225.96593372016287	226.57422633886017	0.6082926186973054	n/a	n/a	n/a	n/a
179.54833984375	0.2	367715	151	61	1	0	0	57	95	stimuli\Videos_short_600ms_horflip\14.repeated_touch_with_pencil_short_horflip_short_600ms.mp4	14.repeated_touch_with_pencil_short_horflip_short_600ms.mp4	226.76588691824873	227.3742035830437	0.6083166647949838	n/a	n/a	n/a	n/a
180.34814453125	0.2	369353	152	61	1	0	0	58	120	stimuli\Videos_short_600ms_horflip\37.single_stab_with_nail_file_short_horflip_short_600ms.mp4	37.single_stab_with_nail_file_short_horflip_short_600ms.mp4	227.56593893992613	228.1742013543808	0.6082624144546571	n/a	n/a	n/a	n/a
181.1484375	0.2	370992	153	61	1	0	0	59	141	stimuli\Videos_short_600ms_horflip\56.repeated_touch_with_nail_file_short_horflip_short_600ms.mp4	56.repeated_touch_with_nail_file_short_horflip_short_600ms.mp4	228.36586281350537	228.97414810107512	0.6082852875697426	n/a	n/a	n/a	n/a
181.9482421875	0.2	372630	154	61	1	0	0	60	343	stimuli\Videos_short_600ms_vertflip\76.tickle_with_fingers_from_top_to_bottom_short_vertflip_short_600ms.mp4	76.tickle_with_fingers_from_top_to_bottom_short_vertflip_short_600ms.mp4	229.16583565901237	229.77413003718175	0.6082943781693757	n/a	n/a	n/a	n/a
182.748046875	0.2	374268	155	61	1	0	0	61	306	stimuli\Videos_short_600ms_vertflip\42.single_slap_with_plastic_whisk_short_vertflip_short_600ms.mp4	42.single_slap_with_plastic_whisk_short_vertflip_short_600ms.mp4	229.9658155424004	230.5741248760678	0.608309333667421	n/a	n/a	n/a	n/a
183.54833984375	0.2	375907	156	61	1	0	0	62	359	stimuli\Videos_short_600ms_vertflip\90.repeated_touch_with_sponge_short_vertflip_short_600ms.mp4	90.repeated_touch_with_sponge_short_vertflip_short_600ms.mp4	230.76580363664831	231.3741068121708	0.6083031755224511	n/a	n/a	n/a	n/a
184.34814453125	0.2	377545	157	61	1	0	0	63	144	stimuli\Videos_short_600ms_horflip\59.single_push_with_long_side_pencil_short_horflip_short_600ms.mp4	59.single_push_with_long_side_pencil_short_horflip_short_600ms.mp4	231.56578850520236	232.17408434959725	0.6082958443948883	n/a	n/a	n/a	n/a
185.14794921875	0.2	379183	158	61	1	0	0	64	33	stimuli\Videos_short_600ms\4.repeated_tap_with_finger_slow_short_short_600ms.mp4	4.repeated_tap_with_finger_slow_short_short_600ms.mp4	232.3658214659481	232.9740909182874	0.6082694523393002	n/a	n/a	n/a	n/a
185.9482421875	0.2	380822	159	61	1	0	0	65	213	stimuli\Videos_short_600ms_horvertflip\4.repeated_tap_with_finger_slow_short_horvertflip_short_600ms.mp4	4.repeated_tap_with_finger_slow_short_horvertflip_short_600ms.mp4	233.1657608815185	233.7740734408835	0.6083125593650038	n/a	n/a	n/a	n/a
186.748046875	0.2	382460	160	61	1	0	0	66	221	stimuli\Videos_short_600ms_horvertflip\47.(long)scratching_with_finger_nails_short_horvertflip_short_600ms.mp4	47.(long)scratching_with_finger_nails_short_horvertflip_short_600ms.mp4	233.9658017598813	234.5740574297015	0.6082556698202097	n/a	n/a	n/a	n/a
187.5478515625	0.2	384098	161	61	1	0	0	67	215	stimuli\Videos_short_600ms_horvertflip\41.injection_with_blunt_syringe_short_horvertflip_short_600ms.mp4	41.injection_with_blunt_syringe_short_horvertflip_short_600ms.mp4	234.76572358074552	235.37404171176604	0.6083181310204964	n/a	n/a	n/a	n/a
188.34814453125	0.2	385737	162	61	1	0	0	68	201	stimuli\Videos_short_600ms_horvertflip\29.single_pinch_with_tweezers_short_horvertflip_short_600ms.mp4	29.single_pinch_with_tweezers_short_horvertflip_short_600ms.mp4	235.56571812638867	236.1739635326303	0.6082454062416218	n/a	n/a	n/a	n/a
189.14794921875	0.2	387375	163	61	1	0	0	69	59	stimuli\Videos_short_600ms\63.stroke_top_to_bottom_with_screwdriver_short_short_600ms.mp4	63.stroke_top_to_bottom_with_screwdriver_short_short_600ms.mp4	236.3656912651386	236.9740082231765	0.6083169580379035	n/a	n/a	n/a	n/a
189.94775390625	0.2	389013	164	61	1	0	0	70	262	stimuli\Videos_short_600ms_horvertflip\84.single_touch_with_cotton_bud_short_horvertflip_short_600ms.mp4	84.single_touch_with_cotton_bud_short_horvertflip_short_600ms.mp4	237.1656570727646	237.77398664034263	0.6083295675780391	n/a	n/a	n/a	n/a
190.748046875	0.2	390652	165	61	1	0	0	71	2	stimuli\Videos_short_600ms\11.single_touch_with_lighter_short_short_600ms.mp4	11.single_touch_with_lighter_short_short_600ms.mp4	237.96565044542513	238.57400464558668	0.608354200161557	n/a	n/a	n/a	n/a
191.5478515625	0.2	392290	166	61	1	0	0	72	283	stimuli\Videos_short_600ms_vertflip\21.repeated_touch_with_metal_chopstick_short_vertflip_short_600ms.mp4	21.repeated_touch_with_metal_chopstick_short_vertflip_short_600ms.mp4	238.76559425966843	239.37399655202535	0.6084022923569137	n/a	n/a	n/a	n/a
192.34765625	0.2	393928	167	61	1	0	0	73	297	stimuli\Videos_short_600ms_vertflip\34.repeated_punch_with_hand_short_vertflip_short_600ms.mp4	34.repeated_punch_with_hand_short_vertflip_short_600ms.mp4	239.56566123684388	240.17397702190283	0.6083157850589487	n/a	n/a	n/a	n/a
193.14794921875	0.2	395567	168	61	1	0	0	74	323	stimuli\Videos_short_600ms_vertflip\58.single_slap_with_pencil_short_vertflip_short_600ms.mp4	58.single_slap_with_pencil_short_vertflip_short_600ms.mp4	240.3656223525468	240.97392435508664	0.6083020025398582	n/a	n/a	n/a	n/a
193.94775390625	0.2	397205	169	61	1	0	0	75	259	stimuli\Videos_short_600ms_horvertflip\81.single_stroke_top_to_bottom_with_cotton_pad_short_horvertflip_short_600ms.mp4	81.single_stroke_top_to_bottom_with_cotton_pad_short_horvertflip_short_600ms.mp4	241.16559021288776	241.7739059979467	0.6083157850589487	n/a	n/a	n/a	n/a
194.748046875	0.2	398844	170	61	1	0	0	76	60	stimuli\Videos_short_600ms\64.repeated_touch_with_screwdriver_short_short_600ms.mp4	64.repeated_touch_with_screwdriver_short_short_600ms.mp4	241.96583489657496	242.57385890278965	0.6080240062146913	n/a	n/a	n/a	n/a
195.5478515625	0.2	400482	171	61	1	0	0	77	67	stimuli\Videos_short_600ms\70.(long)stroke_with_finger_all_over_the_hand_short_short_600ms.mp4	70.(long)stroke_with_finger_all_over_the_hand_short_short_600ms.mp4	242.7656147868256	243.37382529690512	0.6082105100795161	n/a	n/a	n/a	n/a
196.34765625	0.2	402120	172	61	1	0	0	78	29	stimuli\Videos_short_600ms\36.single_slap_with_full_hand_short_short_600ms.mp4	36.single_slap_with_full_hand_short_short_600ms.mp4	243.56559730941808	244.17380899247655	0.608211683058471	n/a	n/a	n/a	n/a
197.14794921875	0.2	403759	173	61	1	0	0	79	63	stimuli\Videos_short_600ms\67.single_touch_with_sponge_short_short_600ms.mp4	67.single_touch_with_sponge_short_short_600ms.mp4	244.3655167843208	244.9737932745411	0.6082764902203053	n/a	n/a	n/a	n/a
197.94775390625	0.2	405397	174	61	1	0	0	80	235	stimuli\Videos_short_600ms_horvertflip\6.single_touch_with_flat_hand_short_horvertflip_short_600ms.mp4	6.single_touch_with_flat_hand_short_horvertflip_short_600ms.mp4	245.16550194612137	245.77380746760173	0.6083055214803608	n/a	n/a	n/a	n/a
198.74755859375	0.2	407035	175	61	1	0	0	81	71	stimuli\Videos_short_600ms\74.fingers_walking_from_top_to_bottom_short_short_600ms.mp4	74.fingers_walking_from_top_to_bottom_short_short_600ms.mp4	245.96548593493935	246.57378823072577	0.6083022957864159	n/a	n/a	n/a	n/a
199.5478515625	0.2	408674	176	61	1	0	0	82	186	stimuli\Videos_short_600ms_horvertflip\15.single_stroke_top_to_bottom_with_a_plastic_whisk_short_horvertflip_short_600ms.mp4	15.single_stroke_top_to_bottom_with_a_plastic_whisk_short_horvertflip_short_600ms.mp4	246.76549690230604	247.37380535623743	0.6083084539313859	n/a	n/a	n/a	n/a
200.34765625	0.2	410312	177	61	1	0	0	83	1	stimuli\Videos_short_600ms\10.single_touch_with_knife_short_short_600ms.mp4	10.single_touch_with_knife_short_short_600ms.mp4	247.56544423548985	248.1737767355189	0.6083325000290642	n/a	n/a	n/a	n/a
201.1474609375	0.2	411950	178	61	1	0	0	84	27	stimuli\Videos_short_600ms\34.repeated_punch_with_hand_short_short_600ms.mp4	34.repeated_punch_with_hand_short_short_600ms.mp4	248.3658276240967	248.97375339321297	0.6079257691162638	n/a	n/a	n/a	n/a
201.94775390625	0.2	413589	179	61	1	0	0	85	87	stimuli\Videos_short_600ms\89.single_touch_with_plastic_brush_short_short_600ms.mp4	89.single_touch_with_plastic_brush_short_short_600ms.mp4	249.16541573206996	249.77373796852044	0.6083222364504763	n/a	n/a	n/a	n/a
202.74755859375	0.2	415227	180	61	1	0	0	86	181	stimuli\Videos_short_600ms_horvertflip\10.single_touch_with_knife_short_horvertflip_short_600ms.mp4	10.single_touch_with_knife_short_horvertflip_short_600ms.mp4	249.96544693334727	250.57372137084897	0.6082744375016773	n/a	n/a	n/a	n/a
203.54736328125	0.2	416865	181	61	1	0	0	87	114	stimuli\Videos_short_600ms_horflip\31.hand_grabbing_wrist_short_horflip_short_600ms.mp4	31.hand_grabbing_wrist_short_horflip_short_600ms.mp4	250.76582211109053	251.373705066424	0.6078829553334799	n/a	n/a	n/a	n/a
204.34765625	0.2	418504	182	61	1	0	0	88	18	stimuli\Videos_short_600ms\26.single_touch_with_a_blunt_syringe_short_short_600ms.mp4	26.single_touch_with_a_blunt_syringe_short_short_600ms.mp4	251.5654119785322	252.17368993497803	0.6082779564458178	n/a	n/a	n/a	n/a
205.1474609375	0.2	420142	183	61	1	0	0	89	77	stimuli\Videos_short_600ms\8.single_touch_with_hairbrush_short_short_600ms.mp4	8.single_touch_with_hairbrush_short_short_600ms.mp4	252.3653666428472	252.97369357121715	0.6083269283699337	n/a	n/a	n/a	n/a
205.947265625	0.2	421780	184	61	1	0	0	90	217	stimuli\Videos_short_600ms_horvertflip\43.touch_top_to_bottom_with_sharp_wooden_stick_short_horvertflip_short_600ms.mp4	43.touch_top_to_bottom_with_sharp_wooden_stick_short_horvertflip_short_600ms.mp4	253.16533684914612	253.77366788294967	0.6083310338035517	n/a	n/a	n/a	n/a
206.74755859375	0.2	423419	185	61	1	0	0	91	251	stimuli\Videos_short_600ms_horvertflip\74.fingers_walking_from_top_to_bottom_short_horvertflip_short_600ms.mp4	74.fingers_walking_from_top_to_bottom_short_horvertflip_short_600ms.mp4	253.96536629095135	254.57372606277204	0.6083597718206875	n/a	n/a	n/a	n/a
207.54736328125	0.2	425057	186	61	1	0	0	92	58	stimuli\Videos_short_600ms\62.touch_top_to_bottom_with_scissors_short_short_600ms.mp4	62.touch_top_to_bottom_with_scissors_short_short_600ms.mp4	254.7652672914155	255.37361826588312	0.6083509744676121	n/a	n/a	n/a	n/a
208.34716796875	0.2	426695	187	61	1	0	0	93	327	stimuli\Videos_short_600ms_vertflip\61.single_hit_with_rolling_pin_short_vertflip_short_600ms.mp4	61.single_hit_with_rolling_pin_short_vertflip_short_600ms.mp4	255.5653237117658	256.1736019614582	0.6082782496923755	4.0	4.0	1.806172632786911	1.0
242.2880859375	0.2	496206	188	61	2	0	0	0	336	stimuli\Videos_short_600ms_vertflip\7.repeated_touch_with_hairbrush_short_vertflip_short_600ms.mp4	7.repeated_touch_with_hairbrush_short_vertflip_short_600ms.mp4	289.50619142979485	290.1145626381731	0.6083712083782302	n/a	n/a	n/a	n/a
243.087890625	0.2	497844	189	61	2	0	0	1	245	stimuli\Videos_short_600ms_horvertflip\69.stroke_with_soft_sock_short_horvertflip_short_600ms.mp4	69.stroke_with_soft_sock_short_horvertflip_short_600ms.mp4	290.30622468378715	290.9145510256676	0.6083263418804563	n/a	n/a	n/a	n/a
243.8876953125	0.2	499482	190	61	2	0	0	2	129	stimuli\Videos_short_600ms_horflip\45.scratching_with_finger_nails_short_horflip_short_600ms.mp4	45.scratching_with_finger_nails_short_horflip_short_600ms.mp4	291.10615735471947	291.7145285630977	0.6083712083782302	n/a	n/a	n/a	n/a
244.68798828125	0.2	501121	191	61	2	0	0	3	292	stimuli\Videos_short_600ms_vertflip\3.single_push_with_finger_short_vertflip_short_600ms.mp4	3.single_push_with_finger_short_vertflip_short_600ms.mp4	291.906141636784	292.51451137893673	0.6083697421527177	n/a	n/a	n/a	n/a
245.48779296875	0.2	502759	192	61	2	0	0	4	205	stimuli\Videos_short_600ms_horvertflip\32.single_(long)pinch_with_fingers_short_horvertflip_short_600ms.mp4	32.single_(long)pinch_with_fingers_short_horvertflip_short_600ms.mp4	292.7061291445425	293.31449507450816	0.6083659299656574	n/a	n/a	n/a	n/a
246.28759765625	0.2	504397	193	61	2	0	0	5	328	stimuli\Videos_short_600ms_vertflip\62.touch_top_to_bottom_with_scissors_short_vertflip_short_600ms.mp4	62.touch_top_to_bottom_with_scissors_short_vertflip_short_600ms.mp4	293.5061421646242	294.11447671736823	0.6083345527440542	n/a	n/a	n/a	n/a
247.087890625	0.2	506036	194	61	2	0	0	6	265	stimuli\Videos_short_600ms_horvertflip\87.single_stroke_top_to_bottom_with_plastic_brush_short_horvertflip_short_600ms.mp4	87.single_stroke_top_to_bottom_with_plastic_brush_short_horvertflip_short_600ms.mp4	294.3060818734375	294.91445953320726	0.6083776597697579	n/a	n/a	n/a	n/a
247.8876953125	0.2	507674	195	61	2	0	0	7	320	stimuli\Videos_short_600ms_vertflip\55.touch_top_to_bottom_with_nail_file_short_vertflip_short_600ms.mp4	55.touch_top_to_bottom_with_nail_file_short_vertflip_short_600ms.mp4	295.106158820945	295.7144444017613	0.6082855808163004	n/a	n/a	n/a	n/a
248.6875	0.2	509312	196	61	2	0	0	8	177	stimuli\Videos_short_600ms_horflip\89.single_touch_with_plastic_brush_short_horflip_short_600ms.mp4	89.single_touch_with_plastic_brush_short_horflip_short_600ms.mp4	295.906046332133	296.5144292703153	0.6083829381823307	n/a	n/a	n/a	n/a
249.48779296875	0.2	510951	197	61	2	0	0	9	345	stimuli\Videos_short_600ms_vertflip\78.single_stroke_top_to_bottom_with_soft_brush_short_vertflip_short_600ms.mp4	78.single_stroke_top_to_bottom_with_soft_brush_short_vertflip_short_600ms.mp4	296.70602592227806	297.3144021158223	0.6083761935442453	n/a	n/a	n/a	n/a
250.28759765625	0.2	512589	198	61	2	0	0	10	151	stimuli\Videos_short_600ms_horflip\65.stroke_top_to_bottom_with_stanley_knife_short_horflip_short_600ms.mp4	65.stroke_top_to_bottom_with_stanley_knife_short_horflip_short_600ms.mp4	297.5060518451428	298.1143485692737	0.6082967241309234	n/a	n/a	n/a	n/a
251.08740234375	0.2	514227	199	61	2	0	0	11	125	stimuli\Videos_short_600ms_horflip\41.injection_with_blunt_syringe_short_horflip_short_600ms.mp4	41.injection_with_blunt_syringe_short_horflip_short_600ms.mp4	298.3060419921094	298.91437390564533	0.6083319135359488	n/a	n/a	n/a	n/a
251.8876953125	0.2	515866	200	61	2	0	0	12	354	stimuli\Videos_short_600ms_vertflip\86.touch_top_to_bottom_with_hair_brush_short_vertflip_short_600ms.mp4	86.touch_top_to_bottom_with_hair_brush_short_vertflip_short_600ms.mp4	299.1065775749048	299.7143617066504	0.607784131745575	n/a	n/a	n/a	n/a
252.6875	0.2	517504	201	61	2	0	0	13	234	stimuli\Videos_short_600ms_horvertflip\59.single_push_with_long_side_pencil_short_horvertflip_short_600ms.mp4	59.single_push_with_long_side_pencil_short_horvertflip_short_600ms.mp4	299.9060712579667	300.51431901016986	0.6082477522031695	n/a	n/a	n/a	n/a
253.48779296875	0.2	519143	202	61	2	0	0	14	308	stimuli\Videos_short_600ms_vertflip\44.pushing_top_to_bottom_with_finger_short_vertflip_short_600ms.mp4	44.pushing_top_to_bottom_with_finger_short_vertflip_short_600ms.mp4	300.7060042221419	301.3142818853412	0.6082776631992601	n/a	n/a	n/a	n/a
254.28759765625	0.2	520781	203	61	2	0	0	15	41	stimuli\Videos_short_600ms\47.(long)scratching_with_finger_nails_short_short_600ms.mp4	47.(long)scratching_with_finger_nails_short_short_600ms.mp4	301.50606210871774	302.1142881607884	0.6082260520706768	n/a	n/a	n/a	n/a
255.08740234375	0.2	522419	204	61	2	0	0	16	83	stimuli\Videos_short_600ms\85.touch_top_to_bottom_with_fabric_short_short_600ms.mp4	85.touch_top_to_bottom_with_fabric_short_short_600ms.mp4	302.30598774176906	302.91428211993843	0.6082943781693757	n/a	n/a	n/a	n/a
255.8876953125	0.2	524058	205	61	2	0	0	17	91	stimuli\Videos_short_600ms_horflip\10.single_touch_with_knife_short_horflip_short_600ms.mp4	10.single_touch_with_knife_short_horflip_short_600ms.mp4	303.10595149668006	303.7142590708754	0.6083075741953508	n/a	n/a	n/a	n/a
256.6875	0.2	525696	206	61	2	0	0	18	155	stimuli\Videos_short_600ms_horflip\69.stroke_with_soft_sock_short_horflip_short_600ms.mp4	69.stroke_with_soft_sock_short_horflip_short_600ms.mp4	303.9059351922515	304.51427267744657	0.6083374851950794	n/a	n/a	n/a	n/a
257.4873046875	0.2	527334	207	61	2	0	0	19	337	stimuli\Videos_short_600ms_vertflip\70.(long)stroke_with_finger_all_over_the_hand_short_vertflip_short_600ms.mp4	70.(long)stroke_with_finger_all_over_the_hand_short_vertflip_short_600ms.mp4	304.7059740178993	305.31420094970235	0.608226931803074	n/a	n/a	n/a	n/a
258.28759765625	0.2	528973	208	61	2	0	0	20	310	stimuli\Videos_short_600ms_vertflip\46.scratching_top_to_bottom_with_finger_nails_short_vertflip_short_600ms.mp4	46.scratching_top_to_bottom_with_finger_nails_short_vertflip_short_600ms.mp4	305.50590229015506	306.1142268725671	0.608324582412024	n/a	n/a	n/a	n/a
259.08740234375	0.2	530611	209	61	2	0	1	21	378	stimuli\Targets_short_600ms_vertflip\brush-stroke_short_horvertflip_short_600ms.mp4	brush-stroke_short_horvertflip_short_600ms.mp4	306.3058851059941	306.91420704920165	0.6083219432075566	n/a	n/a	n/a	n/a
259.88720703125	0.2	532249	210	61	2	0	0	22	219	stimuli\Videos_short_600ms_horvertflip\45.scratching_with_finger_nails_short_horvertflip_short_600ms.mp4	45.scratching_with_finger_nails_short_horvertflip_short_600ms.mp4	307.1058676285902	307.7141907447767	0.6083231161865115	n/a	n/a	n/a	n/a
260.6875	0.2	533888	211	61	2	0	0	23	9	stimuli\Videos_short_600ms\18.single_stroke_from_top_to_bottom_with_rolling_pin_short_short_600ms.mp4	18.single_stroke_from_top_to_bottom_with_rolling_pin_short_short_600ms.mp4	307.90590557450196	308.51417356061575	0.6082679861137876	n/a	n/a	n/a	n/a
261.4873046875	0.2	535526	212	61	2	0	0	24	351	stimuli\Videos_short_600ms_vertflip\83.single_stroke_top_to_bottom_with_cotton_bud_short_vertflip_short_600ms.mp4	83.single_stroke_top_to_bottom_with_cotton_bud_short_vertflip_short_600ms.mp4	308.70585759960886	309.31415842916977	0.6083008295609034	n/a	n/a	n/a	n/a
262.287109375	0.2	537164	213	61	2	0	0	25	260	stimuli\Videos_short_600ms_horvertflip\82.repeated_touch_with_cotton_bud_short_horvertflip_short_600ms.mp4	82.repeated_touch_with_cotton_bud_short_horvertflip_short_600ms.mp4	309.5059310281722	310.1141430044772	0.6082119763050287	n/a	n/a	n/a	n/a
263.08740234375	0.2	538803	214	61	2	0	0	26	248	stimuli\Videos_short_600ms_horvertflip\71.single_stroke_with_finger_top_to_bottom_short_horvertflip_short_600ms.mp4	71.single_stroke_with_finger_top_to_bottom_short_horvertflip_short_600ms.mp4	310.30666044596	310.91412435409075	0.6074639081307396	n/a	n/a	n/a	n/a
263.88720703125	0.2	540441	215	61	2	0	0	27	311	stimuli\Videos_short_600ms_vertflip\47.(long)scratching_with_finger_nails_short_vertflip_short_600ms.mp4	47.(long)scratching_with_finger_nails_short_vertflip_short_600ms.mp4	311.10599724291023	311.7141080496658	0.608110806755576	n/a	n/a	n/a	n/a
264.68701171875	0.2	542079	216	61	2	0	0	28	203	stimuli\Videos_short_600ms_horvertflip\30.finger_pulling_back_another_finger_short_horvertflip_short_600ms.mp4	30.finger_pulling_back_another_finger_short_horvertflip_short_600ms.mp4	311.90572552202866	312.5140926249733	0.6083671029446123	n/a	n/a	n/a	n/a
265.4873046875	0.2	543718	217	61	2	0	0	29	236	stimuli\Videos_short_600ms_horvertflip\60.single_push_with_tip_of_pencil_short_horvertflip_short_600ms.mp4	60.single_push_with_tip_of_pencil_short_horvertflip_short_600ms.mp4	312.70573179747225	313.31406928266733	0.6083374851950794	n/a	n/a	n/a	n/a
266.287109375	0.2	545356	218	61	2	0	0	30	298	stimuli\Videos_short_600ms_vertflip\35.single_punch_with_hand_short_vertflip_short_600ms.mp4	35.single_punch_with_hand_short_vertflip_short_600ms.mp4	313.5057160795368	314.1140512187703	0.6083351392335317	n/a	n/a	n/a	n/a
267.0869140625	0.2	546994	219	61	2	0	1	31	383	stimuli\Targets_short_600ms_vertflip\hand-stroke_short_horvertflip_short_600ms.mp4	hand-stroke_short_horvertflip_short_600ms.mp4	314.30575959710404	314.9140181993753	0.6082586022712348	n/a	n/a	n/a	n/a
267.88720703125	0.2	548633	220	61	2	0	0	32	191	stimuli\Videos_short_600ms_horvertflip\2.single_touch_with_finger_short_horvertflip_short_600ms.mp4	2.single_touch_with_finger_short_horvertflip_short_600ms.mp4	315.1056931477724	315.7139640663372	0.6082709185648127	n/a	n/a	n/a	n/a
268.68701171875	0.2	550271	221	61	2	0	1	33	362	stimuli\Targets_short_600ms\chopstickwood-tap_short_short_600ms.mp4	chopstickwood-tap_short_short_600ms.mp4	315.9056847609645	316.51397151475976	0.6082867537952552	n/a	n/a	n/a	n/a
269.48681640625	0.2	551909	222	61	2	0	0	34	147	stimuli\Videos_short_600ms_horflip\61.single_hit_with_rolling_pin_short_horflip_short_600ms.mp4	61.single_hit_with_rolling_pin_short_horflip_short_600ms.mp4	316.7057350231662	317.31396723338185	0.6082322102156468	n/a	n/a	n/a	n/a
270.287109375	0.2	553548	223	61	2	0	0	35	137	stimuli\Videos_short_600ms_horflip\52.touch_top_to_bottom_with_hammer_short_horflip_short_600ms.mp4	52.touch_top_to_bottom_with_hammer_short_horflip_short_600ms.mp4	317.5057495094734	318.11396089928894	0.6082113898155512	n/a	n/a	n/a	n/a
271.0869140625	0.2	555186	224	61	2	0	0	36	299	stimuli\Videos_short_600ms_vertflip\36.single_slap_with_full_hand_short_vertflip_short_600ms.mp4	36.single_slap_with_full_hand_short_vertflip_short_600ms.mp4	318.3056352611966	318.913937556983	0.6083022957864159	n/a	n/a	n/a	n/a
271.88671875	0.2	556824	225	61	2	0	1	37	372	stimuli\Targets_short_600ms_horvertflip\brush-stroke_short_vertflip_short_600ms.mp4	brush-stroke_short_vertflip_short_600ms.mp4	319.1056171972996	319.7139382607711	0.6083210634715215	n/a	n/a	n/a	n/a
272.68701171875	0.2	558463	226	61	2	0	0	38	178	stimuli\Videos_short_600ms_horflip\9.single_touch_with_hammer_short_horflip_short_600ms.mp4	9.single_touch_with_hammer_short_horflip_short_600ms.mp4	319.90557948598143	320.51392606177615	0.6083465757947124	n/a	n/a	n/a	n/a
273.48681640625	0.2	560101	227	61	2	0	0	39	228	stimuli\Videos_short_600ms_horvertflip\53.touch_top_to_bottom_with_knife_short_horvertflip_short_600ms.mp4	53.touch_top_to_bottom_with_knife_short_horvertflip_short_600ms.mp4	320.7057188946892	321.3139035992026	0.6081847045134054	n/a	n/a	n/a	n/a
274.287109375	0.2	561740	228	61	2	0	0	40	69	stimuli\Videos_short_600ms\72.(short)stroke_with_finger_all_over_the_hand_short_short_600ms.mp4	72.(short)stroke_with_finger_all_over_the_hand_short_short_600ms.mp4	321.50556564481667	322.1138905204716	0.6083248756549438	n/a	n/a	n/a	n/a
275.0869140625	0.2	563378	229	61	2	0	0	41	247	stimuli\Videos_short_600ms_horvertflip\70.(long)stroke_with_finger_all_over_the_hand_short_horvertflip_short_600ms.mp4	70.(long)stroke_with_finger_all_over_the_hand_short_horvertflip_short_600ms.mp4	322.3055945001288	322.9138756822722	0.6082811821434007	n/a	n/a	n/a	n/a
275.88671875	0.2	565016	230	61	2	0	0	42	138	stimuli\Videos_short_600ms_horflip\53.touch_top_to_bottom_with_knife_short_horflip_short_600ms.mp4	53.touch_top_to_bottom_with_knife_short_horflip_short_600ms.mp4	323.10561162564045	323.71385732512863	0.6082456994881795	n/a	n/a	n/a	n/a
276.68701171875	0.2	566655	231	61	2	0	1	43	367	stimuli\Targets_short_600ms_horflip\chopstick-silver-tap_short_horflip_short_600ms.mp4	chopstick-silver-tap_short_horflip_short_600ms.mp4	323.90551819776374	324.5138383814992	0.6083201837354864	n/a	n/a	n/a	n/a
277.48681640625	0.2	568293	232	61	2	0	0	44	304	stimuli\Videos_short_600ms_vertflip\40.repeated_push_with_finger_short_vertflip_short_600ms.mp4	40.repeated_push_with_finger_short_vertflip_short_600ms.mp4	324.7054769675051	325.3138250095217	0.608348042016587	n/a	n/a	n/a	n/a
278.28662109375	0.2	569931	233	61	2	0	0	45	222	stimuli\Videos_short_600ms_horvertflip\48.single_slap_with_hand_short_horvertflip_short_600ms.mp4	48.single_slap_with_hand_short_horvertflip_short_600ms.mp4	325.5054679942077	326.11380459966676	0.6083366054590442	n/a	n/a	n/a	n/a
279.0869140625	0.2	571570	234	61	2	0	0	46	293	stimuli\Videos_short_600ms_vertflip\30.finger_pulling_back_another_finger_short_vertflip_short_600ms.mp4	30.finger_pulling_back_another_finger_short_vertflip_short_600ms.mp4	326.30548717243437	326.9137877087487	0.6083005363143457	n/a	n/a	n/a	n/a
279.88671875	0.2	573208	235	61	2	0	0	47	117	stimuli\Videos_short_600ms_horflip\34.repeated_punch_with_hand_short_horflip_short_600ms.mp4	34.repeated_punch_with_hand_short_horflip_short_600ms.mp4	327.10562951359316	327.71377199081326	0.608142477220099	n/a	n/a	n/a	n/a
280.6865234375	0.2	574846	236	61	2	0	0	48	300	stimuli\Videos_short_600ms_vertflip\37.single_stab_with_nail_file_short_vertflip_short_600ms.mp4	37.single_stab_with_nail_file_short_vertflip_short_600ms.mp4	327.90541614847825	328.51375539314176	0.6083392446635116	n/a	n/a	n/a	n/a
281.48681640625	0.2	576485	237	61	2	0	0	49	244	stimuli\Videos_short_600ms_horvertflip\68.stroke_top_to_bottom_with_shawl_short_horvertflip_short_600ms.mp4	68.stroke_top_to_bottom_with_shawl_short_horvertflip_short_600ms.mp4	328.70539661835573	329.31373498328685	0.6083383649311145	n/a	n/a	n/a	n/a
282.28662109375	0.2	578123	238	61	2	0	0	50	357	stimuli\Videos_short_600ms_vertflip\89.single_touch_with_plastic_brush_short_vertflip_short_600ms.mp4	89.single_touch_with_plastic_brush_short_vertflip_short_600ms.mp4	329.50542723314356	330.1137019638918	0.608274730748235	n/a	n/a	n/a	n/a
283.08642578125	0.2	579761	239	61	2	0	0	51	111	stimuli\Videos_short_600ms_horflip\29.single_pinch_with_tweezers_short_horflip_short_600ms.mp4	29.single_pinch_with_tweezers_short_horflip_short_600ms.mp4	330.30572147524435	330.9136938703268	0.60797239508247	n/a	n/a	n/a	n/a
283.88671875	0.2	581400	240	61	2	0	0	52	115	stimuli\Videos_short_600ms_horflip\32.single_(long)pinch_with_fingers_short_horflip_short_600ms.mp4	32.single_(long)pinch_with_fingers_short_horflip_short_600ms.mp4	331.10536383355793	331.7136441359653	0.6082803024073655	n/a	n/a	n/a	n/a
284.6865234375	0.2	583038	241	61	2	0	0	53	194	stimuli\Videos_short_600ms_horvertflip\22.single_touch_with_metal_chopstick_short_horvertflip_short_600ms.mp4	22.single_touch_with_metal_chopstick_short_horvertflip_short_600ms.mp4	331.9053601386695	332.51364659922183	0.6082864605523355	n/a	n/a	n/a	n/a
285.486328125	0.2	584676	242	61	2	0	0	54	294	stimuli\Videos_short_600ms_vertflip\31.hand_grabbing_wrist_short_vertflip_short_600ms.mp4	31.hand_grabbing_wrist_short_vertflip_short_600ms.mp4	332.7054473497519	333.3136358664524	0.6081885167004657	n/a	n/a	n/a	n/a
286.28662109375	0.2	586315	243	61	2	0	0	55	73	stimuli\Videos_short_600ms\76.tickle_with_fingers_from_top_to_bottom_short_short_600ms.mp4	76.tickle_with_fingers_from_top_to_bottom_short_short_600ms.mp4	333.50536183949225	334.11361692281935	0.6082550833270943	n/a	n/a	n/a	n/a
287.08642578125	0.2	587953	244	61	2	0	0	56	241	stimuli\Videos_short_600ms_horvertflip\65.stroke_top_to_bottom_with_stanley_knife_short_horvertflip_short_600ms.mp4	65.stroke_top_to_bottom_with_stanley_knife_short_horvertflip_short_600ms.mp4	334.3053220754591	334.9136434321772	0.6083213567180792	n/a	n/a	n/a	n/a
287.88623046875	0.2	589591	245	61	2	0	0	57	75	stimuli\Videos_short_600ms\78.single_stroke_top_to_bottom_with_soft_brush_short_short_600ms.mp4	78.single_stroke_top_to_bottom_with_soft_brush_short_short_600ms.mp4	335.105280258711	335.71361041278215	0.6083301540711545	n/a	n/a	n/a	n/a
288.6865234375	0.2	591230	246	61	2	0	0	58	25	stimuli\Videos_short_600ms\32.single_(long)pinch_with_fingers_short_short_600ms.mp4	32.single_(long)pinch_with_fingers_short_short_600ms.mp4	335.9052642475326	336.5135858974936	0.6083216499609989	n/a	n/a	n/a	n/a
289.486328125	0.2	592868	247	61	2	0	0	59	72	stimuli\Videos_short_600ms\75.(long)stroke_with_fingers_all_over_the_hand_short_short_600ms.mp4	75.(long)stroke_with_fingers_all_over_the_hand_short_short_600ms.mp4	336.7052467701251	337.3135678335966	0.6083210634715215	n/a	n/a	n/a	n/a
290.2861328125	0.2	594506	248	61	2	0	0	60	355	stimuli\Videos_short_600ms_vertflip\87.single_stroke_top_to_bottom_with_plastic_brush_short_vertflip_short_600ms.mp4	87.single_stroke_top_to_bottom_with_plastic_brush_short_vertflip_short_600ms.mp4	337.505210818279	338.1135512359251	0.6083404176461045	n/a	n/a	n/a	n/a
291.08642578125	0.2	596145	249	61	2	0	0	61	116	stimuli\Videos_short_600ms_horflip\33.scratch_top_to_bottom_with_scissors_short_horflip_short_600ms.mp4	33.scratch_top_to_bottom_with_scissors_short_horflip_short_600ms.mp4	338.30521386802866	338.91351117864906	0.6082973106204008	n/a	n/a	n/a	n/a
291.88623046875	0.2	597783	250	61	2	0	0	62	192	stimuli\Videos_short_600ms_horvertflip\20.single_touch_with_screwdriver_short_horvertflip_short_600ms.mp4	20.single_touch_with_screwdriver_short_horvertflip_short_600ms.mp4	339.1051960973782	339.71351716084973	0.6083210634715215	n/a	n/a	n/a	n/a
292.68603515625	0.2	599421	251	61	2	0	0	63	269	stimuli\Videos_short_600ms_horvertflip\90.repeated_touch_with_sponge_short_horvertflip_short_600ms.mp4	90.repeated_touch_with_sponge_short_horvertflip_short_600ms.mp4	339.9051973876558	340.51350437536166	0.6083069877058733	n/a	n/a	n/a	n/a
293.486328125	0.2	601060	252	61	2	0	0	64	211	stimuli\Videos_short_600ms_horvertflip\38.double_slap_with_pencil_short_horvertflip_short_600ms.mp4	38.double_slap_with_pencil_short_horvertflip_short_600ms.mp4	340.7051558641542	341.31348601822174	0.6083301540675166	n/a	n/a	n/a	n/a
294.2861328125	0.2	602698	253	61	2	0	0	65	134	stimuli\Videos_short_600ms_horflip\5.repeated_tap_with_finger_moving_from_top_to_bottom_short_horflip_short_600ms.mp4	5.repeated_tap_with_finger_moving_from_top_to_bottom_short_horflip_short_600ms.mp4	341.50516712476383	342.1134641421377	0.6082970173738431	n/a	n/a	n/a	n/a
295.08642578125	0.2	604337	254	61	2	0	0	66	46	stimuli\Videos_short_600ms\51.repeated_touch_with_hammer_short_short_600ms.mp4	51.repeated_touch_with_hammer_short_short_600ms.mp4	342.30512061609625	342.9134487174488	0.6083281013525266	n/a	n/a	n/a	n/a
295.88623046875	0.2	605975	255	61	2	0	0	67	84	stimuli\Videos_short_600ms\86.touch_top_to_bottom_with_hair_brush_short_short_600ms.mp4	86.touch_top_to_bottom_with_hair_brush_short_short_600ms.mp4	343.10509199537773	343.7134344657388	0.6083424703610945	n/a	n/a	n/a	n/a
296.68603515625	0.2	607613	256	61	2	0	0	68	17	stimuli\Videos_short_600ms\25.single_touch_with_stanley_knife_short_short_600ms.mp4	25.single_touch_with_stanley_knife_short_short_600ms.mp4	343.9050756909528	344.5134181613139	0.6083424703610945	n/a	n/a	n/a	n/a
297.486328125	0.2	609252	257	61	2	0	0	69	166	stimuli\Videos_short_600ms_horflip\79.long_with_soft_brush_all_over_the_hand_short_horflip_short_600ms.mp4	79.long_with_soft_brush_all_over_the_hand_short_horflip_short_600ms.mp4	344.7052244834995	345.31339921768085	0.6081747341813752	n/a	n/a	n/a	n/a
298.2861328125	0.2	610890	258	61	2	0	0	70	99	stimuli\Videos_short_600ms_horflip\18.single_stroke_from_top_to_bottom_with_rolling_pin_short_horflip_short_600ms.mp4	18.single_stroke_from_top_to_bottom_with_rolling_pin_short_horflip_short_600ms.mp4	345.5052301724536	346.11338672543934	0.6081565529857471	n/a	n/a	n/a	n/a
299.0859375	0.2	612528	259	61	2	0	0	71	216	stimuli\Videos_short_600ms_horvertflip\42.single_slap_with_plastic_whisk_short_horvertflip_short_600ms.mp4	42.single_slap_with_plastic_whisk_short_horvertflip_short_600ms.mp4	346.30509774298116	346.9133440289588	0.608246285977657	n/a	n/a	n/a	n/a
299.88623046875	0.2	614167	260	61	2	0	0	72	220	stimuli\Videos_short_600ms_horvertflip\46.scratching_top_to_bottom_with_finger_nails_short_horvertflip_short_600ms.mp4	46.scratching_top_to_bottom_with_finger_nails_short_horvertflip_short_600ms.mp4	347.10508847643723	347.7133113028103	0.608222826373094	n/a	n/a	n/a	n/a
300.68603515625	0.2	615805	261	61	2	0	0	73	5	stimuli\Videos_short_600ms\14.repeated_touch_with_pencil_short_short_600ms.mp4	14.repeated_touch_with_pencil_short_short_600ms.mp4	347.90502613253557	348.5133196309689	0.6082934984333406	n/a	n/a	n/a	n/a
301.48583984375	0.2	617443	262	61	2	0	1	74	365	stimuli\Targets_short_600ms\hand-stroke_short_short_600ms.mp4	hand-stroke_short_short_600ms.mp4	348.7049849022769	349.31329540892693	0.6083105066500138	n/a	n/a	n/a	n/a
302.2861328125	0.2	619082	263	61	2	0	0	75	81	stimuli\Videos_short_600ms\83.single_stroke_top_to_bottom_with_cotton_bud_short_short_600ms.mp4	83.single_stroke_top_to_bottom_with_cotton_bud_short_short_600ms.mp4	349.504976515469	350.11328731536196	0.6083107998929336	n/a	n/a	n/a	n/a
303.0859375	0.2	620720	264	61	2	0	0	76	153	stimuli\Videos_short_600ms_horflip\67.single_touch_with_sponge_short_horflip_short_600ms.mp4	67.single_touch_with_sponge_short_horflip_short_600ms.mp4	350.30495991779753	350.91329476378814	0.6083348459906119	n/a	n/a	n/a	n/a
303.8857421875	0.2	622358	265	61	2	0	0	77	149	stimuli\Videos_short_600ms_horflip\63.stroke_top_to_bottom_with_screwdriver_short_horflip_short_600ms.mp4	63.stroke_top_to_bottom_with_screwdriver_short_horflip_short_600ms.mp4	351.1049251389304	351.71326995525305	0.6083448163226421	n/a	n/a	n/a	n/a
304.68603515625	0.2	623997	266	61	2	0	0	78	108	stimuli\Videos_short_600ms_horflip\26.single_touch_with_a_blunt_syringe_short_horflip_short_600ms.mp4	26.single_touch_with_a_blunt_syringe_short_horflip_short_600ms.mp4	351.9049897701443	352.51325951573017	0.6082697455858579	n/a	n/a	n/a	n/a
305.48583984375	0.2	625635	267	61	2	0	0	79	173	stimuli\Videos_short_600ms_horflip\85.touch_top_to_bottom_with_fabric_short_horflip_short_600ms.mp4	85.touch_top_to_bottom_with_fabric_short_horflip_short_600ms.mp4	352.70490983154014	353.3132285490501	0.6083187175099738	n/a	n/a	n/a	n/a
306.28564453125	0.2	627273	268	61	2	0	0	80	307	stimuli\Videos_short_600ms_vertflip\43.touch_top_to_bottom_with_sharp_wooden_stick_short_vertflip_short_600ms.mp4	43.touch_top_to_bottom_with_sharp_wooden_stick_short_vertflip_short_600ms.mp4	353.50490701638773	354.11321312435757	0.6083061079698382	n/a	n/a	n/a	n/a
307.0859375	0.2	628912	269	61	2	0	0	81	305	stimuli\Videos_short_600ms_vertflip\41.injection_with_blunt_syringe_short_vertflip_short_600ms.mp4	41.injection_with_blunt_syringe_short_vertflip_short_600ms.mp4	354.3048845538142	354.91320297808124	0.6083184242670541	n/a	n/a	n/a	n/a
307.8857421875	0.2	630550	270	61	2	0	0	82	14	stimuli\Videos_short_600ms\22.single_touch_with_metal_chopstick_short_short_600ms.mp4	22.single_touch_with_metal_chopstick_short_short_600ms.mp4	355.10486355746616	355.71317670332064	0.6083131458544813	n/a	n/a	n/a	n/a
308.685546875	0.2	632188	271	61	2	0	0	83	196	stimuli\Videos_short_600ms_horvertflip\24.single_stroke_top_to_bottom_with_a_spoon_short_horvertflip_short_600ms.mp4	24.single_stroke_top_to_bottom_with_a_spoon_short_horvertflip_short_600ms.mp4	355.90489123980296	356.51316362458965	0.6082723847866873	n/a	n/a	n/a	n/a
309.48583984375	0.2	633827	272	61	2	0	0	84	52	stimuli\Videos_short_600ms\57.single_touch_with_nail_file_short_short_600ms.mp4	57.single_touch_with_nail_file_short_short_600ms.mp4	356.7048338810673	357.31315171884125	0.6083178377739387	n/a	n/a	n/a	n/a
310.28564453125	0.2	635465	273	61	2	0	0	85	233	stimuli\Videos_short_600ms_horvertflip\58.single_slap_with_pencil_short_horvertflip_short_600ms.mp4	58.single_slap_with_pencil_short_horvertflip_short_600ms.mp4	357.50479587650625	358.1131292562677	0.6083333797614614	n/a	n/a	n/a	n/a
311.08544921875	0.2	637103	274	61	2	0	0	86	98	stimuli\Videos_short_600ms_horflip\17.repeated_touch_with_rolling_pin_short_horflip_short_600ms.mp4	17.repeated_touch_with_rolling_pin_short_horflip_short_600ms.mp4	358.30487810242266	358.91311119237434	0.6082330899516819	n/a	n/a	n/a	n/a
311.8857421875	0.2	638742	275	61	2	0	0	87	254	stimuli\Videos_short_600ms_horvertflip\77.tapping_with_all_fingers_short_horvertflip_short_600ms.mp4	77.tapping_with_all_fingers_short_horvertflip_short_600ms.mp4	359.10478203533785	359.71309254198786	0.6083105066500138	n/a	n/a	n/a	n/a
312.685546875	0.2	640380	276	61	2	0	0	88	263	stimuli\Videos_short_600ms_horvertflip\85.touch_top_to_bottom_with_fabric_short_horvertflip_short_600ms.mp4	85.touch_top_to_bottom_with_fabric_short_horvertflip_short_600ms.mp4	359.9047405118363	360.5130756510698	0.6083351392335317	n/a	n/a	n/a	n/a
313.4853515625	0.2	642018	277	61	2	0	0	89	174	stimuli\Videos_short_600ms_horflip\86.touch_top_to_bottom_with_hair_brush_short_horflip_short_600ms.mp4	86.touch_top_to_bottom_with_hair_brush_short_horflip_short_600ms.mp4	360.7047503062204	361.3130476168408	0.6082973106204008	n/a	n/a	n/a	n/a
314.28564453125	0.2	643657	278	61	2	0	0	90	165	stimuli\Videos_short_600ms_horflip\78.single_stroke_top_to_bottom_with_soft_brush_short_horflip_short_600ms.mp4	78.single_stroke_top_to_bottom_with_soft_brush_short_horflip_short_600ms.mp4	361.5047231517274	362.1130228083093	0.6082996565819485	n/a	n/a	n/a	n/a
315.08544921875	0.2	645295	279	61	2	0	0	91	8	stimuli\Videos_short_600ms\17.repeated_touch_with_rolling_pin_short_short_600ms.mp4	17.repeated_touch_with_rolling_pin_short_short_600ms.mp4	362.30471036624294	362.9130073836168	0.6082970173738431	n/a	n/a	n/a	n/a
315.8857421875	0.2	646934	280	61	2	0	0	92	316	stimuli\Videos_short_600ms_vertflip\51.repeated_touch_with_hammer_short_vertflip_short_600ms.mp4	51.repeated_touch_with_hammer_short_vertflip_short_600ms.mp4	363.1046896631414	363.71299518462183	0.6083055214803608	n/a	n/a	n/a	n/a
316.685546875	0.2	648572	281	61	2	0	0	93	11	stimuli\Videos_short_600ms\2.single_touch_with_finger_short_short_600ms.mp4	2.single_touch_with_finger_short_short_600ms.mp4	363.904671012755	364.51297917344345	0.6083081606884662	n/a	n/a	n/a	n/a
317.4853515625	0.2	650210	282	61	2	0	0	94	321	stimuli\Videos_short_600ms_vertflip\56.repeated_touch_with_nail_file_short_vertflip_short_600ms.mp4	56.repeated_touch_with_nail_file_short_vertflip_short_600ms.mp4	364.7046547083264	365.31295964332094	0.6083049349945213	n/a	n/a	n/a	n/a
318.28564453125	0.2	651849	283	61	2	0	0	95	189	stimuli\Videos_short_600ms_horvertflip\18.single_stroke_from_top_to_bottom_with_rolling_pin_short_horvertflip_short_600ms.mp4	18.single_stroke_from_top_to_bottom_with_rolling_pin_short_horvertflip_short_600ms.mp4	365.5046671419186	366.1129697309516	0.6083025890329736	6.0	6.0	1.88938942563982	1.0
352.24267578125	0.2	721393	284	61	3	0	0	0	124	stimuli\Videos_short_600ms_horflip\40.repeated_push_with_finger_short_horflip_short_600ms.mp4	40.repeated_push_with_finger_short_horflip_short_600ms.mp4	399.46226155876866	400.0705606288575	0.6082990700888331	n/a	n/a	n/a	n/a
353.04248046875	0.2	723031	285	61	3	0	0	1	198	stimuli\Videos_short_600ms_horvertflip\26.single_touch_with_a_blunt_syringe_short_horvertflip_short_600ms.mp4	26.single_touch_with_a_blunt_syringe_short_horvertflip_short_600ms.mp4	400.26229715871887	400.87053933926654	0.608242180547677	n/a	n/a	n/a	n/a
353.8427734375	0.2	724670	286	61	3	0	0	2	66	stimuli\Videos_short_600ms\7.repeated_touch_with_hairbrush_short_short_600ms.mp4	7.repeated_touch_with_hairbrush_short_short_600ms.mp4	401.0622811475369	401.67055206610166	0.6082709185648127	n/a	n/a	n/a	n/a
354.642578125	0.2	726308	287	61	3	0	0	3	172	stimuli\Videos_short_600ms_horflip\84.single_touch_with_cotton_bud_short_horflip_short_600ms.mp4	84.single_touch_with_cotton_bud_short_horflip_short_600ms.mp4	401.8622102995286	402.4705322427362	0.6083219432075566	n/a	n/a	n/a	n/a
355.4423828125	0.2	727946	288	61	3	0	0	4	325	stimuli\Videos_short_600ms_vertflip\6.single_touch_with_flat_hand_short_vertflip_short_600ms.mp4	6.single_touch_with_flat_hand_short_vertflip_short_600ms.mp4	402.66224971166594	403.2705086071838	0.6082588955177926	n/a	n/a	n/a	n/a
356.24267578125	0.2	729585	289	61	3	0	0	5	107	stimuli\Videos_short_600ms_horflip\25.single_touch_with_stanley_knife_short_horflip_short_600ms.mp4	25.single_touch_with_stanley_knife_short_horflip_short_600ms.mp4	403.4621471931896	404.07049552845274	0.6083483352631447	n/a	n/a	n/a	n/a
357.04248046875	0.2	731223	290	61	3	0	0	6	230	stimuli\Videos_short_600ms_horvertflip\55.touch_top_to_bottom_with_nail_file_short_horvertflip_short_600ms.mp4	55.touch_top_to_bottom_with_nail_file_short_horvertflip_short_600ms.mp4	404.2621528821437	404.8704692536958	0.6083163715520641	n/a	n/a	n/a	n/a
357.84228515625	0.2	732861	291	61	3	0	0	7	285	stimuli\Videos_short_600ms_vertflip\23.single_push_with_a_spoon_short_vertflip_short_600ms.mp4	23.single_push_with_a_spoon_short_vertflip_short_600ms.mp4	405.0621207424847	405.6704526560243	0.6083319135395868	n/a	n/a	n/a	n/a
358.642578125	0.2	734500	292	61	3	0	0	8	319	stimuli\Videos_short_600ms_vertflip\54.repeated_touch_with_knife_short_vertflip_short_600ms.mp4	54.repeated_touch_with_knife_short_vertflip_short_600ms.mp4	405.8621478383284	406.4704369380888	0.6082890997604409	n/a	n/a	n/a	n/a
359.4423828125	0.2	736138	293	61	3	0	0	9	162	stimuli\Videos_short_600ms_horflip\75.(long)stroke_with_fingers_all_over_the_hand_short_horflip_short_600ms.mp4	75.(long)stroke_with_fingers_all_over_the_hand_short_horflip_short_600ms.mp4	406.662138865031	407.2704215133963	0.6082826483652752	n/a	n/a	n/a	n/a
360.2421875	0.2	737776	294	61	3	0	0	10	356	stimuli\Videos_short_600ms_vertflip\88.repeated_stroke_with_plastic_brush_short_vertflip_short_600ms.mp4	88.repeated_stroke_with_plastic_brush_short_vertflip_short_600ms.mp4	407.46207182920625	408.07040110354137	0.6083292743351194	n/a	n/a	n/a	n/a
361.04248046875	0.2	739415	295	61	3	0	0	11	195	stimuli\Videos_short_600ms_horvertflip\23.single_push_with_a_spoon_short_horvertflip_short_600ms.mp4	23.single_push_with_a_spoon_short_horvertflip_short_600ms.mp4	408.2620631491518	408.8703856788488	0.608322529697034	n/a	n/a	n/a	n/a
361.84228515625	0.2	741053	296	61	3	0	1	12	380	stimuli\Targets_short_600ms_vertflip\chopstickwood-tap_short_horvertflip_short_600ms.mp4	chopstickwood-tap_short_horvertflip_short_600ms.mp4	409.062068544863	409.67036908117734	0.6083005363143457	n/a	n/a	n/a	n/a
362.64208984375	0.2	742691	297	61	3	0	0	13	36	stimuli\Videos_short_600ms\42.single_slap_with_plastic_whisk_short_short_600ms.mp4	42.single_slap_with_plastic_whisk_short_short_600ms.mp4	409.86201118612735	410.47035160377345	0.6083404176461045	n/a	n/a	n/a	n/a
363.4423828125	0.2	744330	298	61	3	0	0	14	341	stimuli\Videos_short_600ms_vertflip\74.fingers_walking_from_top_to_bottom_short_vertflip_short_600ms.mp4	74.fingers_walking_from_top_to_bottom_short_vertflip_short_600ms.mp4	410.6619981073963	411.27033002093594	0.6083319135395868	n/a	n/a	n/a	n/a
364.2421875	0.2	745968	299	61	3	0	0	15	85	stimuli\Videos_short_600ms\87.single_stroke_top_to_bottom_with_plastic_brush_short_short_600ms.mp4	87.single_stroke_top_to_bottom_with_plastic_brush_short_short_600ms.mp4	411.4619926530395	412.0702726622003	0.6082800091608078	n/a	n/a	n/a	n/a
365.0419921875	0.2	747606	300	61	3	0	0	16	352	stimuli\Videos_short_600ms_vertflip\84.single_touch_with_cotton_bud_short_vertflip_short_600ms.mp4	84.single_touch_with_cotton_bud_short_vertflip_short_600ms.mp4	412.26198749192554	412.870295652614	0.6083081606884662	n/a	n/a	n/a	n/a
365.84228515625	0.2	749245	301	61	3	0	0	17	250	stimuli\Videos_short_600ms_horvertflip\73.single_stroke_with_flat_hand_short_horvertflip_short_600ms.mp4	73.single_stroke_with_flat_hand_short_horvertflip_short_600ms.mp4	413.0620172269737	413.6702385871213	0.6082213601475814	n/a	n/a	n/a	n/a
366.64208984375	0.2	750883	302	61	3	0	0	18	334	stimuli\Videos_short_600ms_vertflip\68.stroke_top_to_bottom_with_shawl_short_vertflip_short_600ms.mp4	68.stroke_top_to_bottom_with_shawl_short_vertflip_short_600ms.mp4	413.8620378714295	414.4702431030965	0.6082052316669433	n/a	n/a	n/a	n/a
367.4423828125	0.2	752522	303	61	3	0	0	19	92	stimuli\Videos_short_600ms_horflip\11.single_touch_with_lighter_short_horflip_short_600ms.mp4	11.single_touch_with_lighter_short_horflip_short_600ms.mp4	414.6620491320391	415.270237355493	0.608188223453908	n/a	n/a	n/a	n/a
368.2421875	0.2	754160	304	61	3	0	0	20	61	stimuli\Videos_short_600ms\65.stroke_top_to_bottom_with_stanley_knife_short_short_600ms.mp4	65.stroke_top_to_bottom_with_stanley_knife_short_short_600ms.mp4	415.4625187346938	416.0702128402045	0.6076941055107454	n/a	n/a	n/a	n/a
369.0419921875	0.2	755798	305	61	3	0	1	21	376	stimuli\Targets_short_600ms_horvertflip\hand-pinch_short_vertflip_short_600ms.mp4	hand-pinch_short_vertflip_short_600ms.mp4	416.2620537653093	416.8702226345886	0.608168869279325	n/a	n/a	n/a	n/a
369.84228515625	0.2	757437	306	61	3	0	0	22	15	stimuli\Videos_short_600ms\23.single_push_with_a_spoon_short_short_600ms.mp4	23.single_push_with_a_spoon_short_short_600ms.mp4	417.0618612205981	417.6702089693681	0.6083477487700293	n/a	n/a	n/a	n/a
370.64208984375	0.2	759075	307	61	3	0	0	23	37	stimuli\Videos_short_600ms\43.touch_top_to_bottom_with_sharp_wooden_stick_short_short_600ms.mp4	43.touch_top_to_bottom_with_sharp_wooden_stick_short_short_600ms.mp4	417.86186456359064	418.4701797621601	0.6083151985694712	n/a	n/a	n/a	n/a
371.44189453125	0.2	760713	308	61	3	0	0	24	142	stimuli\Videos_short_600ms_horflip\57.single_touch_with_nail_file_short_horflip_short_600ms.mp4	57.single_touch_with_nail_file_short_horflip_short_600ms.mp4	418.6618470861867	419.27016257799914	0.608315491812391	n/a	n/a	n/a	n/a
372.2421875	0.2	762352	309	61	3	0	0	25	102	stimuli\Videos_short_600ms_horflip\20.single_touch_with_screwdriver_short_horflip_short_600ms.mp4	20.single_touch_with_screwdriver_short_horflip_short_600ms.mp4	419.46185717381377	420.0701536047018	0.6082964308880037	n/a	n/a	n/a	n/a
373.0419921875	0.2	763990	310	61	3	0	0	26	35	stimuli\Videos_short_600ms\41.injection_with_blunt_syringe_short_short_600ms.mp4	41.injection_with_blunt_syringe_short_short_600ms.mp4	420.26184790726984	420.8701287961667	0.608280888896843	n/a	n/a	n/a	n/a
373.841796875	0.2	765628	311	61	3	0	0	27	257	stimuli\Videos_short_600ms_horvertflip\8.single_touch_with_hairbrush_short_horvertflip_short_600ms.mp4	8.single_touch_with_hairbrush_short_horvertflip_short_600ms.mp4	421.0618055040359	421.6701133714778	0.6083078674419085	n/a	n/a	n/a	n/a
374.64208984375	0.2	767267	312	61	3	0	0	28	258	stimuli\Videos_short_600ms_horvertflip\80.stroke_with_sharp_stick_all_over_the_hand_short_horvertflip_short_600ms.mp4	80.stroke_with_sharp_stick_all_over_the_hand_short_horvertflip_short_600ms.mp4	421.86176515351326	422.47009999950023	0.608334845986974	n/a	n/a	n/a	n/a
375.44189453125	0.2	768905	313	61	3	0	0	29	0	stimuli\Videos_short_600ms\1.repeated_touch_with_finger_fast_short_short_600ms.mp4	1.repeated_touch_with_finger_fast_short_short_600ms.mp4	422.6617186448457	423.27007753693033	0.6083588920846523	n/a	n/a	n/a	n/a
376.24169921875	0.2	770543	314	61	3	0	0	30	224	stimuli\Videos_short_600ms_horvertflip\5.repeated_tap_with_finger_moving_from_top_to_bottom_short_horvertflip_short_600ms.mp4	5.repeated_tap_with_finger_moving_from_top_to_bottom_short_horvertflip_short_600ms.mp4	423.4624999670086	424.0700635784633	0.6075636114546796	n/a	n/a	n/a	n/a
377.0419921875	0.2	772182	315	61	3	0	0	31	289	stimuli\Videos_short_600ms_vertflip\27.single_push_with_a_plastic_whisk_short_vertflip_short_600ms.mp4	27.single_push_with_a_plastic_whisk_short_vertflip_short_600ms.mp4	424.26199394331707	424.8700440483408	0.6080501050237217	n/a	n/a	n/a	n/a
377.841796875	0.2	773820	316	61	3	0	0	32	26	stimuli\Videos_short_600ms\33.scratch_top_to_bottom_with_scissors_short_short_600ms.mp4	33.scratch_top_to_bottom_with_scissors_short_short_600ms.mp4	425.06182016628736	425.67002774391585	0.608207577628491	n/a	n/a	n/a	n/a
378.6416015625	0.2	775458	317	61	3	0	0	33	131	stimuli\Videos_short_600ms_horflip\47.(long)scratching_with_finger_nails_short_horflip_short_600ms.mp4	47.(long)scratching_with_finger_nails_short_horflip_short_600ms.mp4	425.8617123693985	426.47001319895935	0.6083008295609034	n/a	n/a	n/a	n/a
379.44189453125	0.2	777097	318	61	3	0	0	34	148	stimuli\Videos_short_600ms_horflip\62.touch_top_to_bottom_with_scissors_short_horflip_short_600ms.mp4	62.touch_top_to_bottom_with_scissors_short_horflip_short_600ms.mp4	426.66169225278645	427.2699960147984	0.6083037620119285	n/a	n/a	n/a	n/a
380.24169921875	0.2	778735	319	61	3	0	0	35	74	stimuli\Videos_short_600ms\77.tapping_with_all_fingers_short_short_600ms.mp4	77.tapping_with_all_fingers_short_short_600ms.mp4	427.4616357737869	428.0699577169944	0.6083219432075566	n/a	n/a	n/a	n/a
381.04150390625	0.2	780373	320	61	3	0	0	36	243	stimuli\Videos_short_600ms_horvertflip\67.single_touch_with_sponge_short_horvertflip_short_600ms.mp4	67.single_touch_with_sponge_short_horvertflip_short_600ms.mp4	428.2616722534731	428.8699147272673	0.6082424737942347	n/a	n/a	n/a	n/a
381.841796875	0.2	782012	321	61	3	0	0	37	23	stimuli\Videos_short_600ms\30.finger_pulling_back_another_finger_short_short_600ms.mp4	30.finger_pulling_back_another_finger_short_short_600ms.mp4	429.0616615207037	429.6699189499959	0.60825742929228	n/a	n/a	n/a	n/a
382.6416015625	0.2	783650	322	61	3	0	0	38	342	stimuli\Videos_short_600ms_vertflip\75.(long)stroke_with_fingers_all_over_the_hand_short_vertflip_short_600ms.mp4	75.(long)stroke_with_fingers_all_over_the_hand_short_vertflip_short_600ms.mp4	429.86160650792954	430.4699085104694	0.6083020025398582	n/a	n/a	n/a	n/a
383.44140625	0.2	785288	323	61	3	0	0	39	190	stimuli\Videos_short_600ms_horvertflip\19.single_touch_with_rolling_pin_short_horvertflip_short_600ms.mp4	19.single_touch_with_rolling_pin_short_horvertflip_short_600ms.mp4	430.6615904967475	431.26989073981895	0.6083002430714259	n/a	n/a	n/a	n/a
384.24169921875	0.2	786927	324	61	3	0	0	40	43	stimuli\Videos_short_600ms\49.repeated_slap_with_hand_short_short_600ms.mp4	49.repeated_slap_with_hand_short_short_600ms.mp4	431.46170879180863	432.0698934963221	0.6081847045134054	n/a	n/a	n/a	n/a
385.04150390625	0.2	788565	325	61	3	0	0	41	267	stimuli\Videos_short_600ms_horvertflip\89.single_touch_with_plastic_brush_short_horvertflip_short_600ms.mp4	89.single_touch_with_plastic_brush_short_horvertflip_short_600ms.mp4	432.2617440985159	432.8698833500421	0.6081392515261541	n/a	n/a	n/a	n/a
385.84130859375	0.2	790203	326	61	3	0	0	42	301	stimuli\Videos_short_600ms_vertflip\38.double_slap_with_pencil_short_vertflip_short_600ms.mp4	38.double_slap_with_pencil_short_vertflip_short_600ms.mp4	433.0619081398072	433.66985942124666	0.6079512814394548	n/a	n/a	n/a	n/a
386.6416015625	0.2	791842	327	61	3	0	0	43	57	stimuli\Videos_short_600ms\61.single_hit_with_rolling_pin_short_short_600ms.mp4	61.single_hit_with_rolling_pin_short_short_600ms.mp4	433.8616522541597	434.46983930463466	0.6081870504749531	n/a	n/a	n/a	n/a
387.44140625	0.2	793480	328	61	3	0	1	44	377	stimuli\Targets_short_600ms_horvertflip\hand-stroke_short_vertflip_short_600ms.mp4	hand-stroke_short_vertflip_short_600ms.mp4	434.6615814061515	435.2698224137166	0.6082410075650841	n/a	n/a	n/a	n/a
388.24169921875	0.2	795119	329	61	3	0	0	45	277	stimuli\Videos_short_600ms_vertflip\16.repeated_touch_with_plastic_brush_short_vertflip_short_600ms.mp4	16.repeated_touch_with_plastic_brush_short_vertflip_short_600ms.mp4	435.4619164093201	436.0698043498232	0.607887940503133	n/a	n/a	n/a	n/a
389.04150390625	0.2	796757	330	61	3	0	0	46	169	stimuli\Videos_short_600ms_horflip\81.single_stroke_top_to_bottom_with_cotton_pad_short_horflip_short_600ms.mp4	81.single_stroke_top_to_bottom_with_cotton_pad_short_horflip_short_600ms.mp4	436.2614722603357	436.86978628592624	0.6083140255905164	n/a	n/a	n/a	n/a
389.84130859375	0.2	798395	331	61	3	0	1	47	363	stimuli\Targets_short_600ms\finger-tap_short_short_600ms.mp4	finger-tap_short_short_600ms.mp4	437.0614562491537	437.66977115448026	0.6083149053265515	n/a	n/a	n/a	n/a
390.6416015625	0.2	800034	332	61	3	0	0	48	44	stimuli\Videos_short_600ms\5.repeated_tap_with_finger_moving_from_top_to_bottom_short_short_600ms.mp4	5.repeated_tap_with_finger_moving_from_top_to_bottom_short_short_600ms.mp4	437.86148510446947	438.46975367707273	0.6082685726032651	n/a	n/a	n/a	n/a
391.44140625	0.2	801672	333	61	3	0	0	49	6	stimuli\Videos_short_600ms\15.single_stroke_top_to_bottom_with_a_plastic_whisk_short_short_600ms.mp4	15.single_stroke_top_to_bottom_with_a_plastic_whisk_short_short_600ms.mp4	438.6614198281168	439.2697385456267	0.6083187175099738	n/a	n/a	n/a	n/a
392.2412109375	0.2	803310	334	61	3	0	0	50	295	stimuli\Videos_short_600ms_vertflip\32.single_(long)pinch_with_fingers_short_vertflip_short_600ms.mp4	32.single_(long)pinch_with_fingers_short_vertflip_short_600ms.mp4	439.46139296687033	440.0697201884868	0.6083272216164914	n/a	n/a	n/a	n/a
393.04150390625	0.2	804949	335	61	3	0	0	51	280	stimuli\Videos_short_600ms_vertflip\19.single_touch_with_rolling_pin_short_vertflip_short_600ms.mp4	19.single_touch_with_rolling_pin_short_vertflip_short_600ms.mp4	440.2614294465566	440.8697047637943	0.6082753172377124	n/a	n/a	n/a	n/a
393.84130859375	0.2	806587	336	61	3	0	1	52	382	stimuli\Targets_short_600ms_vertflip\hand-pinch_short_horvertflip_short_600ms.mp4	hand-pinch_short_horvertflip_short_600ms.mp4	441.0613679823873	441.6696887526159	0.6083207702286018	n/a	n/a	n/a	n/a
394.64111328125	0.2	808225	337	61	3	0	0	53	238	stimuli\Videos_short_600ms_horvertflip\62.touch_top_to_bottom_with_scissors_short_horvertflip_short_600ms.mp4	62.touch_top_to_bottom_with_scissors_short_horvertflip_short_600ms.mp4	441.86134464008137	442.4696762603744	0.6083316202930291	n/a	n/a	n/a	n/a
395.44140625	0.2	809864	338	61	3	0	0	54	156	stimuli\Videos_short_600ms_horflip\7.repeated_touch_with_hairbrush_short_horflip_short_600ms.mp4	7.repeated_touch_with_hairbrush_short_horflip_short_600ms.mp4	442.661342704665	443.26962916521734	0.6082864605523355	n/a	n/a	n/a	n/a
396.2412109375	0.2	811502	339	61	3	0	0	55	103	stimuli\Videos_short_600ms_horflip\21.repeated_touch_with_metal_chopstick_short_horflip_short_600ms.mp4	21.repeated_touch_with_metal_chopstick_short_horflip_short_600ms.mp4	443.4613164299044	444.0696237108568	0.608307280952431	n/a	n/a	n/a	n/a
397.041015625	0.2	813140	340	61	3	0	0	56	110	stimuli\Videos_short_600ms_horflip\28.single_injection_with_sharp_needle_short_horflip_short_600ms.mp4	28.single_injection_with_sharp_needle_short_horflip_short_600ms.mp4	444.261302471441	444.8695947968954	0.6082923254543857	n/a	n/a	n/a	n/a
397.84130859375	0.2	814779	341	61	3	0	0	57	118	stimuli\Videos_short_600ms_horflip\35.single_punch_with_hand_short_horflip_short_600ms.mp4	35.single_punch_with_hand_short_horflip_short_600ms.mp4	445.06128323456505	445.6695825979005	0.6082993633353908	n/a	n/a	n/a	n/a
398.64111328125	0.2	816417	342	61	3	0	0	58	338	stimuli\Videos_short_600ms_vertflip\71.single_stroke_with_finger_top_to_bottom_short_vertflip_short_600ms.mp4	71.single_stroke_with_finger_top_to_bottom_short_vertflip_short_600ms.mp4	445.861369859158	446.4695686394334	0.6081987802754156	n/a	n/a	n/a	n/a
399.44091796875	0.2	818055	343	61	3	0	0	59	12	stimuli\Videos_short_600ms\20.single_touch_with_screwdriver_short_short_600ms.mp4	20.single_touch_with_screwdriver_short_short_600ms.mp4	446.66130898148185	447.26957374189806	0.6082647604162048	n/a	n/a	n/a	n/a
400.2412109375	0.2	819694	344	61	3	0	0	60	329	stimuli\Videos_short_600ms_vertflip\63.stroke_top_to_bottom_with_screwdriver_short_vertflip_short_600ms.mp4	63.stroke_top_to_bottom_with_screwdriver_short_vertflip_short_600ms.mp4	447.46128769188726	448.0695659415797	0.6082782496923755	n/a	n/a	n/a	n/a
401.041015625	0.2	821332	345	61	3	0	0	61	322	stimuli\Videos_short_600ms_vertflip\57.single_touch_with_nail_file_short_vertflip_short_600ms.mp4	57.single_touch_with_nail_file_short_vertflip_short_600ms.mp4	448.26121508441065	448.86947016773775	0.6082550833270943	n/a	n/a	n/a	n/a
401.8408203125	0.2	822970	346	61	3	0	0	62	227	stimuli\Videos_short_600ms_horvertflip\52.touch_top_to_bottom_with_hammer_short_horvertflip_short_600ms.mp4	52.touch_top_to_bottom_with_hammer_short_horvertflip_short_600ms.mp4	449.0612867535056	449.6695157380236	0.608228984518064	n/a	n/a	n/a	n/a
402.64111328125	0.2	824609	347	61	3	0	0	63	54	stimuli\Videos_short_600ms\59.single_push_with_long_side_pencil_short_short_600ms.mp4	59.single_push_with_long_side_pencil_short_short_600ms.mp4	449.8611783701272	450.4694994335987	0.6083210634715215	n/a	n/a	n/a	n/a
403.44091796875	0.2	826247	348	61	3	0	0	64	346	stimuli\Videos_short_600ms_vertflip\79.long_with_soft_brush_all_over_the_hand_short_vertflip_short_600ms.mp4	79.long_with_soft_brush_all_over_the_hand_short_vertflip_short_600ms.mp4	450.661133620928	451.2694816629446	0.608348042016587	n/a	n/a	n/a	n/a
404.24072265625	0.2	827885	349	61	3	0	0	65	348	stimuli\Videos_short_600ms_vertflip\80.stroke_with_sharp_stick_all_over_the_hand_short_vertflip_short_600ms.mp4	80.stroke_with_sharp_stick_all_over_the_hand_short_vertflip_short_600ms.mp4	451.46114546803074	452.0694633058047	0.6083178377739387	n/a	n/a	n/a	n/a
405.041015625	0.2	829524	350	61	3	0	0	66	40	stimuli\Videos_short_600ms\46.scratching_top_to_bottom_with_finger_nails_short_short_600ms.mp4	46.scratching_top_to_bottom_with_finger_nails_short_short_600ms.mp4	452.2613194796541	452.8694467081332	0.6081272284791339	n/a	n/a	n/a	n/a
405.8408203125	0.2	831162	351	61	3	0	0	67	188	stimuli\Videos_short_600ms_horvertflip\17.repeated_touch_with_rolling_pin_short_horvertflip_short_600ms.mp4	17.repeated_touch_with_rolling_pin_short_horvertflip_short_600ms.mp4	453.06107620354305	453.6694306969512	0.6083544934081146	n/a	n/a	n/a	n/a
406.640625	0.2	832800	352	61	3	0	0	68	207	stimuli\Videos_short_600ms_horvertflip\34.repeated_punch_with_hand_short_horvertflip_short_600ms.mp4	34.repeated_punch_with_hand_short_horvertflip_short_600ms.mp4	453.8610909830968	454.4694140992833	0.6083231161865115	n/a	n/a	n/a	n/a
407.44091796875	0.2	834439	353	61	3	0	0	69	161	stimuli\Videos_short_600ms_horflip\74.fingers_walking_from_top_to_bottom_short_horflip_short_600ms.mp4	74.fingers_walking_from_top_to_bottom_short_horflip_short_600ms.mp4	454.661033037868	455.2693966218758	0.6083635840077477	n/a	n/a	n/a	n/a
408.24072265625	0.2	836077	354	61	3	0	0	70	284	stimuli\Videos_short_600ms_vertflip\22.single_touch_with_metal_chopstick_short_vertflip_short_600ms.mp4	22.single_touch_with_metal_chopstick_short_vertflip_short_600ms.mp4	455.4610187861581	456.06937973095773	0.6083609447996423	n/a	n/a	n/a	n/a
409.041015625	0.2	837716	355	61	3	0	1	71	373	stimuli\Targets_short_600ms_horvertflip\chopstick-silver-tap_short_vertflip_short_600ms.mp4	chopstick-silver-tap_short_vertflip_short_600ms.mp4	456.2610485212099	456.86936078732833	0.6083122661184461	n/a	n/a	n/a	n/a
409.8408203125	0.2	839354	356	61	3	0	0	72	133	stimuli\Videos_short_600ms_horflip\49.repeated_slap_with_hand_short_horflip_short_600ms.mp4	49.repeated_slap_with_hand_short_horflip_short_600ms.mp4	457.0610201937343	457.6693474153544	0.6083272216201294	n/a	n/a	n/a	n/a
410.640625	0.2	840992	357	61	3	0	0	73	127	stimuli\Videos_short_600ms_horflip\43.touch_top_to_bottom_with_sharp_wooden_stick_short_horflip_short_600ms.mp4	43.touch_top_to_bottom_with_sharp_wooden_stick_short_horflip_short_600ms.mp4	457.8610464098456	458.4692830187342	0.6082366088885465	n/a	n/a	n/a	n/a
