onset	duration	onsetsample	eventnumber	subjectnr	sequencenumber	blocksequencenumber	istarget	presentationnumber	stimnumber	stim	stimname	time_stimon	time_stimoff	stimdur	cresp	resp	rt	correct
32.23681640625	0.2	66021	0	38	0	0	0	0	13	stimuli\Videos_short_600ms\21.repeated_touch_with_metal_chopstick_short_short_600ms.mp4	21.repeated_touch_with_metal_chopstick_short_short_600ms.mp4	51.492851290538965	52.10116253768865	0.6083112471496861	n/a	n/a	n/a	n/a
33.03662109375	0.2	67659	1	38	0	0	0	1	81	stimuli\Videos_short_600ms\83.single_stroke_top_to_bottom_with_cotton_bud_short_short_600ms.mp4	83.single_stroke_top_to_bottom_with_cotton_bud_short_short_600ms.mp4	52.29283199506426	52.901152626031035	0.608320630966773	n/a	n/a	n/a	n/a
33.83642578125	0.2	69297	2	38	0	0	0	2	215	stimuli\Videos_short_600ms_horvertflip\41.injection_with_blunt_syringe_short_horvertflip_short_600ms.mp4	41.injection_with_blunt_syringe_short_horvertflip_short_600ms.mp4	53.09281152661242	53.70113186433627	0.6083203377238533	n/a	n/a	n/a	n/a
34.63671875	0.2	70936	3	38	0	0	0	3	2	stimuli\Videos_short_600ms\11.single_touch_with_lighter_short_short_600ms.mp4	11.single_touch_with_lighter_short_short_600ms.mp4	53.89279487033673	54.50111344859397	0.60831857825724	n/a	n/a	n/a	n/a
35.4365234375	0.2	72574	4	38	0	0	0	4	217	stimuli\Videos_short_600ms_horvertflip\43.touch_top_to_bottom_with_sharp_wooden_stick_short_horvertflip_short_600ms.mp4	43.touch_top_to_bottom_with_sharp_wooden_stick_short_horvertflip_short_600ms.mp4	54.692773228907754	55.30109268689739	0.6083194579896372	n/a	n/a	n/a	n/a
36.236328125	0.2	74212	5	38	0	0	0	5	289	stimuli\Videos_short_600ms_vertflip\27.single_push_with_a_plastic_whisk_short_vertflip_short_600ms.mp4	27.single_push_with_a_plastic_whisk_short_vertflip_short_600ms.mp4	55.492758918584514	56.10107632386644	0.6083174052819231	n/a	n/a	n/a	n/a
37.03662109375	0.2	75851	6	38	0	0	0	6	8	stimuli\Videos_short_600ms\17.repeated_touch_with_rolling_pin_short_short_600ms.mp4	17.repeated_touch_with_rolling_pin_short_short_600ms.mp4	56.292735224446005	56.901502173233894	0.6087669487878884	n/a	n/a	n/a	n/a
37.83642578125	0.2	77489	7	38	0	0	0	7	228	stimuli\Videos_short_600ms_horvertflip\53.touch_top_to_bottom_with_knife_short_horvertflip_short_600ms.mp4	53.touch_top_to_bottom_with_knife_short_horvertflip_short_600ms.mp4	57.09271622221604	57.70103773291703	0.6083215107009892	n/a	n/a	n/a	n/a
38.63623046875	0.2	79127	8	38	0	0	0	8	329	stimuli\Videos_short_600ms_vertflip\63.stroke_top_to_bottom_with_screwdriver_short_vertflip_short_600ms.mp4	63.stroke_top_to_bottom_with_screwdriver_short_vertflip_short_600ms.mp4	57.89269809971847	58.50101667797571	0.60831857825724	n/a	n/a	n/a	n/a
39.4365234375	0.2	80766	9	38	0	0	0	9	198	stimuli\Videos_short_600ms_horvertflip\26.single_touch_with_a_blunt_syringe_short_horvertflip_short_600ms.mp4	26.single_touch_with_a_blunt_syringe_short_horvertflip_short_600ms.mp4	58.69267792451137	59.30099767574575	0.6083197512343759	n/a	n/a	n/a	n/a
40.236328125	0.2	82404	10	38	0	0	0	10	295	stimuli\Videos_short_600ms_vertflip\32.single_(long)pinch_with_fingers_short_vertflip_short_600ms.mp4	32.single_(long)pinch_with_fingers_short_vertflip_short_600ms.mp4	59.49266185472334	60.10097955324818	0.6083176985248429	n/a	n/a	n/a	n/a
41.03662109375	0.2	84043	11	38	0	0	0	11	270	stimuli\Videos_short_600ms_vertflip\1.repeated_touch_with_finger_fast_short_vertflip_short_600ms.mp4	1.repeated_touch_with_finger_fast_short_vertflip_short_600ms.mp4	60.2926405065391	60.90095996452874	0.6083194579896372	n/a	n/a	n/a	n/a
41.83642578125	0.2	85681	12	38	0	0	1	12	374	stimuli\Targets_short_600ms_horvertflip\chopstickwood-tap_short_vertflip_short_600ms.mp4	chopstickwood-tap_short_vertflip_short_600ms.mp4	61.09260742858169	61.70094154878643	0.608334120204745	n/a	n/a	n/a	n/a
42.63623046875	0.2	87319	13	38	0	0	0	13	302	stimuli\Videos_short_600ms_vertflip\39.single_stab_with_scissors_short_vertflip_short_600ms.mp4	39.single_stab_with_scissors_short_vertflip_short_600ms.mp4	61.89265763200456	62.50093222361829	0.6082745916137355	n/a	n/a	n/a	n/a
43.4365234375	0.2	88958	14	38	0	0	0	14	157	stimuli\Videos_short_600ms_horflip\70.(long)stroke_with_finger_all_over_the_hand_short_horflip_short_600ms.mp4	70.(long)stroke_with_finger_all_over_the_hand_short_horflip_short_600ms.mp4	62.692586725534056	63.30090325108176	0.608316525547707	n/a	n/a	n/a	n/a
44.236328125	0.2	90596	15	38	0	0	0	15	39	stimuli\Videos_short_600ms\45.scratching_with_finger_nails_short_short_600ms.mp4	45.scratching_with_finger_nails_short_short_600ms.mp4	63.492572121967896	64.10085873659773	0.6082866146298329	n/a	n/a	n/a	n/a
45.0361328125	0.2	92234	16	38	0	0	0	16	271	stimuli\Videos_short_600ms_vertflip\10.single_touch_with_knife_short_vertflip_short_600ms.mp4	10.single_touch_with_knife_short_vertflip_short_600ms.mp4	64.29255517244746	64.90086260742282	0.6083074349753588	n/a	n/a	n/a	n/a
45.83642578125	0.2	93873	17	38	0	0	0	17	33	stimuli\Videos_short_600ms\4.repeated_tap_with_finger_slow_short_short_600ms.mp4	4.repeated_tap_with_finger_slow_short_short_600ms.mp4	65.09252913235468	65.70084272545864	0.6083135931039578	n/a	n/a	n/a	n/a
46.63623046875	0.2	95511	18	38	0	0	0	18	299	stimuli\Videos_short_600ms_vertflip\36.single_slap_with_full_hand_short_vertflip_short_600ms.mp4	36.single_slap_with_full_hand_short_vertflip_short_600ms.mp4	65.89252156665134	66.50082342998394	0.6083018633325992	n/a	n/a	n/a	n/a
47.43603515625	0.2	97149	19	38	0	0	0	19	250	stimuli\Videos_short_600ms_horvertflip\73.single_stroke_with_flat_hand_short_horvertflip_short_600ms.mp4	73.single_stroke_with_flat_hand_short_horvertflip_short_600ms.mp4	66.69249200762715	67.30078419389793	0.6082921862707735	n/a	n/a	n/a	n/a
48.236328125	0.2	98788	20	38	0	0	0	20	205	stimuli\Videos_short_600ms_horvertflip\32.single_(long)pinch_with_fingers_short_horvertflip_short_600ms.mp4	32.single_(long)pinch_with_fingers_short_horvertflip_short_600ms.mp4	67.4924706594411	68.10079275663156	0.6083220971904666	n/a	n/a	n/a	n/a
49.0361328125	0.2	100426	21	38	0	0	0	21	23	stimuli\Videos_short_600ms\30.finger_pulling_back_another_finger_short_short_600ms.mp4	30.finger_pulling_back_another_finger_short_short_600ms.mp4	68.29245283018827	68.90092330899279	0.6084704788045201	n/a	n/a	n/a	n/a
49.8359375	0.2	102064	22	38	0	0	0	22	42	stimuli\Videos_short_600ms\48.single_slap_with_hand_short_short_600ms.mp4	48.single_slap_with_hand_short_short_600ms.mp4	69.09289334177083	69.70076179003263	0.6078684482617973	n/a	n/a	n/a	n/a
50.63623046875	0.2	103703	23	38	0	0	0	23	148	stimuli\Videos_short_600ms_horflip\62.touch_top_to_bottom_with_scissors_short_horflip_short_600ms.mp4	62.touch_top_to_bottom_with_scissors_short_horflip_short_600ms.mp4	69.89240104324563	70.50073457696271	0.6083335337170865	n/a	n/a	n/a	n/a
51.43603515625	0.2	105341	24	38	0	0	0	24	332	stimuli\Videos_short_600ms_vertflip\66.stroke_top_to_bottom_with_sponge_short_vertflip_short_600ms.mp4	66.stroke_top_to_bottom_with_sponge_short_vertflip_short_600ms.mp4	70.6924116586888	71.30071792068702	0.6083062619982229	n/a	n/a	n/a	n/a
52.23583984375	0.2	106979	25	38	0	0	0	25	150	stimuli\Videos_short_600ms_horflip\64.repeated_touch_with_screwdriver_short_horflip_short_600ms.mp4	64.repeated_touch_with_screwdriver_short_horflip_short_600ms.mp4	71.49237975371034	72.10069451979143	0.6083147660810937	n/a	n/a	n/a	n/a
53.0361328125	0.2	108618	26	38	0	0	0	26	165	stimuli\Videos_short_600ms_horflip\78.single_stroke_top_to_bottom_with_soft_brush_short_horflip_short_600ms.mp4	78.single_stroke_top_to_bottom_with_soft_brush_short_horflip_short_600ms.mp4	72.29235869876902	72.90068138244715	0.608322683678125	n/a	n/a	n/a	n/a
53.8359375	0.2	110256	27	38	0	0	0	27	298	stimuli\Videos_short_600ms_vertflip\35.single_punch_with_hand_short_vertflip_short_600ms.mp4	35.single_punch_with_hand_short_vertflip_short_600ms.mp4	73.09233823031718	73.70065886128577	0.608320630968592	n/a	n/a	n/a	n/a
54.6357421875	0.2	111894	28	38	0	0	0	28	313	stimuli\Videos_short_600ms_vertflip\49.repeated_slap_with_hand_short_vertflip_short_600ms.mp4	49.repeated_slap_with_hand_short_vertflip_short_600ms.mp4	73.8923233335081	74.50063839283393	0.6083150593258324	n/a	n/a	n/a	n/a
55.43603515625	0.2	113533	29	38	0	0	0	29	77	stimuli\Videos_short_600ms\8.single_touch_with_hairbrush_short_short_600ms.mp4	8.single_touch_with_hairbrush_short_short_600ms.mp4	74.6923280840656	75.30062085682403	0.608292772758432	n/a	n/a	n/a	n/a
56.23583984375	0.2	115171	30	38	0	0	1	30	373	stimuli\Targets_short_600ms_horvertflip\chopstick-silver-tap_short_vertflip_short_600ms.mp4	chopstick-silver-tap_short_vertflip_short_600ms.mp4	75.49228855473302	76.10060332081594	0.6083147660829127	n/a	n/a	n/a	n/a
57.03564453125	0.2	116809	31	38	0	0	0	31	277	stimuli\Videos_short_600ms_vertflip\16.repeated_touch_with_plastic_brush_short_vertflip_short_600ms.mp4	16.repeated_touch_with_plastic_brush_short_vertflip_short_600ms.mp4	76.2922631011279	76.90058343885175	0.6083203377238533	n/a	n/a	n/a	n/a
57.8359375	0.2	118448	32	38	0	0	0	32	263	stimuli\Videos_short_600ms_horvertflip\85.touch_top_to_bottom_with_fabric_short_horvertflip_short_600ms.mp4	85.touch_top_to_bottom_with_fabric_short_horvertflip_short_600ms.mp4	77.09224087321127	77.70056385013413	0.6083229769228637	n/a	n/a	n/a	n/a
58.6357421875	0.2	120086	33	38	0	0	0	33	95	stimuli\Videos_short_600ms_horflip\14.repeated_touch_with_pencil_short_horflip_short_600ms.mp4	14.repeated_touch_with_pencil_short_horflip_short_600ms.mp4	77.89223066830891	78.50054807359083	0.6083174052819231	n/a	n/a	n/a	n/a
59.43603515625	0.2	121725	34	38	0	0	0	34	134	stimuli\Videos_short_600ms_horflip\5.repeated_tap_with_finger_moving_from_top_to_bottom_short_horflip_short_600ms.mp4	5.repeated_tap_with_finger_moving_from_top_to_bottom_short_horflip_short_600ms.mp4	78.69221225256842	79.30050766452587	0.6082954119574424	n/a	n/a	n/a	n/a
60.23583984375	0.2	123363	35	38	0	0	0	35	22	stimuli\Videos_short_600ms\3.single_push_with_finger_short_short_600ms.mp4	3.single_push_with_finger_short_short_600ms.mp4	79.49219588953565	80.10048543660923	0.6082895470735821	n/a	n/a	n/a	n/a
61.03564453125	0.2	125001	36	38	0	0	0	36	20	stimuli\Videos_short_600ms\28.single_injection_with_sharp_needle_short_short_600ms.mp4	28.single_injection_with_sharp_needle_short_short_600ms.mp4	80.29217014268761	80.90065469721594	0.6084845545283315	n/a	n/a	n/a	n/a
61.8359375	0.2	126640	37	38	0	0	0	37	119	stimuli\Videos_short_600ms_horflip\36.single_slap_with_full_hand_short_horflip_short_600ms.mp4	36.single_slap_with_full_hand_short_horflip_short_600ms.mp4	81.09216052427291	81.70044479294847	0.6082842686755612	n/a	n/a	n/a	n/a
62.6357421875	0.2	128278	38	38	0	0	0	38	286	stimuli\Videos_short_600ms_vertflip\24.single_stroke_top_to_bottom_with_a_spoon_short_vertflip_short_600ms.mp4	24.single_stroke_top_to_bottom_with_a_spoon_short_vertflip_short_600ms.mp4	81.89213213822586	82.5004498367507	0.6083176985248429	n/a	n/a	n/a	n/a
63.435546875	0.2	129916	39	38	0	0	0	39	14	stimuli\Videos_short_600ms\22.single_touch_with_metal_chopstick_short_short_600ms.mp4	22.single_touch_with_metal_chopstick_short_short_600ms.mp4	82.69211372248355	83.3004434440245	0.6083297215409402	n/a	n/a	n/a	n/a
64.23583984375	0.2	131555	40	38	0	0	0	40	231	stimuli\Videos_short_600ms_horvertflip\56.repeated_touch_with_nail_file_short_horvertflip_short_600ms.mp4	56.repeated_touch_with_nail_file_short_horvertflip_short_600ms.mp4	83.49209384052119	84.10041652419932	0.608322683678125	n/a	n/a	n/a	n/a
65.03564453125	0.2	133193	41	38	0	0	1	41	378	stimuli\Targets_short_600ms_vertflip\brush-stroke_short_horvertflip_short_600ms.mp4	brush-stroke_short_horvertflip_short_600ms.mp4	84.29207601126836	84.90040397334269	0.6083279620743269	n/a	n/a	n/a	n/a
65.83544921875	0.2	134831	42	38	0	0	0	42	202	stimuli\Videos_short_600ms_horvertflip\3.single_push_with_finger_short_horvertflip_short_600ms.mp4	3.single_push_with_finger_short_horvertflip_short_600ms.mp4	85.09205700903658	85.7003770535157	0.6083200444791146	n/a	n/a	n/a	n/a
66.6357421875	0.2	136470	43	38	0	0	0	43	236	stimuli\Videos_short_600ms_horvertflip\60.single_push_with_tip_of_pencil_short_horvertflip_short_600ms.mp4	60.single_push_with_tip_of_pencil_short_horvertflip_short_600ms.mp4	85.89204181898276	86.50035453235432	0.6083127133715607	n/a	n/a	n/a	n/a
67.435546875	0.2	138108	44	38	0	0	0	44	153	stimuli\Videos_short_600ms_horflip\67.single_touch_with_sponge_short_horflip_short_600ms.mp4	67.single_touch_with_sponge_short_horflip_short_600ms.mp4	86.69203601274603	87.30033875581103	0.6083027430649963	n/a	n/a	n/a	n/a
68.2353515625	0.2	139746	45	38	0	0	0	45	32	stimuli\Videos_short_600ms\39.single_stab_with_scissors_short_short_600ms.mp4	39.single_stab_with_scissors_short_short_600ms.mp4	87.49200234830096	88.1003200468258	0.6083176985248429	n/a	n/a	n/a	n/a
69.03564453125	0.2	141385	46	38	0	0	0	46	65	stimuli\Videos_short_600ms\69.stroke_with_soft_sock_short_short_600ms.mp4	69.stroke_with_soft_sock_short_short_600ms.mp4	88.29198246633678	88.90030104459402	0.60831857825724	n/a	n/a	n/a	n/a
69.83544921875	0.2	143023	47	38	0	0	0	47	63	stimuli\Videos_short_600ms\67.single_touch_with_sponge_short_short_600ms.mp4	67.single_touch_with_sponge_short_short_600ms.mp4	89.09193296669946	89.70028204236405	0.6083490756645915	n/a	n/a	n/a	n/a
70.63525390625	0.2	144661	48	38	0	0	0	48	206	stimuli\Videos_short_600ms_horvertflip\33.scratch_top_to_bottom_with_scissors_short_horvertflip_short_600ms.mp4	33.scratch_top_to_bottom_with_scissors_short_horvertflip_short_600ms.mp4	89.89192686721799	90.5002624536446	0.6083355864266196	n/a	n/a	n/a	n/a
71.435546875	0.2	146300	49	38	0	0	0	49	309	stimuli\Videos_short_600ms_vertflip\45.scratching_with_finger_nails_short_vertflip_short_600ms.mp4	45.scratching_with_finger_nails_short_vertflip_short_600ms.mp4	90.69190845147568	91.30024374465938	0.6083352931836998	n/a	n/a	n/a	n/a
72.2353515625	0.2	147938	50	38	0	0	0	50	226	stimuli\Videos_short_600ms_horvertflip\51.repeated_touch_with_hammer_short_horvertflip_short_600ms.mp4	51.repeated_touch_with_hammer_short_horvertflip_short_600ms.mp4	91.49190821688173	92.10022532891708	0.6083171120353654	n/a	n/a	n/a	n/a
73.03515625	0.2	149576	51	38	0	0	0	51	0	stimuli\Videos_short_600ms\1.repeated_touch_with_finger_fast_short_short_600ms.mp4	1.repeated_touch_with_finger_fast_short_short_600ms.mp4	92.2918631159082	92.900207792909	0.6083446770007868	n/a	n/a	n/a	n/a
73.83544921875	0.2	151215	52	38	0	0	0	52	167	stimuli\Videos_short_600ms_horflip\8.single_touch_with_hairbrush_short_horflip_short_600ms.mp4	8.single_touch_with_hairbrush_short_horflip_short_600ms.mp4	93.0918429407011	93.70018409876866	0.6083411580675602	n/a	n/a	n/a	n/a
74.63525390625	0.2	152853	53	38	0	0	0	53	105	stimuli\Videos_short_600ms_horflip\23.single_push_with_a_spoon_short_horflip_short_600ms.mp4	23.single_push_with_a_spoon_short_horflip_short_600ms.mp4	93.89185648858802	94.50017037493672	0.6083138863486965	n/a	n/a	n/a	n/a
75.43505859375	0.2	154491	54	38	0	0	1	54	372	stimuli\Targets_short_600ms_horvertflip\brush-stroke_short_vertflip_short_600ms.mp4	brush-stroke_short_vertflip_short_600ms.mp4	94.69184100528764	95.3001501997278	0.6083091944401531	n/a	n/a	n/a	n/a
76.2353515625	0.2	156130	55	38	0	0	0	55	338	stimuli\Videos_short_600ms_vertflip\71.single_stroke_with_finger_top_to_bottom_short_vertflip_short_600ms.mp4	71.single_stroke_with_finger_top_to_bottom_short_vertflip_short_600ms.mp4	95.49185865859543	96.10013295696444	0.6082742983689968	n/a	n/a	n/a	n/a
77.03515625	0.2	157768	56	38	0	0	0	56	138	stimuli\Videos_short_600ms_horflip\53.touch_top_to_bottom_with_knife_short_horflip_short_600ms.mp4	53.touch_top_to_bottom_with_knife_short_horflip_short_600ms.mp4	96.29179625620782	96.90009811954224	0.6083018633344182	n/a	n/a	n/a	n/a
77.8349609375	0.2	159406	57	38	0	0	0	57	164	stimuli\Videos_short_600ms_horflip\77.tapping_with_all_fingers_short_horflip_short_600ms.mp4	77.tapping_with_all_fingers_short_horflip_short_600ms.mp4	97.09177490802358	97.70009084708364	0.6083159390600485	n/a	n/a	n/a	n/a
78.63525390625	0.2	161045	58	38	0	0	0	58	283	stimuli\Videos_short_600ms_vertflip\21.repeated_touch_with_metal_chopstick_short_vertflip_short_600ms.mp4	21.repeated_touch_with_metal_chopstick_short_vertflip_short_600ms.mp4	97.89176235716876	98.50007888271648	0.608316525547707	n/a	n/a	n/a	n/a
79.43505859375	0.2	162683	59	38	0	0	0	59	168	stimuli\Videos_short_600ms_horflip\80.stroke_with_sharp_stick_all_over_the_hand_short_horflip_short_600ms.mp4	80.stroke_with_sharp_stick_all_over_the_hand_short_horflip_short_600ms.mp4	98.69173631707416	99.3000590007523	0.608322683678125	n/a	n/a	n/a	n/a
80.2353515625	0.2	164322	60	38	0	0	0	60	355	stimuli\Videos_short_600ms_vertflip\87.single_stroke_top_to_bottom_with_plastic_brush_short_vertflip_short_600ms.mp4	87.single_stroke_top_to_bottom_with_plastic_brush_short_vertflip_short_600ms.mp4	99.49171995404322	100.10004879585176	0.6083288418085431	n/a	n/a	n/a	n/a
81.03515625	0.2	165960	61	38	0	0	0	61	269	stimuli\Videos_short_600ms_horvertflip\90.repeated_touch_with_sponge_short_horvertflip_short_600ms.mp4	90.repeated_touch_with_sponge_short_horvertflip_short_600ms.mp4	100.2916557921908	100.9000195300705	0.6083637378796993	n/a	n/a	n/a	n/a
81.8349609375	0.2	167598	62	38	0	0	0	62	124	stimuli\Videos_short_600ms_horflip\40.repeated_push_with_finger_short_horflip_short_600ms.mp4	40.repeated_push_with_finger_short_horflip_short_600ms.mp4	101.0916822428262	101.70001255085664	0.6083303080304177	n/a	n/a	n/a	n/a
82.63525390625	0.2	169237	63	38	0	0	0	63	183	stimuli\Videos_short_600ms_horvertflip\12.repeated_touch_with_nail_file_short_horvertflip_short_600ms.mp4	12.repeated_touch_with_nail_file_short_horvertflip_short_600ms.mp4	101.89166324059624	102.49998093912107	0.6083176985248429	n/a	n/a	n/a	n/a
83.43505859375	0.2	170875	64	38	0	0	0	64	60	stimuli\Videos_short_600ms\64.repeated_touch_with_screwdriver_short_short_600ms.mp4	64.repeated_touch_with_screwdriver_short_short_600ms.mp4	102.6916454113416	103.29996193689112	0.608316525549526	n/a	n/a	n/a	n/a
84.23486328125	0.2	172513	65	38	0	0	1	65	377	stimuli\Targets_short_600ms_horvertflip\hand-stroke_short_vertflip_short_600ms.mp4	hand-stroke_short_vertflip_short_600ms.mp4	103.4916132131184	104.09994293465934	0.6083297215409402	n/a	n/a	n/a	n/a
85.03515625	0.2	174152	66	38	0	0	0	66	177	stimuli\Videos_short_600ms_horflip\89.single_touch_with_plastic_brush_short_horflip_short_600ms.mp4	89.single_touch_with_plastic_brush_short_horflip_short_600ms.mp4	104.29159127844468	104.89992539865123	0.608334120206564	n/a	n/a	n/a	n/a
85.8349609375	0.2	175790	67	38	0	0	0	67	244	stimuli\Videos_short_600ms_horvertflip\68.stroke_top_to_bottom_with_shawl_short_horvertflip_short_600ms.mp4	68.stroke_top_to_bottom_with_shawl_short_horvertflip_short_600ms.mp4	105.09157256945946	105.69990698290894	0.6083344134494837	n/a	n/a	n/a	n/a
86.634765625	0.2	177428	68	38	0	0	1	68	379	stimuli\Targets_short_600ms_vertflip\chopstick-silver-tap_short_horvertflip_short_600ms.mp4	chopstick-silver-tap_short_horvertflip_short_600ms.mp4	105.89154271719052	106.49987595766288	0.6083332404723478	n/a	n/a	n/a	n/a
87.43505859375	0.2	179067	69	38	0	0	0	69	233	stimuli\Videos_short_600ms_horvertflip\58.single_slap_with_pencil_short_horvertflip_short_600ms.mp4	58.single_slap_with_pencil_short_horvertflip_short_600ms.mp4	106.69153749744146	107.29986956493669	0.608332067495212	n/a	n/a	n/a	n/a
88.23486328125	0.2	180705	70	38	0	0	0	70	25	stimuli\Videos_short_600ms\32.single_(long)pinch_with_fingers_short_short_600ms.mp4	32.single_(long)pinch_with_fingers_short_short_600ms.mp4	107.49150852490492	108.09984968297432	0.6083411580693792	n/a	n/a	n/a	n/a
89.03466796875	0.2	182343	71	38	0	0	0	71	221	stimuli\Videos_short_600ms_horvertflip\47.(long)scratching_with_finger_nails_short_horvertflip_short_600ms.mp4	47.(long)scratching_with_finger_nails_short_horvertflip_short_600ms.mp4	108.29151591466145	108.89983009425488	0.6083141795934353	n/a	n/a	n/a	n/a
89.8349609375	0.2	183982	72	38	0	0	0	72	121	stimuli\Videos_short_600ms_horflip\38.double_slap_with_pencil_short_horflip_short_600ms.mp4	38.double_slap_with_pencil_short_horflip_short_600ms.mp4	109.09151157464476	109.6998119717573	0.6083003971125436	n/a	n/a	n/a	n/a
90.634765625	0.2	185620	73	38	0	0	0	73	1	stimuli\Videos_short_600ms\10.single_touch_with_knife_short_short_600ms.mp4	10.single_touch_with_knife_short_short_600ms.mp4	109.8914823088653	110.4997953154816	0.6083130066162994	n/a	n/a	n/a	n/a
91.44287109375	0.2	187275	74	38	0	0	1	74	366	stimuli\Targets_short_600ms_horflip\brush-stroke_short_horflip_short_600ms.mp4	brush-stroke_short_horflip_short_600ms.mp4	110.69979408385552	111.30810914318135	0.6083150593258324	n/a	n/a	n/a	n/a
92.2431640625	0.2	188914	75	38	0	0	0	75	145	stimuli\Videos_short_600ms_horflip\6.single_touch_with_flat_hand_short_horflip_short_600ms.mp4	6.single_touch_with_flat_hand_short_horflip_short_600ms.mp4	111.49976921673806	112.1080901409514	0.6083209242133307	n/a	n/a	n/a	n/a
93.04296875	0.2	190552	76	38	0	0	1	76	361	stimuli\Targets_short_600ms\chopstick-silver-tap_short_short_600ms.mp4	chopstick-silver-tap_short_short_600ms.mp4	112.29975549290612	112.90806791303294	0.608312420126822	n/a	n/a	n/a	n/a
93.84326171875	0.2	192191	77	38	0	0	0	77	101	stimuli\Videos_short_600ms_horflip\2.single_touch_with_finger_short_horflip_short_600ms.mp4	2.single_touch_with_finger_short_horflip_short_600ms.mp4	113.099711271665	113.70806005408669	0.6083487824216718	n/a	n/a	n/a	n/a
94.64306640625	0.2	193829	78	38	0	0	0	78	204	stimuli\Videos_short_600ms_horvertflip\31.hand_grabbing_wrist_short_horvertflip_short_600ms.mp4	31.hand_grabbing_wrist_short_horvertflip_short_600ms.mp4	113.8996902167255	114.50803225452728	0.6083420378017763	n/a	n/a	n/a	n/a
95.44287109375	0.2	195467	79	38	0	0	1	79	381	stimuli\Targets_short_600ms_vertflip\finger-tap_short_horvertflip_short_600ms.mp4	finger-tap_short_horvertflip_short_600ms.mp4	114.6996993659468	115.30801765096112	0.6083182850143203	n/a	n/a	n/a	n/a
96.2431640625	0.2	197106	80	38	0	0	0	80	304	stimuli\Videos_short_600ms_vertflip\40.repeated_push_with_finger_short_vertflip_short_600ms.mp4	40.repeated_push_with_finger_short_vertflip_short_600ms.mp4	115.49968886780152	116.10800128792836	0.608312420126822	n/a	n/a	n/a	n/a
97.04296875	0.2	198744	81	38	0	0	0	81	305	stimuli\Videos_short_600ms_vertflip\41.injection_with_blunt_syringe_short_vertflip_short_600ms.mp4	41.injection_with_blunt_syringe_short_vertflip_short_600ms.mp4	116.2996607749974	116.90795296126817	0.6082921862707735	n/a	n/a	n/a	n/a
97.8427734375	0.2	200382	82	38	0	0	0	82	117	stimuli\Videos_short_600ms_horflip\34.repeated_punch_with_hand_short_horflip_short_600ms.mp4	34.repeated_punch_with_hand_short_horflip_short_600ms.mp4	117.09965232956164	117.70797999839306	0.6083276688314072	n/a	n/a	n/a	n/a
98.64306640625	0.2	202021	83	38	0	0	0	83	15	stimuli\Videos_short_600ms\23.single_push_with_a_spoon_short_short_600ms.mp4	23.single_push_with_a_spoon_short_short_600ms.mp4	117.89962423675752	118.50794340150424	0.6083191647467174	n/a	n/a	n/a	n/a
99.44287109375	0.2	203659	84	38	0	0	0	84	142	stimuli\Videos_short_600ms_horflip\57.single_touch_with_nail_file_short_horflip_short_600ms.mp4	57.single_touch_with_nail_file_short_horflip_short_600ms.mp4	118.69960376830568	119.3079290911828	0.6083253228771355	n/a	n/a	n/a	n/a
100.24267578125	0.2	205297	85	38	0	0	0	85	141	stimuli\Videos_short_600ms_horflip\56.repeated_touch_with_nail_file_short_horflip_short_600ms.mp4	56.repeated_touch_with_nail_file_short_horflip_short_600ms.mp4	119.49958769851946	120.1079062767767	0.60831857825724	n/a	n/a	n/a	n/a
101.04296875	0.2	206936	86	38	0	0	0	86	30	stimuli\Videos_short_600ms\37.single_stab_with_nail_file_short_short_600ms.mp4	37.single_stab_with_nail_file_short_short_600ms.mp4	120.2995645908686	120.90789255294294	0.6083279620743269	n/a	n/a	n/a	n/a
101.8427734375	0.2	208574	87	38	0	0	0	87	254	stimuli\Videos_short_600ms_horvertflip\77.tapping_with_all_fingers_short_horvertflip_short_600ms.mp4	77.tapping_with_all_fingers_short_horvertflip_short_600ms.mp4	121.09954793459292	121.7078659263625	0.6083179917695816	n/a	n/a	n/a	n/a
102.642578125	0.2	210212	88	38	0	0	0	88	51	stimuli\Videos_short_600ms\56.repeated_touch_with_nail_file_short_short_600ms.mp4	56.repeated_touch_with_nail_file_short_short_600ms.mp4	121.89952893236114	122.50784721737546	0.6083182850143203	n/a	n/a	n/a	n/a
103.44287109375	0.2	211851	89	38	0	0	0	89	133	stimuli\Videos_short_600ms_horflip\49.repeated_slap_with_hand_short_horflip_short_600ms.mp4	49.repeated_slap_with_hand_short_horflip_short_600ms.mp4	122.69951022337592	123.30782821514548	0.6083179917695816	n/a	n/a	n/a	n/a
104.24267578125	0.2	213489	90	38	0	0	0	90	79	stimuli\Videos_short_600ms\81.single_stroke_top_to_bottom_with_cotton_pad_short_short_600ms.mp4	81.single_stroke_top_to_bottom_with_cotton_pad_short_short_600ms.mp4	123.49949063465648	124.10780921291553	0.608318578259059	n/a	n/a	n/a	n/a
105.04248046875	0.2	215127	91	38	0	0	0	91	273	stimuli\Videos_short_600ms_vertflip\12.repeated_touch_with_nail_file_short_vertflip_short_600ms.mp4	12.repeated_touch_with_nail_file_short_vertflip_short_600ms.mp4	124.2994725121589	124.90779050392848	0.6083179917695816	n/a	n/a	n/a	n/a
105.8427734375	0.2	216766	92	38	0	0	0	92	207	stimuli\Videos_short_600ms_horvertflip\34.repeated_punch_with_hand_short_horvertflip_short_600ms.mp4	34.repeated_punch_with_hand_short_horvertflip_short_600ms.mp4	125.09942858416434	125.70777267467564	0.6083440905113093	n/a	n/a	n/a	n/a
106.642578125	0.2	218404	93	38	0	0	0	93	125	stimuli\Videos_short_600ms_horflip\41.injection_with_blunt_syringe_short_horflip_short_600ms.mp4	41.injection_with_blunt_syringe_short_horflip_short_600ms.mp4	125.89943040227809	126.50775425893336	0.6083238566552609	n/a	n/a	n/a	n/a
107.4423828125	0.2	220042	94	38	0	0	0	94	131	stimuli\Videos_short_600ms_horflip\47.(long)scratching_with_finger_nails_short_horflip_short_600ms.mp4	47.(long)scratching_with_finger_nails_short_horflip_short_600ms.mp4	126.69941315951291	127.30773818914533	0.6083250296323968	n/a	n/a	n/a	n/a
108.24267578125	0.2	221681	95	38	0	0	0	95	341	stimuli\Videos_short_600ms_vertflip\74.fingers_walking_from_top_to_bottom_short_vertflip_short_600ms.mp4	74.fingers_walking_from_top_to_bottom_short_vertflip_short_600ms.mp4	127.49939738297144	128.1077144950068	0.6083171120353654	n/a	n/a	n/a	n/a
109.04248046875	0.2	223319	96	38	0	0	0	96	173	stimuli\Videos_short_600ms_horflip\85.touch_top_to_bottom_with_fabric_short_horflip_short_600ms.mp4	85.touch_top_to_bottom_with_fabric_short_horflip_short_600ms.mp4	128.29935697390647	128.90780340667698	0.6084464327705064	n/a	n/a	n/a	n/a
109.84228515625	0.2	224957	97	38	0	0	0	97	17	stimuli\Videos_short_600ms\25.single_touch_with_stanley_knife_short_short_600ms.mp4	25.single_touch_with_stanley_knife_short_short_600ms.mp4	129.0994376747367	129.70767737027927	0.6082396955425793	n/a	n/a	n/a	n/a
110.642578125	0.2	226596	98	38	0	0	0	98	247	stimuli\Videos_short_600ms_horvertflip\70.(long)stroke_with_finger_all_over_the_hand_short_horvertflip_short_600ms.mp4	70.(long)stroke_with_finger_all_over_the_hand_short_horvertflip_short_600ms.mp4	129.89934682765306	130.50765719507217	0.6083103674191079	9.0	5.0	11.621623071991053	0.0
153.541015625	0.2	314452	99	38	1	0	0	0	181	stimuli\Videos_short_600ms_horvertflip\10.single_touch_with_knife_short_horvertflip_short_600ms.mp4	10.single_touch_with_knife_short_horvertflip_short_600ms.mp4	172.79835114596972	173.406658874188	0.6083077282182785	n/a	n/a	n/a	n/a
154.34130859375	0.2	316091	100	38	1	0	0	1	345	stimuli\Videos_short_600ms_vertflip\78.single_stroke_top_to_bottom_with_soft_brush_short_vertflip_short_600ms.mp4	78.single_stroke_top_to_bottom_with_soft_brush_short_vertflip_short_600ms.mp4	173.59832862480653	174.20662374352105	0.6082951187145227	n/a	n/a	n/a	n/a
155.14111328125	0.2	317729	101	38	1	0	0	2	160	stimuli\Videos_short_600ms_horflip\73.single_stroke_with_flat_hand_short_horflip_short_600ms.mp4	73.single_stroke_with_flat_hand_short_horflip_short_600ms.mp4	174.3982814711253	175.006642569806	0.6083610986806889	n/a	n/a	n/a	n/a
155.94091796875	0.2	319367	102	38	1	0	0	3	212	stimuli\Videos_short_600ms_horvertflip\39.single_stab_with_scissors_short_horvertflip_short_600ms.mp4	39.single_stab_with_scissors_short_horvertflip_short_600ms.mp4	175.1982862216828	175.80663089868176	0.6083446769989678	n/a	n/a	n/a	n/a
156.7412109375	0.2	321006	103	38	1	0	0	4	94	stimuli\Videos_short_600ms_horflip\13.single_touch_with_pen_short_horflip_short_600ms.mp4	13.single_touch_with_pen_short_horflip_short_600ms.mp4	175.99827953571184	176.6065963545043	0.6083168187924457	n/a	n/a	n/a	n/a
157.541015625	0.2	322644	104	38	1	0	0	5	155	stimuli\Videos_short_600ms_horflip\69.stroke_with_soft_sock_short_horflip_short_600ms.mp4	69.stroke_with_soft_sock_short_horflip_short_600ms.mp4	176.79825261588485	177.40656620899065	0.6083135931057768	n/a	n/a	n/a	n/a
158.3408203125	0.2	324282	105	38	1	0	1	6	363	stimuli\Targets_short_600ms\finger-tap_short_short_600ms.mp4	finger-tap_short_short_600ms.mp4	177.59824123800718	178.20657447847952	0.6083332404723478	n/a	n/a	n/a	n/a
159.14111328125	0.2	325921	106	38	1	0	0	7	76	stimuli\Videos_short_600ms\79.long_with_soft_brush_all_over_the_hand_short_short_600ms.mp4	79.long_with_soft_brush_all_over_the_hand_short_short_600ms.mp4	178.3982128519583	179.00652761804122	0.6083147660829127	n/a	n/a	n/a	n/a
159.94091796875	0.2	327559	107	38	1	0	0	8	64	stimuli\Videos_short_600ms\68.stroke_top_to_bottom_with_shawl_short_short_600ms.mp4	68.stroke_top_to_bottom_with_shawl_short_short_600ms.mp4	179.19819443621782	179.80650890905417	0.608314472836355	n/a	n/a	n/a	n/a
160.74072265625	0.2	329197	108	38	1	0	0	9	216	stimuli\Videos_short_600ms_horvertflip\42.single_slap_with_plastic_whisk_short_horvertflip_short_600ms.mp4	42.single_slap_with_plastic_whisk_short_horvertflip_short_600ms.mp4	179.9981769002079	180.6064828689614	0.6083059687534842	n/a	n/a	n/a	n/a
161.541015625	0.2	330836	109	38	1	0	0	10	358	stimuli\Videos_short_600ms_vertflip\9.single_touch_with_hammer_short_vertflip_short_600ms.mp4	9.single_touch_with_hammer_short_vertflip_short_600ms.mp4	180.7981567250008	181.40647970192367	0.6083229769228637	n/a	n/a	n/a	n/a
162.3408203125	0.2	332474	110	38	1	0	0	11	11	stimuli\Videos_short_600ms\2.single_touch_with_finger_short_short_600ms.mp4	2.single_touch_with_finger_short_short_600ms.mp4	181.598138895748	182.2064633388909	0.6083244431429193	n/a	n/a	n/a	n/a
163.140625	0.2	334112	111	38	1	0	0	12	144	stimuli\Videos_short_600ms_horflip\59.single_push_with_long_side_pencil_short_horflip_short_600ms.mp4	59.single_push_with_long_side_pencil_short_horflip_short_600ms.mp4	182.3981225327152	183.0064364190639	0.6083138863486965	n/a	n/a	n/a	n/a
163.94091796875	0.2	335751	112	38	1	0	0	13	249	stimuli\Videos_short_600ms_horvertflip\72.(short)stroke_with_finger_all_over_the_hand_short_horvertflip_short_600ms.mp4	72.(short)stroke_with_finger_all_over_the_hand_short_horvertflip_short_600ms.mp4	183.19809942506436	183.80642005603295	0.608320630968592	n/a	n/a	n/a	n/a
164.74072265625	0.2	337389	113	38	1	0	0	14	87	stimuli\Videos_short_600ms\89.single_touch_with_plastic_brush_short_short_600ms.mp4	89.single_touch_with_plastic_brush_short_short_600ms.mp4	183.9980830620334	184.60639929433637	0.6083162323029683	n/a	n/a	n/a	n/a
165.54052734375	0.2	339027	114	38	1	0	0	15	208	stimuli\Videos_short_600ms_horvertflip\35.single_punch_with_hand_short_horvertflip_short_600ms.mp4	35.single_punch_with_hand_short_horvertflip_short_600ms.mp4	184.79806435304815	185.4063802921064	0.6083159390582296	n/a	n/a	n/a	n/a
166.3408203125	0.2	340666	115	38	1	0	0	16	193	stimuli\Videos_short_600ms_horvertflip\21.repeated_touch_with_metal_chopstick_short_horvertflip_short_600ms.mp4	21.repeated_touch_with_metal_chopstick_short_horvertflip_short_600ms.mp4	185.5980453508164	186.2063583574327	0.6083130066162994	n/a	n/a	n/a	n/a
167.140625	0.2	342304	116	38	1	0	0	17	41	stimuli\Videos_short_600ms\47.(long)scratching_with_finger_nails_short_short_600ms.mp4	47.(long)scratching_with_finger_nails_short_short_600ms.mp4	186.39802576209877	187.00634228764648	0.608316525547707	n/a	n/a	n/a	n/a
167.9404296875	0.2	343942	117	38	1	0	1	18	364	stimuli\Targets_short_600ms\hand-pinch_short_short_600ms.mp4	hand-pinch_short_short_600ms.mp4	187.19800998555547	187.8063250448813	0.6083150593258324	n/a	n/a	n/a	n/a
168.74072265625	0.2	345581	118	38	1	0	0	19	47	stimuli\Videos_short_600ms\52.touch_top_to_bottom_with_hammer_short_short_600ms.mp4	52.touch_top_to_bottom_with_hammer_short_short_600ms.mp4	187.99797133595712	188.60630398994	0.6083326539828704	n/a	n/a	n/a	n/a
169.54052734375	0.2	347219	119	38	1	0	0	20	166	stimuli\Videos_short_600ms_horflip\79.long_with_soft_brush_all_over_the_hand_short_horflip_short_600ms.mp4	79.long_with_soft_brush_all_over_the_hand_short_horflip_short_600ms.mp4	188.7979734473156	189.40628616068716	0.6083127133715607	n/a	n/a	n/a	n/a
170.34033203125	0.2	348857	120	38	1	0	0	21	122	stimuli\Videos_short_600ms_horflip\39.single_stab_with_scissors_short_horflip_short_600ms.mp4	39.single_stab_with_scissors_short_horflip_short_600ms.mp4	189.59792629363255	190.2062800612057	0.608353767573135	n/a	n/a	n/a	n/a
171.140625	0.2	350496	121	38	1	0	0	22	330	stimuli\Videos_short_600ms_vertflip\64.repeated_touch_with_screwdriver_short_vertflip_short_600ms.mp4	64.repeated_touch_with_screwdriver_short_vertflip_short_600ms.mp4	190.3979281117463	191.00629302260313	0.6083649108568352	n/a	n/a	n/a	n/a
171.9404296875	0.2	352134	122	38	1	0	0	23	158	stimuli\Videos_short_600ms_horflip\71.single_stroke_with_finger_top_to_bottom_short_horflip_short_600ms.mp4	71.single_stroke_with_finger_top_to_bottom_short_horflip_short_600ms.mp4	191.1979182000905	191.806233845904	0.6083156458134908	n/a	n/a	n/a	n/a
172.74072265625	0.2	353773	123	38	1	0	0	24	107	stimuli\Videos_short_600ms_horflip\25.single_touch_with_stanley_knife_short_horflip_short_600ms.mp4	25.single_touch_with_stanley_knife_short_horflip_short_600ms.mp4	191.9979044762567	192.6062154301635	0.6083109539067664	n/a	n/a	n/a	n/a
173.54052734375	0.2	355411	124	38	1	0	0	25	260	stimuli\Videos_short_600ms_horvertflip\82.repeated_touch_with_cotton_bud_short_horvertflip_short_600ms.mp4	82.repeated_touch_with_cotton_bud_short_horvertflip_short_600ms.mp4	192.79788899295815	193.40617502109853	0.6082860281403555	n/a	n/a	n/a	n/a
174.34033203125	0.2	357049	125	38	1	0	0	26	175	stimuli\Videos_short_600ms_horflip\87.single_stroke_top_to_bottom_with_plastic_brush_short_horflip_short_600ms.mp4	87.single_stroke_top_to_bottom_with_plastic_brush_short_horflip_short_600ms.mp4	193.5978597271769	194.2061727337932	0.6083130066162994	n/a	n/a	n/a	n/a
175.140625	0.2	358688	126	38	1	0	0	27	253	stimuli\Videos_short_600ms_horvertflip\76.tickle_with_fingers_from_top_to_bottom_short_horvertflip_short_600ms.mp4	76.tickle_with_fingers_from_top_to_bottom_short_horvertflip_short_600ms.mp4	194.39786066555823	195.00622176423897	0.6083610986806889	n/a	n/a	n/a	n/a
175.9404296875	0.2	360326	127	38	1	0	0	28	264	stimuli\Videos_short_600ms_horvertflip\86.touch_top_to_bottom_with_hair_brush_short_horvertflip_short_600ms.mp4	86.touch_top_to_bottom_with_hair_brush_short_horvertflip_short_600ms.mp4	195.19782084298276	195.8061845808625	0.6083637378796993	n/a	n/a	n/a	n/a
176.740234375	0.2	361964	128	38	1	0	0	29	211	stimuli\Videos_short_600ms_horvertflip\38.double_slap_with_pencil_short_horvertflip_short_600ms.mp4	38.double_slap_with_pencil_short_horvertflip_short_600ms.mp4	195.99780242724228	196.6061749624496	0.6083725352073088	n/a	n/a	n/a	n/a
177.54052734375	0.2	363603	129	38	1	0	0	30	147	stimuli\Videos_short_600ms_horflip\61.single_hit_with_rolling_pin_short_horflip_short_600ms.mp4	61.single_hit_with_rolling_pin_short_horflip_short_600ms.mp4	196.79778635745424	197.40610464246856	0.6083182850143203	n/a	n/a	n/a	n/a
178.34033203125	0.2	365241	130	38	1	0	0	31	180	stimuli\Videos_short_600ms_horvertflip\1.repeated_touch_with_finger_fast_short_horvertflip_short_600ms.mp4	1.repeated_touch_with_finger_fast_short_horvertflip_short_600ms.mp4	197.5977658890024	198.20608857268053	0.608322683678125	n/a	n/a	n/a	n/a
179.14013671875	0.2	366879	131	38	1	0	1	32	371	stimuli\Targets_short_600ms_horflip\hand-stroke_short_horflip_short_600ms.mp4	hand-stroke_short_horflip_short_600ms.mp4	198.39774542055056	199.006062239343	0.6083168187924457	n/a	n/a	n/a	n/a
179.9404296875	0.2	368518	132	38	1	0	0	33	40	stimuli\Videos_short_600ms\46.scratching_top_to_bottom_with_finger_nails_short_short_600ms.mp4	46.scratching_top_to_bottom_with_finger_nails_short_short_600ms.mp4	199.1977281777854	199.8060429438683	0.6083147660829127	n/a	n/a	n/a	n/a
180.740234375	0.2	370156	133	38	1	0	0	34	239	stimuli\Videos_short_600ms_horvertflip\63.stroke_top_to_bottom_with_screwdriver_short_horvertflip_short_600ms.mp4	63.stroke_top_to_bottom_with_screwdriver_short_horvertflip_short_600ms.mp4	199.99771005528785	200.6060251146137	0.6083150593258324	n/a	n/a	n/a	n/a
181.5400390625	0.2	371794	134	38	1	0	0	35	333	stimuli\Videos_short_600ms_vertflip\67.single_touch_with_sponge_short_vertflip_short_600ms.mp4	67.single_touch_with_sponge_short_vertflip_short_600ms.mp4	200.797689586836	201.40600728536083	0.6083176985248429	n/a	n/a	n/a	n/a
182.34033203125	0.2	373433	135	38	1	0	0	36	18	stimuli\Videos_short_600ms\26.single_touch_with_a_blunt_syringe_short_short_600ms.mp4	26.single_touch_with_a_blunt_syringe_short_short_600ms.mp4	201.59767938193545	202.2059876966414	0.6083083147059369	n/a	n/a	n/a	n/a
183.14013671875	0.2	375071	136	38	1	0	0	37	55	stimuli\Videos_short_600ms\6.single_touch_with_flat_hand_short_short_600ms.mp4	6.single_touch_with_flat_hand_short_short_600ms.mp4	202.3976527553532	203.00596957414385	0.6083168187906267	n/a	n/a	n/a	n/a
183.93994140625	0.2	376709	137	38	1	0	0	38	258	stimuli\Videos_short_600ms_horvertflip\80.stroke_with_sharp_stick_all_over_the_hand_short_horvertflip_short_600ms.mp4	80.stroke_with_sharp_stick_all_over_the_hand_short_horvertflip_short_600ms.mp4	203.1976378585423	203.8059508651586	0.6083130066162994	n/a	n/a	n/a	n/a
184.740234375	0.2	378348	138	38	1	0	0	39	346	stimuli\Videos_short_600ms_vertflip\79.long_with_soft_brush_all_over_the_hand_short_vertflip_short_600ms.mp4	79.long_with_soft_brush_all_over_the_hand_short_vertflip_short_600ms.mp4	203.9975918778364	204.60593538186004	0.6083435040236509	n/a	n/a	n/a	n/a
185.5400390625	0.2	379986	139	38	1	0	0	40	310	stimuli\Videos_short_600ms_vertflip\46.scratching_top_to_bottom_with_finger_nails_short_vertflip_short_600ms.mp4	46.scratching_top_to_bottom_with_finger_nails_short_vertflip_short_600ms.mp4	204.79758108644637	205.40591374043103	0.6083326539846894	n/a	n/a	n/a	n/a
186.33984375	0.2	381624	140	38	1	0	0	41	246	stimuli\Videos_short_600ms_horvertflip\7.repeated_touch_with_hairbrush_short_horvertflip_short_600ms.mp4	7.repeated_touch_with_hairbrush_short_horvertflip_short_600ms.mp4	205.5975817315848	206.2058941517116	0.608312420126822	n/a	n/a	n/a	n/a
187.14013671875	0.2	383263	141	38	1	0	0	42	24	stimuli\Videos_short_600ms\31.hand_grabbing_wrist_short_short_600ms.mp4	31.hand_grabbing_wrist_short_short_600ms.mp4	206.39756712801864	207.0059144442166	0.6083473161979782	n/a	n/a	n/a	n/a
187.93994140625	0.2	384901	142	38	1	0	0	43	43	stimuli\Videos_short_600ms\49.repeated_slap_with_hand_short_short_600ms.mp4	49.repeated_slap_with_hand_short_short_600ms.mp4	207.19755135147537	207.80591186366655	0.6083605121912115	n/a	n/a	n/a	n/a
188.73974609375	0.2	386539	143	38	1	0	0	44	349	stimuli\Videos_short_600ms_vertflip\81.single_stroke_top_to_bottom_with_cotton_pad_short_vertflip_short_600ms.mp4	81.single_stroke_top_to_bottom_with_cotton_pad_short_vertflip_short_600ms.mp4	207.99752501813785	208.60583069364657	0.6083056755087455	n/a	n/a	n/a	n/a
189.5400390625	0.2	388178	144	38	1	0	0	45	353	stimuli\Videos_short_600ms_vertflip\85.touch_top_to_bottom_with_fabric_short_vertflip_short_600ms.mp4	85.touch_top_to_bottom_with_fabric_short_vertflip_short_600ms.mp4	208.7974643752168	209.40579820217863	0.6083338269618253	n/a	n/a	n/a	n/a
190.33984375	0.2	389816	145	38	1	0	0	46	312	stimuli\Videos_short_600ms_vertflip\48.single_slap_with_hand_short_vertflip_short_600ms.mp4	48.single_slap_with_hand_short_vertflip_short_600ms.mp4	209.59748789340847	210.205780372924	0.6082924795155122	n/a	n/a	n/a	n/a
191.14013671875	0.2	391455	146	38	1	0	0	47	100	stimuli\Videos_short_600ms_horflip\19.single_touch_with_rolling_pin_short_horflip_short_600ms.mp4	19.single_touch_with_rolling_pin_short_horflip_short_600ms.mp4	210.3974680114461	211.00577779237392	0.6083097809278115	n/a	n/a	n/a	n/a
191.93994140625	0.2	393093	147	38	1	0	0	48	308	stimuli\Videos_short_600ms_vertflip\44.pushing_top_to_bottom_with_finger_short_vertflip_short_600ms.mp4	44.pushing_top_to_bottom_with_finger_short_vertflip_short_600ms.mp4	211.19744812948193	211.8057857686199	0.6083376391379716	n/a	n/a	n/a	n/a
192.73974609375	0.2	394731	148	38	1	0	0	49	276	stimuli\Videos_short_600ms_vertflip\15.single_stroke_top_to_bottom_with_a_plastic_whisk_short_vertflip_short_600ms.mp4	15.single_stroke_top_to_bottom_with_a_plastic_whisk_short_vertflip_short_600ms.mp4	211.9974405637804	212.6057529839072	0.608312420126822	n/a	n/a	n/a	n/a
193.5400390625	0.2	396370	149	38	1	0	0	50	225	stimuli\Videos_short_600ms_horvertflip\50.single_(long)hard_push_with_thumb_short_horvertflip_short_600ms.mp4	50.single_(long)hard_push_with_thumb_short_horvertflip_short_600ms.mp4	212.79741129799913	213.40573838034103	0.6083270823419298	n/a	n/a	n/a	n/a
194.33984375	0.2	398008	150	38	1	0	0	51	80	stimuli\Videos_short_600ms\82.repeated_touch_with_cotton_bud_short_short_600ms.mp4	82.repeated_touch_with_cotton_bud_short_short_600ms.mp4	213.59739405523396	214.20570764833977	0.6083135931057768	n/a	n/a	n/a	n/a
195.1396484375	0.2	399646	151	38	1	0	0	52	334	stimuli\Videos_short_600ms_vertflip\68.stroke_top_to_bottom_with_shawl_short_vertflip_short_600ms.mp4	68.stroke_top_to_bottom_with_shawl_short_vertflip_short_600ms.mp4	214.397372413805	215.00567545011472	0.608303036309735	n/a	n/a	n/a	n/a
195.93994140625	0.2	401285	152	38	1	0	0	53	161	stimuli\Videos_short_600ms_horflip\74.fingers_walking_from_top_to_bottom_short_horflip_short_600ms.mp4	74.fingers_walking_from_top_to_bottom_short_horflip_short_600ms.mp4	215.19735370481976	215.80566905739033	0.6083153525705711	n/a	n/a	n/a	n/a
196.73974609375	0.2	402923	153	38	1	0	0	54	319	stimuli\Videos_short_600ms_vertflip\54.repeated_touch_with_knife_short_vertflip_short_600ms.mp4	54.repeated_touch_with_knife_short_vertflip_short_600ms.mp4	215.99733675529933	216.60565064164803	0.6083138863486965	n/a	n/a	n/a	n/a
197.53955078125	0.2	404561	154	38	1	0	0	55	274	stimuli\Videos_short_600ms_vertflip\13.single_touch_with_pen_short_vertflip_short_600ms.mp4	13.single_touch_with_pen_short_vertflip_short_600ms.mp4	216.79731745982463	217.40563222590572	0.6083147660810937	n/a	n/a	n/a	n/a
198.33984375	0.2	406200	155	38	1	0	0	56	324	stimuli\Videos_short_600ms_vertflip\59.single_push_with_long_side_pencil_short_vertflip_short_600ms.mp4	59.single_push_with_long_side_pencil_short_vertflip_short_600ms.mp4	217.59729816434992	218.20561468989763	0.608316525547707	n/a	n/a	n/a	n/a
199.1396484375	0.2	407838	156	38	1	0	0	57	186	stimuli\Videos_short_600ms_horvertflip\15.single_stroke_top_to_bottom_with_a_plastic_whisk_short_horvertflip_short_600ms.mp4	15.single_stroke_top_to_bottom_with_a_plastic_whisk_short_horvertflip_short_600ms.mp4	218.39727740265337	219.0055951011782	0.6083176985248429	n/a	n/a	n/a	n/a
199.939453125	0.2	409476	157	38	1	0	0	58	106	stimuli\Videos_short_600ms_horflip\24.single_stroke_top_to_bottom_with_a_spoon_short_horflip_short_600ms.mp4	24.single_stroke_top_to_bottom_with_a_spoon_short_horflip_short_600ms.mp4	219.1972692504623	219.80557785841305	0.6083086079506757	n/a	n/a	n/a	n/a
200.73974609375	0.2	411115	158	38	1	0	0	59	279	stimuli\Videos_short_600ms_vertflip\18.single_stroke_from_top_to_bottom_with_rolling_pin_short_vertflip_short_600ms.mp4	18.single_stroke_from_top_to_bottom_with_rolling_pin_short_vertflip_short_600ms.mp4	219.9972575793381	220.6055591494278	0.6083015700896794	n/a	n/a	n/a	n/a
201.53955078125	0.2	412753	159	38	1	0	0	60	178	stimuli\Videos_short_600ms_horflip\9.single_touch_with_hammer_short_horflip_short_600ms.mp4	9.single_touch_with_hammer_short_horflip_short_600ms.mp4	220.7972201027169	221.4055398539531	0.6083197512361949	n/a	n/a	n/a	n/a
202.33935546875	0.2	414391	160	38	1	0	0	61	6	stimuli\Videos_short_600ms\15.single_stroke_top_to_bottom_with_a_plastic_whisk_short_short_600ms.mp4	15.single_stroke_top_to_bottom_with_a_plastic_whisk_short_short_600ms.mp4	221.59720725861737	222.2055214382108	0.6083141795934353	n/a	n/a	n/a	n/a
203.1396484375	0.2	416030	161	38	1	0	0	62	265	stimuli\Videos_short_600ms_horvertflip\87.single_stroke_top_to_bottom_with_plastic_brush_short_horvertflip_short_600ms.mp4	87.single_stroke_top_to_bottom_with_plastic_brush_short_horvertflip_short_600ms.mp4	222.39718825638735	223.00550302246847	0.6083147660810937	n/a	n/a	n/a	n/a
203.939453125	0.2	417668	162	38	1	0	0	63	301	stimuli\Videos_short_600ms_vertflip\38.double_slap_with_pencil_short_vertflip_short_600ms.mp4	38.double_slap_with_pencil_short_vertflip_short_600ms.mp4	223.19717072037747	223.8054898851242	0.6083191647467174	n/a	n/a	n/a	n/a
204.7392578125	0.2	419306	163	38	1	0	0	64	129	stimuli\Videos_short_600ms_horflip\45.scratching_with_finger_nails_short_horflip_short_600ms.mp4	45.scratching_with_finger_nails_short_horflip_short_600ms.mp4	223.99715963574272	224.60544214495349	0.6082825092107669	n/a	n/a	n/a	n/a
205.53955078125	0.2	420945	164	38	1	0	0	65	74	stimuli\Videos_short_600ms\77.tapping_with_all_fingers_short_short_600ms.mp4	77.tapping_with_all_fingers_short_short_600ms.mp4	224.7971315429404	225.40545158741952	0.6083200444791146	n/a	n/a	n/a	n/a
206.33935546875	0.2	422583	165	38	1	0	0	66	9	stimuli\Videos_short_600ms\18.single_stroke_from_top_to_bottom_with_rolling_pin_short_short_600ms.mp4	18.single_stroke_from_top_to_bottom_with_rolling_pin_short_short_600ms.mp4	225.5971131271981	226.2054305324782	0.6083174052801041	n/a	n/a	n/a	n/a
207.13916015625	0.2	424221	166	38	1	0	0	67	151	stimuli\Videos_short_600ms_horflip\65.stroke_top_to_bottom_with_stanley_knife_short_horflip_short_600ms.mp4	65.stroke_top_to_bottom_with_stanley_knife_short_horflip_short_600ms.mp4	226.39711142638043	227.00540713158443	0.6082957052040001	n/a	n/a	n/a	n/a
207.939453125	0.2	425860	167	38	1	0	0	68	97	stimuli\Videos_short_600ms_horflip\16.repeated_touch_with_plastic_brush_short_horflip_short_600ms.mp4	16.repeated_touch_with_plastic_brush_short_horflip_short_600ms.mp4	227.1970754159811	227.8053980996592	0.608322683678125	n/a	n/a	n/a	n/a
208.7392578125	0.2	427498	168	38	1	0	0	69	152	stimuli\Videos_short_600ms_horflip\66.stroke_top_to_bottom_with_sponge_short_horflip_short_600ms.mp4	66.stroke_top_to_bottom_with_sponge_short_horflip_short_600ms.mp4	227.99705406779685	228.605382029873	0.6083279620761459	n/a	n/a	n/a	n/a
209.53955078125	0.2	429137	169	38	1	0	0	70	73	stimuli\Videos_short_600ms\76.tickle_with_fingers_from_top_to_bottom_short_short_600ms.mp4	76.tickle_with_fingers_from_top_to_bottom_short_short_600ms.mp4	228.79703741152116	229.4053559897784	0.60831857825724	n/a	n/a	n/a	n/a
210.33935546875	0.2	430775	170	38	1	0	0	71	28	stimuli\Videos_short_600ms\35.single_punch_with_hand_short_short_600ms.mp4	35.single_punch_with_hand_short_short_600ms.mp4	229.59701664982455	230.20534490514365	0.6083282553190656	n/a	n/a	n/a	n/a
211.13916015625	0.2	432413	171	38	1	0	0	72	16	stimuli\Videos_short_600ms\24.single_stroke_top_to_bottom_with_a_spoon_short_short_600ms.mp4	24.single_stroke_top_to_bottom_with_a_spoon_short_short_600ms.mp4	230.39699970030415	231.00531446638703	0.6083147660829127	n/a	n/a	n/a	n/a
211.939453125	0.2	434052	172	38	1	0	0	73	143	stimuli\Videos_short_600ms_horflip\58.single_slap_with_pencil_short_horflip_short_600ms.mp4	58.single_slap_with_pencil_short_horflip_short_600ms.mp4	231.1969833372732	231.8052972236219	0.6083138863486965	n/a	n/a	n/a	n/a
212.7392578125	0.2	435690	173	38	1	0	0	74	252	stimuli\Videos_short_600ms_horvertflip\75.(long)stroke_with_fingers_all_over_the_hand_short_horvertflip_short_600ms.mp4	75.(long)stroke_with_fingers_all_over_the_hand_short_horvertflip_short_600ms.mp4	231.99696286882136	232.60527851463485	0.6083156458134908	n/a	n/a	n/a	n/a
213.5390625	0.2	437328	174	38	1	0	0	75	300	stimuli\Videos_short_600ms_vertflip\37.single_stab_with_nail_file_short_vertflip_short_600ms.mp4	37.single_stab_with_nail_file_short_vertflip_short_600ms.mp4	232.79694445307905	233.40526039213728	0.6083159390582296	n/a	n/a	n/a	n/a
214.33935546875	0.2	438967	175	38	1	0	0	76	199	stimuli\Videos_short_600ms_horvertflip\27.single_push_with_a_plastic_whisk_short_horvertflip_short_600ms.mp4	27.single_push_with_a_plastic_whisk_short_horvertflip_short_600ms.mp4	233.5969075629455	234.2052422696397	0.6083347066942224	n/a	n/a	n/a	n/a
215.13916015625	0.2	440605	176	38	1	0	0	77	66	stimuli\Videos_short_600ms\7.repeated_touch_with_hairbrush_short_short_600ms.mp4	7.repeated_touch_with_hairbrush_short_short_600ms.mp4	234.39688709449365	235.00522414714217	0.6083370526484941	n/a	n/a	n/a	n/a
215.93896484375	0.2	442243	177	38	1	0	0	78	146	stimuli\Videos_short_600ms_horflip\60.single_push_with_tip_of_pencil_short_horflip_short_600ms.mp4	60.single_push_with_tip_of_pencil_short_horflip_short_600ms.mp4	235.19686398684465	235.80520338544736	0.6083393986027659	n/a	n/a	n/a	n/a
216.7392578125	0.2	443882	178	38	1	0	0	79	220	stimuli\Videos_short_600ms_horvertflip\46.scratching_top_to_bottom_with_finger_nails_short_horvertflip_short_600ms.mp4	46.scratching_top_to_bottom_with_finger_nails_short_horvertflip_short_600ms.mp4	235.99684469136992	236.6051855561927	0.6083408648228215	n/a	n/a	n/a	n/a
217.5390625	0.2	445520	179	38	1	0	0	80	214	stimuli\Videos_short_600ms_horvertflip\40.repeated_push_with_finger_short_horvertflip_short_600ms.mp4	40.repeated_push_with_finger_short_horvertflip_short_600ms.mp4	236.79685237436937	237.40516714045225	0.6083147660829127	n/a	n/a	n/a	n/a
218.3388671875	0.2	447158	180	38	1	0	0	81	38	stimuli\Videos_short_600ms\44.pushing_top_to_bottom_with_finger_short_short_600ms.mp4	44.pushing_top_to_bottom_with_finger_short_short_600ms.mp4	237.59684158297932	238.2051475517328	0.6083059687534842	n/a	n/a	n/a	n/a
219.13916015625	0.2	448797	181	38	1	0	0	82	172	stimuli\Videos_short_600ms_horflip\84.single_touch_with_cotton_bud_short_horflip_short_600ms.mp4	84.single_touch_with_cotton_bud_short_horflip_short_600ms.mp4	238.3968404686511	239.0051300157229	0.6082895470717631	n/a	n/a	n/a	n/a
219.93896484375	0.2	450435	182	38	1	0	0	83	241	stimuli\Videos_short_600ms_horvertflip\65.stroke_top_to_bottom_with_stanley_knife_short_horvertflip_short_600ms.mp4	65.stroke_top_to_bottom_with_stanley_knife_short_horvertflip_short_600ms.mp4	239.19680211229752	239.80509459181303	0.6082924795155122	n/a	n/a	n/a	n/a
220.73876953125	0.2	452073	183	38	1	0	0	84	185	stimuli\Videos_short_600ms_horvertflip\14.repeated_touch_with_pencil_short_horvertflip_short_600ms.mp4	14.repeated_touch_with_pencil_short_horvertflip_short_600ms.mp4	239.99677724518008	240.6050691382079	0.6082918930278538	n/a	n/a	n/a	n/a
221.5390625	0.2	453712	184	38	1	0	0	85	154	stimuli\Videos_short_600ms_horflip\68.stroke_top_to_bottom_with_shawl_short_horflip_short_600ms.mp4	68.stroke_top_to_bottom_with_shawl_short_horflip_short_600ms.mp4	240.7967573632177	241.405073009033	0.6083156458153098	n/a	n/a	n/a	n/a
222.3388671875	0.2	455350	185	38	1	0	0	86	84	stimuli\Videos_short_600ms\86.touch_top_to_bottom_with_hair_brush_short_short_600ms.mp4	86.touch_top_to_bottom_with_hair_brush_short_short_600ms.mp4	241.59675507591237	242.2050545932907	0.6082995173783274	n/a	n/a	n/a	n/a
223.138671875	0.2	456988	186	38	1	0	0	87	137	stimuli\Videos_short_600ms_horflip\52.touch_top_to_bottom_with_hammer_short_horflip_short_600ms.mp4	52.touch_top_to_bottom_with_hammer_short_horflip_short_600ms.mp4	242.39672053173308	243.0050549451844	0.6083344134513027	n/a	n/a	n/a	n/a
223.93896484375	0.2	458627	187	38	1	0	0	88	262	stimuli\Videos_short_600ms_horvertflip\84.single_touch_with_cotton_bud_short_horvertflip_short_600ms.mp4	84.single_touch_with_cotton_bud_short_horvertflip_short_600ms.mp4	243.19669977003832	243.80501746856316	0.6083176985248429	n/a	n/a	n/a	n/a
224.73876953125	0.2	460265	188	38	1	0	0	89	230	stimuli\Videos_short_600ms_horvertflip\55.touch_top_to_bottom_with_nail_file_short_horvertflip_short_600ms.mp4	55.touch_top_to_bottom_with_nail_file_short_horvertflip_short_600ms.mp4	243.996681354296	244.60499700011133	0.6083156458153098	n/a	n/a	n/a	n/a
225.53857421875	0.2	461903	189	38	1	0	0	90	296	stimuli\Videos_short_600ms_vertflip\33.scratch_top_to_bottom_with_scissors_short_vertflip_short_600ms.mp4	33.scratch_top_to_bottom_with_scissors_short_vertflip_short_600ms.mp4	244.79668903729728	245.4049800505909	0.6082910132936377	n/a	n/a	n/a	n/a
226.3388671875	0.2	463542	190	38	1	0	0	91	34	stimuli\Videos_short_600ms\40.repeated_push_with_finger_short_short_600ms.mp4	40.repeated_push_with_finger_short_short_600ms.mp4	245.5966427633466	246.2049607551162	0.6083179917695816	n/a	n/a	n/a	n/a
227.138671875	0.2	465180	191	38	1	0	0	92	21	stimuli\Videos_short_600ms\29.single_pinch_with_tweezers_short_short_600ms.mp4	29.single_pinch_with_tweezers_short_short_600ms.mp4	246.39662669355857	247.0049391136872	0.608312420128641	3.0	5.0	3.7866979108694063	0.0
275.1787109375	0.2	563566	192	38	2	0	0	0	294	stimuli\Videos_short_600ms_vertflip\31.hand_grabbing_wrist_short_vertflip_short_600ms.mp4	31.hand_grabbing_wrist_short_vertflip_short_600ms.mp4	294.4371762216415	295.0454860025693	0.6083097809278115	n/a	n/a	n/a	n/a
275.97900390625	0.2	565205	193	38	2	0	0	1	37	stimuli\Videos_short_600ms\43.touch_top_to_bottom_with_sharp_wooden_stick_short_short_600ms.mp4	43.touch_top_to_bottom_with_sharp_wooden_stick_short_short_600ms.mp4	295.2371507680364	295.845444420529	0.6082936524926481	n/a	n/a	n/a	n/a
276.77880859375	0.2	566843	194	38	2	0	0	2	44	stimuli\Videos_short_600ms\5.repeated_tap_with_finger_moving_from_top_to_bottom_short_short_600ms.mp4	5.repeated_tap_with_finger_moving_from_top_to_bottom_short_short_600ms.mp4	296.037128246875	296.64545034406365	0.6083220971886476	n/a	n/a	n/a	n/a
277.57861328125	0.2	568481	195	38	2	0	0	3	343	stimuli\Videos_short_600ms_vertflip\76.tickle_with_fingers_from_top_to_bottom_short_vertflip_short_600ms.mp4	76.tickle_with_fingers_from_top_to_bottom_short_vertflip_short_600ms.mp4	296.8371115905975	297.44542840938993	0.6083168187924457	n/a	n/a	n/a	n/a
278.37890625	0.2	570120	196	38	2	0	0	4	223	stimuli\Videos_short_600ms_horvertflip\49.repeated_slap_with_hand_short_horvertflip_short_600ms.mp4	49.repeated_slap_with_hand_short_horvertflip_short_600ms.mp4	297.6370890694361	298.24540940715997	0.6083203377238533	n/a	n/a	n/a	n/a
279.1787109375	0.2	571758	197	38	2	0	0	5	251	stimuli\Videos_short_600ms_horvertflip\74.fingers_walking_from_top_to_bottom_short_horvertflip_short_600ms.mp4	74.fingers_walking_from_top_to_bottom_short_horvertflip_short_600ms.mp4	298.437071533428	299.04539187115006	0.6083203377220343	n/a	n/a	n/a	n/a
279.978515625	0.2	573396	198	38	2	0	1	6	362	stimuli\Targets_short_600ms\chopstickwood-tap_short_short_600ms.mp4	chopstickwood-tap_short_short_600ms.mp4	299.23705429066285	299.8453787338058	0.6083244431429193	n/a	n/a	n/a	n/a
280.77880859375	0.2	575035	199	38	2	0	0	7	297	stimuli\Videos_short_600ms_vertflip\34.repeated_punch_with_hand_short_vertflip_short_600ms.mp4	34.repeated_punch_with_hand_short_vertflip_short_600ms.mp4	300.0370528830899	300.6453658897062	0.6083130066162994	n/a	n/a	n/a	n/a
281.57861328125	0.2	576673	200	38	2	0	0	8	156	stimuli\Videos_short_600ms_horflip\7.repeated_touch_with_hairbrush_short_horflip_short_600ms.mp4	7.repeated_touch_with_hairbrush_short_horflip_short_600ms.mp4	300.83745703237946	301.4453345712154	0.6078775388359645	n/a	n/a	n/a	n/a
282.37841796875	0.2	578311	201	38	2	0	0	9	238	stimuli\Videos_short_600ms_horvertflip\62.touch_top_to_bottom_with_scissors_short_horvertflip_short_600ms.mp4	62.touch_top_to_bottom_with_scissors_short_horvertflip_short_600ms.mp4	301.636996110994	302.24532319333593	0.6083270823419298	n/a	n/a	n/a	n/a
283.1787109375	0.2	579950	202	38	2	0	0	10	196	stimuli\Videos_short_600ms_horvertflip\24.single_stroke_top_to_bottom_with_a_spoon_short_horvertflip_short_600ms.mp4	24.single_stroke_top_to_bottom_with_a_spoon_short_horvertflip_short_600ms.mp4	302.43697798849644	303.0452924613346	0.608314472838174	n/a	n/a	n/a	n/a
283.978515625	0.2	581588	203	38	2	0	0	11	120	stimuli\Videos_short_600ms_horflip\37.single_stab_with_nail_file_short_horflip_short_600ms.mp4	37.single_stab_with_nail_file_short_horflip_short_600ms.mp4	303.23695781328934	303.8452731658599	0.6083153525705711	n/a	n/a	n/a	n/a
284.7783203125	0.2	583226	204	38	2	0	0	12	318	stimuli\Videos_short_600ms_vertflip\53.touch_top_to_bottom_with_knife_short_vertflip_short_600ms.mp4	53.touch_top_to_bottom_with_knife_short_vertflip_short_600ms.mp4	304.0369417435013	304.6452653069118	0.6083235634105222	n/a	n/a	n/a	n/a
285.57861328125	0.2	584865	205	38	2	0	0	13	170	stimuli\Videos_short_600ms_horflip\82.repeated_touch_with_cotton_bud_short_horflip_short_600ms.mp4	82.repeated_touch_with_cotton_bud_short_horflip_short_600ms.mp4	304.8369209818047	305.44523838708665	0.6083174052819231	n/a	n/a	n/a	n/a
286.37841796875	0.2	586503	206	38	2	0	0	14	197	stimuli\Videos_short_600ms_horvertflip\25.single_touch_with_stanley_knife_short_horvertflip_short_600ms.mp4	25.single_touch_with_stanley_knife_short_horvertflip_short_600ms.mp4	305.6369066714833	306.2452179186348	0.6083112471515051	n/a	n/a	n/a	n/a
287.1787109375	0.2	588142	207	38	2	0	0	15	267	stimuli\Videos_short_600ms_horvertflip\89.single_touch_with_plastic_brush_short_horvertflip_short_600ms.mp4	89.single_touch_with_plastic_brush_short_horvertflip_short_600ms.mp4	306.43688620303146	307.0452009691144	0.6083147660829127	n/a	n/a	n/a	n/a
287.978515625	0.2	589780	208	38	2	0	0	16	111	stimuli\Videos_short_600ms_horflip\29.single_pinch_with_tweezers_short_horflip_short_600ms.mp4	29.single_pinch_with_tweezers_short_horflip_short_600ms.mp4	307.2368270263323	307.84518255337207	0.6083555270397483	n/a	n/a	n/a	n/a
288.7783203125	0.2	591418	209	38	2	0	0	17	48	stimuli\Videos_short_600ms\53.touch_top_to_bottom_with_knife_short_short_600ms.mp4	53.touch_top_to_bottom_with_knife_short_short_600ms.mp4	308.03682767147075	308.645163844385	0.608336172914278	n/a	n/a	n/a	n/a
289.57861328125	0.2	593057	210	38	2	0	0	18	83	stimuli\Videos_short_600ms\85.touch_top_to_bottom_with_fabric_short_short_600ms.mp4	85.touch_top_to_bottom_with_fabric_short_short_600ms.mp4	308.83682333145407	309.44514484215506	0.6083215107009892	n/a	n/a	n/a	n/a
290.37841796875	0.2	594695	211	38	2	0	0	19	136	stimuli\Videos_short_600ms_horflip\51.repeated_touch_with_hammer_short_horflip_short_600ms.mp4	51.repeated_touch_with_hammer_short_horflip_short_600ms.mp4	309.63681078059926	310.24512114801655	0.6083103674172889	n/a	n/a	n/a	n/a
291.17822265625	0.2	596333	212	38	2	0	0	20	110	stimuli\Videos_short_600ms_horflip\28.single_injection_with_sharp_needle_short_horflip_short_600ms.mp4	28.single_injection_with_sharp_needle_short_horflip_short_600ms.mp4	310.4367970567655	311.04510537147326	0.6083083147077559	n/a	n/a	n/a	n/a
291.978515625	0.2	597972	213	38	2	0	1	21	369	stimuli\Targets_short_600ms_horflip\finger-tap_short_horflip_short_600ms.mp4	finger-tap_short_horflip_short_600ms.mp4	311.23678919781923	311.8450942868385	0.608305089019268	n/a	n/a	n/a	n/a
292.7783203125	0.2	599610	214	38	2	0	0	22	195	stimuli\Videos_short_600ms_horvertflip\23.single_push_with_a_spoon_short_horvertflip_short_600ms.mp4	23.single_push_with_a_spoon_short_horvertflip_short_600ms.mp4	312.036751721198	312.6450697129658	0.6083179917677626	n/a	n/a	n/a	n/a
293.578125	0.2	601248	215	38	2	0	0	23	91	stimuli\Videos_short_600ms_horflip\10.single_touch_with_knife_short_horflip_short_600ms.mp4	10.single_touch_with_knife_short_horflip_short_600ms.mp4	312.8367333054557	313.445027544436	0.6082942389803065	n/a	n/a	n/a	n/a
294.37841796875	0.2	602887	216	38	2	0	0	24	86	stimuli\Videos_short_600ms\88.repeated_stroke_with_plastic_brush_short_short_600ms.mp4	88.repeated_stroke_with_plastic_brush_short_short_600ms.mp4	313.6367154762029	314.24503258823825	0.6083171120353654	n/a	n/a	n/a	n/a
295.17822265625	0.2	604525	217	38	2	0	0	25	348	stimuli\Videos_short_600ms_vertflip\80.stroke_with_sharp_stick_all_over_the_hand_short_vertflip_short_600ms.mp4	80.stroke_with_sharp_stick_all_over_the_hand_short_vertflip_short_600ms.mp4	314.4366932482844	315.0450144657407	0.6083212174562505	n/a	n/a	n/a	n/a
295.97802734375	0.2	606163	218	38	2	0	0	26	127	stimuli\Videos_short_600ms_horflip\43.touch_top_to_bottom_with_sharp_wooden_stick_short_horflip_short_600ms.mp4	43.touch_top_to_bottom_with_sharp_wooden_stick_short_horflip_short_600ms.mp4	315.23667571227634	315.84500191488587	0.6083262026095326	n/a	n/a	n/a	n/a
296.7783203125	0.2	607802	219	38	2	0	0	27	162	stimuli\Videos_short_600ms_horflip\75.(long)stroke_with_fingers_all_over_the_hand_short_horflip_short_600ms.mp4	75.(long)stroke_with_fingers_all_over_the_hand_short_horflip_short_600ms.mp4	316.0366552438245	316.64497587479127	0.608320630966773	n/a	n/a	n/a	n/a
297.578125	0.2	609440	220	38	2	0	0	28	130	stimuli\Videos_short_600ms_horflip\46.scratching_top_to_bottom_with_finger_nails_short_horflip_short_600ms.mp4	46.scratching_top_to_bottom_with_finger_nails_short_horflip_short_600ms.mp4	316.8366362415927	317.44496244420225	0.6083262026095326	n/a	n/a	n/a	n/a
298.3779296875	0.2	611078	221	38	2	0	0	29	126	stimuli\Videos_short_600ms_horflip\42.single_slap_with_plastic_whisk_short_horflip_short_600ms.mp4	42.single_slap_with_plastic_whisk_short_horflip_short_600ms.mp4	317.6366204650494	318.24493435139993	0.6083138863505155	n/a	n/a	n/a	n/a
299.17822265625	0.2	612717	222	38	2	0	0	30	347	stimuli\Videos_short_600ms_vertflip\8.single_touch_with_hairbrush_short_vertflip_short_600ms.mp4	8.single_touch_with_hairbrush_short_vertflip_short_600ms.mp4	318.43660058308706	319.04491681539	0.6083162323029683	n/a	n/a	n/a	n/a
299.97802734375	0.2	614355	223	38	2	0	0	31	210	stimuli\Videos_short_600ms_horvertflip\37.single_stab_with_nail_file_short_horvertflip_short_600ms.mp4	37.single_stab_with_nail_file_short_horvertflip_short_600ms.mp4	319.23658040787996	319.84489957262485	0.6083191647448984	n/a	n/a	n/a	n/a
300.77783203125	0.2	615993	224	38	2	0	0	32	234	stimuli\Videos_short_600ms_horvertflip\59.single_push_with_long_side_pencil_short_horvertflip_short_600ms.mp4	59.single_push_with_long_side_pencil_short_horvertflip_short_600ms.mp4	320.03656111240525	320.6448814501273	0.6083203377220343	n/a	n/a	n/a	n/a
301.578125	0.2	617632	225	38	2	0	0	33	67	stimuli\Videos_short_600ms\70.(long)stroke_with_finger_all_over_the_hand_short_short_600ms.mp4	70.(long)stroke_with_finger_all_over_the_hand_short_short_600ms.mp4	320.83654445612774	321.4448606884325	0.6083162323047873	n/a	n/a	n/a	n/a
302.3779296875	0.2	619270	226	38	2	0	0	34	89	stimuli\Videos_short_600ms\90.repeated_touch_with_sponge_short_short_600ms.mp4	90.repeated_touch_with_sponge_short_short_600ms.mp4	321.63650639301886	322.24484403215683	0.6083376391379716	n/a	n/a	n/a	n/a
303.177734375	0.2	620908	227	38	2	0	0	35	58	stimuli\Videos_short_600ms\62.touch_top_to_bottom_with_scissors_short_short_600ms.mp4	62.touch_top_to_bottom_with_scissors_short_short_600ms.mp4	322.43650586517833	323.0448229772155	0.6083171120371844	n/a	n/a	n/a	n/a
303.97802734375	0.2	622547	228	38	2	0	0	36	116	stimuli\Videos_short_600ms_horflip\33.scratch_top_to_bottom_with_scissors_short_horflip_short_600ms.mp4	33.scratch_top_to_bottom_with_scissors_short_horflip_short_600ms.mp4	323.23651677386624	323.84486409006604	0.6083473161997972	n/a	n/a	n/a	n/a
304.77783203125	0.2	624185	229	38	2	0	0	37	189	stimuli\Videos_short_600ms_horvertflip\18.single_stroke_from_top_to_bottom_with_rolling_pin_short_horvertflip_short_600ms.mp4	18.single_stroke_from_top_to_bottom_with_rolling_pin_short_horvertflip_short_600ms.mp4	324.0364637552975	324.6447914241289	0.6083276688314072	n/a	n/a	n/a	n/a
305.578125	0.2	625824	230	38	2	0	1	38	365	stimuli\Targets_short_600ms\hand-stroke_short_short_600ms.mp4	hand-stroke_short_short_600ms.mp4	324.8364556031065	325.4447677299904	0.6083121268839022	n/a	n/a	n/a	n/a
306.3779296875	0.2	627462	231	38	2	0	0	39	179	stimuli\Videos_short_600ms_horflip\90.repeated_touch_with_sponge_short_horflip_short_600ms.mp4	90.repeated_touch_with_sponge_short_horflip_short_600ms.mp4	325.63643308194514	326.24475078047	0.6083176985248429	n/a	n/a	n/a	n/a
307.177734375	0.2	629100	232	38	2	0	0	40	307	stimuli\Videos_short_600ms_vertflip\43.touch_top_to_bottom_with_sharp_wooden_stick_short_vertflip_short_600ms.mp4	43.touch_top_to_bottom_with_sharp_wooden_stick_short_vertflip_short_600ms.mp4	326.436421117578	327.0447341241943	0.6083130066162994	n/a	n/a	n/a	n/a
307.97802734375	0.2	630739	233	38	2	0	0	41	56	stimuli\Videos_short_600ms\60.single_push_with_tip_of_pencil_short_short_600ms.mp4	60.single_push_with_tip_of_pencil_short_short_600ms.mp4	327.23639302477386	327.84468785024364	0.608294825469784	n/a	n/a	n/a	n/a
308.77783203125	0.2	632377	234	38	2	0	0	42	350	stimuli\Videos_short_600ms_vertflip\82.repeated_touch_with_cotton_bud_short_vertflip_short_600ms.mp4	82.repeated_touch_with_cotton_bud_short_vertflip_short_600ms.mp4	328.03637519552103	328.6446949467554	0.6083197512343759	n/a	n/a	n/a	n/a
309.57763671875	0.2	634015	235	38	2	0	0	43	293	stimuli\Videos_short_600ms_vertflip\30.finger_pulling_back_another_finger_short_vertflip_short_600ms.mp4	30.finger_pulling_back_another_finger_short_vertflip_short_600ms.mp4	328.83635531355685	329.44466245528747	0.6083071417306201	n/a	n/a	n/a	n/a
310.3779296875	0.2	635654	236	38	2	0	1	44	370	stimuli\Targets_short_600ms_horflip\hand-pinch_short_horflip_short_600ms.mp4	hand-pinch_short_horflip_short_600ms.mp4	329.6363339653726	330.24465313011933	0.6083191647467174	n/a	n/a	n/a	n/a
311.177734375	0.2	637292	237	38	2	0	0	45	222	stimuli\Videos_short_600ms_horvertflip\48.single_slap_with_hand_short_horvertflip_short_600ms.mp4	48.single_slap_with_hand_short_horvertflip_short_600ms.mp4	330.4363181888293	331.0446376468208	0.6083194579914561	n/a	n/a	n/a	n/a
311.9775390625	0.2	638930	238	38	2	0	0	46	326	stimuli\Videos_short_600ms_vertflip\60.single_push_with_tip_of_pencil_short_vertflip_short_600ms.mp4	60.single_push_with_tip_of_pencil_short_vertflip_short_600ms.mp4	331.2362977203775	331.8446168851242	0.6083191647467174	n/a	n/a	n/a	n/a
312.77783203125	0.2	640569	239	38	2	0	0	47	257	stimuli\Videos_short_600ms_horvertflip\8.single_touch_with_hairbrush_short_horvertflip_short_600ms.mp4	8.single_touch_with_hairbrush_short_horvertflip_short_600ms.mp4	332.0362801843694	332.6445952436952	0.6083150593258324	n/a	n/a	n/a	n/a
313.57763671875	0.2	642207	240	38	2	0	0	48	315	stimuli\Videos_short_600ms_vertflip\50.single_(long)hard_push_with_thumb_short_vertflip_short_600ms.mp4	50.single_(long)hard_push_with_thumb_short_vertflip_short_600ms.mp4	332.83626147538234	333.4445768279529	0.6083153525705711	n/a	n/a	n/a	n/a
314.37744140625	0.2	643845	241	38	2	0	0	49	61	stimuli\Videos_short_600ms\65.stroke_top_to_bottom_with_stanley_knife_short_short_600ms.mp4	65.stroke_top_to_bottom_with_stanley_knife_short_short_600ms.mp4	333.6362418866629	334.2445563595011	0.608314472838174	n/a	n/a	n/a	n/a
315.177734375	0.2	645484	242	38	2	0	0	50	62	stimuli\Videos_short_600ms\66.stroke_top_to_bottom_with_sponge_short_short_600ms.mp4	66.stroke_top_to_bottom_with_sponge_short_short_600ms.mp4	334.4362234709224	335.0445382370035	0.6083147660810937	n/a	n/a	n/a	n/a
315.9775390625	0.2	647122	243	38	2	0	0	51	182	stimuli\Videos_short_600ms_horvertflip\11.single_touch_with_lighter_short_horvertflip_short_600ms.mp4	11.single_touch_with_lighter_short_horvertflip_short_600ms.mp4	335.23620300246876	335.84450574553557	0.6083027430668153	n/a	n/a	n/a	n/a
316.77734375	0.2	648760	244	38	2	0	0	52	85	stimuli\Videos_short_600ms\87.single_stroke_top_to_bottom_with_plastic_brush_short_short_600ms.mp4	87.single_stroke_top_to_bottom_with_plastic_brush_short_short_600ms.mp4	336.03615966096186	336.64450023254176	0.6083405715799017	n/a	n/a	n/a	n/a
317.57763671875	0.2	650399	245	38	2	0	0	53	320	stimuli\Videos_short_600ms_vertflip\55.touch_top_to_bottom_with_nail_file_short_vertflip_short_600ms.mp4	55.touch_top_to_bottom_with_nail_file_short_vertflip_short_600ms.mp4	336.83616089258794	337.4444818168013	0.6083209242133307	n/a	n/a	n/a	n/a
318.37744140625	0.2	652037	246	38	2	0	0	54	323	stimuli\Videos_short_600ms_vertflip\58.single_slap_with_pencil_short_vertflip_short_600ms.mp4	58.single_slap_with_pencil_short_vertflip_short_600ms.mp4	337.636141890358	338.2444619348371	0.6083200444791146	n/a	n/a	n/a	n/a
319.17724609375	0.2	653675	247	38	2	0	0	55	103	stimuli\Videos_short_600ms_horflip\21.repeated_touch_with_metal_chopstick_short_horflip_short_600ms.mp4	21.repeated_touch_with_metal_chopstick_short_horflip_short_600ms.mp4	338.436125527327	339.04444175963	0.6083162323029683	n/a	n/a	n/a	n/a
319.9775390625	0.2	655314	248	38	2	0	0	56	57	stimuli\Videos_short_600ms\61.single_hit_with_rolling_pin_short_short_600ms.mp4	61.single_hit_with_rolling_pin_short_short_600ms.mp4	339.2361062318523	339.84442744930857	0.6083212174562505	n/a	n/a	n/a	n/a
320.77734375	0.2	656952	249	38	2	0	0	57	194	stimuli\Videos_short_600ms_horvertflip\22.single_touch_with_metal_chopstick_short_horvertflip_short_600ms.mp4	22.single_touch_with_metal_chopstick_short_horvertflip_short_600ms.mp4	340.0360763795816	340.64440610112433	0.6083297215427592	n/a	n/a	n/a	n/a
321.5771484375	0.2	658590	250	38	2	0	0	58	149	stimuli\Videos_short_600ms_horflip\63.stroke_top_to_bottom_with_screwdriver_short_horflip_short_600ms.mp4	63.stroke_top_to_bottom_with_screwdriver_short_horflip_short_600ms.mp4	340.8360746787657	341.44438621916015	0.6083115403944248	n/a	n/a	n/a	n/a
322.37744140625	0.2	660229	251	38	2	0	0	59	69	stimuli\Videos_short_600ms\72.(short)stroke_with_finger_all_over_the_hand_short_short_600ms.mp4	72.(short)stroke_with_finger_all_over_the_hand_short_short_600ms.mp4	341.6360627143986	342.24436956288446	0.6083068484858813	n/a	n/a	n/a	n/a
323.17724609375	0.2	661867	252	38	2	0	0	60	209	stimuli\Videos_short_600ms_horvertflip\36.single_slap_with_full_hand_short_horvertflip_short_600ms.mp4	36.single_slap_with_full_hand_short_horvertflip_short_600ms.mp4	342.4360349148392	343.0443584782497	0.6083235634105222	n/a	n/a	n/a	n/a
323.97705078125	0.2	663505	253	38	2	0	0	61	242	stimuli\Videos_short_600ms_horvertflip\66.stroke_top_to_bottom_with_sponge_short_horvertflip_short_600ms.mp4	66.stroke_top_to_bottom_with_sponge_short_horvertflip_short_600ms.mp4	343.2360279356253	343.8443183624295	0.6082904268041602	n/a	n/a	n/a	n/a
324.77734375	0.2	665144	254	38	2	0	0	62	213	stimuli\Videos_short_600ms_horvertflip\4.repeated_tap_with_finger_slow_short_horvertflip_short_600ms.mp4	4.repeated_tap_with_finger_slow_short_horvertflip_short_600ms.mp4	344.0359966171345	344.64431167646035	0.6083150593258324	n/a	n/a	n/a	n/a
325.5771484375	0.2	666782	255	38	2	0	0	63	268	stimuli\Videos_short_600ms_horvertflip\9.single_touch_with_hammer_short_horvertflip_short_600ms.mp4	9.single_touch_with_hammer_short_horvertflip_short_600ms.mp4	344.8359761486827	345.44429765938185	0.6083215106991702	n/a	n/a	n/a	n/a
326.37744140625	0.2	668421	256	38	2	0	0	64	287	stimuli\Videos_short_600ms_vertflip\25.single_touch_with_stanley_knife_short_vertflip_short_600ms.mp4	25.single_touch_with_stanley_knife_short_vertflip_short_600ms.mp4	345.63595773294037	346.24428100310615	0.6083232701657835	n/a	n/a	n/a	n/a
327.17724609375	0.2	670059	257	38	2	0	0	65	352	stimuli\Videos_short_600ms_vertflip\84.single_touch_with_cotton_bud_short_vertflip_short_600ms.mp4	84.single_touch_with_cotton_bud_short_vertflip_short_600ms.mp4	346.4359378509762	347.0442584819448	0.608320630968592	n/a	n/a	n/a	n/a
327.97705078125	0.2	671697	258	38	2	0	0	66	71	stimuli\Videos_short_600ms\74.fingers_walking_from_top_to_bottom_short_short_600ms.mp4	74.fingers_walking_from_top_to_bottom_short_short_600ms.mp4	347.2358789675218	347.8442350810492	0.6083561135274067	n/a	n/a	n/a	n/a
328.77734375	0.2	673336	259	38	2	0	0	67	359	stimuli\Videos_short_600ms_vertflip\90.repeated_touch_with_sponge_short_vertflip_short_600ms.mp4	90.repeated_touch_with_sponge_short_vertflip_short_600ms.mp4	348.03590131273813	348.64422663561345	0.6083253228753165	n/a	n/a	n/a	n/a
329.5771484375	0.2	674974	260	38	2	0	0	68	27	stimuli\Videos_short_600ms\34.repeated_punch_with_hand_short_short_600ms.mp4	34.repeated_punch_with_hand_short_short_600ms.mp4	348.8358834834835	349.4441967833445	0.6083132998610381	n/a	n/a	n/a	n/a
330.376953125	0.2	676612	261	38	2	0	0	69	93	stimuli\Videos_short_600ms_horflip\12.repeated_touch_with_nail_file_short_horflip_short_600ms.mp4	12.repeated_touch_with_nail_file_short_horflip_short_600ms.mp4	349.6358680001849	350.24419420279446	0.6083262026095326	n/a	n/a	n/a	n/a
331.17724609375	0.2	678251	262	38	2	0	0	70	321	stimuli\Videos_short_600ms_vertflip\56.repeated_touch_with_nail_file_short_vertflip_short_600ms.mp4	56.repeated_touch_with_nail_file_short_vertflip_short_600ms.mp4	350.4358448925341	351.04421684125373	0.6083719487196504	n/a	n/a	n/a	n/a
331.97705078125	0.2	679889	263	38	2	0	0	71	59	stimuli\Videos_short_600ms\63.stroke_top_to_bottom_with_screwdriver_short_short_600ms.mp4	63.stroke_top_to_bottom_with_screwdriver_short_short_600ms.mp4	351.23583058221266	351.8441635294421	0.6083329472294281	n/a	n/a	n/a	n/a
332.77685546875	0.2	681527	264	38	2	0	0	72	245	stimuli\Videos_short_600ms_horvertflip\69.stroke_with_soft_sock_short_horvertflip_short_600ms.mp4	69.stroke_with_soft_sock_short_horvertflip_short_600ms.mp4	352.03580630158467	352.6441222406447	0.6083159390600485	n/a	n/a	n/a	n/a
333.5771484375	0.2	683166	265	38	2	0	0	73	259	stimuli\Videos_short_600ms_horvertflip\81.single_stroke_top_to_bottom_with_cotton_pad_short_horvertflip_short_600ms.mp4	81.single_stroke_top_to_bottom_with_cotton_pad_short_horvertflip_short_600ms.mp4	352.8357881790871	353.44410235868054	0.6083141795934353	n/a	n/a	n/a	n/a
334.376953125	0.2	684804	266	38	2	0	0	74	174	stimuli\Videos_short_600ms_horflip\86.touch_top_to_bottom_with_hair_brush_short_horflip_short_600ms.mp4	86.touch_top_to_bottom_with_hair_brush_short_horflip_short_600ms.mp4	353.63576477819333	354.24408423618297	0.6083194579896372	n/a	n/a	n/a	n/a
335.1767578125	0.2	686442	267	38	2	0	0	75	90	stimuli\Videos_short_600ms_horflip\1.repeated_touch_with_finger_fast_short_horflip_short_600ms.mp4	1.repeated_touch_with_finger_fast_short_horflip_short_600ms.mp4	354.4357220231741	355.04406406097587	0.6083420378017763	n/a	n/a	n/a	n/a
335.97705078125	0.2	688081	268	38	2	0	0	76	285	stimuli\Videos_short_600ms_vertflip\23.single_push_with_a_spoon_short_vertflip_short_600ms.mp4	23.single_push_with_a_spoon_short_vertflip_short_600ms.mp4	355.23581679973177	355.84404476550117	0.6082279657694016	n/a	n/a	n/a	n/a
336.77685546875	0.2	689719	269	38	2	0	0	77	45	stimuli\Videos_short_600ms\50.single_(long)hard_push_with_thumb_short_short_600ms.mp4	50.single_(long)hard_push_with_thumb_short_short_600ms.mp4	356.035719501273	356.6440272294931	0.6083077282200975	n/a	n/a	n/a	n/a
337.57666015625	0.2	691357	270	38	2	0	0	78	99	stimuli\Videos_short_600ms_horflip\18.single_stroke_from_top_to_bottom_with_rolling_pin_short_horflip_short_600ms.mp4	18.single_stroke_from_top_to_bottom_with_rolling_pin_short_horflip_short_600ms.mp4	356.8357072436611	357.4440143853917	0.6083071417306201	n/a	n/a	n/a	n/a
338.376953125	0.2	692996	271	38	2	0	0	79	192	stimuli\Videos_short_600ms_horvertflip\20.single_touch_with_screwdriver_short_horvertflip_short_600ms.mp4	20.single_touch_with_screwdriver_short_horvertflip_short_600ms.mp4	357.6356838427673	358.24399538316175	0.6083115403944248	n/a	n/a	n/a	n/a
339.1767578125	0.2	694634	272	38	2	0	0	80	224	stimuli\Videos_short_600ms_horvertflip\5.repeated_tap_with_finger_moving_from_top_to_bottom_short_horvertflip_short_600ms.mp4	5.repeated_tap_with_finger_moving_from_top_to_bottom_short_horvertflip_short_600ms.mp4	358.43565956213934	359.0439705160461	0.6083109539067664	n/a	n/a	n/a	n/a
339.9765625	0.2	696272	273	38	2	0	0	81	232	stimuli\Videos_short_600ms_horvertflip\57.single_touch_with_nail_file_short_horvertflip_short_600ms.mp4	57.single_touch_with_nail_file_short_horvertflip_short_600ms.mp4	359.2356349882666	359.8439515138143	0.608316525547707	n/a	n/a	n/a	n/a
340.77685546875	0.2	697911	274	38	2	0	0	82	184	stimuli\Videos_short_600ms_horvertflip\13.single_touch_with_pen_short_horvertflip_short_600ms.mp4	13.single_touch_with_pen_short_horvertflip_short_600ms.mp4	360.0356165725261	360.64393925620425	0.608322683678125	n/a	n/a	n/a	n/a
341.57666015625	0.2	699549	275	38	2	0	0	83	49	stimuli\Videos_short_600ms\54.repeated_touch_with_knife_short_short_600ms.mp4	54.repeated_touch_with_knife_short_short_600ms.mp4	360.8355969838067	361.44392347966095	0.6083264958542713	n/a	n/a	n/a	n/a
342.37646484375	0.2	701187	276	38	2	0	0	84	235	stimuli\Videos_short_600ms_horvertflip\6.single_touch_with_flat_hand_short_horvertflip_short_600ms.mp4	6.single_touch_with_flat_hand_short_horvertflip_short_600ms.mp4	361.63557915455385	362.2439035976968	0.6083244431429193	n/a	n/a	n/a	n/a
343.1767578125	0.2	702826	277	38	2	0	0	85	118	stimuli\Videos_short_600ms_horflip\35.single_punch_with_hand_short_horflip_short_600ms.mp4	35.single_punch_with_hand_short_horflip_short_600ms.mp4	362.43555809961254	363.0438752116497	0.6083171120371844	n/a	n/a	n/a	n/a
343.9765625	0.2	704464	278	38	2	0	0	86	50	stimuli\Videos_short_600ms\55.touch_top_to_bottom_with_nail_file_short_short_600ms.mp4	55.touch_top_to_bottom_with_nail_file_short_short_600ms.mp4	363.2355437892911	363.8438556229303	0.6083118336391635	n/a	n/a	n/a	n/a
344.77685546875	0.2	706103	279	38	2	0	0	87	113	stimuli\Videos_short_600ms_horflip\30.finger_pulling_back_another_finger_short_horflip_short_600ms.mp4	30.finger_pulling_back_another_finger_short_horflip_short_600ms.mp4	364.0355227343498	364.643845124785	0.6083223904352053	n/a	n/a	n/a	n/a
345.57666015625	0.2	707741	280	38	2	0	0	88	188	stimuli\Videos_short_600ms_horvertflip\17.repeated_touch_with_rolling_pin_short_horvertflip_short_600ms.mp4	17.repeated_touch_with_rolling_pin_short_horvertflip_short_600ms.mp4	364.8355022658979	365.4438196711799	0.6083174052819231	n/a	n/a	n/a	n/a
346.37646484375	0.2	709379	281	38	2	0	0	89	159	stimuli\Videos_short_600ms_horflip\72.(short)stroke_with_finger_all_over_the_hand_short_horflip_short_600ms.mp4	72.(short)stroke_with_finger_all_over_the_hand_short_horflip_short_600ms.mp4	365.6354853163775	366.2438135716984	0.6083282553208846	n/a	n/a	n/a	n/a
347.1767578125	0.2	711018	282	38	2	0	0	90	275	stimuli\Videos_short_600ms_vertflip\14.repeated_touch_with_pencil_short_vertflip_short_600ms.mp4	14.repeated_touch_with_pencil_short_vertflip_short_600ms.mp4	366.4354660209028	367.04378078698574	0.6083147660829127	n/a	n/a	n/a	n/a
347.9765625	0.2	712656	283	38	2	0	0	91	292	stimuli\Videos_short_600ms_vertflip\3.single_push_with_finger_short_vertflip_short_600ms.mp4	3.single_push_with_finger_short_vertflip_short_600ms.mp4	367.2354423267643	367.84376178475577	0.6083194579914561	n/a	n/a	n/a	n/a
348.7763671875	0.2	714294	284	38	2	0	0	92	191	stimuli\Videos_short_600ms_horvertflip\2.single_touch_with_finger_short_horvertflip_short_600ms.mp4	2.single_touch_with_finger_short_horvertflip_short_600ms.mp4	368.03540719609737	368.6437416095469	0.6083344134494837	n/a	n/a	n/a	n/a
349.57666015625	0.2	715933	285	38	2	0	0	93	3	stimuli\Videos_short_600ms\12.repeated_touch_with_nail_file_short_short_600ms.mp4	12.repeated_touch_with_nail_file_short_short_600ms.mp4	368.8354046155473	369.4437437209071	0.6083391053598461	4.0	1.0	2.39408543848549	0.0
384.25048828125	0.2	786945	286	38	3	0	0	0	70	stimuli\Videos_short_600ms\73.single_stroke_with_flat_hand_short_short_600ms.mp4	73.single_stroke_with_flat_hand_short_short_600ms.mp4	403.5095955398719	404.1178792220581	0.6082836821860838	n/a	n/a	n/a	n/a
385.05029296875	0.2	788583	287	38	3	0	0	1	219	stimuli\Videos_short_600ms_horvertflip\45.scratching_with_finger_nails_short_horvertflip_short_600ms.mp4	45.scratching_with_finger_nails_short_horvertflip_short_600ms.mp4	404.3095618754269	404.9178701901328	0.6083083147059369	n/a	n/a	n/a	n/a
385.85009765625	0.2	790221	288	38	3	0	0	2	354	stimuli\Videos_short_600ms_vertflip\86.touch_top_to_bottom_with_hair_brush_short_vertflip_short_600ms.mp4	86.touch_top_to_bottom_with_hair_brush_short_vertflip_short_600ms.mp4	405.1094853973136	405.7178403378639	0.6083549405502708	n/a	n/a	n/a	n/a
386.650390625	0.2	791860	289	38	3	0	0	3	339	stimuli\Videos_short_600ms_vertflip\72.(short)stroke_with_finger_all_over_the_hand_short_vertflip_short_600ms.mp4	72.(short)stroke_with_finger_all_over_the_hand_short_vertflip_short_600ms.mp4	405.9095168331023	406.51784802086513	0.6083311877628148	n/a	n/a	n/a	n/a
387.4501953125	0.2	793498	290	38	3	0	0	4	227	stimuli\Videos_short_600ms_horvertflip\52.touch_top_to_bottom_with_hammer_short_horvertflip_short_600ms.mp4	52.touch_top_to_bottom_with_hammer_short_horvertflip_short_600ms.mp4	406.7094708523964	407.3178307781	0.608359925703553	n/a	n/a	n/a	n/a
388.25	0.2	795136	291	38	3	0	0	5	123	stimuli\Videos_short_600ms_horflip\4.repeated_tap_with_finger_slow_short_horflip_short_600ms.mp4	4.repeated_tap_with_finger_slow_short_horflip_short_600ms.mp4	407.50944833123503	408.11781734751094	0.6083690162759012	n/a	n/a	n/a	n/a
389.05029296875	0.2	796775	292	38	3	0	0	6	132	stimuli\Videos_short_600ms_horflip\48.single_slap_with_hand_short_horflip_short_600ms.mp4	48.single_slap_with_hand_short_horflip_short_600ms.mp4	408.3094903238179	408.9177889614639	0.6082986376459303	n/a	n/a	n/a	n/a
389.85009765625	0.2	798413	293	38	3	0	0	7	203	stimuli\Videos_short_600ms_horvertflip\30.finger_pulling_back_another_finger_short_horvertflip_short_600ms.mp4	30.finger_pulling_back_another_finger_short_horvertflip_short_600ms.mp4	409.1093909726496	409.7177825687377	0.6083915960880404	n/a	n/a	n/a	n/a
390.64990234375	0.2	800051	294	38	3	0	1	8	382	stimuli\Targets_short_600ms_vertflip\hand-pinch_short_horvertflip_short_600ms.mp4	hand-pinch_short_horvertflip_short_600ms.mp4	409.90936405282446	410.5177518367363	0.6083877839118941	n/a	n/a	n/a	n/a
391.4501953125	0.2	801690	295	38	3	0	0	9	243	stimuli\Videos_short_600ms_horvertflip\67.single_touch_with_sponge_short_horvertflip_short_600ms.mp4	67.single_touch_with_sponge_short_horvertflip_short_600ms.mp4	410.7093635249839	411.3177340074817	0.6083704824977758	n/a	n/a	n/a	n/a
392.25	0.2	803328	296	38	3	0	0	10	316	stimuli\Videos_short_600ms_vertflip\51.repeated_touch_with_hammer_short_vertflip_short_600ms.mp4	51.repeated_touch_with_hammer_short_vertflip_short_600ms.mp4	411.5093506808844	412.11771353902986	0.6083628581454832	n/a	n/a	n/a	n/a
393.05029296875	0.2	804967	297	38	3	0	0	11	351	stimuli\Videos_short_600ms_vertflip\83.single_stroke_top_to_bottom_with_cotton_bud_short_vertflip_short_600ms.mp4	83.single_stroke_top_to_bottom_with_cotton_bud_short_vertflip_short_600ms.mp4	412.30932610701166	412.9176942435552	0.6083681365435041	n/a	n/a	n/a	n/a
393.85009765625	0.2	806605	298	38	3	0	0	12	187	stimuli\Videos_short_600ms_horvertflip\16.repeated_touch_with_plastic_brush_short_horvertflip_short_600ms.mp4	16.repeated_touch_with_plastic_brush_short_horvertflip_short_600ms.mp4	413.1093085710036	413.71767641430233	0.6083678432987654	n/a	n/a	n/a	n/a
394.64990234375	0.2	808243	299	38	3	0	0	13	335	stimuli\Videos_short_600ms_vertflip\69.stroke_with_soft_sock_short_vertflip_short_600ms.mp4	69.stroke_with_soft_sock_short_vertflip_short_600ms.mp4	413.9092854633527	414.5176544796286	0.6083690162759012	n/a	n/a	n/a	n/a
395.4501953125	0.2	809882	300	38	3	0	1	14	367	stimuli\Targets_short_600ms_horflip\chopstick-silver-tap_short_horflip_short_600ms.mp4	chopstick-silver-tap_short_horflip_short_600ms.mp4	414.70929842475016	415.3176384098424	0.6083399850922433	n/a	n/a	n/a	n/a
396.25	0.2	811520	301	38	3	0	0	15	248	stimuli\Videos_short_600ms_horvertflip\71.single_stroke_with_finger_top_to_bottom_short_horvertflip_short_600ms.mp4	71.single_stroke_with_finger_top_to_bottom_short_horvertflip_short_600ms.mp4	415.5092509778224	416.11761970085536	0.6083687230329815	n/a	n/a	n/a	n/a
397.0498046875	0.2	813158	302	38	3	0	0	16	331	stimuli\Videos_short_600ms_vertflip\65.stroke_top_to_bottom_with_stanley_knife_short_vertflip_short_600ms.mp4	65.stroke_top_to_bottom_with_stanley_knife_short_vertflip_short_600ms.mp4	416.30922816341626	416.9175989391588	0.6083707757425145	n/a	n/a	n/a	n/a
397.85009765625	0.2	814797	303	38	3	0	0	17	26	stimuli\Videos_short_600ms\33.scratch_top_to_bottom_with_scissors_short_short_600ms.mp4	33.scratch_top_to_bottom_with_scissors_short_short_600ms.mp4	417.10921150714057	417.71757583150793	0.6083643243673578	n/a	n/a	n/a	n/a
398.64990234375	0.2	816435	304	38	3	0	0	18	261	stimuli\Videos_short_600ms_horvertflip\83.single_stroke_top_to_bottom_with_cotton_bud_short_horvertflip_short_600ms.mp4	83.single_stroke_top_to_bottom_with_cotton_bud_short_horvertflip_short_600ms.mp4	417.9092001292629	418.5175392346209	0.6083391053580272	n/a	n/a	n/a	n/a
399.44970703125	0.2	818073	305	38	3	0	0	19	171	stimuli\Videos_short_600ms_horflip\83.single_stroke_top_to_bottom_with_cotton_bud_short_horflip_short_600ms.mp4	83.single_stroke_top_to_bottom_with_cotton_bud_short_horflip_short_600ms.mp4	418.7091708634816	419.31754691762035	0.6083760541387164	n/a	n/a	n/a	n/a
400.25	0.2	819712	306	38	3	0	0	20	163	stimuli\Videos_short_600ms_horflip\76.tickle_with_fingers_from_top_to_bottom_short_horflip_short_600ms.mp4	76.tickle_with_fingers_from_top_to_bottom_short_horflip_short_600ms.mp4	419.50915098151745	420.1175194113057	0.6083684297882428	n/a	n/a	n/a	n/a
401.0498046875	0.2	821350	307	38	3	0	0	21	344	stimuli\Videos_short_600ms_vertflip\77.tapping_with_all_fingers_short_vertflip_short_600ms.mp4	77.tapping_with_all_fingers_short_vertflip_short_600ms.mp4	420.3091331522646	420.9175097928928	0.6083766406281939	n/a	n/a	n/a	n/a
401.849609375	0.2	822988	308	38	3	0	0	22	291	stimuli\Videos_short_600ms_vertflip\29.single_pinch_with_tweezers_short_vertflip_short_600ms.mp4	29.single_pinch_with_tweezers_short_vertflip_short_600ms.mp4	421.1091317446917	421.717486685242	0.6083549405502708	n/a	n/a	n/a	n/a
402.64990234375	0.2	824627	309	38	3	0	0	23	255	stimuli\Videos_short_600ms_horvertflip\78.single_stroke_top_to_bottom_with_soft_brush_short_horvertflip_short_600ms.mp4	78.single_stroke_top_to_bottom_with_soft_brush_short_horvertflip_short_600ms.mp4	421.9091115694846	422.51747237492054	0.6083608054359502	n/a	n/a	n/a	n/a
403.44970703125	0.2	826265	310	38	3	0	0	24	229	stimuli\Videos_short_600ms_horvertflip\54.repeated_touch_with_knife_short_horvertflip_short_600ms.mp4	54.repeated_touch_with_knife_short_horvertflip_short_600ms.mp4	422.70907467935285	423.317451613224	0.6083769338711136	n/a	n/a	n/a	n/a
404.24951171875	0.2	827903	311	38	3	0	0	25	357	stimuli\Videos_short_600ms_vertflip\89.single_touch_with_plastic_brush_short_vertflip_short_600ms.mp4	89.single_touch_with_plastic_brush_short_vertflip_short_600ms.mp4	423.5090577298324	424.1174282123302	0.6083704824977758	n/a	n/a	n/a	n/a
405.0498046875	0.2	829542	312	38	3	0	0	26	88	stimuli\Videos_short_600ms\9.single_touch_with_hammer_short_short_600ms.mp4	9.single_touch_with_hammer_short_short_600ms.mp4	424.3090384343577	424.9174156614736	0.6083772271158523	n/a	n/a	n/a	n/a
405.849609375	0.2	831180	313	38	3	0	0	27	328	stimuli\Videos_short_600ms_vertflip\62.touch_top_to_bottom_with_scissors_short_vertflip_short_600ms.mp4	62.touch_top_to_bottom_with_scissors_short_vertflip_short_600ms.mp4	425.1090179659059	425.7173878619142	0.6083698960082984	n/a	n/a	n/a	n/a
406.6494140625	0.2	832818	314	38	3	0	0	28	98	stimuli\Videos_short_600ms_horflip\17.repeated_touch_with_rolling_pin_short_horflip_short_600ms.mp4	17.repeated_touch_with_rolling_pin_short_horflip_short_600ms.mp4	425.9089983771864	426.5173694461737	0.6083710689872532	n/a	n/a	n/a	n/a
407.44970703125	0.2	834457	315	38	3	0	1	29	368	stimuli\Targets_short_600ms_horflip\chopstickwood-tap_short_horflip_short_600ms.mp4	chopstickwood-tap_short_horflip_short_600ms.mp4	426.70898025468887	427.31735073718664	0.6083704824977758	n/a	n/a	n/a	n/a
408.24951171875	0.2	836095	316	38	3	0	0	30	325	stimuli\Videos_short_600ms_vertflip\6.single_touch_with_flat_hand_short_vertflip_short_600ms.mp4	6.single_touch_with_flat_hand_short_vertflip_short_600ms.mp4	427.5089647713903	428.11733056197954	0.6083657905892323	n/a	n/a	n/a	n/a
409.04931640625	0.2	837733	317	38	3	0	1	31	376	stimuli\Targets_short_600ms_horvertflip\hand-pinch_short_vertflip_short_600ms.mp4	hand-pinch_short_vertflip_short_600ms.mp4	428.30895016782415	428.9173136124591	0.6083634446349606	n/a	n/a	n/a	n/a
409.849609375	0.2	839372	318	38	3	0	0	32	78	stimuli\Videos_short_600ms\80.stroke_with_sharp_stick_all_over_the_hand_short_short_600ms.mp4	80.stroke_with_sharp_stick_all_over_the_hand_short_short_600ms.mp4	429.10892471421903	429.71729402373967	0.60836930952064	n/a	n/a	n/a	n/a
410.6494140625	0.2	841010	319	38	3	0	0	33	336	stimuli\Videos_short_600ms_vertflip\7.repeated_touch_with_hairbrush_short_vertflip_short_600ms.mp4	7.repeated_touch_with_hairbrush_short_vertflip_short_600ms.mp4	429.9089156822938	430.5172741417773	0.6083584594834974	n/a	n/a	n/a	n/a
411.44921875	0.2	842648	320	38	3	0	0	34	82	stimuli\Videos_short_600ms\84.single_touch_with_cotton_bud_short_short_600ms.mp4	84.single_touch_with_cotton_bud_short_short_600ms.mp4	430.708887003002	431.3172551395455	0.6083681365435041	n/a	n/a	n/a	n/a
412.24951171875	0.2	844287	321	38	3	0	0	35	272	stimuli\Videos_short_600ms_vertflip\11.single_touch_with_lighter_short_vertflip_short_600ms.mp4	11.single_touch_with_lighter_short_vertflip_short_600ms.mp4	431.5088726926806	432.1172352575832	0.6083625649025635	n/a	n/a	n/a	n/a
413.04931640625	0.2	845925	322	38	3	0	1	36	383	stimuli\Targets_short_600ms_vertflip\hand-stroke_short_horvertflip_short_600ms.mp4	hand-stroke_short_horvertflip_short_600ms.mp4	432.3088604350687	432.9172188945504	0.6083584594816784	n/a	n/a	n/a	n/a
413.849609375	0.2	847564	323	38	3	0	0	37	322	stimuli\Videos_short_600ms_vertflip\57.single_touch_with_nail_file_short_vertflip_short_600ms.mp4	57.single_touch_with_nail_file_short_vertflip_short_600ms.mp4	433.1088760356651	433.71719578690136	0.6083197512361949	n/a	n/a	n/a	n/a
414.6494140625	0.2	849202	324	38	3	0	0	38	201	stimuli\Videos_short_600ms_horvertflip\29.single_pinch_with_tweezers_short_horvertflip_short_600ms.mp4	29.single_pinch_with_tweezers_short_horvertflip_short_600ms.mp4	433.9088664172523	434.5171885144427	0.6083220971904666	n/a	n/a	n/a	n/a
415.44921875	0.2	850840	325	38	3	0	1	39	360	stimuli\Targets_short_600ms\brush-stroke_short_short_600ms.mp4	brush-stroke_short_short_600ms.mp4	434.7088418433814	435.3171659932795	0.6083241498981806	n/a	n/a	n/a	n/a
416.24951171875	0.2	852479	326	38	3	0	0	40	10	stimuli\Videos_short_600ms\19.single_touch_with_rolling_pin_short_short_600ms.mp4	19.single_touch_with_rolling_pin_short_short_600ms.mp4	435.5088219614172	436.11711649364224	0.6082945322250453	n/a	n/a	n/a	n/a
417.04931640625	0.2	854117	327	38	3	0	0	41	7	stimuli\Videos_short_600ms\16.repeated_touch_with_plastic_brush_short_short_600ms.mp4	16.repeated_touch_with_plastic_brush_short_short_600ms.mp4	436.3088003199882	436.91711596580353	0.6083156458153098	n/a	n/a	n/a	n/a
417.84912109375	0.2	855755	328	38	3	0	0	42	290	stimuli\Videos_short_600ms_vertflip\28.single_injection_with_sharp_needle_short_vertflip_short_600ms.mp4	28.single_injection_with_sharp_needle_short_vertflip_short_600ms.mp4	437.10878483668967	437.7171075203678	0.608322683678125	n/a	n/a	n/a	n/a
418.6494140625	0.2	857394	329	38	3	0	0	43	317	stimuli\Videos_short_600ms_vertflip\52.touch_top_to_bottom_with_hammer_short_vertflip_short_600ms.mp4	52.touch_top_to_bottom_with_hammer_short_vertflip_short_600ms.mp4	437.9087629020159	438.51709145057976	0.6083285485638044	n/a	n/a	n/a	n/a
419.44921875	0.2	859032	330	38	3	0	0	44	108	stimuli\Videos_short_600ms_horflip\26.single_touch_with_a_blunt_syringe_short_horflip_short_600ms.mp4	26.single_touch_with_a_blunt_syringe_short_horflip_short_600ms.mp4	438.7087444862736	439.317065410487	0.6083209242133307	n/a	n/a	n/a	n/a
420.2490234375	0.2	860670	331	38	3	0	0	45	169	stimuli\Videos_short_600ms_horflip\81.single_stroke_top_to_bottom_with_cotton_pad_short_horflip_short_600ms.mp4	81.single_stroke_top_to_bottom_with_cotton_pad_short_horflip_short_600ms.mp4	439.5087248975542	440.11704670149993	0.6083218039457279	n/a	n/a	n/a	n/a
421.04931640625	0.2	862309	332	38	3	0	0	46	104	stimuli\Videos_short_600ms_horflip\22.single_touch_with_metal_chopstick_short_horflip_short_600ms.mp4	22.single_touch_with_metal_chopstick_short_horflip_short_600ms.mp4	440.3087082412785	440.9170265262928	0.6083182850143203	n/a	n/a	n/a	n/a
421.84912109375	0.2	863947	333	38	3	0	0	47	115	stimuli\Videos_short_600ms_horflip\32.single_(long)pinch_with_fingers_short_horflip_short_600ms.mp4	32.single_(long)pinch_with_fingers_short_horflip_short_600ms.mp4	441.108687186339	441.71700840379526	0.6083212174562505	n/a	n/a	n/a	n/a
422.64892578125	0.2	865585	334	38	3	0	0	48	306	stimuli\Videos_short_600ms_vertflip\42.single_slap_with_plastic_whisk_short_vertflip_short_600ms.mp4	42.single_slap_with_plastic_whisk_short_vertflip_short_600ms.mp4	441.9086664246424	442.5169888150758	0.6083223904333863	n/a	n/a	n/a	n/a
423.44921875	0.2	867224	335	38	3	0	0	49	281	stimuli\Videos_short_600ms_vertflip\2.single_touch_with_finger_short_vertflip_short_600ms.mp4	2.single_touch_with_finger_short_vertflip_short_600ms.mp4	442.70864918187726	443.316970985823	0.6083218039457279	n/a	n/a	n/a	n/a
424.2490234375	0.2	868862	336	38	3	0	0	50	288	stimuli\Videos_short_600ms_vertflip\26.single_touch_with_a_blunt_syringe_short_vertflip_short_600ms.mp4	26.single_touch_with_a_blunt_syringe_short_vertflip_short_600ms.mp4	443.5086292999149	444.1169505173711	0.6083212174562505	n/a	n/a	n/a	n/a
425.048828125	0.2	870500	337	38	3	0	0	51	256	stimuli\Videos_short_600ms_horvertflip\79.long_with_soft_brush_all_over_the_hand_short_horvertflip_short_600ms.mp4	79.long_with_soft_brush_all_over_the_hand_short_horvertflip_short_600ms.mp4	444.3085677772615	444.9169309286517	0.6083631513902219	n/a	n/a	n/a	n/a
425.84912109375	0.2	872139	338	38	3	0	0	52	176	stimuli\Videos_short_600ms_horflip\88.repeated_stroke_with_plastic_brush_short_horflip_short_600ms.mp4	88.repeated_stroke_with_plastic_brush_short_horflip_short_600ms.mp4	445.108542910144	445.716911633177	0.6083687230329815	n/a	n/a	n/a	n/a
426.64892578125	0.2	873777	339	38	3	0	0	53	139	stimuli\Videos_short_600ms_horflip\54.repeated_touch_with_knife_short_horflip_short_600ms.mp4	54.repeated_touch_with_knife_short_horflip_short_600ms.mp4	445.9085608566947	446.51689439041184	0.6083335337170865	n/a	n/a	n/a	n/a
427.44873046875	0.2	875415	340	38	3	0	0	54	200	stimuli\Videos_short_600ms_horvertflip\28.single_injection_with_sharp_needle_short_horvertflip_short_600ms.mp4	28.single_injection_with_sharp_needle_short_horvertflip_short_600ms.mp4	446.7085497720618	447.3168745084495	0.608324736387658	n/a	n/a	n/a	n/a
428.2490234375	0.2	877054	341	38	3	0	0	55	72	stimuli\Videos_short_600ms\75.(long)stroke_with_fingers_all_over_the_hand_short_short_600ms.mp4	75.(long)stroke_with_fingers_all_over_the_hand_short_short_600ms.mp4	447.5085398604042	448.1168540399976	0.6083141795934353	n/a	n/a	n/a	n/a
429.048828125	0.2	878692	342	38	3	0	0	56	327	stimuli\Videos_short_600ms_vertflip\61.single_hit_with_rolling_pin_short_vertflip_short_600ms.mp4	61.single_hit_with_rolling_pin_short_vertflip_short_600ms.mp4	448.3085234973714	448.91681099173366	0.6082874943622301	n/a	n/a	n/a	n/a
429.8486328125	0.2	880330	343	38	3	0	0	57	102	stimuli\Videos_short_600ms_horflip\20.single_touch_with_screwdriver_short_horflip_short_600ms.mp4	20.single_touch_with_screwdriver_short_horflip_short_600ms.mp4	449.1085074275852	449.7168186747349	0.6083112471496861	n/a	n/a	n/a	n/a
430.64892578125	0.2	881969	344	38	3	0	0	58	278	stimuli\Videos_short_600ms_vertflip\17.repeated_touch_with_rolling_pin_short_vertflip_short_600ms.mp4	17.repeated_touch_with_rolling_pin_short_vertflip_short_600ms.mp4	449.90847816180394	450.5167970333059	0.6083188715019787	n/a	n/a	n/a	n/a
431.44873046875	0.2	883607	345	38	3	0	1	59	375	stimuli\Targets_short_600ms_horvertflip\finger-tap_short_vertflip_short_600ms.mp4	finger-tap_short_vertflip_short_600ms.mp4	450.7084571068626	451.3167742188998	0.6083171120371844	n/a	n/a	n/a	n/a
432.24853515625	0.2	885245	346	38	3	0	0	60	29	stimuli\Videos_short_600ms\36.single_slap_with_full_hand_short_short_600ms.mp4	36.single_slap_with_full_hand_short_short_600ms.mp4	451.50843898436506	452.1167478855623	0.6083089011972334	n/a	n/a	n/a	n/a
433.048828125	0.2	886884	347	38	3	0	0	61	5	stimuli\Videos_short_600ms\14.repeated_touch_with_pencil_short_short_600ms.mp4	14.repeated_touch_with_pencil_short_short_600ms.mp4	452.3084226213341	452.9167426658132	0.6083200444791146	n/a	n/a	n/a	n/a
433.8486328125	0.2	888522	348	38	3	0	0	62	218	stimuli\Videos_short_600ms_horvertflip\44.pushing_top_to_bottom_with_finger_short_horvertflip_short_600ms.mp4	44.pushing_top_to_bottom_with_finger_short_horvertflip_short_600ms.mp4	453.1084006866604	453.7167216108737	0.6083209242133307	n/a	n/a	n/a	n/a
434.64892578125	0.2	890161	349	38	3	0	0	63	35	stimuli\Videos_short_600ms\41.injection_with_blunt_syringe_short_short_600ms.mp4	41.injection_with_blunt_syringe_short_short_600ms.mp4	453.9083805114533	454.5167014356648	0.6083209242115117	n/a	n/a	n/a	n/a
435.44873046875	0.2	891799	350	38	3	0	0	64	54	stimuli\Videos_short_600ms\59.single_push_with_long_side_pencil_short_short_600ms.mp4	59.single_push_with_long_side_pencil_short_short_600ms.mp4	454.7083623889557	455.3166838996567	0.6083215107009892	n/a	n/a	n/a	n/a
436.24853515625	0.2	893437	351	38	3	0	0	65	240	stimuli\Videos_short_600ms_horvertflip\64.repeated_touch_with_screwdriver_short_horvertflip_short_600ms.mp4	64.repeated_touch_with_screwdriver_short_horvertflip_short_600ms.mp4	455.5083428002363	456.1166631379602	0.6083203377238533	n/a	n/a	n/a	n/a
437.048828125	0.2	895076	352	38	3	0	0	66	311	stimuli\Videos_short_600ms_vertflip\47.(long)scratching_with_finger_nails_short_vertflip_short_600ms.mp4	47.(long)scratching_with_finger_nails_short_vertflip_short_600ms.mp4	456.30832409125105	456.91664208302063	0.6083179917695816	n/a	n/a	n/a	n/a
437.8486328125	0.2	896714	353	38	3	0	0	67	314	stimuli\Videos_short_600ms_vertflip\5.repeated_tap_with_finger_moving_from_top_to_bottom_short_vertflip_short_600ms.mp4	5.repeated_tap_with_finger_moving_from_top_to_bottom_short_vertflip_short_600ms.mp4	457.10830420928687	457.716629532164	0.6083253228771355	n/a	n/a	n/a	n/a
438.6484375	0.2	898352	354	38	3	0	1	68	380	stimuli\Targets_short_600ms_vertflip\chopstickwood-tap_short_horvertflip_short_600ms.mp4	chopstickwood-tap_short_horvertflip_short_600ms.mp4	457.9082893124778	458.5166073042455	0.6083179917677626	n/a	n/a	n/a	n/a
439.44873046875	0.2	899991	355	38	3	0	0	69	266	stimuli\Videos_short_600ms_horvertflip\88.repeated_stroke_with_plastic_brush_short_horvertflip_short_600ms.mp4	88.repeated_stroke_with_plastic_brush_short_horvertflip_short_600ms.mp4	458.70826473860507	459.3165874222832	0.608322683678125	n/a	n/a	n/a	n/a
440.24853515625	0.2	901629	356	38	3	0	0	70	280	stimuli\Videos_short_600ms_vertflip\19.single_touch_with_rolling_pin_short_vertflip_short_600ms.mp4	19.single_touch_with_rolling_pin_short_vertflip_short_600ms.mp4	459.5082466161075	460.1165681268085	0.6083215107009892	n/a	n/a	n/a	n/a
441.04833984375	0.2	903267	357	38	3	0	0	71	96	stimuli\Videos_short_600ms_horflip\15.single_stroke_top_to_bottom_with_a_plastic_whisk_short_horflip_short_600ms.mp4	15.single_stroke_top_to_bottom_with_a_plastic_whisk_short_horflip_short_600ms.mp4	460.30822790712045	460.9165470718672	0.6083191647467174	n/a	n/a	n/a	n/a
441.8486328125	0.2	904906	358	38	3	0	0	72	237	stimuli\Videos_short_600ms_horvertflip\61.single_hit_with_rolling_pin_short_horvertflip_short_600ms.mp4	61.single_hit_with_rolling_pin_short_horvertflip_short_600ms.mp4	461.10818808454496	461.71653100208096	0.6083429175359925	n/a	n/a	n/a	n/a
