onset	duration	onsetsample	eventnumber	subjectnr	sequencenumber	blocksequencenumber	istarget	presentationnumber	stimnumber	stim	stimname	time_stimon	time_stimoff	stimdur	cresp	resp	rt	correct
26.47216796875	0.2	54215	0	79	0	0	0	0	297	stimuli\Videos_short_600ms_vertflip\34.repeated_punch_with_hand_short_vertflip_short_600ms.mp4	34.repeated_punch_with_hand_short_vertflip_short_600ms.mp4	66.48303767876678	67.09137633694081	0.6083386581740342	n/a	n/a	n/a	n/a
27.2724609375	0.2	55854	1	79	0	0	0	1	232	stimuli\Videos_short_600ms_horvertflip\57.single_touch_with_nail_file_short_horvertflip_short_600ms.mp4	57.single_touch_with_nail_file_short_horvertflip_short_600ms.mp4	67.28327385834564	67.89135710006485	0.6080832417192141	n/a	n/a	n/a	n/a
28.072265625	0.2	57492	2	79	0	0	0	2	185	stimuli\Videos_short_600ms_horvertflip\14.repeated_touch_with_pencil_short_horvertflip_short_600ms.mp4	14.repeated_touch_with_pencil_short_horvertflip_short_600ms.mp4	68.08302471733441	68.69133962265914	0.6083149053247325	n/a	n/a	n/a	n/a
28.87255859375	0.2	59131	3	79	0	0	0	3	330	stimuli\Videos_short_600ms_vertflip\64.repeated_touch_with_screwdriver_short_vertflip_short_600ms.mp4	64.repeated_touch_with_screwdriver_short_vertflip_short_600ms.mp4	68.88298202085207	69.49132449121316	0.6083424703610945	n/a	n/a	n/a	n/a
29.67236328125	0.2	60769	4	79	0	0	0	4	346	stimuli\Videos_short_600ms_vertflip\79.long_with_soft_brush_all_over_the_hand_short_vertflip_short_600ms.mp4	79.long_with_soft_brush_all_over_the_hand_short_vertflip_short_600ms.mp4	69.68295867854431	70.29130848003115	0.6083498014868383	n/a	n/a	n/a	n/a
30.47216796875	0.2	62407	5	79	0	0	0	5	282	stimuli\Videos_short_600ms_vertflip\20.single_touch_with_screwdriver_short_vertflip_short_600ms.mp4	20.single_touch_with_screwdriver_short_vertflip_short_600ms.mp4	70.48292976458106	71.09128836341915	0.6083585988380946	n/a	n/a	n/a	n/a
31.2724609375	0.2	64046	6	79	0	0	0	6	328	stimuli\Videos_short_600ms_vertflip\62.touch_top_to_bottom_with_scissors_short_vertflip_short_600ms.mp4	62.touch_top_to_bottom_with_scissors_short_vertflip_short_600ms.mp4	71.28291199392879	71.89127440495395	0.6083624110251549	n/a	n/a	n/a	n/a
32.072265625	0.2	65684	7	79	0	0	0	7	341	stimuli\Videos_short_600ms_vertflip\74.fingers_walking_from_top_to_bottom_short_vertflip_short_600ms.mp4	74.fingers_walking_from_top_to_bottom_short_vertflip_short_600ms.mp4	72.08289393003179	72.69125546132273	0.6083615312909387	n/a	n/a	n/a	n/a
32.8720703125	0.2	67322	8	79	0	0	0	8	226	stimuli\Videos_short_600ms_horvertflip\51.repeated_touch_with_hammer_short_horvertflip_short_600ms.mp4	51.repeated_touch_with_hammer_short_horvertflip_short_600ms.mp4	72.88290753660294	73.49123886365123	0.6083313270482904	n/a	n/a	n/a	n/a
33.67236328125	0.2	68961	9	79	0	0	0	9	166	stimuli\Videos_short_600ms_horflip\79.long_with_soft_brush_all_over_the_hand_short_horflip_short_600ms.mp4	79.long_with_soft_brush_all_over_the_hand_short_horflip_short_600ms.mp4	73.68289064568853	74.29121786730502	0.6083272216164914	n/a	n/a	n/a	n/a
34.47216796875	0.2	70599	10	79	0	0	0	10	53	stimuli\Videos_short_600ms\58.single_slap_with_pencil_short_short_600ms.mp4	58.single_slap_with_pencil_short_short_600ms.mp4	74.48290718470889	75.09118484790997	0.6082776632010791	n/a	n/a	n/a	n/a
35.27197265625	0.2	72237	11	79	0	0	0	11	205	stimuli\Videos_short_600ms_horvertflip\32.single_(long)pinch_with_fingers_short_horvertflip_short_600ms.mp4	32.single_(long)pinch_with_fingers_short_horvertflip_short_600ms.mp4	75.28287856399038	75.89116737050426	0.6082888065138832	n/a	n/a	n/a	n/a
36.072265625	0.2	73876	12	79	0	0	0	12	118	stimuli\Videos_short_600ms_horflip\35.single_punch_with_hand_short_horflip_short_600ms.mp4	35.single_punch_with_hand_short_horflip_short_600ms.mp4	76.08286020684864	76.69115077283277	0.6082905659841344	n/a	n/a	n/a	n/a
36.8720703125	0.2	75514	13	79	0	0	0	13	268	stimuli\Videos_short_600ms_horvertflip\9.single_touch_with_hammer_short_horvertflip_short_600ms.mp4	9.single_touch_with_hammer_short_horvertflip_short_600ms.mp4	76.88285211328548	77.49111218178223	0.6082600684967474	n/a	n/a	n/a	n/a
37.671875	0.2	77152	14	79	0	0	0	14	167	stimuli\Videos_short_600ms_horflip\8.single_touch_with_hairbrush_short_horflip_short_600ms.mp4	8.single_touch_with_hairbrush_short_horflip_short_600ms.mp4	77.68282407905645	78.29112402888313	0.6082999498266872	n/a	n/a	n/a	n/a
38.47216796875	0.2	78791	15	79	0	0	0	15	12	stimuli\Videos_short_600ms\20.single_touch_with_screwdriver_short_short_600ms.mp4	20.single_touch_with_screwdriver_short_short_600ms.mp4	78.48275411078248	79.09110039333063	0.6083462825481547	n/a	n/a	n/a	n/a
39.27197265625	0.2	80429	16	79	0	0	0	16	331	stimuli\Videos_short_600ms_vertflip\65.stroke_top_to_bottom_with_stanley_knife_short_vertflip_short_600ms.mp4	65.stroke_top_to_bottom_with_stanley_knife_short_vertflip_short_600ms.mp4	79.28278325934298	79.89111194718498	0.608328687842004	n/a	n/a	n/a	n/a
40.07177734375	0.2	82067	17	79	0	0	0	17	223	stimuli\Videos_short_600ms_horvertflip\49.repeated_slap_with_hand_short_horvertflip_short_600ms.mp4	49.repeated_slap_with_hand_short_horvertflip_short_600ms.mp4	80.08276783465226	80.69108596567276	0.6083181310204964	n/a	n/a	n/a	n/a
40.8720703125	0.2	83706	18	79	0	0	0	18	175	stimuli\Videos_short_600ms_horflip\87.single_stroke_top_to_bottom_with_plastic_brush_short_horflip_short_600ms.mp4	87.single_stroke_top_to_bottom_with_plastic_brush_short_horflip_short_600ms.mp4	80.88275416943179	81.4910702477373	0.6083160783055064	n/a	n/a	n/a	n/a
41.671875	0.2	85344	19	79	0	0	0	19	98	stimuli\Videos_short_600ms_horflip\17.repeated_touch_with_rolling_pin_short_horflip_short_600ms.mp4	17.repeated_touch_with_rolling_pin_short_horflip_short_600ms.mp4	81.6827346393111	82.29105071761478	0.6083160783036874	n/a	n/a	n/a	n/a
42.4716796875	0.2	86982	20	79	0	0	0	20	207	stimuli\Videos_short_600ms_horvertflip\34.repeated_punch_with_hand_short_horvertflip_short_600ms.mp4	34.repeated_punch_with_hand_short_horvertflip_short_600ms.mp4	82.48272273356088	83.09103499967932	0.6083122661184461	n/a	n/a	n/a	n/a
43.27197265625	0.2	88621	21	79	0	0	0	21	356	stimuli\Videos_short_600ms_vertflip\88.repeated_stroke_with_plastic_brush_short_vertflip_short_600ms.mp4	88.repeated_stroke_with_plastic_brush_short_vertflip_short_600ms.mp4	83.28270291019362	83.89101781551835	0.6083149053247325	n/a	n/a	n/a	n/a
44.07177734375	0.2	90259	22	79	0	0	0	22	8	stimuli\Videos_short_600ms\17.repeated_touch_with_rolling_pin_short_short_600ms.mp4	17.repeated_touch_with_rolling_pin_short_short_600ms.mp4	84.08269217742418	84.69096133651692	0.6082691590927425	n/a	n/a	n/a	n/a
44.87158203125	0.2	91897	23	79	0	0	0	23	337	stimuli\Videos_short_600ms_vertflip\70.(long)stroke_with_finger_all_over_the_hand_short_vertflip_short_600ms.mp4	70.(long)stroke_with_finger_all_over_the_hand_short_vertflip_short_600ms.mp4	84.8826700080972	85.49098374044115	0.6083137323439587	n/a	n/a	n/a	n/a
45.671875	0.2	93536	24	79	0	0	0	24	342	stimuli\Videos_short_600ms_vertflip\75.(long)stroke_with_fingers_all_over_the_hand_short_vertflip_short_600ms.mp4	75.(long)stroke_with_fingers_all_over_the_hand_short_vertflip_short_600ms.mp4	85.68264666578943	86.29096626303544	0.6083195972460089	n/a	n/a	n/a	n/a
46.4716796875	0.2	95174	25	79	0	0	0	25	179	stimuli\Videos_short_600ms_horflip\90.repeated_touch_with_sponge_short_horflip_short_600ms.mp4	90.repeated_touch_with_sponge_short_horflip_short_600ms.mp4	86.48258842731775	87.09094966536395	0.6083612380462	n/a	n/a	n/a	n/a
47.271484375	0.2	96812	26	79	0	0	0	26	289	stimuli\Videos_short_600ms_vertflip\27.single_push_with_a_plastic_whisk_short_vertflip_short_600ms.mp4	27.single_push_with_a_plastic_whisk_short_vertflip_short_600ms.mp4	87.28259265004635	87.8909313082222	0.6083386581758532	n/a	n/a	n/a	n/a
48.07177734375	0.2	98451	27	79	0	0	0	27	284	stimuli\Videos_short_600ms_vertflip\22.single_touch_with_metal_chopstick_short_vertflip_short_600ms.mp4	22.single_touch_with_metal_chopstick_short_vertflip_short_600ms.mp4	88.08258514297268	88.69091588353149	0.608330740558813	n/a	n/a	n/a	n/a
48.87158203125	0.2	100089	28	79	0	0	0	28	326	stimuli\Videos_short_600ms_vertflip\60.single_push_with_tip_of_pencil_short_vertflip_short_600ms.mp4	60.single_push_with_tip_of_pencil_short_vertflip_short_600ms.mp4	88.88257118450747	89.49088843579375	0.6083172512862802	n/a	n/a	n/a	n/a
49.671875	0.2	101728	29	79	0	0	0	29	97	stimuli\Videos_short_600ms_horflip\16.repeated_touch_with_plastic_brush_short_horflip_short_600ms.mp4	16.repeated_touch_with_plastic_brush_short_horflip_short_600ms.mp4	89.68256455716983	90.29089471123734	0.6083301540675166	n/a	n/a	n/a	n/a
50.4716796875	0.2	103366	30	79	0	0	0	30	357	stimuli\Videos_short_600ms_vertflip\89.single_touch_with_plastic_brush_short_vertflip_short_600ms.mp4	89.single_touch_with_plastic_brush_short_vertflip_short_600ms.mp4	90.4825588095664	91.0908458566082	0.6082870470418129	n/a	n/a	n/a	n/a
51.271484375	0.2	105004	31	79	0	0	0	31	329	stimuli\Videos_short_600ms_vertflip\63.stroke_top_to_bottom_with_screwdriver_short_vertflip_short_600ms.mp4	63.stroke_top_to_bottom_with_screwdriver_short_vertflip_short_600ms.mp4	91.2825337077884	91.89082720622172	0.6082934984333406	n/a	n/a	n/a	n/a
52.07177734375	0.2	106643	32	79	0	0	0	32	62	stimuli\Videos_short_600ms\66.stroke_top_to_bottom_with_sponge_short_short_600ms.mp4	66.stroke_top_to_bottom_with_sponge_short_short_600ms.mp4	92.08249892892309	92.69081207477576	0.6083131458526623	n/a	n/a	n/a	n/a
52.87158203125	0.2	108281	33	79	0	0	0	33	23	stimuli\Videos_short_600ms\30.finger_pulling_back_another_finger_short_short_600ms.mp4	30.finger_pulling_back_another_finger_short_short_600ms.mp4	92.88249816648568	93.49080427445732	0.6083061079716572	n/a	n/a	n/a	n/a
53.67138671875	0.2	109919	34	79	0	0	0	34	94	stimuli\Videos_short_600ms_horflip\13.single_touch_with_pen_short_horflip_short_600ms.mp4	13.single_touch_with_pen_short_horflip_short_600ms.mp4	93.68248010258868	94.29078621056216	0.6083061079734762	n/a	n/a	n/a	n/a
54.4716796875	0.2	111558	35	79	0	0	0	35	78	stimuli\Videos_short_600ms\80.stroke_with_sharp_stick_all_over_the_hand_short_short_600ms.mp4	80.stroke_with_sharp_stick_all_over_the_hand_short_short_600ms.mp4	94.48246115895743	95.09075201818632	0.6082908592288732	n/a	n/a	n/a	n/a
55.271484375	0.2	113196	36	79	0	0	0	36	16	stimuli\Videos_short_600ms\24.single_stroke_top_to_bottom_with_a_spoon_short_short_600ms.mp4	24.single_stroke_top_to_bottom_with_a_spoon_short_short_600ms.mp4	95.28246332897106	95.89077119641296	0.6083078674419085	n/a	n/a	n/a	n/a
56.0712890625	0.2	114834	37	79	0	0	0	37	176	stimuli\Videos_short_600ms_horflip\88.repeated_stroke_with_plastic_brush_short_horflip_short_600ms.mp4	88.repeated_stroke_with_plastic_brush_short_horflip_short_600ms.mp4	96.0823948269226	96.6907088525113	0.6083140255886974	n/a	n/a	n/a	n/a
56.87158203125	0.2	116473	38	79	0	0	0	38	123	stimuli\Videos_short_600ms_horflip\4.repeated_tap_with_finger_slow_short_horflip_short_600ms.mp4	4.repeated_tap_with_finger_slow_short_horflip_short_600ms.mp4	96.88239230501496	97.49075266332513	0.6083603583101649	n/a	n/a	n/a	n/a
57.67138671875	0.2	118111	39	79	0	0	0	39	138	stimuli\Videos_short_600ms_horflip\53.touch_top_to_bottom_with_knife_short_horflip_short_600ms.mp4	53.touch_top_to_bottom_with_knife_short_horflip_short_600ms.mp4	97.6823739478732	98.29071348578329	0.6083395379100693	n/a	n/a	n/a	n/a
58.47119140625	0.2	119749	40	79	0	0	0	40	26	stimuli\Videos_short_600ms\33.scratch_top_to_bottom_with_scissors_short_short_600ms.mp4	33.scratch_top_to_bottom_with_scissors_short_short_600ms.mp4	98.4823802233186	99.09069659486704	0.6083163715484261	n/a	n/a	n/a	n/a
59.271484375	0.2	121388	41	79	0	0	0	41	76	stimuli\Videos_short_600ms\79.long_with_soft_brush_all_over_the_hand_short_short_600ms.mp4	79.long_with_soft_brush_all_over_the_hand_short_short_600ms.mp4	99.28234837690434	99.89067999719737	0.6083316202930291	n/a	n/a	n/a	n/a
60.0712890625	0.2	123026	42	79	0	0	0	42	215	stimuli\Videos_short_600ms_horvertflip\41.injection_with_blunt_syringe_short_horvertflip_short_600ms.mp4	41.injection_with_blunt_syringe_short_horvertflip_short_600ms.mp4	100.08234702797564	100.69066251978984	0.60831549181421	n/a	n/a	n/a	n/a
60.87109375	0.2	124664	43	79	0	0	0	43	70	stimuli\Videos_short_600ms\73.single_stroke_with_flat_hand_short_short_600ms.mp4	73.single_stroke_with_flat_hand_short_short_600ms.mp4	100.8823093166593	101.4906462153649	0.6083368987056019	n/a	n/a	n/a	n/a
61.67138671875	0.2	126303	44	79	0	0	1	44	362	stimuli\Targets_short_600ms\chopstickwood-tap_short_short_600ms.mp4	chopstickwood-tap_short_short_600ms.mp4	101.68230122309616	102.2906322568997	0.6083310338035517	n/a	n/a	n/a	n/a
62.47119140625	0.2	127941	45	79	0	0	0	45	92	stimuli\Videos_short_600ms_horflip\11.single_touch_with_lighter_short_horflip_short_600ms.mp4	11.single_touch_with_lighter_short_horflip_short_600ms.mp4	102.48225324820304	103.09060129021964	0.608348042016587	n/a	n/a	n/a	n/a
63.27099609375	0.2	129579	46	79	0	0	0	46	151	stimuli\Videos_short_600ms_horflip\65.stroke_top_to_bottom_with_stanley_knife_short_horflip_short_600ms.mp4	65.stroke_top_to_bottom_with_stanley_knife_short_horflip_short_600ms.mp4	103.28225864391244	103.89059847506724	0.608339831154808	n/a	n/a	n/a	n/a
64.0712890625	0.2	131218	47	79	0	0	0	47	243	stimuli\Videos_short_600ms_horvertflip\67.single_touch_with_sponge_short_horvertflip_short_600ms.mp4	67.single_touch_with_sponge_short_horvertflip_short_600ms.mp4	104.08224321922172	104.69055900428066	0.6083157850589487	n/a	n/a	n/a	n/a
64.87109375	0.2	132856	48	79	0	0	0	48	129	stimuli\Videos_short_600ms_horflip\45.scratching_with_finger_nails_short_horflip_short_600ms.mp4	45.scratching_with_finger_nails_short_horflip_short_600ms.mp4	104.88223659188225	105.49056439999003	0.6083278081077879	n/a	n/a	n/a	n/a
65.6708984375	0.2	134494	49	79	0	0	0	49	208	stimuli\Videos_short_600ms_horvertflip\35.single_punch_with_hand_short_horvertflip_short_600ms.mp4	35.single_punch_with_hand_short_horvertflip_short_600ms.mp4	105.68224022812136	106.2905551334461	0.6083149053247325	n/a	n/a	n/a	n/a
66.47119140625	0.2	136133	50	79	0	0	0	50	43	stimuli\Videos_short_600ms\49.repeated_slap_with_hand_short_short_600ms.mp4	49.repeated_slap_with_hand_short_short_600ms.mp4	106.48221659256888	107.09050803828724	0.6082914457183506	n/a	n/a	n/a	n/a
67.27099609375	0.2	137771	51	79	0	0	0	51	310	stimuli\Videos_short_600ms_vertflip\46.scratching_top_to_bottom_with_finger_nails_short_vertflip_short_600ms.mp4	46.scratching_top_to_bottom_with_finger_nails_short_vertflip_short_600ms.mp4	107.28220028814212	107.89047120670692	0.6082709185648127	n/a	n/a	n/a	n/a
68.07080078125	0.2	139409	52	79	0	0	0	52	86	stimuli\Videos_short_600ms\88.repeated_stroke_with_plastic_brush_short_short_600ms.mp4	88.repeated_stroke_with_plastic_brush_short_short_600ms.mp4	108.08223618133889	108.69048158758233	0.6082454062434408	n/a	n/a	n/a	n/a
68.87109375	0.2	141048	53	79	0	0	0	53	358	stimuli\Videos_short_600ms_vertflip\9.single_touch_with_hammer_short_vertflip_short_600ms.mp4	9.single_touch_with_hammer_short_vertflip_short_600ms.mp4	108.88216591982018	109.49046147097032	0.6082955511501495	n/a	n/a	n/a	n/a
69.6708984375	0.2	142686	54	79	0	0	0	54	263	stimuli\Videos_short_600ms_horvertflip\85.touch_top_to_bottom_with_fabric_short_horvertflip_short_600ms.mp4	85.touch_top_to_bottom_with_fabric_short_horvertflip_short_600ms.mp4	109.6821437504932	110.29046979913072	0.6083260486375366	n/a	n/a	n/a	n/a
70.47119140625	0.2	144325	55	79	0	0	0	55	325	stimuli\Videos_short_600ms_vertflip\6.single_touch_with_flat_hand_short_vertflip_short_600ms.mp4	6.single_touch_with_flat_hand_short_vertflip_short_600ms.mp4	110.4821028134811	111.09045701364448	0.6083542001633759	n/a	n/a	n/a	n/a
71.27099609375	0.2	145963	56	79	0	0	0	56	143	stimuli\Videos_short_600ms_horflip\58.single_slap_with_pencil_short_horflip_short_600ms.mp4	58.single_slap_with_pencil_short_horflip_short_600ms.mp4	111.2820888550159	111.890431325377	0.6083424703610945	n/a	n/a	n/a	n/a
72.07080078125	0.2	147601	57	79	0	0	0	57	189	stimuli\Videos_short_600ms_horvertflip\18.single_stroke_from_top_to_bottom_with_rolling_pin_short_horvertflip_short_600ms.mp4	18.single_stroke_from_top_to_bottom_with_rolling_pin_short_horvertflip_short_600ms.mp4	112.08206991138468	112.69041150200974	0.6083415906250593	n/a	n/a	n/a	n/a
72.87109375	0.2	149240	58	79	0	0	0	58	1	stimuli\Videos_short_600ms\10.single_touch_with_knife_short_short_600ms.mp4	10.single_touch_with_knife_short_short_600ms.mp4	112.88207648007484	113.49039783678928	0.6083213567144412	n/a	n/a	n/a	n/a
73.6708984375	0.2	150878	59	79	0	0	0	59	273	stimuli\Videos_short_600ms_vertflip\12.repeated_touch_with_nail_file_short_vertflip_short_600ms.mp4	12.repeated_touch_with_nail_file_short_vertflip_short_600ms.mp4	113.68204258094374	114.29037772017728	0.6083351392335317	n/a	n/a	n/a	n/a
74.470703125	0.2	152516	60	79	0	0	0	60	319	stimuli\Videos_short_600ms_vertflip\54.repeated_touch_with_knife_short_vertflip_short_600ms.mp4	54.repeated_touch_with_knife_short_vertflip_short_600ms.mp4	114.48218990726672	115.09035936303736	0.6081694557706214	n/a	n/a	n/a	n/a
75.27099609375	0.2	154155	61	79	0	0	0	61	140	stimuli\Videos_short_600ms_horflip\55.touch_top_to_bottom_with_nail_file_short_horflip_short_600ms.mp4	55.touch_top_to_bottom_with_nail_file_short_horflip_short_600ms.mp4	115.28203431143264	115.8903430586106	0.6083087471779436	n/a	n/a	n/a	n/a
76.07080078125	0.2	155793	62	79	0	0	0	62	159	stimuli\Videos_short_600ms_horflip\72.(short)stroke_with_finger_all_over_the_hand_short_horflip_short_600ms.mp4	72.(short)stroke_with_finger_all_over_the_hand_short_horflip_short_600ms.mp4	116.08201830025246	116.69032616769437	0.6083078674419085	n/a	n/a	n/a	n/a
76.87890625	0.2	157448	63	79	0	0	0	63	299	stimuli\Videos_short_600ms_vertflip\36.single_slap_with_full_hand_short_vertflip_short_600ms.mp4	36.single_slap_with_full_hand_short_vertflip_short_600ms.mp4	116.89034393834665	117.49865092605432	0.6083069877076923	n/a	n/a	n/a	n/a
77.67919921875	0.2	159087	64	79	0	0	0	64	253	stimuli\Videos_short_600ms_horvertflip\76.tickle_with_fingers_from_top_to_bottom_short_horvertflip_short_600ms.mp4	76.tickle_with_fingers_from_top_to_bottom_short_horvertflip_short_600ms.mp4	117.69030915948132	118.29863080944232	0.6083216499609989	n/a	n/a	n/a	n/a
78.47900390625	0.2	160725	65	79	0	0	0	65	277	stimuli\Videos_short_600ms_vertflip\16.repeated_touch_with_plastic_brush_short_vertflip_short_600ms.mp4	16.repeated_touch_with_plastic_brush_short_vertflip_short_600ms.mp4	118.49026763597794	119.0986124523006	0.6083448163226421	n/a	n/a	n/a	n/a
79.27880859375	0.2	162363	66	79	0	0	1	66	381	stimuli\Targets_short_600ms_vertflip\finger-tap_short_horvertflip_short_600ms.mp4	finger-tap_short_horvertflip_short_600ms.mp4	119.29025367751274	119.89859996006088	0.6083462825481547	n/a	n/a	n/a	n/a
80.0791015625	0.2	164002	67	79	0	0	0	67	115	stimuli\Videos_short_600ms_horflip\32.single_(long)pinch_with_fingers_short_horflip_short_600ms.mp4	32.single_(long)pinch_with_fingers_short_horflip_short_600ms.mp4	120.09024059878357	120.69858072318311	0.6083401243995468	n/a	n/a	n/a	n/a
80.87890625	0.2	165640	68	79	0	0	0	68	230	stimuli\Videos_short_600ms_horvertflip\55.touch_top_to_bottom_with_nail_file_short_horvertflip_short_600ms.mp4	55.touch_top_to_bottom_with_nail_file_short_horvertflip_short_600ms.mp4	120.89024540800165	121.49856031332638	0.6083149053247325	n/a	n/a	n/a	n/a
81.6787109375	0.2	167278	69	79	0	0	1	69	367	stimuli\Targets_short_600ms_horflip\chopstick-silver-tap_short_horflip_short_600ms.mp4	chopstick-silver-tap_short_horflip_short_600ms.mp4	121.69020359125534	122.29854958055694	0.608345989301597	n/a	n/a	n/a	n/a
82.47900390625	0.2	168917	70	79	0	0	0	70	105	stimuli\Videos_short_600ms_horflip\23.single_push_with_a_spoon_short_horflip_short_600ms.mp4	23.single_push_with_a_spoon_short_horflip_short_600ms.mp4	122.49018288815388	123.09853093017044	0.608348042016587	n/a	n/a	n/a	n/a
83.27880859375	0.2	170555	71	79	0	0	0	71	37	stimuli\Videos_short_600ms\43.touch_top_to_bottom_with_sharp_wooden_stick_short_short_600ms.mp4	43.touch_top_to_bottom_with_sharp_wooden_stick_short_short_600ms.mp4	123.2901727418739	123.8985111068032	0.6083383649292955	n/a	n/a	n/a	n/a
84.07861328125	0.2	172193	72	79	0	0	0	72	296	stimuli\Videos_short_600ms_vertflip\33.scratch_top_to_bottom_with_scissors_short_vertflip_short_600ms.mp4	33.scratch_top_to_bottom_with_scissors_short_vertflip_short_600ms.mp4	124.09020247692388	124.69849832131877	0.6082958443948883	n/a	n/a	n/a	n/a
84.87890625	0.2	173832	73	79	0	0	0	73	58	stimuli\Videos_short_600ms\62.touch_top_to_bottom_with_scissors_short_short_600ms.mp4	62.touch_top_to_bottom_with_scissors_short_short_600ms.mp4	124.89015039659898	125.49845415861093	0.6083037620119285	n/a	n/a	n/a	n/a
85.6787109375	0.2	175470	74	79	0	0	0	74	54	stimuli\Videos_short_600ms\59.single_push_with_long_side_pencil_short_short_600ms.mp4	59.single_push_with_long_side_pencil_short_short_600ms.mp4	125.69014523548684	126.29842319193268	0.6082779564458178	n/a	n/a	n/a	n/a
86.47900390625	0.2	177109	75	79	0	0	0	75	333	stimuli\Videos_short_600ms_vertflip\67.single_touch_with_sponge_short_vertflip_short_600ms.mp4	67.single_touch_with_sponge_short_vertflip_short_600ms.mp4	126.4901324500006	127.09842653492524	0.608294084924637	n/a	n/a	n/a	n/a
87.27880859375	0.2	178747	76	79	0	0	0	76	276	stimuli\Videos_short_600ms_vertflip\15.single_stroke_top_to_bottom_with_a_plastic_whisk_short_vertflip_short_600ms.mp4	15.single_stroke_top_to_bottom_with_a_plastic_whisk_short_vertflip_short_600ms.mp4	127.29009473868427	127.89838325195342	0.6082885132691445	n/a	n/a	n/a	n/a
88.07861328125	0.2	180385	77	79	0	0	0	77	219	stimuli\Videos_short_600ms_horvertflip\45.scratching_with_finger_nails_short_horvertflip_short_600ms.mp4	45.scratching_with_finger_nails_short_horvertflip_short_600ms.mp4	128.09009192353187	128.69838747468202	0.6082955511501495	n/a	n/a	n/a	n/a
88.87890625	0.2	182024	78	79	0	0	0	78	60	stimuli\Videos_short_600ms\64.repeated_touch_with_screwdriver_short_short_600ms.mp4	64.repeated_touch_with_screwdriver_short_short_600ms.mp4	128.8900738596367	129.4983817270786	0.6083078674419085	n/a	n/a	n/a	n/a
89.6787109375	0.2	183662	79	79	0	0	0	79	14	stimuli\Videos_short_600ms\22.single_touch_with_metal_chopstick_short_short_600ms.mp4	22.single_touch_with_metal_chopstick_short_short_600ms.mp4	129.6900587281907	130.29835838477084	0.6082996565801295	n/a	n/a	n/a	n/a
90.478515625	0.2	185300	80	79	0	0	0	80	156	stimuli\Videos_short_600ms_horflip\7.repeated_touch_with_hairbrush_short_horflip_short_600ms.mp4	7.repeated_touch_with_hairbrush_short_horflip_short_600ms.mp4	130.49004359674473	131.0983233126608	0.6082797159160691	n/a	n/a	n/a	n/a
91.27880859375	0.2	186939	81	79	0	0	0	81	146	stimuli\Videos_short_600ms_horflip\60.single_push_with_tip_of_pencil_short_horflip_short_600ms.mp4	60.single_push_with_tip_of_pencil_short_horflip_short_600ms.mp4	131.29002758556453	131.8983031960488	0.6082756104842701	n/a	n/a	n/a	n/a
92.07861328125	0.2	188577	82	79	0	0	0	82	99	stimuli\Videos_short_600ms_horflip\18.single_stroke_from_top_to_bottom_with_rolling_pin_short_horflip_short_600ms.mp4	18.single_stroke_from_top_to_bottom_with_rolling_pin_short_horflip_short_600ms.mp4	132.09000541623757	132.69833351759007	0.6083281013525266	n/a	n/a	n/a	n/a
92.87841796875	0.2	190215	83	79	0	0	1	83	373	stimuli\Targets_short_600ms_horvertflip\chopstick-silver-tap_short_vertflip_short_600ms.mp4	chopstick-silver-tap_short_vertflip_short_600ms.mp4	132.88997269008723	133.49830988203576	0.6083371919485216	n/a	n/a	n/a	n/a
93.6787109375	0.2	191854	84	79	0	0	0	84	224	stimuli\Videos_short_600ms_horvertflip\5.repeated_tap_with_finger_moving_from_top_to_bottom_short_horvertflip_short_600ms.mp4	5.repeated_tap_with_finger_moving_from_top_to_bottom_short_horvertflip_short_600ms.mp4	133.68995198698394	134.29829328436608	0.6083412973821396	n/a	n/a	n/a	n/a
94.478515625	0.2	193492	85	79	0	0	0	85	112	stimuli\Videos_short_600ms_horflip\3.single_push_with_finger_short_horflip_short_600ms.mp4	3.single_push_with_finger_short_horflip_short_600ms.mp4	134.48993362984402	135.09827639344985	0.6083427636058332	n/a	n/a	n/a	n/a
95.2783203125	0.2	195130	86	79	0	0	1	86	376	stimuli\Targets_short_600ms_horvertflip\hand-pinch_short_vertflip_short_600ms.mp4	hand-pinch_short_vertflip_short_600ms.mp4	135.28991791190856	135.89826243498464	0.6083445230760844	n/a	n/a	n/a	n/a
96.07861328125	0.2	196769	87	79	0	0	0	87	344	stimuli\Videos_short_600ms_vertflip\77.tapping_with_all_fingers_short_vertflip_short_600ms.mp4	77.tapping_with_all_fingers_short_vertflip_short_600ms.mp4	136.0899086453628	136.69824495757712	0.6083363122143055	n/a	n/a	n/a	n/a
96.87841796875	0.2	198407	88	79	0	0	0	88	327	stimuli\Videos_short_600ms_vertflip\61.single_hit_with_rolling_pin_short_vertflip_short_600ms.mp4	61.single_hit_with_rolling_pin_short_vertflip_short_600ms.mp4	136.88990876266143	137.4982160436139	0.608307280952431	n/a	n/a	n/a	n/a
97.67822265625	0.2	200045	89	79	0	0	0	89	31	stimuli\Videos_short_600ms\38.double_slap_with_pencil_short_short_600ms.mp4	38.double_slap_with_pencil_short_short_600ms.mp4	137.68987046485563	138.29821058925518	0.6083401243995468	n/a	n/a	n/a	n/a
98.478515625	0.2	201684	90	79	0	0	0	90	162	stimuli\Videos_short_600ms_horflip\75.(long)stroke_with_fingers_all_over_the_hand_short_horflip_short_600ms.mp4	75.(long)stroke_with_fingers_all_over_the_hand_short_horflip_short_600ms.mp4	138.4898509347331	139.09819575105575	0.6083448163226421	n/a	n/a	n/a	n/a
99.2783203125	0.2	203322	91	79	0	0	0	91	228	stimuli\Videos_short_600ms_horvertflip\53.touch_top_to_bottom_with_knife_short_horvertflip_short_600ms.mp4	53.touch_top_to_bottom_with_knife_short_horvertflip_short_600ms.mp4	139.28983492355292	139.89817651417798	0.6083415906250593	n/a	n/a	n/a	n/a
100.078125	0.2	204960	92	79	0	0	0	92	41	stimuli\Videos_short_600ms\47.(long)scratching_with_finger_nails_short_short_600ms.mp4	47.(long)scratching_with_finger_nails_short_short_600ms.mp4	140.08983034893026	140.698159330017	0.6083289810867427	n/a	n/a	n/a	n/a
100.87841796875	0.2	206599	93	79	0	0	0	93	303	stimuli\Videos_short_600ms_vertflip\4.repeated_tap_with_finger_slow_short_vertflip_short_600ms.mp4	4.repeated_tap_with_finger_slow_short_vertflip_short_600ms.mp4	140.88983545139308	141.49814067963052	0.608305228237441	n/a	n/a	n/a	n/a
101.67822265625	0.2	208237	94	79	0	0	0	94	120	stimuli\Videos_short_600ms_horflip\37.single_stab_with_nail_file_short_horflip_short_600ms.mp4	37.single_stab_with_nail_file_short_horflip_short_600ms.mp4	141.68981445504687	142.2981029683142	0.6082885132673255	5.0	5.0	2.687205160409576	1.0
137.685546875	0.2	281980	95	79	1	0	1	0	383	stimuli\Targets_short_600ms_vertflip\hand-stroke_short_horvertflip_short_600ms.mp4	hand-stroke_short_horvertflip_short_600ms.mp4	177.6974001185299	178.30568188716097	0.6082817686310591	n/a	n/a	n/a	n/a
138.4853515625	0.2	283618	96	79	1	0	0	1	71	stimuli\Videos_short_600ms\74.fingers_walking_from_top_to_bottom_short_short_600ms.mp4	74.fingers_walking_from_top_to_bottom_short_short_600ms.mp4	178.4973603544986	179.10567555306807	0.6083151985694712	n/a	n/a	n/a	n/a
139.28515625	0.2	285256	97	79	1	0	0	2	51	stimuli\Videos_short_600ms\56.repeated_touch_with_nail_file_short_short_600ms.mp4	56.repeated_touch_with_nail_file_short_short_600ms.mp4	179.29735226093362	179.90564839857507	0.608296137641446	n/a	n/a	n/a	n/a
140.08544921875	0.2	286895	98	79	1	0	0	3	244	stimuli\Videos_short_600ms_horvertflip\68.stroke_top_to_bottom_with_shawl_short_horvertflip_short_600ms.mp4	68.stroke_top_to_bottom_with_shawl_short_horvertflip_short_600ms.mp4	180.09733859571497	180.70564265097164	0.6083040552566672	n/a	n/a	n/a	n/a
140.88525390625	0.2	288533	99	79	1	0	0	4	351	stimuli\Videos_short_600ms_vertflip\83.single_stroke_top_to_bottom_with_cotton_bud_short_vertflip_short_600ms.mp4	83.single_stroke_top_to_bottom_with_cotton_bud_short_vertflip_short_600ms.mp4	180.89732053181797	181.5056201883981	0.6082996565801295	n/a	n/a	n/a	n/a
141.685546875	0.2	290172	100	79	1	0	0	5	258	stimuli\Videos_short_600ms_horvertflip\80.stroke_with_sharp_stick_all_over_the_hand_short_horvertflip_short_600ms.mp4	80.stroke_with_sharp_stick_all_over_the_hand_short_horvertflip_short_600ms.mp4	181.6973048138825	182.3056285165585	0.6083237026759889	n/a	n/a	n/a	n/a
142.4853515625	0.2	291810	101	79	1	0	0	6	336	stimuli\Videos_short_600ms_vertflip\7.repeated_touch_with_hairbrush_short_vertflip_short_600ms.mp4	7.repeated_touch_with_hairbrush_short_vertflip_short_600ms.mp4	182.4972943743578	183.10560634723151	0.6083119728737074	n/a	n/a	n/a	n/a
143.28515625	0.2	293448	102	79	1	0	0	7	242	stimuli\Videos_short_600ms_horvertflip\66.stroke_top_to_bottom_with_sponge_short_horvertflip_short_600ms.mp4	66.stroke_top_to_bottom_with_sponge_short_horvertflip_short_600ms.mp4	183.2972666333735	183.90558769684503	0.6083210634715215	n/a	n/a	n/a	n/a
144.08544921875	0.2	295087	103	79	1	0	0	8	181	stimuli\Videos_short_600ms_horvertflip\10.single_touch_with_knife_short_horvertflip_short_600ms.mp4	10.single_touch_with_knife_short_horvertflip_short_600ms.mp4	184.0972582465656	184.70557461811404	0.6083163715484261	n/a	n/a	n/a	n/a
144.88525390625	0.2	296725	104	79	1	0	0	9	293	stimuli\Videos_short_600ms_vertflip\30.finger_pulling_back_another_finger_short_vertflip_short_600ms.mp4	30.finger_pulling_back_another_finger_short_vertflip_short_600ms.mp4	184.89723578399207	185.5055527420318	0.6083169580397225	n/a	n/a	n/a	n/a
145.68505859375	0.2	298363	105	79	1	0	1	10	371	stimuli\Targets_short_600ms_horflip\hand-stroke_short_horflip_short_600ms.mp4	hand-stroke_short_horflip_short_600ms.mp4	185.69722094579265	186.30553849032185	0.6083175445292	n/a	n/a	n/a	n/a
146.4853515625	0.2	300002	106	79	1	0	0	11	0	stimuli\Videos_short_600ms\1.repeated_touch_with_finger_fast_short_short_600ms.mp4	1.repeated_touch_with_finger_fast_short_short_600ms.mp4	186.4971829412316	187.1055201331801	0.6083371919485216	n/a	n/a	n/a	n/a
147.28515625	0.2	301640	107	79	1	0	0	12	201	stimuli\Videos_short_600ms_horvertflip\29.single_pinch_with_tweezers_short_horvertflip_short_600ms.mp4	29.single_pinch_with_tweezers_short_horvertflip_short_600ms.mp4	187.29718012607736	187.90550500173413	0.6083248756567627	n/a	n/a	n/a	n/a
148.0849609375	0.2	303278	108	79	1	0	1	13	361	stimuli\Targets_short_600ms\chopstick-silver-tap_short_short_600ms.mp4	chopstick-silver-tap_short_short_600ms.mp4	188.0971406552908	188.7054866445942	0.608345989303416	n/a	n/a	n/a	n/a
148.88525390625	0.2	304917	109	79	1	0	0	14	52	stimuli\Videos_short_600ms\57.single_touch_with_nail_file_short_short_600ms.mp4	57.single_touch_with_nail_file_short_short_600ms.mp4	188.8971393063639	189.50547180639296	0.6083325000290642	n/a	n/a	n/a	n/a
149.68505859375	0.2	306555	110	79	1	0	0	15	173	stimuli\Videos_short_600ms_horflip\85.touch_top_to_bottom_with_fabric_short_horflip_short_600ms.mp4	85.touch_top_to_bottom_with_fabric_short_horflip_short_600ms.mp4	189.69711273836035	190.30545374249596	0.6083410041355819	n/a	n/a	n/a	n/a
150.48486328125	0.2	308193	111	79	1	0	0	16	122	stimuli\Videos_short_600ms_horflip\39.single_stab_with_scissors_short_horflip_short_600ms.mp4	39.single_stab_with_scissors_short_horflip_short_600ms.mp4	190.4970940879739	191.10543890429653	0.6083448163226421	n/a	n/a	n/a	n/a
151.28515625	0.2	309832	112	79	1	0	0	17	353	stimuli\Videos_short_600ms_vertflip\85.touch_top_to_bottom_with_fabric_short_vertflip_short_600ms.mp4	85.touch_top_to_bottom_with_fabric_short_vertflip_short_600ms.mp4	191.29708804712573	191.90540705788044	0.6083190107547125	n/a	n/a	n/a	n/a
152.0849609375	0.2	311470	113	79	1	0	0	18	30	stimuli\Videos_short_600ms\37.single_stab_with_nail_file_short_short_600ms.mp4	37.single_stab_with_nail_file_short_short_600ms.mp4	192.09707379541575	192.70541040087485	0.6083366054590442	n/a	n/a	n/a	n/a
152.884765625	0.2	313108	114	79	1	0	0	19	83	stimuli\Videos_short_600ms\85.touch_top_to_bottom_with_fabric_short_short_600ms.mp4	85.touch_top_to_bottom_with_fabric_short_short_600ms.mp4	192.89707420595911	193.5053427785624	0.6082685726032651	n/a	n/a	n/a	n/a
153.68505859375	0.2	314747	115	79	1	0	0	20	354	stimuli\Videos_short_600ms_vertflip\86.touch_top_to_bottom_with_hair_brush_short_vertflip_short_600ms.mp4	86.touch_top_to_bottom_with_hair_brush_short_vertflip_short_600ms.mp4	193.6970502771601	194.3053678216911	0.6083175445310189	n/a	n/a	n/a	n/a
154.48486328125	0.2	316385	116	79	1	0	0	21	288	stimuli\Videos_short_600ms_vertflip\26.single_touch_with_a_blunt_syringe_short_vertflip_short_600ms.mp4	26.single_touch_with_a_blunt_syringe_short_vertflip_short_600ms.mp4	194.49704306333297	195.10533362931528	0.6082905659823155	n/a	n/a	n/a	n/a
155.28466796875	0.2	318023	117	79	1	0	0	22	287	stimuli\Videos_short_600ms_vertflip\25.single_touch_with_stanley_knife_short_vertflip_short_600ms.mp4	25.single_touch_with_stanley_knife_short_vertflip_short_600ms.mp4	195.29702060075945	195.9053220168116	0.6083014160521998	n/a	n/a	n/a	n/a
156.0849609375	0.2	319662	118	79	1	0	0	23	239	stimuli\Videos_short_600ms_horvertflip\63.stroke_top_to_bottom_with_screwdriver_short_horvertflip_short_600ms.mp4	63.stroke_top_to_bottom_with_screwdriver_short_horvertflip_short_600ms.mp4	196.09700195037297	196.70530424615936	0.6083022957864159	n/a	n/a	n/a	n/a
156.884765625	0.2	321300	119	79	1	0	0	24	109	stimuli\Videos_short_600ms_horflip\27.single_push_with_a_plastic_whisk_short_horflip_short_600ms.mp4	27.single_push_with_a_plastic_whisk_short_horflip_short_600ms.mp4	196.8969891648885	197.5052876484879	0.6082984835993557	n/a	n/a	n/a	n/a
157.6845703125	0.2	322938	120	79	1	0	0	25	7	stimuli\Videos_short_600ms\16.repeated_touch_with_plastic_brush_short_short_600ms.mp4	16.repeated_touch_with_plastic_brush_short_short_600ms.mp4	197.69697608615752	198.30529568340353	0.6083195972460089	n/a	n/a	n/a	n/a
158.48486328125	0.2	324577	121	79	1	0	0	26	196	stimuli\Videos_short_600ms_horvertflip\24.single_stroke_top_to_bottom_with_a_spoon_short_horvertflip_short_600ms.mp4	24.single_stroke_top_to_bottom_with_a_spoon_short_horvertflip_short_600ms.mp4	198.496949518154	199.10526882215527	0.6083193040012702	n/a	n/a	n/a	n/a
159.28466796875	0.2	326215	122	79	1	0	0	27	349	stimuli\Videos_short_600ms_vertflip\81.single_stroke_top_to_bottom_with_cotton_pad_short_vertflip_short_600ms.mp4	81.single_stroke_top_to_bottom_with_cotton_pad_short_vertflip_short_600ms.mp4	199.29693438670984	199.9052516379943	0.6083172512844612	n/a	n/a	n/a	n/a
160.08447265625	0.2	327853	123	79	1	0	0	28	75	stimuli\Videos_short_600ms\78.single_stroke_top_to_bottom_with_soft_brush_short_short_600ms.mp4	78.single_stroke_top_to_bottom_with_soft_brush_short_short_600ms.mp4	200.09691485658732	200.70523533356751	0.6083204769802251	n/a	n/a	n/a	n/a
160.884765625	0.2	329492	124	79	1	0	0	29	306	stimuli\Videos_short_600ms_vertflip\42.single_slap_with_plastic_whisk_short_vertflip_short_600ms.mp4	42.single_slap_with_plastic_whisk_short_vertflip_short_600ms.mp4	200.8968994318966	201.50522636026835	0.6083269283717527	n/a	n/a	n/a	n/a
161.6845703125	0.2	331130	125	79	1	0	0	30	49	stimuli\Videos_short_600ms\54.repeated_touch_with_knife_short_short_600ms.mp4	54.repeated_touch_with_knife_short_short_600ms.mp4	201.6968925113124	202.30520037875613	0.6083078674437274	n/a	n/a	n/a	n/a
162.48486328125	0.2	332769	126	79	1	0	1	31	374	stimuli\Targets_short_600ms_horvertflip\chopstickwood-tap_short_vertflip_short_600ms.mp4	chopstickwood-tap_short_vertflip_short_600ms.mp4	202.4968556797321	203.1051834878399	0.6083278081077879	n/a	n/a	n/a	n/a
163.28466796875	0.2	334407	127	79	1	0	0	32	39	stimuli\Videos_short_600ms\45.scratching_with_finger_nails_short_short_600ms.mp4	45.scratching_with_finger_nails_short_short_600ms.mp4	203.2968581429905	203.9051671834131	0.6083090404226823	n/a	n/a	n/a	n/a
164.08447265625	0.2	336045	128	79	1	0	0	33	88	stimuli\Videos_short_600ms\9.single_touch_with_hammer_short_short_600ms.mp4	9.single_touch_with_hammer_short_short_600ms.mp4	204.09680870187185	204.70514970600743	0.6083410041355819	n/a	n/a	n/a	n/a
164.884765625	0.2	337684	129	79	1	0	0	34	318	stimuli\Videos_short_600ms_vertflip\53.touch_top_to_bottom_with_knife_short_vertflip_short_600ms.mp4	53.touch_top_to_bottom_with_knife_short_vertflip_short_600ms.mp4	204.8967929839364	205.5051328150912	0.608339831154808	n/a	n/a	n/a	n/a
165.6845703125	0.2	339322	130	79	1	0	0	35	161	stimuli\Videos_short_600ms_horflip\74.fingers_walking_from_top_to_bottom_short_horflip_short_600ms.mp4	74.fingers_walking_from_top_to_bottom_short_horflip_short_600ms.mp4	205.69677755924567	206.30511651066627	0.6083389514205919	n/a	n/a	n/a	n/a
166.484375	0.2	340960	131	79	1	0	0	36	184	stimuli\Videos_short_600ms_horvertflip\13.single_touch_with_pen_short_horvertflip_short_600ms.mp4	13.single_touch_with_pen_short_horvertflip_short_600ms.mp4	206.49676770621045	207.10509639405427	0.608328687843823	n/a	n/a	n/a	n/a
167.28466796875	0.2	342599	132	79	1	0	1	37	365	stimuli\Targets_short_600ms\hand-stroke_short_short_600ms.mp4	hand-stroke_short_short_600ms.mp4	207.2967587329113	207.9050883004893	0.6083295675780391	n/a	n/a	n/a	n/a
168.08447265625	0.2	344237	133	79	1	0	0	38	320	stimuli\Videos_short_600ms_vertflip\55.touch_top_to_bottom_with_nail_file_short_vertflip_short_600ms.mp4	55.touch_top_to_bottom_with_nail_file_short_vertflip_short_600ms.mp4	208.09675474477808	208.705046483743	0.6082917389649083	n/a	n/a	n/a	n/a
168.88427734375	0.2	345875	134	79	1	0	0	39	203	stimuli\Videos_short_600ms_horvertflip\30.finger_pulling_back_another_finger_short_horvertflip_short_600ms.mp4	30.finger_pulling_back_another_finger_short_horvertflip_short_600ms.mp4	208.8967360943916	209.50502666037573	0.6082905659841344	n/a	n/a	n/a	n/a
169.6845703125	0.2	347514	135	79	1	0	0	40	197	stimuli\Videos_short_600ms_horvertflip\25.single_touch_with_stanley_knife_short_horvertflip_short_600ms.mp4	25.single_touch_with_stanley_knife_short_horvertflip_short_600ms.mp4	209.6967165642709	210.30498836256993	0.6082717982990289	n/a	n/a	n/a	n/a
170.484375	0.2	349152	136	79	1	0	0	41	259	stimuli\Videos_short_600ms_horvertflip\81.single_stroke_top_to_bottom_with_cotton_pad_short_horvertflip_short_600ms.mp4	81.single_stroke_top_to_bottom_with_cotton_pad_short_horvertflip_short_600ms.mp4	210.4966970341484	211.1050180976199	0.6083210634715215	n/a	n/a	n/a	n/a
171.2841796875	0.2	350790	137	79	1	0	0	42	172	stimuli\Videos_short_600ms_horflip\84.single_touch_with_cotton_bud_short_horflip_short_600ms.mp4	84.single_touch_with_cotton_bud_short_horflip_short_600ms.mp4	211.29668072972345	211.9049792133228	0.6082984835993557	n/a	n/a	n/a	n/a
172.08447265625	0.2	352429	138	79	1	0	0	43	241	stimuli\Videos_short_600ms_horvertflip\65.stroke_top_to_bottom_with_stanley_knife_short_horvertflip_short_600ms.mp4	65.stroke_top_to_bottom_with_stanley_knife_short_horvertflip_short_600ms.mp4	212.09666413205196	212.70501012135355	0.608345989301597	n/a	n/a	n/a	n/a
172.88427734375	0.2	354067	139	79	1	0	0	44	139	stimuli\Videos_short_600ms_horflip\54.repeated_touch_with_knife_short_horflip_short_600ms.mp4	54.repeated_touch_with_knife_short_horflip_short_600ms.mp4	212.89665427901673	213.5049902979863	0.6083360189695668	n/a	n/a	n/a	n/a
173.68408203125	0.2	355705	140	79	1	0	0	45	29	stimuli\Videos_short_600ms\36.single_slap_with_full_hand_short_short_600ms.mp4	36.single_slap_with_full_hand_short_short_600ms.mp4	213.69663122995553	214.30495903806332	0.6083278081077879	n/a	n/a	n/a	n/a
174.484375	0.2	357344	141	79	1	0	0	46	89	stimuli\Videos_short_600ms\90.repeated_touch_with_sponge_short_short_600ms.mp4	90.repeated_touch_with_sponge_short_short_600ms.mp4	214.49661815122457	215.10494478635155	0.608326635127014	n/a	n/a	n/a	n/a
175.2841796875	0.2	358982	142	79	1	0	0	47	274	stimuli\Videos_short_600ms_vertflip\13.single_touch_with_pen_short_vertflip_short_600ms.mp4	13.single_touch_with_pen_short_vertflip_short_600ms.mp4	215.29659803461257	215.90491675212252	0.6083187175099738	n/a	n/a	n/a	n/a
176.083984375	0.2	360620	143	79	1	0	0	48	61	stimuli\Videos_short_600ms\65.stroke_top_to_bottom_with_stanley_knife_short_short_600ms.mp4	65.stroke_top_to_bottom_with_stanley_knife_short_short_600ms.mp4	216.0965887680686	216.7049013274318	0.6083125593631848	n/a	n/a	n/a	n/a
176.88427734375	0.2	362259	144	79	1	0	0	49	149	stimuli\Videos_short_600ms_horflip\63.stroke_top_to_bottom_with_screwdriver_short_horflip_short_600ms.mp4	63.stroke_top_to_bottom_with_screwdriver_short_horflip_short_600ms.mp4	216.8965636662906	217.50490936234743	0.6083456960568583	n/a	n/a	n/a	n/a
177.68408203125	0.2	363897	145	79	1	0	0	50	233	stimuli\Videos_short_600ms_horvertflip\58.single_slap_with_pencil_short_horvertflip_short_600ms.mp4	58.single_slap_with_pencil_short_horvertflip_short_600ms.mp4	217.69654941458063	218.30488543355025	0.6083360189695668	n/a	n/a	n/a	n/a
178.48388671875	0.2	365535	146	79	1	0	0	51	131	stimuli\Videos_short_600ms_horflip\47.(long)scratching_with_finger_nails_short_horflip_short_600ms.mp4	47.(long)scratching_with_finger_nails_short_horflip_short_600ms.mp4	218.4964982139918	219.1048644372022	0.6083662232103961	n/a	n/a	n/a	n/a
179.2841796875	0.2	367174	147	79	1	0	0	52	6	stimuli\Videos_short_600ms\15.single_stroke_top_to_bottom_with_a_plastic_whisk_short_short_600ms.mp4	15.single_stroke_top_to_bottom_with_a_plastic_whisk_short_short_600ms.mp4	219.29646959327147	219.90483786919867	0.6083682759272051	n/a	n/a	n/a	n/a
180.083984375	0.2	368812	148	79	1	0	0	53	13	stimuli\Videos_short_600ms\21.repeated_touch_with_metal_chopstick_short_short_600ms.mp4	21.repeated_touch_with_metal_chopstick_short_short_600ms.mp4	220.0964881850105	220.70482039179296	0.6083322067825065	n/a	n/a	n/a	n/a
180.88427734375	0.2	370451	149	79	1	0	0	54	46	stimuli\Videos_short_600ms\51.repeated_touch_with_hammer_short_short_600ms.mp4	51.repeated_touch_with_hammer_short_short_600ms.mp4	220.8964363979303	221.50480526034696	0.6083688624166825	n/a	n/a	n/a	n/a
181.68408203125	0.2	372089	150	79	1	0	0	55	200	stimuli\Videos_short_600ms_horvertflip\28.single_injection_with_sharp_needle_short_horvertflip_short_600ms.mp4	28.single_injection_with_sharp_needle_short_horvertflip_short_600ms.mp4	221.69644443284596	222.3047871964518	0.6083427636058332	n/a	n/a	n/a	n/a
182.48388671875	0.2	373727	151	79	1	0	0	56	126	stimuli\Videos_short_600ms_horflip\42.single_slap_with_plastic_whisk_short_horflip_short_600ms.mp4	42.single_slap_with_plastic_whisk_short_horflip_short_600ms.mp4	222.49642988788943	223.1047656136143	0.6083357257248281	n/a	n/a	n/a	n/a
183.2841796875	0.2	375366	152	79	1	0	0	57	350	stimuli\Videos_short_600ms_vertflip\82.repeated_touch_with_cotton_bud_short_vertflip_short_600ms.mp4	82.repeated_touch_with_cotton_bud_short_vertflip_short_600ms.mp4	223.29643733631383	223.90470884136812	0.6082715050542902	n/a	n/a	n/a	n/a
184.083984375	0.2	377004	153	79	1	0	0	58	340	stimuli\Videos_short_600ms_vertflip\73.single_stroke_with_flat_hand_short_vertflip_short_600ms.mp4	73.single_stroke_with_flat_hand_short_vertflip_short_600ms.mp4	224.0964219116231	224.70471687628375	0.6082949646606721	n/a	n/a	n/a	n/a
184.8837890625	0.2	378642	154	79	1	0	0	59	66	stimuli\Videos_short_600ms\7.repeated_touch_with_hairbrush_short_short_600ms.mp4	7.repeated_touch_with_hairbrush_short_short_600ms.mp4	224.89639593011088	225.504695586691	0.6082996565801295	n/a	n/a	n/a	n/a
185.68408203125	0.2	380281	155	79	1	0	0	60	47	stimuli\Videos_short_600ms\52.touch_top_to_bottom_with_hammer_short_short_600ms.mp4	52.touch_top_to_bottom_with_hammer_short_short_600ms.mp4	225.69638021217543	226.30468280120655	0.6083025890311546	n/a	n/a	n/a	n/a
186.48388671875	0.2	381919	156	79	1	0	0	61	157	stimuli\Videos_short_600ms_horflip\70.(long)stroke_with_finger_all_over_the_hand_short_horflip_short_600ms.mp4	70.(long)stroke_with_finger_all_over_the_hand_short_horflip_short_600ms.mp4	226.4963633212592	227.10466942923085	0.6083061079716572	n/a	n/a	n/a	n/a
187.28369140625	0.2	383557	157	79	1	0	0	62	204	stimuli\Videos_short_600ms_horvertflip\31.hand_grabbing_wrist_short_horvertflip_short_600ms.mp4	31.hand_grabbing_wrist_short_horvertflip_short_600ms.mp4	227.29634437762795	227.90465283155936	0.6083084539313859	n/a	n/a	n/a	n/a
188.083984375	0.2	385196	158	79	1	0	0	63	249	stimuli\Videos_short_600ms_horvertflip\72.(short)stroke_with_finger_all_over_the_hand_short_horvertflip_short_600ms.mp4	72.(short)stroke_with_finger_all_over_the_hand_short_horvertflip_short_600ms.mp4	228.0963377502885	228.70464356501543	0.6083058147269185	n/a	n/a	n/a	n/a
188.89208984375	0.2	386851	159	79	1	0	0	64	3	stimuli\Videos_short_600ms\12.repeated_touch_with_nail_file_short_short_600ms.mp4	12.repeated_touch_with_nail_file_short_short_600ms.mp4	228.90464286122733	229.5129630449628	0.6083201837354864	n/a	n/a	n/a	n/a
189.69189453125	0.2	388489	160	79	1	0	0	65	237	stimuli\Videos_short_600ms_horvertflip\61.single_hit_with_rolling_pin_short_horvertflip_short_600ms.mp4	61.single_hit_with_rolling_pin_short_horvertflip_short_600ms.mp4	229.70459987150025	230.3129021672867	0.6083022957864159	n/a	n/a	n/a	n/a
190.4921875	0.2	390128	161	79	1	0	0	66	238	stimuli\Videos_short_600ms_horvertflip\62.touch_top_to_bottom_with_scissors_short_horvertflip_short_600ms.mp4	62.touch_top_to_bottom_with_scissors_short_horvertflip_short_600ms.mp4	230.504577995418	231.1129128414068	0.608334845988793	n/a	n/a	n/a	n/a
191.2919921875	0.2	391766	162	79	1	0	0	67	145	stimuli\Videos_short_600ms_horflip\6.single_touch_with_flat_hand_short_horflip_short_600ms.mp4	6.single_touch_with_flat_hand_short_horflip_short_600ms.mp4	231.3045502544337	231.9129232222822	0.6083729678484815	n/a	n/a	n/a	n/a
192.091796875	0.2	393404	163	79	1	0	0	68	19	stimuli\Videos_short_600ms\27.single_push_with_a_plastic_whisk_short_short_600ms.mp4	27.single_push_with_a_plastic_whisk_short_short_600ms.mp4	232.10452485941096	232.71287788659535	0.6083530271844211	n/a	n/a	n/a	n/a
192.89208984375	0.2	395043	164	79	1	0	0	69	209	stimuli\Videos_short_600ms_horvertflip\36.single_slap_with_full_hand_short_horvertflip_short_600ms.mp4	36.single_slap_with_full_hand_short_horvertflip_short_600ms.mp4	232.90449975763295	233.51288826747077	0.6083885098378232	n/a	n/a	n/a	n/a
193.69189453125	0.2	396681	165	79	1	0	0	70	17	stimuli\Videos_short_600ms\25.single_touch_with_stanley_knife_short_short_600ms.mp4	25.single_touch_with_stanley_knife_short_short_600ms.mp4	233.70447406936543	234.31287430900557	0.6084002396401047	n/a	n/a	n/a	n/a
194.49169921875	0.2	398319	166	79	1	0	0	71	195	stimuli\Videos_short_600ms_horvertflip\23.single_push_with_a_spoon_short_horvertflip_short_600ms.mp4	23.single_push_with_a_spoon_short_horvertflip_short_600ms.mp4	234.50446216361524	235.1128509666978	0.6083888030825619	n/a	n/a	n/a	n/a
195.2919921875	0.2	399958	167	79	1	0	1	72	363	stimuli\Targets_short_600ms\finger-tap_short_short_600ms.mp4	finger-tap_short_short_600ms.mp4	235.30444497945427	235.91282997034975	0.6083849908955017	n/a	n/a	n/a	n/a
196.091796875	0.2	401596	168	79	1	0	0	73	40	stimuli\Videos_short_600ms\46.scratching_top_to_bottom_with_finger_nails_short_short_600ms.mp4	46.scratching_top_to_bottom_with_finger_nails_short_short_600ms.mp4	236.10442163714652	236.7128177713548	0.6083961342083057	n/a	n/a	n/a	n/a
196.8916015625	0.2	403234	169	79	1	0	0	74	298	stimuli\Videos_short_600ms_vertflip\35.single_punch_with_hand_short_vertflip_short_600ms.mp4	35.single_punch_with_hand_short_vertflip_short_600ms.mp4	236.90442908557088	237.5127985344789	0.608369448907979	n/a	n/a	n/a	n/a
197.69189453125	0.2	404873	170	79	1	0	0	75	169	stimuli\Videos_short_600ms_horflip\81.single_stroke_top_to_bottom_with_cotton_pad_short_horflip_short_600ms.mp4	81.single_stroke_top_to_bottom_with_cotton_pad_short_horflip_short_600ms.mp4	237.7044110216757	238.3127792976029	0.6083682759272051	n/a	n/a	n/a	n/a
198.49169921875	0.2	406511	171	79	1	0	0	76	272	stimuli\Videos_short_600ms_vertflip\11.single_touch_with_lighter_short_vertflip_short_600ms.mp4	11.single_touch_with_lighter_short_vertflip_short_600ms.mp4	238.50438445367217	239.11276651211665	0.6083820584444766	n/a	n/a	n/a	n/a
199.2919921875	0.2	408150	172	79	1	0	0	77	264	stimuli\Videos_short_600ms_horvertflip\86.touch_top_to_bottom_with_hair_brush_short_horvertflip_short_600ms.mp4	86.touch_top_to_bottom_with_hair_brush_short_horvertflip_short_600ms.mp4	239.3043564194431	239.91274551577044	0.6083890963273006	n/a	n/a	n/a	n/a
200.091796875	0.2	409788	173	79	1	0	0	78	124	stimuli\Videos_short_600ms_horflip\40.repeated_push_with_finger_short_horflip_short_600ms.mp4	40.repeated_push_with_finger_short_horflip_short_600ms.mp4	240.10433894203743	240.71273126405868	0.6083923220212455	n/a	n/a	n/a	n/a
200.8916015625	0.2	411426	174	79	1	0	0	79	36	stimuli\Videos_short_600ms\42.single_slap_with_plastic_whisk_short_short_600ms.mp4	42.single_slap_with_plastic_whisk_short_short_600ms.mp4	240.9043241038362	241.51271437314423	0.6083902693080745	n/a	n/a	n/a	n/a
201.69189453125	0.2	413065	175	79	1	0	0	80	133	stimuli\Videos_short_600ms_horflip\49.repeated_slap_with_hand_short_horflip_short_600ms.mp4	49.repeated_slap_with_hand_short_horflip_short_600ms.mp4	241.7043075061647	242.312694549777	0.6083870436123107	n/a	n/a	n/a	n/a
202.49169921875	0.2	414703	176	79	1	0	0	81	199	stimuli\Videos_short_600ms_horvertflip\27.single_push_with_a_plastic_whisk_short_horvertflip_short_600ms.mp4	27.single_push_with_a_plastic_whisk_short_horvertflip_short_600ms.mp4	242.50430293154204	243.11268352376285	0.608380592220783	n/a	n/a	n/a	n/a
203.29150390625	0.2	416341	177	79	1	0	0	82	104	stimuli\Videos_short_600ms_horflip\22.single_touch_with_metal_chopstick_short_horflip_short_600ms.mp4	22.single_touch_with_metal_chopstick_short_horflip_short_600ms.mp4	243.30429689069388	243.9126771896681	0.6083802989742253	n/a	n/a	n/a	n/a
204.091796875	0.2	417980	178	79	1	0	1	83	378	stimuli\Targets_short_600ms_vertflip\brush-stroke_short_horvertflip_short_600ms.mp4	brush-stroke_short_horvertflip_short_600ms.mp4	244.10427736057136	244.71260164973864	0.6083242891672853	n/a	n/a	n/a	n/a
204.8916015625	0.2	419618	179	79	1	0	0	84	72	stimuli\Videos_short_600ms\75.(long)stroke_with_fingers_all_over_the_hand_short_short_600ms.mp4	75.(long)stroke_with_fingers_all_over_the_hand_short_short_600ms.mp4	244.90427043998716	245.51261056438852	0.6083401244013658	n/a	n/a	n/a	n/a
205.69140625	0.2	421256	180	79	1	0	0	85	291	stimuli\Videos_short_600ms_vertflip\29.single_pinch_with_tweezers_short_vertflip_short_600ms.mp4	29.single_pinch_with_tweezers_short_vertflip_short_600ms.mp4	245.70424035304313	246.31261214791263	0.6083717948695266	n/a	n/a	n/a	n/a
206.49169921875	0.2	422895	181	79	1	0	0	86	33	stimuli\Videos_short_600ms\4.repeated_tap_with_finger_slow_short_short_600ms.mp4	4.repeated_tap_with_finger_slow_short_short_600ms.mp4	246.50422463510768	247.11258088798783	0.6083562528801849	n/a	n/a	n/a	n/a
207.29150390625	0.2	424533	182	79	1	0	0	87	245	stimuli\Videos_short_600ms_horvertflip\69.stroke_with_soft_sock_short_horvertflip_short_600ms.mp4	69.stroke_with_soft_sock_short_horvertflip_short_600ms.mp4	247.3042065712125	247.9125631173356	0.6083565461231046	n/a	n/a	n/a	n/a
208.09130859375	0.2	426171	183	79	1	0	0	88	251	stimuli\Videos_short_600ms_horvertflip\74.fingers_walking_from_top_to_bottom_short_horvertflip_short_600ms.mp4	74.fingers_walking_from_top_to_bottom_short_horvertflip_short_600ms.mp4	248.10415361115156	248.71256763331075	0.6084140221591952	n/a	n/a	n/a	n/a
208.8916015625	0.2	427810	184	79	1	0	0	89	281	stimuli\Videos_short_600ms_vertflip\2.single_touch_with_finger_short_vertflip_short_600ms.mp4	2.single_touch_with_finger_short_vertflip_short_600ms.mp4	248.9041742556055	249.51255631405	0.6083820584444766	n/a	n/a	n/a	n/a
209.69140625	0.2	429448	185	79	1	0	0	90	338	stimuli\Videos_short_600ms_vertflip\71.single_stroke_with_finger_top_to_bottom_short_vertflip_short_600ms.mp4	71.single_stroke_with_finger_top_to_bottom_short_vertflip_short_600ms.mp4	249.7041594174043	250.3125285730675	0.6083691556632402	n/a	n/a	n/a	n/a
210.4912109375	0.2	431086	186	79	1	0	0	91	266	stimuli\Videos_short_600ms_horvertflip\88.repeated_stroke_with_plastic_brush_short_horvertflip_short_600ms.mp4	88.repeated_stroke_with_plastic_brush_short_horvertflip_short_600ms.mp4	250.5041401805283	251.1125122686408	0.6083720881124464	n/a	n/a	n/a	n/a
211.29150390625	0.2	432725	187	79	1	0	0	92	32	stimuli\Videos_short_600ms\39.single_stab_with_scissors_short_short_600ms.mp4	39.single_stab_with_scissors_short_short_600ms.mp4	251.30412563557184	251.9124950844798	0.608369448907979	n/a	n/a	n/a	n/a
212.09130859375	0.2	434363	188	79	1	0	0	93	163	stimuli\Videos_short_600ms_horflip\76.tickle_with_fingers_from_top_to_bottom_short_horflip_short_600ms.mp4	76.tickle_with_fingers_from_top_to_bottom_short_horflip_short_600ms.mp4	252.1041052257151	252.7124755543573	0.6083703286421951	n/a	n/a	n/a	n/a
212.89111328125	0.2	436001	189	79	1	0	0	94	178	stimuli\Videos_short_600ms_horflip\9.single_touch_with_hammer_short_horflip_short_600ms.mp4	9.single_touch_with_hammer_short_horflip_short_600ms.mp4	252.9040898010244	253.5124615958921	0.6083717948677076	n/a	n/a	n/a	n/a
213.69140625	0.2	437640	190	79	1	0	0	95	56	stimuli\Videos_short_600ms\60.single_push_with_tip_of_pencil_short_short_600ms.mp4	60.single_push_with_tip_of_pencil_short_short_600ms.mp4	253.70405912759088	254.31244822391815	0.6083890963273006	n/a	n/a	n/a	n/a
214.4912109375	0.2	439278	191	79	1	0	0	96	50	stimuli\Videos_short_600ms\55.touch_top_to_bottom_with_nail_file_short_short_600ms.mp4	55.touch_top_to_bottom_with_nail_file_short_short_600ms.mp4	254.50403813124285	255.11242781406145	0.6083896828185971	7.0	7.0	1.8875018071212253	1.0
248.056640625	0.2	508020	192	79	2	0	0	0	217	stimuli\Videos_short_600ms_horvertflip\43.touch_top_to_bottom_with_sharp_wooden_stick_short_horvertflip_short_600ms.mp4	43.touch_top_to_bottom_with_sharp_wooden_stick_short_horvertflip_short_600ms.mp4	288.07009847462723	288.67836880670075	0.6082703320735163	n/a	n/a	n/a	n/a
248.85693359375	0.2	509659	193	79	2	0	0	1	316	stimuli\Videos_short_600ms_vertflip\51.repeated_touch_with_hammer_short_vertflip_short_600ms.mp4	51.repeated_touch_with_hammer_short_vertflip_short_600ms.mp4	288.8700229346978	289.4783595401568	0.6083366054590442	n/a	n/a	n/a	n/a
249.65673828125	0.2	511297	194	79	2	0	0	2	68	stimuli\Videos_short_600ms\71.single_stroke_with_finger_top_to_bottom_short_short_600ms.mp4	71.single_stroke_with_finger_top_to_bottom_short_short_600ms.mp4	289.6700300898774	290.2783578979852	0.6083278081077879	n/a	n/a	n/a	n/a
250.45654296875	0.2	512935	195	79	2	0	0	3	308	stimuli\Videos_short_600ms_vertflip\44.pushing_top_to_bottom_with_finger_short_vertflip_short_600ms.mp4	44.pushing_top_to_bottom_with_finger_short_vertflip_short_600ms.mp4	290.4699882731293	291.07833543541165	0.6083471622823708	n/a	n/a	n/a	n/a
251.2568359375	0.2	514574	196	79	2	0	0	4	130	stimuli\Videos_short_600ms_horflip\46.scratching_top_to_bottom_with_finger_nails_short_horflip_short_600ms.mp4	46.scratching_top_to_bottom_with_finger_nails_short_horflip_short_600ms.mp4	291.26998311201714	291.878328808074	0.6083456960568583	n/a	n/a	n/a	n/a
252.056640625	0.2	516212	197	79	2	0	0	5	154	stimuli\Videos_short_600ms_horflip\68.stroke_top_to_bottom_with_shawl_short_horflip_short_600ms.mp4	68.stroke_top_to_bottom_with_shawl_short_horflip_short_600ms.mp4	292.0699577169944	292.67829872113	0.6083410041355819	n/a	n/a	n/a	n/a
252.8564453125	0.2	517850	198	79	2	0	1	6	366	stimuli\Targets_short_600ms_horflip\brush-stroke_short_horflip_short_600ms.mp4	brush-stroke_short_horflip_short_600ms.mp4	292.86996164647826	293.4782780180267	0.6083163715484261	n/a	n/a	n/a	n/a
253.65673828125	0.2	519489	199	79	2	0	0	7	108	stimuli\Videos_short_600ms_horflip\26.single_touch_with_a_blunt_syringe_short_horflip_short_600ms.mp4	26.single_touch_with_a_blunt_syringe_short_horflip_short_600ms.mp4	293.66992481489615	294.27826376631674	0.6083389514205919	n/a	n/a	n/a	n/a
254.45654296875	0.2	521127	200	79	2	0	0	8	106	stimuli\Videos_short_600ms_horflip\24.single_stroke_top_to_bottom_with_a_spoon_short_horflip_short_600ms.mp4	24.single_stroke_top_to_bottom_with_a_spoon_short_horflip_short_600ms.mp4	294.4699278646458	295.0782445294408	0.6083166647949838	n/a	n/a	n/a	n/a
255.2568359375	0.2	522766	201	79	2	0	0	9	18	stimuli\Videos_short_600ms\26.single_touch_with_a_blunt_syringe_short_short_600ms.mp4	26.single_touch_with_a_blunt_syringe_short_short_600ms.mp4	295.2698661072336	295.8782293979948	0.60836329076119	n/a	n/a	n/a	n/a
256.056640625	0.2	524404	202	79	2	0	0	10	110	stimuli\Videos_short_600ms_horflip\28.single_injection_with_sharp_needle_short_horflip_short_600ms.mp4	28.single_injection_with_sharp_needle_short_horflip_short_600ms.mp4	296.06987208943247	296.6782312747637	0.60835918533121	n/a	n/a	n/a	n/a
256.8564453125	0.2	526042	203	79	2	0	0	11	210	stimuli\Videos_short_600ms_horvertflip\37.single_stab_with_nail_file_short_horvertflip_short_600ms.mp4	37.single_stab_with_nail_file_short_horvertflip_short_600ms.mp4	296.86985607825227	297.4781938566921	0.6083377784398181	n/a	n/a	n/a	n/a
257.65673828125	0.2	527681	204	79	2	0	0	12	256	stimuli\Videos_short_600ms_horvertflip\79.long_with_soft_brush_all_over_the_hand_short_horvertflip_short_600ms.mp4	79.long_with_soft_brush_all_over_the_hand_short_horvertflip_short_600ms.mp4	297.6698444657468	298.27817696577586	0.6083325000290642	n/a	n/a	n/a	n/a
258.45654296875	0.2	529319	205	79	2	0	0	13	152	stimuli\Videos_short_600ms_horflip\66.stroke_top_to_bottom_with_sponge_short_horflip_short_600ms.mp4	66.stroke_top_to_bottom_with_sponge_short_horflip_short_600ms.mp4	298.46983725191785	299.0781591951254	0.6083219432075566	n/a	n/a	n/a	n/a
259.25634765625	0.2	530957	206	79	2	0	0	14	2	stimuli\Videos_short_600ms\11.single_touch_with_lighter_short_short_600ms.mp4	11.single_touch_with_lighter_short_short_600ms.mp4	299.2698118568951	299.87814494341364	0.6083330865185417	n/a	n/a	n/a	n/a
260.056640625	0.2	532596	207	79	2	0	0	15	271	stimuli\Videos_short_600ms_vertflip\10.single_touch_with_knife_short_vertflip_short_600ms.mp4	10.single_touch_with_knife_short_vertflip_short_600ms.mp4	300.06982663644703	300.6781301052142	0.6083034687671898	n/a	n/a	n/a	n/a
260.8564453125	0.2	534234	208	79	2	0	0	16	186	stimuli\Videos_short_600ms_horvertflip\15.single_stroke_top_to_bottom_with_a_plastic_whisk_short_horvertflip_short_600ms.mp4	15.single_stroke_top_to_bottom_with_a_plastic_whisk_short_horvertflip_short_600ms.mp4	300.869793617052	301.4780689342915	0.6082753172395314	n/a	n/a	n/a	n/a
261.65625	0.2	535872	209	79	2	0	1	17	370	stimuli\Targets_short_600ms_horflip\hand-pinch_short_horflip_short_600ms.mp4	hand-pinch_short_horflip_short_600ms.mp4	301.669781418057	302.27807403675615	0.6082926186991244	n/a	n/a	n/a	n/a
262.45654296875	0.2	537511	210	79	2	0	0	18	10	stimuli\Videos_short_600ms\19.single_touch_with_rolling_pin_short_short_600ms.mp4	19.single_touch_with_rolling_pin_short_short_600ms.mp4	302.46975866224057	303.0780562661057	0.6082976038651395	n/a	n/a	n/a	n/a
263.25634765625	0.2	539149	211	79	2	0	0	19	84	stimuli\Videos_short_600ms\86.touch_top_to_bottom_with_hair_brush_short_short_600ms.mp4	86.touch_top_to_bottom_with_hair_brush_short_short_600ms.mp4	303.26974265105855	303.8780748578429	0.6083322067843255	n/a	n/a	n/a	n/a
264.05615234375	0.2	540787	212	79	2	0	0	20	247	stimuli\Videos_short_600ms_horvertflip\70.(long)stroke_with_finger_all_over_the_hand_short_horvertflip_short_600ms.mp4	70.(long)stroke_with_finger_all_over_the_hand_short_horvertflip_short_600ms.mp4	304.06973367775936	304.6780430114286	0.60830933366924	n/a	n/a	n/a	n/a
264.8564453125	0.2	542426	213	79	2	0	0	21	102	stimuli\Videos_short_600ms_horflip\20.single_touch_with_screwdriver_short_horflip_short_600ms.mp4	20.single_touch_with_screwdriver_short_horflip_short_600ms.mp4	304.8696871690918	305.47804635442117	0.608359185329391	n/a	n/a	n/a	n/a
265.65625	0.2	544064	214	79	2	0	0	22	213	stimuli\Videos_short_600ms_horvertflip\4.repeated_tap_with_finger_slow_short_horvertflip_short_600ms.mp4	4.repeated_tap_with_finger_slow_short_horvertflip_short_600ms.mp4	305.66969197830986	306.27801216204716	0.6083201837373053	n/a	n/a	n/a	n/a
266.4560546875	0.2	545702	215	79	2	0	0	23	252	stimuli\Videos_short_600ms_horvertflip\75.(long)stroke_with_fingers_all_over_the_hand_short_horvertflip_short_600ms.mp4	75.(long)stroke_with_fingers_all_over_the_hand_short_horvertflip_short_600ms.mp4	306.46965280076984	307.07799468463963	0.608341883869798	n/a	n/a	n/a	n/a
267.25634765625	0.2	547341	216	79	2	0	0	24	317	stimuli\Videos_short_600ms_vertflip\52.touch_top_to_bottom_with_hammer_short_vertflip_short_600ms.mp4	52.touch_top_to_bottom_with_hammer_short_vertflip_short_600ms.mp4	307.2696359098536	307.8779528678933	0.6083169580397225	n/a	n/a	n/a	n/a
268.05615234375	0.2	548979	217	79	2	0	0	25	265	stimuli\Videos_short_600ms_horvertflip\87.single_stroke_top_to_bottom_with_plastic_brush_short_horvertflip_short_600ms.mp4	87.single_stroke_top_to_bottom_with_plastic_brush_short_horvertflip_short_600ms.mp4	308.0696152067503	308.6779609028072	0.6083456960568583	n/a	n/a	n/a	n/a
268.85595703125	0.2	550617	218	79	2	0	0	26	80	stimuli\Videos_short_600ms\82.repeated_touch_with_cotton_bud_short_short_600ms.mp4	82.repeated_touch_with_cotton_bud_short_short_600ms.mp4	308.86962382815545	309.4779443051375	0.6083204769820441	n/a	n/a	n/a	n/a
269.65625	0.2	552256	219	79	2	0	1	27	360	stimuli\Targets_short_600ms\brush-stroke_short_short_600ms.mp4	brush-stroke_short_short_600ms.mp4	309.6696066439945	310.2779227223	0.6083160783055064	n/a	n/a	n/a	n/a
270.4560546875	0.2	553894	220	79	2	0	0	28	278	stimuli\Videos_short_600ms_vertflip\17.repeated_touch_with_rolling_pin_short_vertflip_short_600ms.mp4	17.repeated_touch_with_rolling_pin_short_vertflip_short_600ms.mp4	310.4695706921502	311.07790700436453	0.6083363122143055	n/a	n/a	n/a	n/a
271.255859375	0.2	555532	221	79	2	0	1	29	382	stimuli\Targets_short_600ms_vertflip\hand-pinch_short_horvertflip_short_600ms.mp4	hand-pinch_short_horvertflip_short_600ms.mp4	311.26955145527245	311.87788835397805	0.6083368987056019	n/a	n/a	n/a	n/a
272.05615234375	0.2	557171	222	79	2	0	0	30	125	stimuli\Videos_short_600ms_horflip\41.injection_with_blunt_syringe_short_horflip_short_600ms.mp4	41.injection_with_blunt_syringe_short_horflip_short_600ms.mp4	312.0695345643562	312.67787175630656	0.6083371919503406	n/a	n/a	n/a	n/a
272.85595703125	0.2	558809	223	79	2	0	1	31	375	stimuli\Targets_short_600ms_horvertflip\finger-tap_short_vertflip_short_600ms.mp4	finger-tap_short_vertflip_short_600ms.mp4	312.86952001940153	313.4778630762521	0.6083430568505719	n/a	n/a	n/a	n/a
273.65625	0.2	560448	224	79	2	0	0	32	150	stimuli\Videos_short_600ms_horflip\64.repeated_touch_with_screwdriver_short_horflip_short_600ms.mp4	64.repeated_touch_with_screwdriver_short_horflip_short_600ms.mp4	313.6695092866321	314.2778461853359	0.6083368987037829	n/a	n/a	n/a	n/a
274.4560546875	0.2	562086	225	79	2	0	1	33	368	stimuli\Targets_short_600ms_horflip\chopstickwood-tap_short_horflip_short_600ms.mp4	chopstickwood-tap_short_horflip_short_600ms.mp4	314.46949239571586	315.0778023158746	0.6083099201587174	n/a	n/a	n/a	n/a
275.255859375	0.2	563724	226	79	2	0	0	34	147	stimuli\Videos_short_600ms_horflip\61.single_hit_with_rolling_pin_short_horflip_short_600ms.mp4	61.single_hit_with_rolling_pin_short_horflip_short_600ms.mp4	315.26947785075936	315.8777883574094	0.6083105066500138	n/a	n/a	n/a	n/a
276.05615234375	0.2	565363	227	79	2	0	0	35	214	stimuli\Videos_short_600ms_horvertflip\40.repeated_push_with_finger_short_horvertflip_short_600ms.mp4	40.repeated_push_with_finger_short_horvertflip_short_600ms.mp4	316.0694794342835	316.67776618808057	0.6082867537970742	n/a	n/a	n/a	n/a
276.85595703125	0.2	567001	228	79	2	0	0	36	190	stimuli\Videos_short_600ms_horvertflip\19.single_touch_with_rolling_pin_short_horvertflip_short_600ms.mp4	19.single_touch_with_rolling_pin_short_horvertflip_short_600ms.mp4	316.86945550548626	317.47772994298975	0.6082744375034963	n/a	n/a	n/a	n/a
277.65576171875	0.2	568639	229	79	2	0	0	37	322	stimuli\Videos_short_600ms_vertflip\57.single_touch_with_nail_file_short_vertflip_short_600ms.mp4	57.single_touch_with_nail_file_short_vertflip_short_600ms.mp4	317.6694509308636	318.27774091035644	0.608289979492838	n/a	n/a	n/a	n/a
278.4560546875	0.2	570278	230	79	2	0	0	38	211	stimuli\Videos_short_600ms_horvertflip\38.double_slap_with_pencil_short_horvertflip_short_600ms.mp4	38.double_slap_with_pencil_short_horvertflip_short_600ms.mp4	318.4693973843132	319.0777225532147	0.6083251689015015	n/a	n/a	n/a	n/a
279.255859375	0.2	571916	231	79	2	0	0	39	309	stimuli\Videos_short_600ms_vertflip\45.scratching_with_finger_nails_short_vertflip_short_600ms.mp4	45.scratching_with_finger_nails_short_vertflip_short_600ms.mp4	319.2694027800226	319.8777039028282	0.6083011228056421	n/a	n/a	n/a	n/a
280.0556640625	0.2	573554	232	79	2	0	0	40	193	stimuli\Videos_short_600ms_horvertflip\21.repeated_touch_with_metal_chopstick_short_horvertflip_short_600ms.mp4	21.repeated_touch_with_metal_chopstick_short_horvertflip_short_600ms.mp4	320.06938588910634	320.67772718648666	0.6083412973803206	n/a	n/a	n/a	n/a
280.85595703125	0.2	575193	233	79	2	0	0	41	141	stimuli\Videos_short_600ms_horflip\56.repeated_touch_with_nail_file_short_horflip_short_600ms.mp4	56.repeated_touch_with_nail_file_short_horflip_short_600ms.mp4	320.8693440723582	321.4776906481511	0.6083465757928934	n/a	n/a	n/a	n/a
281.65576171875	0.2	576831	234	79	2	0	0	42	168	stimuli\Videos_short_600ms_horflip\80.stroke_with_sharp_stick_all_over_the_hand_short_horflip_short_600ms.mp4	80.stroke_with_sharp_stick_all_over_the_hand_short_horflip_short_600ms.mp4	321.6693333395888	322.2776837275669	0.6083503879781347	n/a	n/a	n/a	n/a
282.45556640625	0.2	578469	235	79	2	0	0	43	262	stimuli\Videos_short_600ms_horvertflip\84.single_touch_with_cotton_bud_short_horvertflip_short_600ms.mp4	84.single_touch_with_cotton_bud_short_horvertflip_short_600ms.mp4	322.4692707024424	323.0776551068484	0.6083844044060243	n/a	n/a	n/a	n/a
283.255859375	0.2	580108	236	79	2	0	0	44	347	stimuli\Videos_short_600ms_vertflip\8.single_touch_with_hairbrush_short_vertflip_short_600ms.mp4	8.single_touch_with_hairbrush_short_vertflip_short_600ms.mp4	323.2693611392224	323.87763938891294	0.6082782496905565	n/a	n/a	n/a	n/a
284.0556640625	0.2	581746	237	79	2	0	0	45	180	stimuli\Videos_short_600ms_horvertflip\1.repeated_touch_with_finger_fast_short_horvertflip_short_600ms.mp4	1.repeated_touch_with_finger_fast_short_horvertflip_short_600ms.mp4	324.0693870620871	324.67762191150723	0.6082348494201142	n/a	n/a	n/a	n/a
284.85546875	0.2	583384	238	79	2	0	0	46	85	stimuli\Videos_short_600ms\87.single_stroke_top_to_bottom_with_plastic_brush_short_short_600ms.mp4	87.single_stroke_top_to_bottom_with_plastic_brush_short_short_600ms.mp4	324.8694326323712	325.47760326112075	0.6081706287495763	n/a	n/a	n/a	n/a
285.65576171875	0.2	585023	239	79	2	0	0	47	236	stimuli\Videos_short_600ms_horvertflip\60.single_push_with_tip_of_pencil_short_horvertflip_short_600ms.mp4	60.single_push_with_tip_of_pencil_short_horvertflip_short_600ms.mp4	325.6692207334818	326.27758724993873	0.6083665164569538	n/a	n/a	n/a	n/a
286.45556640625	0.2	586661	240	79	2	0	0	48	100	stimuli\Videos_short_600ms_horflip\19.single_touch_with_rolling_pin_short_horflip_short_600ms.mp4	19.single_touch_with_rolling_pin_short_horflip_short_600ms.mp4	326.4692076547526	327.07756859955225	0.6083609447996423	n/a	n/a	n/a	n/a
287.25537109375	0.2	588299	241	79	2	0	0	49	300	stimuli\Videos_short_600ms_vertflip\37.single_stab_with_nail_file_short_vertflip_short_600ms.mp4	37.single_stab_with_nail_file_short_vertflip_short_600ms.mp4	327.269213050462	327.8775508289018	0.6083377784398181	n/a	n/a	n/a	n/a
288.0556640625	0.2	589938	242	79	2	0	0	50	44	stimuli\Videos_short_600ms\5.repeated_tap_with_finger_moving_from_top_to_bottom_short_short_600ms.mp4	5.repeated_tap_with_finger_moving_from_top_to_bottom_short_short_600ms.mp4	328.06919117437974	328.67753804341555	0.6083468690358131	n/a	n/a	n/a	n/a
288.85546875	0.2	591576	243	79	2	0	0	51	292	stimuli\Videos_short_600ms_vertflip\3.single_push_with_finger_short_vertflip_short_600ms.mp4	3.single_push_with_finger_short_vertflip_short_600ms.mp4	328.8691775091593	329.47751587408857	0.6083383649292955	n/a	n/a	n/a	n/a
289.6552734375	0.2	593214	244	79	2	0	0	52	348	stimuli\Videos_short_600ms_vertflip\80.stroke_with_sharp_stick_all_over_the_hand_short_vertflip_short_600ms.mp4	80.stroke_with_sharp_stick_all_over_the_hand_short_vertflip_short_600ms.mp4	329.66916003175356	330.2774854938998	0.6083254621462402	n/a	n/a	n/a	n/a
290.45556640625	0.2	594853	245	79	2	0	0	53	270	stimuli\Videos_short_600ms_vertflip\1.repeated_touch_with_finger_fast_short_vertflip_short_600ms.mp4	1.repeated_touch_with_finger_fast_short_vertflip_short_600ms.mp4	330.4691428475908	331.07746772324754	0.6083248756567627	n/a	n/a	n/a	n/a
291.25537109375	0.2	596491	246	79	2	0	0	54	314	stimuli\Videos_short_600ms_vertflip\5.repeated_tap_with_finger_moving_from_top_to_bottom_short_vertflip_short_600ms.mp4	5.repeated_tap_with_finger_moving_from_top_to_bottom_short_vertflip_short_600ms.mp4	331.2691626123087	331.8774449674311	0.6082823551223555	n/a	n/a	n/a	n/a
292.05517578125	0.2	598129	247	79	2	0	0	55	148	stimuli\Videos_short_600ms_horflip\62.touch_top_to_bottom_with_scissors_short_horflip_short_600ms.mp4	62.touch_top_to_bottom_with_scissors_short_horflip_short_600ms.mp4	332.06912812669	332.67743159545535	0.6083034687653708	n/a	n/a	n/a	n/a
292.85546875	0.2	599768	248	79	2	0	0	56	153	stimuli\Videos_short_600ms_horflip\67.single_touch_with_sponge_short_horflip_short_600ms.mp4	67.single_touch_with_sponge_short_horflip_short_600ms.mp4	332.8691135817335	333.47739535036453	0.6082817686310591	n/a	n/a	n/a	n/a
293.6552734375	0.2	601406	249	79	2	0	0	57	144	stimuli\Videos_short_600ms_horflip\59.single_push_with_long_side_pencil_short_horflip_short_600ms.mp4	59.single_push_with_long_side_pencil_short_horflip_short_600ms.mp4	333.669099916513	334.27739957309495	0.6082996565819485	n/a	n/a	n/a	n/a
294.45556640625	0.2	603045	250	79	2	0	0	58	323	stimuli\Videos_short_600ms_vertflip\58.single_slap_with_pencil_short_vertflip_short_600ms.mp4	58.single_slap_with_pencil_short_vertflip_short_600ms.mp4	334.4690783336755	335.0773873741	0.6083090404245013	n/a	n/a	n/a	n/a
295.25537109375	0.2	604683	251	79	2	0	0	59	67	stimuli\Videos_short_600ms\70.(long)stroke_with_finger_all_over_the_hand_short_short_600ms.mp4	70.(long)stroke_with_finger_all_over_the_hand_short_short_600ms.mp4	335.2690658414358	335.8774006874246	0.608334845988793	n/a	n/a	n/a	n/a
296.05517578125	0.2	606321	252	79	2	0	0	60	216	stimuli\Videos_short_600ms_horvertflip\42.single_slap_with_plastic_whisk_short_horvertflip_short_600ms.mp4	42.single_slap_with_plastic_whisk_short_horvertflip_short_600ms.mp4	336.0690413261491	336.67736708154007	0.6083257553909789	n/a	n/a	n/a	n/a
296.85546875	0.2	607960	253	79	2	0	0	61	194	stimuli\Videos_short_600ms_horvertflip\22.single_touch_with_metal_chopstick_short_horvertflip_short_600ms.mp4	22.single_touch_with_metal_chopstick_short_horvertflip_short_600ms.mp4	336.86904232318193	337.4773510703599	0.6083087471779436	n/a	n/a	n/a	n/a
297.6552734375	0.2	609598	254	79	2	0	0	62	158	stimuli\Videos_short_600ms_horflip\71.single_stroke_with_finger_top_to_bottom_short_horflip_short_600ms.mp4	71.single_stroke_with_finger_top_to_bottom_short_horflip_short_600ms.mp4	337.6690242592849	338.2773347659331	0.6083105066481949	n/a	n/a	n/a	n/a
298.455078125	0.2	611236	255	79	2	0	0	63	334	stimuli\Videos_short_600ms_vertflip\68.stroke_top_to_bottom_with_shawl_short_vertflip_short_600ms.mp4	68.stroke_top_to_bottom_with_shawl_short_vertflip_short_600ms.mp4	338.4689698330003	339.0773187547529	0.6083489217526221	n/a	n/a	n/a	n/a
299.25537109375	0.2	612875	256	79	2	0	0	64	171	stimuli\Videos_short_600ms_horflip\83.single_stroke_top_to_bottom_with_cotton_bud_short_horflip_short_600ms.mp4	83.single_stroke_top_to_bottom_with_cotton_bud_short_horflip_short_600ms.mp4	339.26895411506484	339.87729951787514	0.6083454028103006	n/a	n/a	n/a	n/a
300.05517578125	0.2	614513	257	79	2	0	0	65	285	stimuli\Videos_short_600ms_vertflip\23.single_push_with_a_spoon_short_vertflip_short_600ms.mp4	23.single_push_with_a_spoon_short_vertflip_short_600ms.mp4	340.0689671351447	340.6772817472247	0.6083146120799938	n/a	n/a	n/a	n/a
300.85498046875	0.2	616151	258	79	2	0	0	66	182	stimuli\Videos_short_600ms_horvertflip\11.single_touch_with_lighter_short_horvertflip_short_600ms.mp4	11.single_touch_with_lighter_short_horvertflip_short_600ms.mp4	340.8689135885961	341.47726339008295	0.6083498014868383	n/a	n/a	n/a	n/a
301.6552734375	0.2	617790	259	79	2	0	0	67	136	stimuli\Videos_short_600ms_horflip\51.repeated_touch_with_hammer_short_horflip_short_600ms.mp4	51.repeated_touch_with_hammer_short_horflip_short_600ms.mp4	341.6688829151608	342.27724855188353	0.6083656367227377	n/a	n/a	n/a	n/a
302.455078125	0.2	619428	260	79	2	0	0	68	294	stimuli\Videos_short_600ms_vertflip\31.hand_grabbing_wrist_short_vertflip_short_600ms.mp4	31.hand_grabbing_wrist_short_vertflip_short_600ms.mp4	342.4688871378894	343.077231074476	0.608343936586607	n/a	n/a	n/a	n/a
303.2548828125	0.2	621066	261	79	2	0	0	69	231	stimuli\Videos_short_600ms_horvertflip\56.repeated_touch_with_nail_file_short_horvertflip_short_600ms.mp4	56.repeated_touch_with_nail_file_short_horvertflip_short_600ms.mp4	343.2688699537284	343.8772150632958	0.6083451095673809	n/a	n/a	n/a	n/a
304.05517578125	0.2	622705	262	79	2	0	0	70	234	stimuli\Videos_short_600ms_horvertflip\59.single_push_with_long_side_pencil_short_horvertflip_short_600ms.mp4	59.single_push_with_long_side_pencil_short_horvertflip_short_600ms.mp4	344.0688559952632	344.67719670615406	0.6083407108908432	n/a	n/a	n/a	n/a
304.85498046875	0.2	624343	263	79	2	0	0	71	95	stimuli\Videos_short_600ms_horflip\14.repeated_touch_with_pencil_short_horflip_short_600ms.mp4	14.repeated_touch_with_pencil_short_horflip_short_600ms.mp4	344.8688435030235	345.4771745368271	0.6083310338035517	n/a	n/a	n/a	n/a
305.65478515625	0.2	625981	264	79	2	0	0	72	339	stimuli\Videos_short_600ms_vertflip\72.(short)stroke_with_finger_all_over_the_hand_short_vertflip_short_600ms.mp4	72.(short)stroke_with_finger_all_over_the_hand_short_vertflip_short_600ms.mp4	345.66884450005637	346.27715764591085	0.6083131458544813	n/a	n/a	n/a	n/a
306.455078125	0.2	627620	265	79	2	0	0	73	79	stimuli\Videos_short_600ms\81.single_stroke_top_to_bottom_with_cotton_pad_short_short_600ms.mp4	81.single_stroke_top_to_bottom_with_cotton_pad_short_short_600ms.mp4	346.46882496993567	347.0771002871752	0.6082753172395314	n/a	n/a	n/a	n/a
307.2548828125	0.2	629258	266	79	2	0	0	74	91	stimuli\Videos_short_600ms_horflip\10.single_touch_with_knife_short_horflip_short_600ms.mp4	10.single_touch_with_knife_short_horflip_short_600ms.mp4	347.26880456007893	347.87710832209086	0.6083037620119285	n/a	n/a	n/a	n/a
308.0546875	0.2	630896	267	79	2	0	0	75	96	stimuli\Videos_short_600ms_horflip\15.single_stroke_top_to_bottom_with_a_plastic_whisk_short_horflip_short_600ms.mp4	15.single_stroke_top_to_bottom_with_a_plastic_whisk_short_horflip_short_600ms.mp4	348.0687888421435	348.6770685580577	0.6082797159142501	n/a	n/a	n/a	n/a
308.85498046875	0.2	632535	268	79	2	0	0	76	101	stimuli\Videos_short_600ms_horflip\2.single_touch_with_finger_short_horflip_short_600ms.mp4	2.single_touch_with_finger_short_horflip_short_600ms.mp4	348.868830013751	349.47707717946287	0.6082471657118731	n/a	n/a	n/a	n/a
309.65478515625	0.2	634173	269	79	2	0	0	77	127	stimuli\Videos_short_600ms_horflip\43.touch_top_to_bottom_with_sharp_wooden_stick_short_horflip_short_600ms.mp4	43.touch_top_to_bottom_with_sharp_wooden_stick_short_horflip_short_600ms.mp4	349.6688216269413	350.27705823583165	0.6082366088903655	n/a	n/a	n/a	n/a
310.45458984375	0.2	635811	270	79	2	0	0	78	119	stimuli\Videos_short_600ms_horflip\36.single_slap_with_full_hand_short_horflip_short_600ms.mp4	36.single_slap_with_full_hand_short_horflip_short_600ms.mp4	350.46875605734385	351.077065684256	0.6083096269121597	n/a	n/a	n/a	n/a
311.2548828125	0.2	637450	271	79	2	0	0	79	345	stimuli\Videos_short_600ms_vertflip\78.single_stroke_top_to_bottom_with_soft_brush_short_vertflip_short_600ms.mp4	78.single_stroke_top_to_bottom_with_soft_brush_short_vertflip_short_600ms.mp4	351.2687242109296	351.87704439466506	0.6083201837354864	n/a	n/a	n/a	n/a
312.0546875	0.2	639088	272	79	2	0	0	80	335	stimuli\Videos_short_600ms_vertflip\69.stroke_with_soft_sock_short_vertflip_short_600ms.mp4	69.stroke_with_soft_sock_short_vertflip_short_600ms.mp4	352.0687348850497	352.67702545103384	0.6082905659841344	n/a	n/a	n/a	n/a
312.8544921875	0.2	640726	273	79	2	0	0	81	170	stimuli\Videos_short_600ms_horflip\82.repeated_touch_with_cotton_bud_short_horflip_short_600ms.mp4	82.repeated_touch_with_cotton_bud_short_horflip_short_600ms.mp4	352.86866345055023	353.47700621415606	0.6083427636058332	n/a	n/a	n/a	n/a
313.65478515625	0.2	642365	274	79	2	0	0	82	352	stimuli\Videos_short_600ms_vertflip\84.single_touch_with_cotton_bud_short_vertflip_short_600ms.mp4	84.single_touch_with_cotton_bud_short_vertflip_short_600ms.mp4	353.66864890559555	354.2769910827101	0.6083421771145368	n/a	n/a	n/a	n/a
314.45458984375	0.2	644003	275	79	2	0	0	83	218	stimuli\Videos_short_600ms_horvertflip\44.pushing_top_to_bottom_with_finger_short_horvertflip_short_600ms.mp4	44.pushing_top_to_bottom_with_finger_short_horvertflip_short_600ms.mp4	354.4686528350794	355.07697272557016	0.6083198904907476	n/a	n/a	n/a	n/a
315.2548828125	0.2	645642	276	79	2	0	0	84	222	stimuli\Videos_short_600ms_horvertflip\48.single_slap_with_hand_short_horvertflip_short_600ms.mp4	48.single_slap_with_hand_short_horvertflip_short_600ms.mp4	355.26874004616366	355.8769578873689	0.6082178412052599	n/a	n/a	n/a	n/a
316.0546875	0.2	647280	277	79	2	0	0	85	269	stimuli\Videos_short_600ms_horvertflip\90.repeated_touch_with_sponge_short_horvertflip_short_600ms.mp4	90.repeated_touch_with_sponge_short_horvertflip_short_600ms.mp4	356.0686005788066	356.67694216943346	0.6083415906268783	n/a	n/a	n/a	n/a
316.8544921875	0.2	648918	278	79	2	0	0	86	290	stimuli\Videos_short_600ms_vertflip\28.single_injection_with_sharp_needle_short_vertflip_short_600ms.mp4	28.single_injection_with_sharp_needle_short_vertflip_short_600ms.mp4	356.86856492020706	357.47692410553645	0.608359185329391	n/a	n/a	n/a	n/a
317.65478515625	0.2	650557	279	79	2	0	0	87	103	stimuli\Videos_short_600ms_horflip\21.repeated_touch_with_metal_chopstick_short_horflip_short_600ms.mp4	21.repeated_touch_with_metal_chopstick_short_horflip_short_600ms.mp4	357.6685277953802	358.276906334886	0.608378539505793	n/a	n/a	n/a	n/a
318.45458984375	0.2	652195	280	79	2	0	0	88	246	stimuli\Videos_short_600ms_horvertflip\7.repeated_touch_with_hairbrush_short_horvertflip_short_600ms.mp4	7.repeated_touch_with_hairbrush_short_horvertflip_short_600ms.mp4	358.46854550738317	359.0768917899295	0.6083462825463357	n/a	n/a	n/a	n/a
319.25439453125	0.2	653833	281	79	2	0	0	89	24	stimuli\Videos_short_600ms\31.hand_grabbing_wrist_short_short_600ms.mp4	31.hand_grabbing_wrist_short_short_600ms.mp4	359.2685368273287	359.8768716733175	0.608334845988793	n/a	n/a	n/a	n/a
320.0546875	0.2	655472	282	79	2	0	0	90	87	stimuli\Videos_short_600ms\89.single_touch_with_plastic_brush_short_short_600ms.mp4	89.single_touch_with_plastic_brush_short_short_600ms.mp4	360.0685205229038	360.6768612337928	0.6083407108890242	n/a	n/a	n/a	n/a
320.8544921875	0.2	657110	283	79	2	0	0	91	45	stimuli\Videos_short_600ms\50.single_(long)hard_push_with_thumb_short_short_600ms.mp4	50.single_(long)hard_push_with_thumb_short_short_600ms.mp4	360.8685191739751	361.4768009426079	0.6082817686328781	n/a	n/a	n/a	n/a
321.654296875	0.2	658748	284	79	2	0	0	92	307	stimuli\Videos_short_600ms_vertflip\43.touch_top_to_bottom_with_sharp_wooden_stick_short_vertflip_short_600ms.mp4	43.touch_top_to_bottom_with_sharp_wooden_stick_short_vertflip_short_600ms.mp4	361.6685072682267	362.27679607473874	0.6082888065120642	n/a	n/a	n/a	n/a
322.45458984375	0.2	660387	285	79	2	0	0	93	283	stimuli\Videos_short_600ms_vertflip\21.repeated_touch_with_metal_chopstick_short_vertflip_short_600ms.mp4	21.repeated_touch_with_metal_chopstick_short_vertflip_short_600ms.mp4	362.4684804069766	363.076780650048	0.6083002430714259	n/a	n/a	n/a	n/a
323.25439453125	0.2	662025	286	79	2	0	0	94	304	stimuli\Videos_short_600ms_vertflip\40.repeated_push_with_finger_short_vertflip_short_600ms.mp4	40.repeated_push_with_finger_short_vertflip_short_600ms.mp4	363.2684614633454	363.87678692549343	0.6083254621480592	n/a	n/a	n/a	n/a
324.05419921875	0.2	663663	287	79	2	0	0	95	187	stimuli\Videos_short_600ms_horvertflip\16.repeated_touch_with_plastic_brush_short_horvertflip_short_600ms.mp4	16.repeated_touch_with_plastic_brush_short_horvertflip_short_600ms.mp4	364.0684539562717	364.6767612372241	0.608307280952431	6.0	6.0	2.1778504960384453	1.0
357.0615234375	0.2	731262	288	79	3	0	0	0	142	stimuli\Videos_short_600ms_horflip\57.single_touch_with_nail_file_short_horflip_short_600ms.mp4	57.single_touch_with_nail_file_short_horflip_short_600ms.mp4	397.0762123411023	397.68437124004777	0.6081588989454758	n/a	n/a	n/a	n/a
357.86181640625	0.2	732901	289	79	3	0	0	1	191	stimuli\Videos_short_600ms_horvertflip\2.single_touch_with_finger_short_horvertflip_short_600ms.mp4	2.single_touch_with_finger_short_horvertflip_short_600ms.mp4	397.8760640763939	398.4843153475376	0.6082512711436721	n/a	n/a	n/a	n/a
358.66162109375	0.2	734539	290	79	3	0	0	2	254	stimuli\Videos_short_600ms_horvertflip\77.tapping_with_all_fingers_short_horvertflip_short_600ms.mp4	77.tapping_with_all_fingers_short_horvertflip_short_600ms.mp4	398.67605070441823	399.2843148783468	0.6082641739285464	n/a	n/a	n/a	n/a
359.46142578125	0.2	736177	291	79	3	0	0	3	267	stimuli\Videos_short_600ms_horvertflip\89.single_touch_with_plastic_brush_short_horvertflip_short_600ms.mp4	89.single_touch_with_plastic_brush_short_horvertflip_short_600ms.mp4	399.47602765535703	400.0843240862414	0.6082964308843657	n/a	n/a	n/a	n/a
360.26171875	0.2	737816	292	79	3	0	0	4	77	stimuli\Videos_short_600ms\8.single_touch_with_hairbrush_short_short_600ms.mp4	8.single_touch_with_hairbrush_short_short_600ms.mp4	400.2760072455003	400.8843071953251	0.6082999498248682	n/a	n/a	n/a	n/a
361.0615234375	0.2	739454	293	79	3	0	0	5	114	stimuli\Videos_short_600ms_horflip\31.hand_grabbing_wrist_short_horflip_short_600ms.mp4	31.hand_grabbing_wrist_short_horflip_short_600ms.mp4	401.0759927005438	401.6843143505048	0.6083216499609989	n/a	n/a	n/a	n/a
361.861328125	0.2	741092	294	79	3	0	0	6	225	stimuli\Videos_short_600ms_horvertflip\50.single_(long)hard_push_with_thumb_short_horvertflip_short_600ms.mp4	50.single_(long)hard_push_with_thumb_short_horvertflip_short_600ms.mp4	401.87597287717654	402.4843006852843	0.6083278081077879	n/a	n/a	n/a	n/a
362.66162109375	0.2	742731	295	79	3	0	0	7	280	stimuli\Videos_short_600ms_vertflip\19.single_touch_with_rolling_pin_short_vertflip_short_600ms.mp4	19.single_touch_with_rolling_pin_short_vertflip_short_600ms.mp4	402.6759556930156	403.28427382403606	0.6083181310204964	n/a	n/a	n/a	n/a
363.46142578125	0.2	744369	296	79	3	0	0	8	22	stimuli\Videos_short_600ms\3.single_push_with_finger_short_short_600ms.mp4	3.single_push_with_finger_short_short_600ms.mp4	403.4759379223651	404.0842592790814	0.6083213567162602	n/a	n/a	n/a	n/a
364.26123046875	0.2	746007	297	79	3	0	0	9	25	stimuli\Videos_short_600ms\32.single_(long)pinch_with_fingers_short_short_600ms.mp4	32.single_(long)pinch_with_fingers_short_short_600ms.mp4	404.2759219111831	404.8842412151844	0.6083193040012702	n/a	n/a	n/a	n/a
365.0615234375	0.2	747646	298	79	3	0	0	10	35	stimuli\Videos_short_600ms\41.injection_with_blunt_syringe_short_short_600ms.mp4	41.injection_with_blunt_syringe_short_short_600ms.mp4	405.0759079527179	405.6842272567192	0.6083193040012702	n/a	n/a	n/a	n/a
365.861328125	0.2	749284	299	79	3	0	0	11	111	stimuli\Videos_short_600ms_horflip\29.single_pinch_with_tweezers_short_horflip_short_600ms.mp4	29.single_pinch_with_tweezers_short_horflip_short_600ms.mp4	405.87588607663565	406.4842179901752	0.6083319135395868	n/a	n/a	n/a	n/a
366.6611328125	0.2	750922	300	79	3	0	0	12	332	stimuli\Videos_short_600ms_vertflip\66.stroke_top_to_bottom_with_sponge_short_vertflip_short_600ms.mp4	66.stroke_top_to_bottom_with_sponge_short_vertflip_short_600ms.mp4	406.6758721181705	407.28418966270146	0.6083175445310189	n/a	n/a	n/a	n/a
367.46142578125	0.2	752561	301	79	3	0	0	13	137	stimuli\Videos_short_600ms_horflip\52.touch_top_to_bottom_with_hammer_short_horflip_short_600ms.mp4	52.touch_top_to_bottom_with_hammer_short_horflip_short_600ms.mp4	407.475861385401	408.08417218529394	0.6083107998929336	n/a	n/a	n/a	n/a
368.26123046875	0.2	754199	302	79	3	0	0	14	160	stimuli\Videos_short_600ms_horflip\73.single_stroke_with_flat_hand_short_horflip_short_600ms.mp4	73.single_stroke_with_flat_hand_short_horflip_short_600ms.mp4	408.2758139969974	408.88415558762426	0.6083415906268783	n/a	n/a	n/a	n/a
369.06103515625	0.2	755837	303	79	3	0	0	15	240	stimuli\Videos_short_600ms_horvertflip\64.repeated_touch_with_screwdriver_short_horvertflip_short_600ms.mp4	64.repeated_touch_with_screwdriver_short_horvertflip_short_600ms.mp4	409.0758366941664	409.6841369372378	0.6083002430714259	n/a	n/a	n/a	n/a
369.861328125	0.2	757476	304	79	3	0	0	16	286	stimuli\Videos_short_600ms_vertflip\24.single_stroke_top_to_bottom_with_a_spoon_short_vertflip_short_600ms.mp4	24.single_stroke_top_to_bottom_with_a_spoon_short_vertflip_short_600ms.mp4	409.8757681921179	410.4841259112218	0.6083577191038785	n/a	n/a	n/a	n/a
370.6611328125	0.2	759114	305	79	3	0	0	17	302	stimuli\Videos_short_600ms_vertflip\39.single_stab_with_scissors_short_vertflip_short_600ms.mp4	39.single_stab_with_scissors_short_vertflip_short_600ms.mp4	410.6757724148465	411.28410080944377	0.6083283945972653	n/a	n/a	n/a	n/a
371.4609375	0.2	760752	306	79	3	0	0	18	188	stimuli\Videos_short_600ms_horvertflip\17.repeated_touch_with_rolling_pin_short_horvertflip_short_600ms.mp4	17.repeated_touch_with_rolling_pin_short_horvertflip_short_600ms.mp4	411.4757478995598	412.0840522480612	0.6083043485014059	n/a	n/a	n/a	n/a
372.26123046875	0.2	762391	307	79	3	0	0	19	235	stimuli\Videos_short_600ms_horvertflip\6.single_touch_with_flat_hand_short_horvertflip_short_600ms.mp4	6.single_touch_with_flat_hand_short_horvertflip_short_600ms.mp4	412.2757579871886	412.88404562072174	0.6082876335331093	n/a	n/a	n/a	n/a
373.06103515625	0.2	764029	308	79	3	0	0	20	65	stimuli\Videos_short_600ms\69.stroke_with_soft_sock_short_short_600ms.mp4	69.stroke_with_soft_sock_short_short_600ms.mp4	413.0757325921659	413.68400878914144	0.6082761969755666	n/a	n/a	n/a	n/a
373.86083984375	0.2	765667	309	79	3	0	0	21	48	stimuli\Videos_short_600ms\53.touch_top_to_bottom_with_knife_short_short_600ms.mp4	53.touch_top_to_bottom_with_knife_short_short_600ms.mp4	413.8757200999262	414.484008026704	0.608287926777848	n/a	n/a	n/a	n/a
374.6611328125	0.2	767306	310	79	3	0	0	22	343	stimuli\Videos_short_600ms_vertflip\76.tickle_with_fingers_from_top_to_bottom_short_vertflip_short_600ms.mp4	76.tickle_with_fingers_from_top_to_bottom_short_vertflip_short_600ms.mp4	414.6756970508632	415.2839987601601	0.6083017092969385	n/a	n/a	n/a	n/a
375.4609375	0.2	768944	311	79	3	0	0	23	64	stimuli\Videos_short_600ms\68.stroke_top_to_bottom_with_shawl_short_short_600ms.mp4	68.stroke_top_to_bottom_with_shawl_short_short_600ms.mp4	415.475691010015	416.08398245573335	0.6082914457183506	n/a	n/a	n/a	n/a
376.2607421875	0.2	770582	312	79	3	0	0	24	174	stimuli\Videos_short_600ms_horflip\86.touch_top_to_bottom_with_hair_brush_short_horflip_short_600ms.mp4	86.touch_top_to_bottom_with_hair_brush_short_horflip_short_600ms.mp4	416.27567323936455	416.88398990415953	0.6083166647949838	n/a	n/a	n/a	n/a
377.06103515625	0.2	772221	313	79	3	0	0	25	301	stimuli\Videos_short_600ms_vertflip\38.double_slap_with_pencil_short_vertflip_short_600ms.mp4	38.double_slap_with_pencil_short_vertflip_short_600ms.mp4	417.075650776791	417.6839730132433	0.6083222364522953	n/a	n/a	n/a	n/a
377.86083984375	0.2	773859	314	79	3	0	0	26	324	stimuli\Videos_short_600ms_vertflip\59.single_push_with_long_side_pencil_short_vertflip_short_600ms.mp4	59.single_push_with_long_side_pencil_short_vertflip_short_600ms.mp4	417.875628607464	418.48395582908233	0.6083272216183104	n/a	n/a	n/a	n/a
378.6611328125	0.2	775498	315	79	3	0	0	27	315	stimuli\Videos_short_600ms_vertflip\50.single_(long)hard_push_with_thumb_short_vertflip_short_600ms.mp4	50.single_(long)hard_push_with_thumb_short_vertflip_short_600ms.mp4	418.6756117165478	419.2839307273043	0.6083190107565315	n/a	n/a	n/a	n/a
379.4609375	0.2	777136	316	79	3	0	0	28	116	stimuli\Videos_short_600ms_horflip\33.scratch_top_to_bottom_with_scissors_short_horflip_short_600ms.mp4	33.scratch_top_to_bottom_with_scissors_short_horflip_short_600ms.mp4	419.4755957053676	420.0839126634073	0.6083169580397225	n/a	n/a	n/a	n/a
380.2607421875	0.2	778774	317	79	3	0	0	29	311	stimuli\Videos_short_600ms_vertflip\47.(long)scratching_with_finger_nails_short_vertflip_short_600ms.mp4	47.(long)scratching_with_finger_nails_short_vertflip_short_600ms.mp4	420.2755764684917	420.8838951860016	0.6083187175099738	n/a	n/a	n/a	n/a
381.06103515625	0.2	780413	318	79	3	0	0	30	63	stimuli\Videos_short_600ms\67.single_touch_with_sponge_short_short_600ms.mp4	67.single_touch_with_sponge_short_short_600ms.mp4	421.0755607505544	421.68388152078114	0.6083207702267828	n/a	n/a	n/a	n/a
381.86083984375	0.2	782051	319	79	3	0	0	31	135	stimuli\Videos_short_600ms_horflip\50.single_(long)hard_push_with_thumb_short_horflip_short_600ms.mp4	50.single_(long)hard_push_with_thumb_short_horflip_short_600ms.mp4	421.8755426866592	422.4838631636394	0.6083204769802251	n/a	n/a	n/a	n/a
382.66064453125	0.2	783689	320	79	3	0	0	32	248	stimuli\Videos_short_600ms_horvertflip\71.single_stroke_with_finger_top_to_bottom_short_horvertflip_short_600ms.mp4	71.single_stroke_with_finger_top_to_bottom_short_horvertflip_short_600ms.mp4	422.6755114267344	423.28384392676344	0.6083325000290642	n/a	n/a	n/a	n/a
383.4609375	0.2	785328	321	79	3	0	0	33	34	stimuli\Videos_short_600ms\40.repeated_push_with_finger_short_short_600ms.mp4	40.repeated_push_with_finger_short_short_600ms.mp4	423.47548544522033	424.08382674260247	0.6083412973821396	n/a	n/a	n/a	n/a
384.2607421875	0.2	786966	322	79	3	0	0	34	165	stimuli\Videos_short_600ms_horflip\78.single_stroke_top_to_bottom_with_soft_brush_short_horflip_short_600ms.mp4	78.single_stroke_top_to_bottom_with_soft_brush_short_horflip_short_600ms.mp4	424.2754709002657	424.88380926519494	0.6083383649292955	n/a	n/a	n/a	n/a
385.060546875	0.2	788604	323	79	3	0	0	35	21	stimuli\Videos_short_600ms\29.single_pinch_with_tweezers_short_short_600ms.mp4	29.single_pinch_with_tweezers_short_short_600ms.mp4	425.0754569418005	425.683795013485	0.6083380716845568	n/a	n/a	n/a	n/a
385.86083984375	0.2	790243	324	79	3	0	0	36	206	stimuli\Videos_short_600ms_horvertflip\33.scratch_top_to_bottom_with_scissors_short_horvertflip_short_600ms.mp4	33.scratch_top_to_bottom_with_scissors_short_horvertflip_short_600ms.mp4	425.8754391711482	426.4837581819047	0.6083190107565315	n/a	n/a	n/a	n/a
386.66064453125	0.2	791881	325	79	3	0	0	37	202	stimuli\Videos_short_600ms_horvertflip\3.single_push_with_finger_short_horvertflip_short_600ms.mp4	3.single_push_with_finger_short_horvertflip_short_600ms.mp4	426.67543049109554	427.2837248692649	0.6082943781693757	n/a	n/a	n/a	n/a
387.46044921875	0.2	793519	326	79	3	0	0	38	229	stimuli\Videos_short_600ms_horvertflip\54.repeated_touch_with_knife_short_horvertflip_short_600ms.mp4	54.repeated_touch_with_knife_short_horvertflip_short_600ms.mp4	427.4754294354134	428.0837202946405	0.6082908592270542	n/a	n/a	n/a	n/a
388.2607421875	0.2	795158	327	79	3	0	0	39	128	stimuli\Videos_short_600ms_horflip\44.pushing_top_to_bottom_with_finger_short_horflip_short_600ms.mp4	44.pushing_top_to_bottom_with_finger_short_horflip_short_600ms.mp4	428.27540492012486	428.8837116145878	0.6083066944629536	n/a	n/a	n/a	n/a
389.060546875	0.2	796796	328	79	3	0	0	40	42	stimuli\Videos_short_600ms\48.single_slap_with_hand_short_short_600ms.mp4	48.single_slap_with_hand_short_short_600ms.mp4	429.07540063874694	429.683687392544	0.6082867537970742	n/a	n/a	n/a	n/a
389.8603515625	0.2	798434	329	79	3	0	0	41	57	stimuli\Videos_short_600ms\61.single_hit_with_rolling_pin_short_short_600ms.mp4	61.single_hit_with_rolling_pin_short_short_600ms.mp4	429.8753723112732	430.4836766597746	0.6083043485014059	n/a	n/a	n/a	n/a
390.66064453125	0.2	800073	330	79	3	0	0	42	11	stimuli\Videos_short_600ms\2.single_touch_with_finger_short_short_600ms.mp4	2.single_touch_with_finger_short_short_600ms.mp4	430.6753539541314	431.2836541972029	0.6083002430714259	n/a	n/a	n/a	n/a
391.46044921875	0.2	801711	331	79	3	0	0	43	312	stimuli\Videos_short_600ms_vertflip\48.single_slap_with_hand_short_vertflip_short_600ms.mp4	48.single_slap_with_hand_short_vertflip_short_600ms.mp4	431.4753364767257	432.0836686835082	0.6083322067825065	n/a	n/a	n/a	n/a
392.26025390625	0.2	803349	332	79	3	0	0	44	279	stimuli\Videos_short_600ms_vertflip\18.single_stroke_from_top_to_bottom_with_rolling_pin_short_vertflip_short_600ms.mp4	18.single_stroke_from_top_to_bottom_with_rolling_pin_short_vertflip_short_600ms.mp4	432.27531929256475	432.88365061961304	0.6083313270482904	n/a	n/a	n/a	n/a
393.060546875	0.2	804988	333	79	3	0	0	45	295	stimuli\Videos_short_600ms_vertflip\32.single_(long)pinch_with_fingers_short_vertflip_short_600ms.mp4	32.single_(long)pinch_with_fingers_short_vertflip_short_600ms.mp4	433.0753070935698	433.6836211191585	0.6083140255886974	n/a	n/a	n/a	n/a
393.8603515625	0.2	806626	334	79	3	0	0	46	275	stimuli\Videos_short_600ms_vertflip\14.repeated_touch_with_pencil_short_vertflip_short_600ms.mp4	14.repeated_touch_with_pencil_short_vertflip_short_600ms.mp4	433.8752869769578	434.483604521487	0.6083175445292	n/a	n/a	n/a	n/a
394.6689453125	0.2	808282	335	79	3	0	0	47	27	stimuli\Videos_short_600ms\34.repeated_punch_with_hand_short_short_600ms.mp4	34.repeated_punch_with_hand_short_short_600ms.mp4	434.68358329054354	435.2918981958682	0.6083149053247325	n/a	n/a	n/a	n/a
395.46875	0.2	809920	336	79	3	0	0	48	255	stimuli\Videos_short_600ms_horvertflip\78.single_stroke_top_to_bottom_with_soft_brush_short_horvertflip_short_600ms.mp4	78.single_stroke_top_to_bottom_with_soft_brush_short_horvertflip_short_600ms.mp4	435.4835831145974	436.0918859968733	0.6083028822758934	n/a	n/a	n/a	n/a
396.2685546875	0.2	811558	337	79	3	0	0	49	212	stimuli\Videos_short_600ms_horvertflip\39.single_stab_with_scissors_short_horvertflip_short_600ms.mp4	39.single_stab_with_scissors_short_horvertflip_short_600ms.mp4	436.2835688628875	436.8918720384081	0.6083031755206321	n/a	n/a	n/a	n/a
397.06884765625	0.2	813197	338	79	3	0	0	50	28	stimuli\Videos_short_600ms\35.single_punch_with_hand_short_short_600ms.mp4	35.single_punch_with_hand_short_short_600ms.mp4	437.08354933276496	437.6918712759707	0.6083219432057376	n/a	n/a	n/a	n/a
397.86865234375	0.2	814835	339	79	3	0	1	51	379	stimuli\Targets_short_600ms_vertflip\chopstick-silver-tap_short_horvertflip_short_600ms.mp4	chopstick-silver-tap_short_horvertflip_short_600ms.mp4	437.88353390807424	438.49185203909474	0.6083181310204964	n/a	n/a	n/a	n/a
398.66845703125	0.2	816473	340	79	3	0	0	52	227	stimuli\Videos_short_600ms_horvertflip\52.touch_top_to_bottom_with_hammer_short_horvertflip_short_600ms.mp4	52.touch_top_to_bottom_with_hammer_short_horvertflip_short_600ms.mp4	438.68351525768776	439.2918462914913	0.6083310338035517	n/a	n/a	n/a	n/a
399.46875	0.2	818112	341	79	3	0	0	53	113	stimuli\Videos_short_600ms_horflip\30.finger_pulling_back_another_finger_short_horflip_short_600ms.mp4	30.finger_pulling_back_another_finger_short_horflip_short_600ms.mp4	439.48350892359485	440.091816497792	0.6083075741971697	n/a	n/a	n/a	n/a
400.2685546875	0.2	819750	342	79	3	0	0	54	177	stimuli\Videos_short_600ms_horflip\89.single_touch_with_plastic_brush_short_horflip_short_600ms.mp4	89.single_touch_with_plastic_brush_short_horflip_short_600ms.mp4	440.28348470155106	440.8918004866118	0.6083157850607677	n/a	n/a	n/a	n/a
401.068359375	0.2	821388	343	79	3	0	0	55	117	stimuli\Videos_short_600ms_horflip\34.repeated_punch_with_hand_short_horflip_short_600ms.mp4	34.repeated_punch_with_hand_short_horflip_short_600ms.mp4	441.0834637052049	441.6917830092043	0.6083193039994512	n/a	n/a	n/a	n/a
401.86865234375	0.2	823027	344	79	3	0	0	56	164	stimuli\Videos_short_600ms_horflip\77.tapping_with_all_fingers_short_horflip_short_600ms.mp4	77.tapping_with_all_fingers_short_horflip_short_600ms.mp4	441.88344916024835	442.49176611828807	0.6083169580397225	n/a	n/a	n/a	n/a
402.66845703125	0.2	824665	345	79	3	0	0	57	359	stimuli\Videos_short_600ms_vertflip\90.repeated_touch_with_sponge_short_vertflip_short_600ms.mp4	90.repeated_touch_with_sponge_short_vertflip_short_600ms.mp4	442.68338652310194	443.29174981386313	0.60836329076119	n/a	n/a	n/a	n/a
403.46826171875	0.2	826303	346	79	3	0	0	58	38	stimuli\Videos_short_600ms\44.pushing_top_to_bottom_with_finger_short_short_600ms.mp4	44.pushing_top_to_bottom_with_finger_short_short_600ms.mp4	443.4834230027882	444.0917329229469	0.6083099201587174	n/a	n/a	n/a	n/a
404.2685546875	0.2	827942	347	79	3	0	0	59	9	stimuli\Videos_short_600ms\18.single_stroke_from_top_to_bottom_with_rolling_pin_short_short_600ms.mp4	18.single_stroke_from_top_to_bottom_with_rolling_pin_short_short_600ms.mp4	444.2833723886888	444.8917174982562	0.6083451095673809	n/a	n/a	n/a	n/a
405.068359375	0.2	829580	348	79	3	0	0	60	134	stimuli\Videos_short_600ms_horflip\5.repeated_tap_with_finger_moving_from_top_to_bottom_short_horflip_short_600ms.mp4	5.repeated_tap_with_finger_moving_from_top_to_bottom_short_horflip_short_600ms.mp4	445.0833604829404	445.6916947424379	0.6083342594974965	n/a	n/a	n/a	n/a
405.8681640625	0.2	831218	349	79	3	0	0	61	20	stimuli\Videos_short_600ms\28.single_injection_with_sharp_needle_short_short_600ms.mp4	28.single_injection_with_sharp_needle_short_short_600ms.mp4	445.8833362608966	446.49168254344295	0.6083462825463357	n/a	n/a	n/a	n/a
406.66845703125	0.2	832857	350	79	3	0	0	62	132	stimuli\Videos_short_600ms_horflip\48.single_slap_with_hand_short_horflip_short_600ms.mp4	48.single_slap_with_hand_short_horflip_short_600ms.mp4	446.6833308065379	447.2916401402072	0.60830933366924	n/a	n/a	n/a	n/a
407.46826171875	0.2	834495	351	79	3	0	0	63	261	stimuli\Videos_short_600ms_horvertflip\83.single_stroke_top_to_bottom_with_cotton_bud_short_horvertflip_short_600ms.mp4	83.single_stroke_top_to_bottom_with_cotton_bud_short_horvertflip_short_600ms.mp4	447.4833338562876	448.09164846836575	0.6083146120781748	n/a	n/a	n/a	n/a
408.26806640625	0.2	836133	352	79	3	0	1	64	369	stimuli\Targets_short_600ms_horflip\finger-tap_short_horflip_short_600ms.mp4	finger-tap_short_horflip_short_600ms.mp4	448.2833172586161	448.8916043056597	0.6082870470436319	n/a	n/a	n/a	n/a
409.068359375	0.2	837772	353	79	3	0	0	65	59	stimuli\Videos_short_600ms\63.stroke_top_to_bottom_with_screwdriver_short_short_600ms.mp4	63.stroke_top_to_bottom_with_screwdriver_short_short_600ms.mp4	449.0832930365741	449.6915651281179	0.6082720915437676	n/a	n/a	n/a	n/a
409.8681640625	0.2	839410	354	79	3	0	0	66	257	stimuli\Videos_short_600ms_horvertflip\8.single_touch_with_hairbrush_short_horvertflip_short_600ms.mp4	8.single_touch_with_hairbrush_short_horvertflip_short_600ms.mp4	449.88327526592184	450.4915711103167	0.6082958443948883	n/a	n/a	n/a	n/a
410.66796875	0.2	841048	355	79	3	0	0	67	183	stimuli\Videos_short_600ms_horvertflip\12.repeated_touch_with_nail_file_short_horvertflip_short_600ms.mp4	12.repeated_touch_with_nail_file_short_horvertflip_short_600ms.mp4	450.6832574952714	451.2915668289388	0.608309333667421	n/a	n/a	n/a	n/a
411.46826171875	0.2	842687	356	79	3	0	1	68	372	stimuli\Targets_short_600ms_horvertflip\brush-stroke_short_vertflip_short_600ms.mp4	brush-stroke_short_vertflip_short_600ms.mp4	451.4832391381297	452.0915619610714	0.6083228229417728	n/a	n/a	n/a	n/a
412.26806640625	0.2	844325	357	79	3	0	0	69	90	stimuli\Videos_short_600ms_horflip\1.repeated_touch_with_finger_fast_short_horflip_short_600ms.mp4	1.repeated_touch_with_finger_fast_short_horflip_short_600ms.mp4	452.2832219539687	452.8915521080362	0.6083301540675166	n/a	n/a	n/a	n/a
413.06787109375	0.2	845963	358	79	3	0	0	70	55	stimuli\Videos_short_600ms\6.single_touch_with_flat_hand_short_short_600ms.mp4	6.single_touch_with_flat_hand_short_short_600ms.mp4	453.08320447656297	453.691526126524	0.6083216499609989	n/a	n/a	n/a	n/a
