onset	duration	onsetsample	eventnumber	subjectnr	sequencenumber	blocksequencenumber	istarget	presentationnumber	stimnumber	stim	stimname	time_stimon	time_stimoff	stimdur	cresp	resp	rt	correct
23.43017578125	0.2	47985	0	60	0	0	0	0	189	stimuli\Videos_short_600ms_horvertflip\18.single_stroke_from_top_to_bottom_with_rolling_pin_short_horvertflip_short_600ms.mp4	18.single_stroke_from_top_to_bottom_with_rolling_pin_short_horvertflip_short_600ms.mp4	41.00458048800101	41.61286079040656	0.6082803024055465	n/a	n/a	n/a	n/a
24.22998046875	0.2	49623	1	60	0	0	0	1	60	stimuli\Videos_short_600ms\64.repeated_touch_with_screwdriver_short_short_600ms.mp4	64.repeated_touch_with_screwdriver_short_short_600ms.mp4	41.80513161278577	42.41283656836458	0.6077049555788108	n/a	n/a	n/a	n/a
25.0302734375	0.2	51262	2	60	0	0	0	2	323	stimuli\Videos_short_600ms_vertflip\58.single_slap_with_pencil_short_vertflip_short_600ms.mp4	58.single_slap_with_pencil_short_vertflip_short_600ms.mp4	42.60512029352685	43.21287040884454	0.6077501153176854	n/a	n/a	n/a	n/a
25.830078125	0.2	52900	3	60	0	0	0	3	292	stimuli\Videos_short_600ms_vertflip\3.single_push_with_finger_short_vertflip_short_600ms.mp4	3.single_push_with_finger_short_vertflip_short_600ms.mp4	43.4045491694269	44.01282829885349	0.6082791294265917	n/a	n/a	n/a	n/a
26.6298828125	0.2	54538	4	60	0	0	0	4	97	stimuli\Videos_short_600ms_horflip\16.repeated_touch_with_plastic_brush_short_horflip_short_600ms.mp4	16.repeated_touch_with_plastic_brush_short_horflip_short_600ms.mp4	44.20450412698483	44.81280935522227	0.608305228237441	n/a	n/a	n/a	n/a
27.43017578125	0.2	56177	5	60	0	0	0	5	329	stimuli\Videos_short_600ms_vertflip\63.stroke_top_to_bottom_with_screwdriver_short_vertflip_short_600ms.mp4	63.stroke_top_to_bottom_with_screwdriver_short_vertflip_short_600ms.mp4	45.00447052109848	45.61281621715534	0.6083456960568583	n/a	n/a	n/a	n/a
28.22998046875	0.2	57815	6	60	0	0	0	6	218	stimuli\Videos_short_600ms_horvertflip\44.pushing_top_to_bottom_with_finger_short_horvertflip_short_600ms.mp4	44.pushing_top_to_bottom_with_finger_short_horvertflip_short_600ms.mp4	45.80451609138254	46.41279170186863	0.6082756104860891	n/a	n/a	n/a	n/a
29.02978515625	0.2	59453	7	60	0	0	0	7	249	stimuli\Videos_short_600ms_horvertflip\72.(short)stroke_with_finger_all_over_the_hand_short_horvertflip_short_600ms.mp4	72.(short)stroke_with_finger_all_over_the_hand_short_horvertflip_short_600ms.mp4	46.604646995981966	47.21277451770766	0.6081275217256916	n/a	n/a	n/a	n/a
29.830078125	0.2	61092	8	60	0	0	0	8	339	stimuli\Videos_short_600ms_vertflip\72.(short)stroke_with_finger_all_over_the_hand_short_vertflip_short_600ms.mp4	72.(short)stroke_with_finger_all_over_the_hand_short_vertflip_short_600ms.mp4	47.40450166372648	48.01275850652564	0.6082568427991646	n/a	n/a	n/a	n/a
30.6298828125	0.2	62730	9	60	0	0	0	9	181	stimuli\Videos_short_600ms_horvertflip\10.single_touch_with_knife_short_horvertflip_short_600ms.mp4	10.single_touch_with_knife_short_horvertflip_short_600ms.mp4	48.20446952406565	48.81269762884949	0.6082281047838478	n/a	n/a	n/a	n/a
31.4296875	0.2	64368	10	60	0	0	0	10	357	stimuli\Videos_short_600ms_vertflip\89.single_touch_with_plastic_brush_short_vertflip_short_600ms.mp4	89.single_touch_with_plastic_brush_short_vertflip_short_600ms.mp4	49.00439574360644	49.61272531118448	0.6083295675780391	n/a	n/a	n/a	n/a
32.22998046875	0.2	66007	11	60	0	0	0	11	196	stimuli\Videos_short_600ms_horvertflip\24.single_stroke_top_to_bottom_with_a_spoon_short_horvertflip_short_600ms.mp4	24.single_stroke_top_to_bottom_with_a_spoon_short_horvertflip_short_600ms.mp4	49.80442547865641	50.412706660797994	0.6082811821415817	n/a	n/a	n/a	n/a
33.02978515625	0.2	67645	12	60	0	0	0	12	342	stimuli\Videos_short_600ms_vertflip\75.(long)stroke_with_fingers_all_over_the_hand_short_vertflip_short_600ms.mp4	75.(long)stroke_with_fingers_all_over_the_hand_short_vertflip_short_600ms.mp4	50.60435844283347	51.2126900631265	0.6083316202930291	n/a	n/a	n/a	n/a
33.82958984375	0.2	69283	13	60	0	0	0	13	217	stimuli\Videos_short_600ms_horvertflip\43.touch_top_to_bottom_with_sharp_wooden_stick_short_horvertflip_short_600ms.mp4	43.touch_top_to_bottom_with_sharp_wooden_stick_short_horvertflip_short_600ms.mp4	51.40432952887022	52.012676397906034	0.6083468690358131	n/a	n/a	n/a	n/a
34.6298828125	0.2	70922	14	60	0	0	0	14	318	stimuli\Videos_short_600ms_vertflip\53.touch_top_to_bottom_with_knife_short_vertflip_short_600ms.mp4	53.touch_top_to_bottom_with_knife_short_vertflip_short_600ms.mp4	52.20433697729459	52.8126524691088	0.60831549181421	n/a	n/a	n/a	n/a
35.4296875	0.2	72560	15	60	0	0	0	15	117	stimuli\Videos_short_600ms_horflip\34.repeated_punch_with_hand_short_horflip_short_600ms.mp4	34.repeated_punch_with_hand_short_horflip_short_600ms.mp4	53.004298679488784	53.612617983488235	0.6083193039994512	n/a	n/a	n/a	n/a
36.2294921875	0.2	74198	16	60	0	0	1	16	379	stimuli\Targets_short_600ms_vertflip\chopstick-silver-tap_short_horvertflip_short_600ms.mp4	chopstick-silver-tap_short_horvertflip_short_600ms.mp4	53.80458940265089	54.41260343853355	0.6080140358826611	n/a	n/a	n/a	n/a
37.02978515625	0.2	75837	17	60	0	0	0	17	187	stimuli\Videos_short_600ms_horvertflip\16.repeated_touch_with_plastic_brush_short_horvertflip_short_600ms.mp4	16.repeated_touch_with_plastic_brush_short_horvertflip_short_600ms.mp4	54.60430331276075	55.212566900198	0.60826358743725	n/a	n/a	n/a	n/a
37.82958984375	0.2	77475	18	60	0	0	0	18	30	stimuli\Videos_short_600ms\37.single_stab_with_nail_file_short_short_600ms.mp4	37.single_stab_with_nail_file_short_short_600ms.mp4	55.40427439879568	56.01254590384997	0.6082715050542902	n/a	n/a	n/a	n/a
38.62939453125	0.2	79113	19	60	0	0	0	19	112	stimuli\Videos_short_600ms_horflip\3.single_push_with_finger_short_horflip_short_600ms.mp4	3.single_push_with_finger_short_horflip_short_600ms.mp4	56.20424900377293	56.812527546708225	0.6082785429352953	n/a	n/a	n/a	n/a
39.4296875	0.2	80752	20	60	0	0	0	20	102	stimuli\Videos_short_600ms_horflip\20.single_touch_with_screwdriver_short_horflip_short_600ms.mp4	20.single_touch_with_screwdriver_short_horflip_short_600ms.mp4	57.00422830067146	57.61253323566234	0.6083049349908833	n/a	n/a	n/a	n/a
40.2294921875	0.2	82390	21	60	0	0	0	21	16	stimuli\Videos_short_600ms\24.single_stroke_top_to_bottom_with_a_spoon_short_short_600ms.mp4	24.single_stroke_top_to_bottom_with_a_spoon_short_short_600ms.mp4	57.8042161016765	58.412528954284426	0.6083128526079236	n/a	n/a	n/a	n/a
41.029296875	0.2	84028	22	60	0	0	0	22	139	stimuli\Videos_short_600ms_horflip\54.repeated_touch_with_knife_short_horflip_short_600ms.mp4	54.repeated_touch_with_knife_short_horflip_short_600ms.mp4	58.60419862427079	59.212503852506416	0.608305228235622	n/a	n/a	n/a	n/a
41.82958984375	0.2	85667	23	60	0	0	0	23	167	stimuli\Videos_short_600ms_horflip\8.single_touch_with_hairbrush_short_horflip_short_600ms.mp4	8.single_touch_with_hairbrush_short_horflip_short_600ms.mp4	59.404184959050326	60.0124995711285	0.6083146120781748	n/a	n/a	n/a	n/a
42.62939453125	0.2	87305	24	60	0	0	0	24	186	stimuli\Videos_short_600ms_horvertflip\15.single_stroke_top_to_bottom_with_a_plastic_whisk_short_horvertflip_short_600ms.mp4	15.single_stroke_top_to_bottom_with_a_plastic_whisk_short_horvertflip_short_600ms.mp4	60.20416718839806	60.81249851544635	0.6083313270482904	n/a	n/a	n/a	n/a
43.4296875	0.2	88944	25	60	0	0	0	25	272	stimuli\Videos_short_600ms_vertflip\11.single_touch_with_lighter_short_vertflip_short_600ms.mp4	11.single_touch_with_lighter_short_vertflip_short_600ms.mp4	61.004478145470785	61.61247077446387	0.6079926289930881	n/a	n/a	n/a	n/a
44.2294921875	0.2	90582	26	60	0	0	0	26	72	stimuli\Videos_short_600ms\75.(long)stroke_with_fingers_all_over_the_hand_short_short_600ms.mp4	75.(long)stroke_with_fingers_all_over_the_hand_short_short_600ms.mp4	61.80419616101062	62.41245065785188	0.6082544968412549	n/a	n/a	n/a	n/a
45.029296875	0.2	92220	27	60	0	0	0	27	153	stimuli\Videos_short_600ms_horflip\67.single_touch_with_sponge_short_horflip_short_600ms.mp4	67.single_touch_with_sponge_short_horflip_short_600ms.mp4	62.6040930560448	63.2124431507782	0.608350094733396	n/a	n/a	n/a	n/a
45.82958984375	0.2	93859	28	60	0	0	1	28	360	stimuli\Targets_short_600ms\brush-stroke_short_short_600ms.mp4	brush-stroke_short_short_600ms.mp4	63.40407880433486	64.01241570303864	0.6083368987037829	n/a	n/a	n/a	n/a
46.62939453125	0.2	95497	29	60	0	0	0	29	337	stimuli\Videos_short_600ms_vertflip\70.(long)stroke_with_finger_all_over_the_hand_short_vertflip_short_600ms.mp4	70.(long)stroke_with_finger_all_over_the_hand_short_vertflip_short_600ms.mp4	64.20408156083795	64.81240936894574	0.6083278081077879	n/a	n/a	n/a	n/a
47.42919921875	0.2	97135	30	60	0	0	0	30	162	stimuli\Videos_short_600ms_horflip\75.(long)stroke_with_fingers_all_over_the_hand_short_horflip_short_600ms.mp4	75.(long)stroke_with_fingers_all_over_the_hand_short_horflip_short_600ms.mp4	65.00411892026023	65.61238807935297	0.6082691590927425	n/a	n/a	n/a	n/a
48.2294921875	0.2	98774	31	60	0	0	0	31	260	stimuli\Videos_short_600ms_horvertflip\82.repeated_touch_with_cotton_bud_short_horvertflip_short_600ms.mp4	82.repeated_touch_with_cotton_bud_short_horvertflip_short_600ms.mp4	65.8040325302627	66.41236708300676	0.6083345527440542	n/a	n/a	n/a	n/a
49.029296875	0.2	100412	32	60	0	0	0	32	11	stimuli\Videos_short_600ms\2.single_touch_with_finger_short_short_600ms.mp4	2.single_touch_with_finger_short_short_600ms.mp4	66.60404349762757	67.21232555950337	0.6082820618757978	n/a	n/a	n/a	n/a
49.8291015625	0.2	102050	33	60	0	0	0	33	233	stimuli\Videos_short_600ms_horvertflip\58.single_slap_with_pencil_short_horvertflip_short_600ms.mp4	58.single_slap_with_pencil_short_horvertflip_short_600ms.mp4	67.40399229703871	68.01229283335488	0.6083005363161647	n/a	n/a	n/a	n/a
50.62939453125	0.2	103689	34	60	0	0	0	34	297	stimuli\Videos_short_600ms_vertflip\34.repeated_punch_with_hand_short_vertflip_short_600ms.mp4	34.repeated_punch_with_hand_short_vertflip_short_600ms.mp4	68.20394725459482	68.81228737899619	0.6083401244013658	n/a	n/a	n/a	n/a
51.42919921875	0.2	105327	35	60	0	0	0	35	238	stimuli\Videos_short_600ms_horvertflip\62.touch_top_to_bottom_with_scissors_short_horvertflip_short_600ms.mp4	62.touch_top_to_bottom_with_scissors_short_horvertflip_short_600ms.mp4	69.00398432077236	69.61231066265464	0.6083263418822753	n/a	n/a	n/a	n/a
52.22900390625	0.2	106965	36	60	0	0	0	36	291	stimuli\Videos_short_600ms_vertflip\29.single_pinch_with_tweezers_short_vertflip_short_600ms.mp4	29.single_pinch_with_tweezers_short_vertflip_short_600ms.mp4	69.8039706555519	70.41226884590833	0.608298190356436	n/a	n/a	n/a	n/a
53.029296875	0.2	108604	37	60	0	0	0	37	101	stimuli\Videos_short_600ms_horflip\2.single_touch_with_finger_short_horflip_short_600ms.mp4	2.single_touch_with_finger_short_horflip_short_600ms.mp4	70.60393089152058	71.21222204399419	0.6082911524736119	n/a	n/a	n/a	n/a
53.8291015625	0.2	110242	38	60	0	0	0	38	129	stimuli\Videos_short_600ms_horflip\45.scratching_with_finger_nails_short_horflip_short_600ms.mp4	45.scratching_with_finger_nails_short_horflip_short_600ms.mp4	71.40390578974257	72.01222392076306	0.6083181310204964	n/a	n/a	n/a	n/a
54.62890625	0.2	111880	39	60	0	0	0	39	281	stimuli\Videos_short_600ms_vertflip\2.single_touch_with_finger_short_vertflip_short_600ms.mp4	2.single_touch_with_finger_short_vertflip_short_600ms.mp4	72.203924088235	72.81220849607234	0.6082844078373455	n/a	n/a	n/a	n/a
55.42919921875	0.2	113519	40	60	0	0	1	40	378	stimuli\Targets_short_600ms_vertflip\brush-stroke_short_horvertflip_short_600ms.mp4	brush-stroke_short_horvertflip_short_600ms.mp4	73.00396643282329	73.61219600383265	0.6082295710093604	n/a	n/a	n/a	n/a
56.22900390625	0.2	115157	41	60	0	0	0	41	358	stimuli\Videos_short_600ms_vertflip\9.single_touch_with_hammer_short_vertflip_short_600ms.mp4	9.single_touch_with_hammer_short_vertflip_short_600ms.mp4	73.80393957157503	74.41227793650432	0.6083383649292955	n/a	n/a	n/a	n/a
57.02880859375	0.2	116795	42	60	0	0	0	42	142	stimuli\Videos_short_600ms_horflip\57.single_touch_with_nail_file_short_horflip_short_600ms.mp4	57.single_touch_with_nail_file_short_horflip_short_600ms.mp4	74.60386021945851	75.21221705882817	0.6083568393696623	n/a	n/a	n/a	n/a
57.8291015625	0.2	118434	43	60	0	0	0	43	254	stimuli\Videos_short_600ms_horvertflip\77.tapping_with_all_fingers_short_horvertflip_short_600ms.mp4	77.tapping_with_all_fingers_short_horvertflip_short_600ms.mp4	75.40382162840797	76.0121734826098	0.6083518542018282	n/a	n/a	n/a	n/a
58.62890625	0.2	120072	44	60	0	0	0	44	345	stimuli\Videos_short_600ms_vertflip\78.single_stroke_top_to_bottom_with_soft_brush_short_vertflip_short_600ms.mp4	78.single_stroke_top_to_bottom_with_soft_brush_short_vertflip_short_600ms.mp4	76.20382438491106	76.81212931990376	0.6083049349927023	n/a	n/a	n/a	n/a
59.4287109375	0.2	121710	45	60	0	0	0	45	180	stimuli\Videos_short_600ms_horvertflip\1.repeated_touch_with_finger_fast_short_horvertflip_short_600ms.mp4	1.repeated_touch_with_finger_fast_short_horvertflip_short_600ms.mp4	77.00380778723957	77.61213266289633	0.6083248756567627	n/a	n/a	n/a	n/a
60.22900390625	0.2	123349	46	60	0	0	0	46	26	stimuli\Videos_short_600ms\33.scratch_top_to_bottom_with_scissors_short_short_600ms.mp4	33.scratch_top_to_bottom_with_scissors_short_short_600ms.mp4	77.80387007249374	78.41211430575459	0.608244233260848	n/a	n/a	n/a	n/a
61.02880859375	0.2	124987	47	60	0	0	0	47	220	stimuli\Videos_short_600ms_horvertflip\46.scratching_top_to_bottom_with_finger_nails_short_horvertflip_short_600ms.mp4	46.scratching_top_to_bottom_with_finger_nails_short_horvertflip_short_600ms.mp4	78.60375846341958	79.21209653510414	0.6083380716845568	n/a	n/a	n/a	n/a
61.82861328125	0.2	126625	48	60	0	0	0	48	259	stimuli\Videos_short_600ms_horvertflip\81.single_stroke_top_to_bottom_with_cotton_pad_short_horvertflip_short_600ms.mp4	81.single_stroke_top_to_bottom_with_cotton_pad_short_horvertflip_short_600ms.mp4	79.4037829200588	80.0120822833942	0.6082993633353908	n/a	n/a	n/a	n/a
62.62890625	0.2	128264	49	60	0	0	0	49	232	stimuli\Videos_short_600ms_horvertflip\57.single_touch_with_nail_file_short_horvertflip_short_600ms.mp4	57.single_touch_with_nail_file_short_horvertflip_short_600ms.mp4	80.20379154146394	80.81214750109757	0.6083559596336272	n/a	n/a	n/a	n/a
63.4287109375	0.2	129902	50	60	0	0	0	50	95	stimuli\Videos_short_600ms_horflip\14.repeated_touch_with_pencil_short_horflip_short_600ms.mp4	14.repeated_touch_with_pencil_short_horflip_short_600ms.mp4	81.0037579355776	81.61202152301485	0.60826358743725	n/a	n/a	n/a	n/a
64.22900390625	0.2	131541	51	60	0	0	0	51	2	stimuli\Videos_short_600ms\11.single_touch_with_lighter_short_short_600ms.mp4	11.single_touch_with_lighter_short_short_600ms.mp4	81.80366568067984	82.4119926090516	0.6083269283717527	n/a	n/a	n/a	n/a
65.02880859375	0.2	133179	52	60	0	0	0	52	322	stimuli\Videos_short_600ms_vertflip\57.single_touch_with_nail_file_short_vertflip_short_600ms.mp4	57.single_touch_with_nail_file_short_vertflip_short_600ms.mp4	82.60364908300835	83.21207160927406	0.6084225262657128	n/a	n/a	n/a	n/a
65.82861328125	0.2	134817	53	60	0	0	1	53	380	stimuli\Targets_short_600ms_vertflip\chopstickwood-tap_short_horvertflip_short_600ms.mp4	chopstickwood-tap_short_horvertflip_short_600ms.mp4	83.40372045885852	84.01199577609805	0.6082753172395314	n/a	n/a	n/a	n/a
66.62890625	0.2	136456	54	60	0	0	0	54	240	stimuli\Videos_short_600ms_horvertflip\64.repeated_touch_with_screwdriver_short_horvertflip_short_600ms.mp4	64.repeated_touch_with_screwdriver_short_horvertflip_short_600ms.mp4	84.2036974097955	84.81198240412232	0.6082849943268229	n/a	n/a	n/a	n/a
67.4287109375	0.2	138094	55	60	0	0	0	55	137	stimuli\Videos_short_600ms_horflip\52.touch_top_to_bottom_with_hammer_short_horflip_short_600ms.mp4	52.touch_top_to_bottom_with_hammer_short_horflip_short_600ms.mp4	85.00363535913857	85.6119599415506	0.608324582412024	n/a	n/a	n/a	n/a
68.23681640625	0.2	139749	56	60	0	0	0	56	325	stimuli\Videos_short_600ms_vertflip\6.single_touch_with_flat_hand_short_vertflip_short_600ms.mp4	6.single_touch_with_flat_hand_short_vertflip_short_600ms.mp4	85.81190146848348	86.4202808877235	0.6083794192400092	n/a	n/a	n/a	n/a
69.037109375	0.2	141388	57	60	0	0	1	57	361	stimuli\Targets_short_600ms\chopstick-silver-tap_short_short_600ms.mp4	chopstick-silver-tap_short_short_600ms.mp4	86.61199864989976	87.22026282382649	0.6082641739267274	n/a	n/a	n/a	n/a
69.8369140625	0.2	143026	58	60	0	0	0	58	221	stimuli\Videos_short_600ms_horvertflip\47.(long)scratching_with_finger_nails_short_horvertflip_short_600ms.mp4	47.(long)scratching_with_finger_nails_short_horvertflip_short_600ms.mp4	87.4119849846793	88.02024798562707	0.6082630009477725	n/a	n/a	n/a	n/a
70.63671875	0.2	144664	59	60	0	0	0	59	324	stimuli\Videos_short_600ms_vertflip\59.single_push_with_long_side_pencil_short_vertflip_short_600ms.mp4	59.single_push_with_long_side_pencil_short_vertflip_short_600ms.mp4	88.21194785985426	88.82023138795557	0.6082835281013104	n/a	n/a	n/a	n/a
71.43701171875	0.2	146303	60	60	0	0	0	60	119	stimuli\Videos_short_600ms_horflip\36.single_slap_with_full_hand_short_horflip_short_600ms.mp4	36.single_slap_with_full_hand_short_horflip_short_600ms.mp4	89.01198404629577	89.6202106848541	0.6082266385583353	n/a	n/a	n/a	n/a
72.23681640625	0.2	147941	61	60	0	0	0	61	96	stimuli\Videos_short_600ms_horflip\15.single_stroke_top_to_bottom_with_a_plastic_whisk_short_horflip_short_600ms.mp4	15.single_stroke_top_to_bottom_with_a_plastic_whisk_short_horflip_short_600ms.mp4	89.81183754105768	90.42019203446762	0.6083544934099336	n/a	n/a	n/a	n/a
73.03662109375	0.2	149579	62	60	0	0	0	62	239	stimuli\Videos_short_600ms_horvertflip\63.stroke_top_to_bottom_with_screwdriver_short_horvertflip_short_600ms.mp4	63.stroke_top_to_bottom_with_screwdriver_short_horvertflip_short_600ms.mp4	90.61189161544826	91.2201801287174	0.6082885132691445	n/a	n/a	n/a	n/a
73.8369140625	0.2	151218	63	60	0	0	0	63	267	stimuli\Videos_short_600ms_horvertflip\89.single_touch_with_plastic_brush_short_horvertflip_short_600ms.mp4	89.single_touch_with_plastic_brush_short_horvertflip_short_600ms.mp4	91.4119975942176	92.02011602534368	0.6081184311260586	n/a	n/a	n/a	n/a
74.63671875	0.2	152856	64	60	0	0	0	64	125	stimuli\Videos_short_600ms_horflip\41.injection_with_blunt_syringe_short_horflip_short_600ms.mp4	41.injection_with_blunt_syringe_short_horflip_short_600ms.mp4	92.21188686487947	92.82009854793796	0.608211683058471	n/a	n/a	n/a	n/a
75.4453125	0.2	154512	65	60	0	0	0	65	131	stimuli\Videos_short_600ms_horflip\47.(long)scratching_with_finger_nails_short_horflip_short_600ms.mp4	47.(long)scratching_with_finger_nails_short_horflip_short_600ms.mp4	93.02009579143488	93.6284593754408	0.6083635840059287	n/a	n/a	n/a	n/a
76.2451171875	0.2	156150	66	60	0	0	0	66	263	stimuli\Videos_short_600ms_horvertflip\85.touch_top_to_bottom_with_fabric_short_horvertflip_short_600ms.mp4	85.touch_top_to_bottom_with_fabric_short_horvertflip_short_600ms.mp4	93.8201410684742	94.42844043180958	0.6082993633353908	n/a	n/a	n/a	n/a
77.044921875	0.2	157788	67	60	0	0	0	67	211	stimuli\Videos_short_600ms_horvertflip\38.double_slap_with_pencil_short_horvertflip_short_600ms.mp4	38.double_slap_with_pencil_short_horvertflip_short_600ms.mp4	94.62053061522602	95.22842500711886	0.6078943918928417	n/a	n/a	n/a	n/a
77.84521484375	0.2	159427	68	60	0	0	0	68	74	stimuli\Videos_short_600ms\77.tapping_with_all_fingers_short_short_600ms.mp4	77.tapping_with_all_fingers_short_short_600ms.mp4	95.42053513119936	96.02840342428136	0.6078682930819923	n/a	n/a	n/a	n/a
78.64501953125	0.2	161065	69	60	0	0	0	69	163	stimuli\Videos_short_600ms_horflip\76.tickle_with_fingers_from_top_to_bottom_short_horflip_short_600ms.mp4	76.tickle_with_fingers_from_top_to_bottom_short_horflip_short_600ms.mp4	96.22030915654796	96.8283871198546	0.6080779633066413	n/a	n/a	n/a	n/a
79.44482421875	0.2	162703	70	60	0	0	1	70	374	stimuli\Targets_short_600ms_horvertflip\chopstickwood-tap_short_vertflip_short_600ms.mp4	chopstickwood-tap_short_vertflip_short_600ms.mp4	97.02005532361544	97.62833093409972	0.6082756104842701	n/a	n/a	n/a	n/a
80.2451171875	0.2	164342	71	60	0	0	0	71	316	stimuli\Videos_short_600ms_vertflip\51.repeated_touch_with_hammer_short_vertflip_short_600ms.mp4	51.repeated_touch_with_hammer_short_vertflip_short_600ms.mp4	97.82001966501412	98.42831374993877	0.608294084924637	n/a	n/a	n/a	n/a
81.044921875	0.2	165980	72	60	0	0	0	72	295	stimuli\Videos_short_600ms_vertflip\32.single_(long)pinch_with_fingers_short_vertflip_short_600ms.mp4	32.single_(long)pinch_with_fingers_short_vertflip_short_600ms.mp4	98.62002036880222	99.22834084578244	0.6083204769802251	n/a	n/a	n/a	n/a
81.8447265625	0.2	167618	73	60	0	0	0	73	176	stimuli\Videos_short_600ms_horflip\88.repeated_stroke_with_plastic_brush_short_horflip_short_600ms.mp4	88.repeated_stroke_with_plastic_brush_short_horflip_short_600ms.mp4	99.41998119126038	100.02831574400444	0.6083345527440542	n/a	n/a	n/a	n/a
82.64501953125	0.2	169257	74	60	0	0	0	74	296	stimuli\Videos_short_600ms_vertflip\33.scratch_top_to_bottom_with_scissors_short_vertflip_short_600ms.mp4	33.scratch_top_to_bottom_with_scissors_short_vertflip_short_600ms.mp4	100.22000271544856	100.82832231269458	0.6083195972460089	n/a	n/a	n/a	n/a
83.44482421875	0.2	170895	75	60	0	0	0	75	227	stimuli\Videos_short_600ms_horvertflip\52.touch_top_to_bottom_with_hammer_short_horvertflip_short_600ms.mp4	52.touch_top_to_bottom_with_hammer_short_horvertflip_short_600ms.mp4	101.02000752466849	101.6283244827082	0.6083169580397225	n/a	n/a	n/a	n/a
84.24462890625	0.2	172533	76	60	0	0	0	76	242	stimuli\Videos_short_600ms_horvertflip\66.stroke_top_to_bottom_with_sponge_short_horvertflip_short_600ms.mp4	66.stroke_top_to_bottom_with_sponge_short_horvertflip_short_600ms.mp4	101.81991966844544	102.4282911700684	0.6083715016229689	n/a	n/a	n/a	n/a
85.044921875	0.2	174172	77	60	0	0	0	77	279	stimuli\Videos_short_600ms_vertflip\18.single_stroke_from_top_to_bottom_with_rolling_pin_short_vertflip_short_600ms.mp4	18.single_stroke_from_top_to_bottom_with_rolling_pin_short_vertflip_short_600ms.mp4	102.61995614813168	103.2282619628586	0.6083058147269185	n/a	n/a	n/a	n/a
85.8447265625	0.2	175810	78	60	0	0	0	78	247	stimuli\Videos_short_600ms_horvertflip\70.(long)stroke_with_finger_all_over_the_hand_short_horvertflip_short_600ms.mp4	70.(long)stroke_with_finger_all_over_the_hand_short_horvertflip_short_600ms.mp4	103.41992254224716	104.0282494706189	0.6083269283717527	n/a	n/a	n/a	n/a
86.64453125	0.2	177448	79	60	0	0	0	79	327	stimuli\Videos_short_600ms_vertflip\61.single_hit_with_rolling_pin_short_vertflip_short_600ms.mp4	61.single_hit_with_rolling_pin_short_vertflip_short_600ms.mp4	104.21990389186068	104.82823111347716	0.6083272216164914	n/a	n/a	n/a	n/a
87.44482421875	0.2	179087	80	60	0	0	0	80	206	stimuli\Videos_short_600ms_horvertflip\33.scratch_top_to_bottom_with_scissors_short_horvertflip_short_600ms.mp4	33.scratch_top_to_bottom_with_scissors_short_horvertflip_short_600ms.mp4	105.01987263193588	105.62821246309068	0.608339831154808	n/a	n/a	n/a	n/a
88.24462890625	0.2	180725	81	60	0	0	0	81	65	stimuli\Videos_short_600ms\69.stroke_with_soft_sock_short_short_600ms.mp4	69.stroke_with_soft_sock_short_short_600ms.mp4	105.81989679533037	106.428197918136	0.6083011228056421	n/a	n/a	n/a	n/a
89.04443359375	0.2	182363	82	60	0	0	0	82	226	stimuli\Videos_short_600ms_horvertflip\51.repeated_touch_with_hammer_short_horvertflip_short_600ms.mp4	51.repeated_touch_with_hammer_short_horvertflip_short_600ms.mp4	106.61986289619928	107.228177801524	0.6083149053247325	n/a	n/a	n/a	n/a
89.8447265625	0.2	184002	83	60	0	0	1	83	373	stimuli\Targets_short_600ms_horvertflip\chopstick-silver-tap_short_vertflip_short_600ms.mp4	chopstick-silver-tap_short_vertflip_short_600ms.mp4	107.41988354065325	108.0281612038525	0.6082776631992601	n/a	n/a	n/a	n/a
90.64453125	0.2	185640	84	60	0	0	0	84	321	stimuli\Videos_short_600ms_vertflip\56.repeated_touch_with_nail_file_short_vertflip_short_600ms.mp4	56.repeated_touch_with_nail_file_short_vertflip_short_600ms.mp4	108.21982178324106	108.82814460618285	0.6083228229417728	n/a	n/a	n/a	n/a
91.4443359375	0.2	187278	85	60	0	0	0	85	121	stimuli\Videos_short_600ms_horflip\38.double_slap_with_pencil_short_horflip_short_600ms.mp4	38.double_slap_with_pencil_short_horflip_short_600ms.mp4	109.01978084622895	109.6281297679816	0.6083489217526221	n/a	n/a	n/a	n/a
92.24462890625	0.2	188917	86	60	0	0	0	86	305	stimuli\Videos_short_600ms_vertflip\41.injection_with_blunt_syringe_short_vertflip_short_600ms.mp4	41.injection_with_blunt_syringe_short_vertflip_short_600ms.mp4	109.81977304591057	110.42811082435036	0.6083377784398181	n/a	n/a	n/a	n/a
93.04443359375	0.2	190555	87	60	0	0	0	87	109	stimuli\Videos_short_600ms_horflip\27.single_push_with_a_plastic_whisk_short_horflip_short_600ms.mp4	27.single_push_with_a_plastic_whisk_short_horflip_short_600ms.mp4	110.62000951873416	111.2280845495916	0.6080750308574352	n/a	n/a	n/a	n/a
93.84423828125	0.2	192193	88	60	0	0	0	88	266	stimuli\Videos_short_600ms_horvertflip\88.repeated_stroke_with_plastic_brush_short_horvertflip_short_600ms.mp4	88.repeated_stroke_with_plastic_brush_short_horvertflip_short_600ms.mp4	111.41984776475329	112.02801868674942	0.608170921996134	n/a	n/a	n/a	n/a
94.64453125	0.2	193832	89	60	0	0	0	89	178	stimuli\Videos_short_600ms_horflip\9.single_touch_with_hammer_short_horflip_short_600ms.mp4	9.single_touch_with_hammer_short_horflip_short_600ms.mp4	112.2199305771628	112.8280138188802	0.6080832417173951	n/a	n/a	n/a	n/a
95.4443359375	0.2	195470	90	60	0	0	0	90	118	stimuli\Videos_short_600ms_horflip\35.single_punch_with_hand_short_horflip_short_600ms.mp4	35.single_punch_with_hand_short_horflip_short_600ms.mp4	113.01978436516949	113.62798901034694	0.6082046451774659	n/a	n/a	n/a	n/a
96.24462890625	0.2	197109	91	60	0	0	0	91	314	stimuli\Videos_short_600ms_vertflip\5.repeated_tap_with_finger_moving_from_top_to_bottom_short_vertflip_short_600ms.mp4	5.repeated_tap_with_finger_moving_from_top_to_bottom_short_vertflip_short_600ms.mp4	113.81968008722288	114.42797035996044	0.6082902727375767	n/a	n/a	n/a	n/a
97.04443359375	0.2	198747	92	60	0	0	0	92	182	stimuli\Videos_short_600ms_horvertflip\11.single_touch_with_lighter_short_horvertflip_short_600ms.mp4	11.single_touch_with_lighter_short_horvertflip_short_600ms.mp4	114.6196649557769	115.22794525818244	0.6082803024055465	n/a	n/a	n/a	n/a
97.84423828125	0.2	200385	93	60	0	0	0	93	43	stimuli\Videos_short_600ms\49.repeated_slap_with_hand_short_short_600ms.mp4	49.repeated_slap_with_hand_short_short_600ms.mp4	115.4197087665907	116.02794801468735	0.6082392480966519	n/a	n/a	n/a	n/a
98.64453125	0.2	202024	94	60	0	0	0	94	107	stimuli\Videos_short_600ms_horflip\25.single_touch_with_stanley_knife_short_horflip_short_600ms.mp4	25.single_touch_with_stanley_knife_short_horflip_short_600ms.mp4	116.21965199434452	116.82791176959654	0.6082597752520087	n/a	n/a	n/a	n/a
99.4443359375	0.2	203662	95	60	0	0	0	95	76	stimuli\Videos_short_600ms\79.long_with_soft_brush_all_over_the_hand_short_short_600ms.mp4	79.long_with_soft_brush_all_over_the_hand_short_short_600ms.mp4	117.01964566025164	117.62788901377826	0.6082433535266318	n/a	n/a	n/a	n/a
100.244140625	0.2	205300	96	60	0	0	0	96	89	stimuli\Videos_short_600ms\90.repeated_touch_with_sponge_short_short_600ms.mp4	90.repeated_touch_with_sponge_short_short_600ms.mp4	117.81960355025876	118.42787476206831	0.6082712118095515	7.0	7.0	2.1119225528036623	1.0
134.3515625	0.2	275152	97	60	1	0	1	0	362	stimuli\Targets_short_600ms\chopstickwood-tap_short_short_600ms.mp4	chopstickwood-tap_short_short_600ms.mp4	151.92723973986722	152.53557282638758	0.6083330865203607	n/a	n/a	n/a	n/a
135.1513671875	0.2	276790	98	60	1	0	0	1	7	stimuli\Videos_short_600ms\16.repeated_touch_with_plastic_brush_short_short_600ms.mp4	16.repeated_touch_with_plastic_brush_short_short_600ms.mp4	152.7272674222022	153.3355444989138	0.6082770767116017	n/a	n/a	n/a	n/a
135.95166015625	0.2	278429	99	60	1	0	0	2	326	stimuli\Videos_short_600ms_vertflip\60.single_push_with_tip_of_pencil_short_vertflip_short_600ms.mp4	60.single_push_with_tip_of_pencil_short_vertflip_short_600ms.mp4	153.52722267300487	154.1355375783296	0.6083149053247325	n/a	n/a	n/a	n/a
136.75146484375	0.2	280067	100	60	1	0	0	3	78	stimuli\Videos_short_600ms\80.stroke_with_sharp_stick_all_over_the_hand_short_short_600ms.mp4	80.stroke_with_sharp_stick_all_over_the_hand_short_short_600ms.mp4	154.3271873076501	154.93549400211123	0.6083066944611346	n/a	n/a	n/a	n/a
137.55126953125	0.2	281705	101	60	1	0	0	4	183	stimuli\Videos_short_600ms_horvertflip\12.repeated_touch_with_nail_file_short_horvertflip_short_600ms.mp4	12.repeated_touch_with_nail_file_short_horvertflip_short_600ms.mp4	155.1271686572636	155.73549558563536	0.6083269283717527	n/a	n/a	n/a	n/a
138.3515625	0.2	283344	102	60	1	0	0	5	245	stimuli\Videos_short_600ms_horvertflip\69.stroke_with_soft_sock_short_horvertflip_short_600ms.mp4	69.stroke_with_soft_sock_short_horvertflip_short_600ms.mp4	155.9277200752931	156.53547605551285	0.6077559802197356	n/a	n/a	n/a	n/a
139.1513671875	0.2	284982	103	60	1	0	0	6	311	stimuli\Videos_short_600ms_vertflip\47.(long)scratching_with_finger_nails_short_vertflip_short_600ms.mp4	47.(long)scratching_with_finger_nails_short_vertflip_short_600ms.mp4	156.7271427930482	157.3354603375774	0.6083175445292	n/a	n/a	n/a	n/a
139.951171875	0.2	286620	104	60	1	0	0	7	353	stimuli\Videos_short_600ms_vertflip\85.touch_top_to_bottom_with_fabric_short_vertflip_short_600ms.mp4	85.touch_top_to_bottom_with_fabric_short_vertflip_short_600ms.mp4	157.5270907127233	158.13544110070143	0.6083503879781347	n/a	n/a	n/a	n/a
140.75146484375	0.2	288259	105	60	1	0	0	8	166	stimuli\Videos_short_600ms_horflip\79.long_with_soft_brush_all_over_the_hand_short_horflip_short_600ms.mp4	79.long_with_soft_brush_all_over_the_hand_short_horflip_short_600ms.mp4	158.32709728141344	158.9354262625002	0.6083289810867427	n/a	n/a	n/a	n/a
141.55126953125	0.2	289897	106	60	1	0	0	9	286	stimuli\Videos_short_600ms_vertflip\24.single_stroke_top_to_bottom_with_a_spoon_short_vertflip_short_600ms.mp4	24.single_stroke_top_to_bottom_with_a_spoon_short_vertflip_short_600ms.mp4	159.12762905202362	159.73541083780947	0.6077817857858463	n/a	n/a	n/a	n/a
142.35107421875	0.2	291535	107	60	1	0	0	10	66	stimuli\Videos_short_600ms\7.repeated_touch_with_hairbrush_short_short_600ms.mp4	7.repeated_touch_with_hairbrush_short_short_600ms.mp4	159.92717170701144	160.53539687934426	0.6082251723328227	n/a	n/a	n/a	n/a
143.1513671875	0.2	293174	108	60	1	0	0	11	320	stimuli\Videos_short_600ms_vertflip\55.touch_top_to_bottom_with_nail_file_short_vertflip_short_600ms.mp4	55.touch_top_to_bottom_with_nail_file_short_vertflip_short_600ms.mp4	160.72752635759934	161.3353741235278	0.6078477659284545	n/a	n/a	n/a	n/a
143.951171875	0.2	294812	109	60	1	0	0	12	160	stimuli\Videos_short_600ms_horflip\73.single_stroke_with_flat_hand_short_horflip_short_600ms.mp4	73.single_stroke_with_flat_hand_short_horflip_short_600ms.mp4	161.5272159283686	162.13535664612027	0.6081407177516667	n/a	n/a	n/a	n/a
144.7509765625	0.2	296450	110	60	1	0	0	13	88	stimuli\Videos_short_600ms\9.single_touch_with_hammer_short_short_600ms.mp4	9.single_touch_with_hammer_short_short_600ms.mp4	162.32703745941762	162.9353426876551	0.608305228237441	n/a	n/a	n/a	n/a
145.55126953125	0.2	298089	111	60	1	0	0	14	213	stimuli\Videos_short_600ms_horvertflip\4.repeated_tap_with_finger_slow_short_horvertflip_short_600ms.mp4	4.repeated_tap_with_finger_slow_short_horvertflip_short_600ms.mp4	163.12702526042267	163.73530409660452	0.608278836181853	n/a	n/a	n/a	n/a
146.35107421875	0.2	299727	112	60	1	0	0	15	132	stimuli\Videos_short_600ms_horflip\48.single_slap_with_hand_short_horflip_short_600ms.mp4	48.single_slap_with_hand_short_horflip_short_600ms.mp4	163.9269725936083	164.53528544621804	0.6083128526097425	n/a	n/a	n/a	n/a
147.15087890625	0.2	301365	113	60	1	0	0	16	236	stimuli\Videos_short_600ms_horvertflip\60.single_push_with_tip_of_pencil_short_horvertflip_short_600ms.mp4	60.single_push_with_tip_of_pencil_short_horvertflip_short_600ms.mp4	164.7271351686759	165.3352685553018	0.6081333866259229	n/a	n/a	n/a	n/a
147.951171875	0.2	303004	114	60	1	0	0	17	99	stimuli\Videos_short_600ms_horflip\18.single_stroke_from_top_to_bottom_with_rolling_pin_short_horflip_short_600ms.mp4	18.single_stroke_from_top_to_bottom_with_rolling_pin_short_horflip_short_600ms.mp4	165.5270775166955	166.1352657401494	0.608188223453908	n/a	n/a	n/a	n/a
148.7509765625	0.2	304642	115	60	1	0	0	18	164	stimuli\Videos_short_600ms_horflip\77.tapping_with_all_fingers_short_horflip_short_600ms.mp4	77.tapping_with_all_fingers_short_horflip_short_600ms.mp4	166.32708965704114	166.93524445055664	0.6081547935154958	n/a	n/a	n/a	n/a
149.55078125	0.2	306280	116	60	1	0	0	19	302	stimuli\Videos_short_600ms_vertflip\39.single_stab_with_scissors_short_vertflip_short_600ms.mp4	39.single_stab_with_scissors_short_vertflip_short_600ms.mp4	167.12694872346037	167.73525219222756	0.6083034687671898	n/a	n/a	n/a	n/a
150.35107421875	0.2	307919	117	60	1	0	0	20	188	stimuli\Videos_short_600ms_horvertflip\17.repeated_touch_with_rolling_pin_short_horvertflip_short_600ms.mp4	17.repeated_touch_with_rolling_pin_short_horvertflip_short_600ms.mp4	167.9269022147928	168.53523031614532	0.6083281013525266	n/a	n/a	n/a	n/a
151.15087890625	0.2	309557	118	60	1	0	0	21	159	stimuli\Videos_short_600ms_horflip\72.(short)stroke_with_finger_all_over_the_hand_short_horflip_short_600ms.mp4	72.(short)stroke_with_finger_all_over_the_hand_short_horflip_short_600ms.mp4	168.72687681976822	169.3351711979376	0.6082943781693757	n/a	n/a	n/a	n/a
151.95068359375	0.2	311195	119	60	1	0	0	22	141	stimuli\Videos_short_600ms_horflip\56.repeated_touch_with_nail_file_short_horflip_short_600ms.mp4	56.repeated_touch_with_nail_file_short_horflip_short_600ms.mp4	169.5268898398499	170.1351933086171	0.6083034687671898	n/a	n/a	n/a	n/a
152.7509765625	0.2	312834	120	60	1	0	0	23	293	stimuli\Videos_short_600ms_vertflip\30.finger_pulling_back_another_finger_short_vertflip_short_600ms.mp4	30.finger_pulling_back_another_finger_short_vertflip_short_600ms.mp4	170.3268961152953	170.93517201902432	0.6082759037290089	n/a	n/a	n/a	n/a
153.55078125	0.2	314472	121	60	1	0	0	24	158	stimuli\Videos_short_600ms_horflip\71.single_stroke_with_finger_top_to_bottom_short_horflip_short_600ms.mp4	71.single_stroke_with_finger_top_to_bottom_short_horflip_short_600ms.mp4	171.12684696742144	171.73515982002937	0.6083128526079236	n/a	n/a	n/a	n/a
154.3505859375	0.2	316110	122	60	1	0	0	25	335	stimuli\Videos_short_600ms_vertflip\69.stroke_with_soft_sock_short_vertflip_short_600ms.mp4	69.stroke_with_soft_sock_short_vertflip_short_600ms.mp4	171.92688403359716	172.53514351560443	0.60825948200727	n/a	n/a	n/a	n/a
155.15087890625	0.2	317749	123	60	1	0	1	26	369	stimuli\Targets_short_600ms_horflip\finger-tap_short_horflip_short_600ms.mp4	finger-tap_short_horflip_short_600ms.mp4	172.72701816389235	173.33512691793294	0.6081087540405861	n/a	n/a	n/a	n/a
155.95068359375	0.2	319387	124	60	1	0	0	27	18	stimuli\Videos_short_600ms\26.single_touch_with_a_blunt_syringe_short_short_600ms.mp4	26.single_touch_with_a_blunt_syringe_short_short_600ms.mp4	173.52709364517432	174.13511032026145	0.6080166750871285	n/a	n/a	n/a	n/a
156.7509765625	0.2	321026	125	60	1	0	1	28	375	stimuli\Targets_short_600ms_horvertflip\finger-tap_short_vertflip_short_600ms.mp4	finger-tap_short_vertflip_short_600ms.mp4	174.32681429992044	174.93509225636444	0.6082779564439988	n/a	n/a	n/a	n/a
157.55078125	0.2	322664	126	60	1	0	0	29	45	stimuli\Videos_short_600ms\50.single_(long)hard_push_with_thumb_short_short_600ms.mp4	50.single_(long)hard_push_with_thumb_short_short_600ms.mp4	175.12680532662125	175.73507507220347	0.6082697455822199	n/a	n/a	n/a	n/a
158.3505859375	0.2	324302	127	60	1	0	1	30	367	stimuli\Targets_short_600ms_horflip\chopstick-silver-tap_short_horflip_short_600ms.mp4	chopstick-silver-tap_short_horflip_short_600ms.mp4	175.92681072233063	176.5350605272488	0.6082498049181595	n/a	n/a	n/a	n/a
159.15087890625	0.2	325941	128	60	1	0	0	31	37	stimuli\Videos_short_600ms\43.touch_top_to_bottom_with_sharp_wooden_stick_short_short_600ms.mp4	43.touch_top_to_bottom_with_sharp_wooden_stick_short_short_600ms.mp4	176.72672403908655	177.3350307335495	0.6083066944629536	n/a	n/a	n/a	n/a
159.95068359375	0.2	327579	129	60	1	0	0	32	333	stimuli\Videos_short_600ms_vertflip\67.single_touch_with_sponge_short_vertflip_short_600ms.mp4	67.single_touch_with_sponge_short_vertflip_short_600ms.mp4	177.5267605187746	178.13502967786735	0.6082691590927425	n/a	n/a	n/a	n/a
160.75048828125	0.2	329217	130	60	1	0	0	33	44	stimuli\Videos_short_600ms\5.repeated_tap_with_finger_moving_from_top_to_bottom_short_short_600ms.mp4	5.repeated_tap_with_finger_moving_from_top_to_bottom_short_short_600ms.mp4	178.32670257354766	178.93496410826992	0.60826153472226	n/a	n/a	n/a	n/a
161.55078125	0.2	330856	131	60	1	0	0	34	123	stimuli\Videos_short_600ms_horflip\4.repeated_tap_with_finger_slow_short_horflip_short_600ms.mp4	4.repeated_tap_with_finger_slow_short_horflip_short_600ms.mp4	179.12666984739735	179.73494839033447	0.6082785429371143	n/a	n/a	n/a	n/a
162.3505859375	0.2	332494	132	60	1	0	0	35	56	stimuli\Videos_short_600ms\60.single_push_with_tip_of_pencil_short_short_600ms.mp4	60.single_push_with_tip_of_pencil_short_short_600ms.mp4	179.9266632200597	180.53493032643743	0.6082671063777525	n/a	n/a	n/a	n/a
163.150390625	0.2	334132	133	60	1	0	0	36	55	stimuli\Videos_short_600ms\6.single_touch_with_flat_hand_short_short_600ms.mp4	6.single_touch_with_flat_hand_short_short_600ms.mp4	180.7266348925859	181.33494363976388	0.6083087471779436	n/a	n/a	n/a	n/a
163.95068359375	0.2	335771	134	60	1	0	0	37	86	stimuli\Videos_short_600ms\88.repeated_stroke_with_plastic_brush_short_short_600ms.mp4	88.repeated_stroke_with_plastic_brush_short_short_600ms.mp4	181.52686989918584	182.1349431705712	0.6080732713853649	n/a	n/a	n/a	n/a
164.75048828125	0.2	337409	135	60	1	0	0	38	264	stimuli\Videos_short_600ms_horvertflip\86.touch_top_to_bottom_with_hair_brush_short_horvertflip_short_600ms.mp4	86.touch_top_to_bottom_with_hair_brush_short_horvertflip_short_600ms.mp4	182.32662398386856	182.93493859594855	0.6083146120799938	n/a	n/a	n/a	n/a
165.55029296875	0.2	339047	136	60	1	0	0	39	192	stimuli\Videos_short_600ms_horvertflip\20.single_touch_with_screwdriver_short_horvertflip_short_600ms.mp4	20.single_touch_with_screwdriver_short_horvertflip_short_600ms.mp4	183.12661207812016	183.73490997523004	0.6082978971098782	n/a	n/a	n/a	n/a
166.3505859375	0.2	340686	137	60	1	0	0	40	33	stimuli\Videos_short_600ms\4.repeated_tap_with_finger_slow_short_short_600ms.mp4	4.repeated_tap_with_finger_slow_short_short_600ms.mp4	183.92663594826809	184.5348924978225	0.6082565495544259	n/a	n/a	n/a	n/a
167.150390625	0.2	342324	138	60	1	0	0	41	134	stimuli\Videos_short_600ms_horflip\5.repeated_tap_with_finger_moving_from_top_to_bottom_short_horflip_short_600ms.mp4	5.repeated_tap_with_finger_moving_from_top_to_bottom_short_horflip_short_600ms.mp4	184.72653460277252	185.3348750204168	0.6083404176442855	n/a	n/a	n/a	n/a
167.9501953125	0.2	343962	139	60	1	0	0	42	359	stimuli\Videos_short_600ms_vertflip\90.repeated_touch_with_sponge_short_vertflip_short_600ms.mp4	90.repeated_touch_with_sponge_short_vertflip_short_600ms.mp4	185.52653530656065	186.1348575430111	0.6083222364504763	n/a	n/a	n/a	n/a
168.75048828125	0.2	345601	140	60	1	0	0	43	214	stimuli\Videos_short_600ms_horvertflip\40.repeated_push_with_finger_short_horvertflip_short_600ms.mp4	40.repeated_push_with_finger_short_horvertflip_short_600ms.mp4	186.3265832228044	186.93484182507564	0.6082586022712348	n/a	n/a	n/a	n/a
169.55029296875	0.2	347239	141	60	1	0	0	44	336	stimuli\Videos_short_600ms_vertflip\7.repeated_touch_with_hairbrush_short_vertflip_short_600ms.mp4	7.repeated_touch_with_hairbrush_short_vertflip_short_600ms.mp4	187.1265073896284	187.73482640038492	0.6083190107565315	n/a	n/a	n/a	n/a
170.35009765625	0.2	348877	142	60	1	0	1	45	376	stimuli\Targets_short_600ms_horvertflip\hand-pinch_short_vertflip_short_600ms.mp4	hand-pinch_short_vertflip_short_600ms.mp4	187.92658697634033	188.53480921622395	0.6082222398836166	n/a	n/a	n/a	n/a
171.150390625	0.2	350516	143	60	1	0	0	46	349	stimuli\Videos_short_600ms_vertflip\81.single_stroke_top_to_bottom_with_cotton_pad_short_vertflip_short_600ms.mp4	81.single_stroke_top_to_bottom_with_cotton_pad_short_vertflip_short_600ms.mp4	188.7266656833181	189.33479379153323	0.608128108215169	n/a	n/a	n/a	n/a
171.9501953125	0.2	352154	144	60	1	0	0	47	25	stimuli\Videos_short_600ms\32.single_(long)pinch_with_fingers_short_short_600ms.mp4	32.single_(long)pinch_with_fingers_short_short_600ms.mp4	189.5266555370381	190.1347733816765	0.6081178446384001	n/a	n/a	n/a	n/a
172.75	0.2	353792	145	60	1	0	0	48	300	stimuli\Videos_short_600ms_vertflip\37.single_stab_with_nail_file_short_vertflip_short_600ms.mp4	37.single_stab_with_nail_file_short_vertflip_short_600ms.mp4	190.3264747221274	190.93475561102423	0.608280888896843	n/a	n/a	n/a	n/a
173.55029296875	0.2	355431	146	60	1	0	0	49	17	stimuli\Videos_short_600ms\25.single_touch_with_stanley_knife_short_short_600ms.mp4	25.single_touch_with_stanley_knife_short_short_600ms.mp4	191.12682907947055	191.73474253229503	0.6079134528245049	n/a	n/a	n/a	n/a
174.35009765625	0.2	357069	147	60	1	0	0	50	268	stimuli\Videos_short_600ms_horvertflip\9.single_touch_with_hammer_short_horvertflip_short_600ms.mp4	9.single_touch_with_hammer_short_horvertflip_short_600ms.mp4	191.92658551011664	192.53472652111304	0.6081410109964054	n/a	n/a	n/a	n/a
175.14990234375	0.2	358707	148	60	1	0	0	51	173	stimuli\Videos_short_600ms_horflip\85.touch_top_to_bottom_with_fabric_short_horflip_short_600ms.mp4	85.touch_top_to_bottom_with_fabric_short_horflip_short_600ms.mp4	192.7263835815611	193.33470933695207	0.6083257553909789	n/a	n/a	n/a	n/a
175.9501953125	0.2	360346	149	60	1	0	0	52	209	stimuli\Videos_short_600ms_horvertflip\36.single_slap_with_full_hand_short_horvertflip_short_600ms.mp4	36.single_slap_with_full_hand_short_horvertflip_short_600ms.mp4	193.5264059854835	194.1346754378228	0.6082694523393002	n/a	n/a	n/a	n/a
176.75	0.2	361984	150	60	1	0	0	53	82	stimuli\Videos_short_600ms\84.single_touch_with_cotton_bud_short_short_600ms.mp4	84.single_touch_with_cotton_bud_short_short_600ms.mp4	194.32635273217969	194.93463948597673	0.6082867537970742	n/a	n/a	n/a	n/a
177.55029296875	0.2	363623	151	60	1	0	0	54	63	stimuli\Videos_short_600ms\67.single_touch_with_sponge_short_short_600ms.mp4	67.single_touch_with_sponge_short_short_600ms.mp4	195.12635431570197	195.73463403161804	0.6082797159160691	n/a	n/a	n/a	n/a
178.35009765625	0.2	365261	152	60	1	0	0	55	261	stimuli\Videos_short_600ms_horvertflip\83.single_stroke_top_to_bottom_with_cotton_bud_short_horvertflip_short_600ms.mp4	83.single_stroke_top_to_bottom_with_cotton_bud_short_horvertflip_short_600ms.mp4	195.92631337868988	196.5346212461336	0.6083078674437274	n/a	n/a	n/a	n/a
179.14990234375	0.2	366899	153	60	1	0	0	56	23	stimuli\Videos_short_600ms\30.finger_pulling_back_another_finger_short_short_600ms.mp4	30.finger_pulling_back_another_finger_short_short_600ms.mp4	196.7263002999607	197.33460435521735	0.6083040552566672	n/a	n/a	n/a	n/a
179.9501953125	0.2	368538	154	60	1	0	0	57	0	stimuli\Videos_short_600ms\1.repeated_touch_with_finger_fast_short_short_600ms.mp4	1.repeated_touch_with_finger_fast_short_short_600ms.mp4	197.5263822326324	198.13459450218215	0.6082122695497674	n/a	n/a	n/a	n/a
180.75	0.2	370176	155	60	1	0	0	58	222	stimuli\Videos_short_600ms_horvertflip\48.single_slap_with_hand_short_horvertflip_short_600ms.mp4	48.single_slap_with_hand_short_horvertflip_short_600ms.mp4	198.326370326884	198.9346128006746	0.6082424737905967	n/a	n/a	n/a	n/a
181.5498046875	0.2	371814	156	60	1	0	0	59	332	stimuli\Videos_short_600ms_vertflip\66.stroke_top_to_bottom_with_sponge_short_vertflip_short_600ms.mp4	66.stroke_top_to_bottom_with_sponge_short_vertflip_short_600ms.mp4	199.12640563358943	199.73457626233903	0.6081706287495763	n/a	n/a	n/a	n/a
182.35009765625	0.2	373453	157	60	1	0	0	60	84	stimuli\Videos_short_600ms\86.touch_top_to_bottom_with_hair_brush_short_short_600ms.mp4	86.touch_top_to_bottom_with_hair_brush_short_short_600ms.mp4	199.9263432896878	200.5345590781781	0.6082157884902699	n/a	n/a	n/a	n/a
183.14990234375	0.2	375091	158	60	1	0	0	61	114	stimuli\Videos_short_600ms_horflip\31.hand_grabbing_wrist_short_horflip_short_600ms.mp4	31.hand_grabbing_wrist_short_horflip_short_600ms.mp4	200.72624692935824	201.33454306699787	0.608296137639627	n/a	n/a	n/a	n/a
183.94970703125	0.2	376729	159	60	1	0	0	62	202	stimuli\Videos_short_600ms_horvertflip\3.single_push_with_finger_short_horvertflip_short_600ms.mp4	3.single_push_with_finger_short_horvertflip_short_600ms.mp4	201.5262578967231	202.1345232436306	0.6082653469075012	n/a	n/a	n/a	n/a
184.75	0.2	378368	160	60	1	0	0	63	161	stimuli\Videos_short_600ms_horflip\74.fingers_walking_from_top_to_bottom_short_horflip_short_600ms.mp4	74.fingers_walking_from_top_to_bottom_short_horflip_short_600ms.mp4	202.3262946696541	202.93450459324413	0.6082099235900387	n/a	n/a	n/a	n/a
185.5498046875	0.2	380006	161	60	1	0	0	64	250	stimuli\Videos_short_600ms_horvertflip\73.single_stroke_with_flat_hand_short_horvertflip_short_600ms.mp4	73.single_stroke_with_flat_hand_short_horvertflip_short_600ms.mp4	203.1262197162141	203.73449034153415	0.608270625320074	n/a	n/a	n/a	n/a
186.349609375	0.2	381644	162	60	1	0	0	65	265	stimuli\Videos_short_600ms_horvertflip\87.single_stroke_top_to_bottom_with_plastic_brush_short_horvertflip_short_600ms.mp4	87.single_stroke_top_to_bottom_with_plastic_brush_short_horvertflip_short_600ms.mp4	203.9261479884699	204.5344737438627	0.6083257553927979	n/a	n/a	n/a	n/a
187.14990234375	0.2	383283	163	60	1	0	0	66	280	stimuli\Videos_short_600ms_vertflip\19.single_touch_with_rolling_pin_short_vertflip_short_600ms.mp4	19.single_touch_with_rolling_pin_short_vertflip_short_600ms.mp4	204.7262176048498	205.3344574394359	0.6082398345861293	n/a	n/a	n/a	n/a
187.94970703125	0.2	384921	164	60	1	0	0	67	51	stimuli\Videos_short_600ms\56.repeated_touch_with_nail_file_short_short_600ms.mp4	56.repeated_touch_with_nail_file_short_short_600ms.mp4	205.52608898756264	206.13443996203023	0.6083509744676121	n/a	n/a	n/a	n/a
188.74951171875	0.2	386559	165	60	1	0	0	68	294	stimuli\Videos_short_600ms_vertflip\31.hand_grabbing_wrist_short_vertflip_short_600ms.mp4	31.hand_grabbing_wrist_short_vertflip_short_600ms.mp4	206.3260932102912	206.9344233643587	0.6083301540675166	n/a	n/a	n/a	n/a
189.5498046875	0.2	388198	166	60	1	0	0	69	106	stimuli\Videos_short_600ms_horflip\24.single_stroke_top_to_bottom_with_a_spoon_short_horflip_short_600ms.mp4	24.single_stroke_top_to_bottom_with_a_spoon_short_horflip_short_600ms.mp4	207.12608423699203	207.73441380457007	0.6083295675780391	n/a	n/a	n/a	n/a
190.349609375	0.2	389836	167	60	1	0	0	70	194	stimuli\Videos_short_600ms_horvertflip\22.single_touch_with_metal_chopstick_short_horvertflip_short_600ms.mp4	22.single_touch_with_metal_chopstick_short_horvertflip_short_600ms.mp4	207.92610224223972	208.53438606358577	0.6082838213460491	n/a	n/a	n/a	n/a
191.1494140625	0.2	391474	168	60	1	0	0	71	4	stimuli\Videos_short_600ms\13.single_touch_with_pen_short_short_600ms.mp4	13.single_touch_with_pen_short_short_600ms.mp4	208.726098840596	209.33437679704184	0.6082779564458178	n/a	n/a	n/a	n/a
191.94970703125	0.2	393113	169	60	1	0	0	72	135	stimuli\Videos_short_600ms_horflip\50.single_(long)hard_push_with_thumb_short_horflip_short_600ms.mp4	50.single_(long)hard_push_with_thumb_short_horflip_short_600ms.mp4	209.52606904689856	210.13433703301052	0.6082679861119686	n/a	n/a	n/a	n/a
192.74951171875	0.2	394751	170	60	1	0	0	73	253	stimuli\Videos_short_600ms_horvertflip\76.tickle_with_fingers_from_top_to_bottom_short_horvertflip_short_600ms.mp4	76.tickle_with_fingers_from_top_to_bottom_short_horvertflip_short_600ms.mp4	210.3260847061847	210.93429521626425	0.6082105100795161	n/a	n/a	n/a	n/a
193.54931640625	0.2	396389	171	60	1	0	0	74	80	stimuli\Videos_short_600ms\82.repeated_touch_with_cotton_bud_short_short_600ms.mp4	82.repeated_touch_with_cotton_bud_short_short_600ms.mp4	211.12597866876783	211.73429767952257	0.6083190107547125	n/a	n/a	n/a	n/a
194.349609375	0.2	398028	172	60	1	0	0	75	184	stimuli\Videos_short_600ms_horvertflip\13.single_touch_with_pen_short_horvertflip_short_600ms.mp4	13.single_touch_with_pen_short_horvertflip_short_600ms.mp4	211.92598435772197	212.53429339814463	0.6083090404226823	n/a	n/a	n/a	n/a
195.1494140625	0.2	399666	173	60	1	0	0	76	271	stimuli\Videos_short_600ms_vertflip\10.single_touch_with_knife_short_vertflip_short_600ms.mp4	10.single_touch_with_knife_short_vertflip_short_600ms.mp4	212.7259727452165	213.33428207888392	0.608309333667421	n/a	n/a	n/a	n/a
195.94921875	0.2	401304	174	60	1	0	0	77	170	stimuli\Videos_short_600ms_horflip\82.repeated_touch_with_cotton_bud_short_horflip_short_600ms.mp4	82.repeated_touch_with_cotton_bud_short_horflip_short_600ms.mp4	213.52592007840212	214.13428512863356	0.6083650502314413	n/a	n/a	n/a	n/a
196.74951171875	0.2	402943	175	60	1	0	0	78	237	stimuli\Videos_short_600ms_horvertflip\61.single_hit_with_rolling_pin_short_horvertflip_short_600ms.mp4	61.single_hit_with_rolling_pin_short_horvertflip_short_600ms.mp4	214.3259026009964	214.934257680894	0.6083550798975921	n/a	n/a	n/a	n/a
197.54931640625	0.2	404581	176	60	1	0	0	79	13	stimuli\Videos_short_600ms\21.repeated_touch_with_metal_chopstick_short_short_600ms.mp4	21.repeated_touch_with_metal_chopstick_short_short_600ms.mp4	215.1259736836	215.7342478278606	0.6082741442605766	n/a	n/a	n/a	n/a
198.349609375	0.2	406220	177	60	1	0	0	80	278	stimuli\Videos_short_600ms_vertflip\17.repeated_touch_with_rolling_pin_short_vertflip_short_600ms.mp4	17.repeated_touch_with_rolling_pin_short_vertflip_short_600ms.mp4	215.92598230500516	216.53422038012104	0.608238075115878	n/a	n/a	n/a	n/a
199.1494140625	0.2	407858	178	60	1	0	0	81	115	stimuli\Videos_short_600ms_horflip\32.single_(long)pinch_with_fingers_short_horflip_short_600ms.mp4	32.single_(long)pinch_with_fingers_short_horflip_short_600ms.mp4	216.72594195448437	217.3342046621856	0.6082627077012148	n/a	n/a	n/a	n/a
199.94921875	0.2	409496	179	60	1	0	0	82	307	stimuli\Videos_short_600ms_vertflip\43.touch_top_to_bottom_with_sharp_wooden_stick_short_vertflip_short_600ms.mp4	43.touch_top_to_bottom_with_sharp_wooden_stick_short_vertflip_short_600ms.mp4	217.5258699334954	218.13418894425013	0.6083190107547125	n/a	n/a	n/a	n/a
200.74951171875	0.2	411135	180	60	1	0	0	83	231	stimuli\Videos_short_600ms_horvertflip\56.repeated_touch_with_nail_file_short_horvertflip_short_600ms.mp4	56.repeated_touch_with_nail_file_short_horvertflip_short_600ms.mp4	218.32582723701307	218.93417645201043	0.6083492149973608	n/a	n/a	n/a	n/a
201.54931640625	0.2	412773	181	60	1	0	0	84	310	stimuli\Videos_short_600ms_vertflip\46.scratching_top_to_bottom_with_finger_nails_short_vertflip_short_600ms.mp4	46.scratching_top_to_bottom_with_finger_nails_short_vertflip_short_600ms.mp4	219.1258713410716	219.73415369619215	0.6082823551205365	n/a	n/a	n/a	n/a
202.34912109375	0.2	414411	182	60	1	0	0	85	67	stimuli\Videos_short_600ms\70.(long)stroke_with_finger_all_over_the_hand_short_short_600ms.mp4	70.(long)stroke_with_finger_all_over_the_hand_short_short_600ms.mp4	219.92579286869113	220.53413563229697	0.6083427636058332	n/a	n/a	n/a	n/a
203.1494140625	0.2	416050	183	60	1	0	0	86	49	stimuli\Videos_short_600ms\54.repeated_touch_with_knife_short_short_600ms.mp4	54.repeated_touch_with_knife_short_short_600ms.mp4	220.72589092984165	221.33412167383176	0.6082307439901342	n/a	n/a	n/a	n/a
203.94921875	0.2	417688	184	60	1	0	0	87	147	stimuli\Videos_short_600ms_horflip\61.single_hit_with_rolling_pin_short_horflip_short_600ms.mp4	61.single_hit_with_rolling_pin_short_horflip_short_600ms.mp4	221.52578401268875	222.13410214370924	0.6083181310204964	n/a	n/a	n/a	n/a
204.7490234375	0.2	419326	185	60	1	0	0	88	59	stimuli\Videos_short_600ms\63.stroke_top_to_bottom_with_screwdriver_short_short_600ms.mp4	63.stroke_top_to_bottom_with_screwdriver_short_short_600ms.mp4	222.3258052436322	222.93408759875456	0.6082823551223555	n/a	n/a	n/a	n/a
205.54931640625	0.2	420965	186	60	1	0	0	89	10	stimuli\Videos_short_600ms\19.single_touch_with_rolling_pin_short_short_600ms.mp4	19.single_touch_with_rolling_pin_short_short_600ms.mp4	223.125798323048	223.7340683618768	0.6082700388287776	n/a	n/a	n/a	n/a
206.34912109375	0.2	422603	187	60	1	0	0	90	199	stimuli\Videos_short_600ms_horvertflip\27.single_push_with_a_plastic_whisk_short_horvertflip_short_600ms.mp4	27.single_push_with_a_plastic_whisk_short_horvertflip_short_600ms.mp4	223.9257406710676	224.5340086571814	0.6082679861137876	n/a	n/a	n/a	n/a
207.14892578125	0.2	424241	188	60	1	0	0	91	36	stimuli\Videos_short_600ms\42.single_slap_with_plastic_whisk_short_short_600ms.mp4	42.single_slap_with_plastic_whisk_short_short_600ms.mp4	224.72579738466447	225.3339908865291	0.6081935018646618	n/a	n/a	n/a	n/a
207.94921875	0.2	425880	189	60	1	0	0	92	298	stimuli\Videos_short_600ms_vertflip\35.single_punch_with_hand_short_vertflip_short_600ms.mp4	35.single_punch_with_hand_short_vertflip_short_600ms.mp4	225.5257397326841	226.1339968687298	0.6082571360457223	n/a	n/a	n/a	n/a
208.7490234375	0.2	427518	190	60	1	0	0	93	282	stimuli\Videos_short_600ms_vertflip\20.single_touch_with_screwdriver_short_vertflip_short_600ms.mp4	20.single_touch_with_screwdriver_short_vertflip_short_600ms.mp4	226.3261383700319	226.93398056430303	0.6078421942711429	n/a	n/a	n/a	n/a
209.548828125	0.2	429156	191	60	1	0	0	94	225	stimuli\Videos_short_600ms_horvertflip\50.single_(long)hard_push_with_thumb_short_horvertflip_short_600ms.mp4	50.single_(long)hard_push_with_thumb_short_horvertflip_short_600ms.mp4	227.1258666491503	227.73397481669963	0.6081081675492896	5.0	5.0	1.932481202256895	1.0
243.96435546875	0.2	499639	192	60	2	0	0	0	277	stimuli\Videos_short_600ms_vertflip\16.repeated_touch_with_plastic_brush_short_vertflip_short_600ms.mp4	16.repeated_touch_with_plastic_brush_short_vertflip_short_600ms.mp4	261.54157437999856	262.1498857663828	0.60831138638423	n/a	n/a	n/a	n/a
244.7646484375	0.2	501278	193	60	2	0	0	1	154	stimuli\Videos_short_600ms_horflip\68.stroke_top_to_bottom_with_shawl_short_horflip_short_600ms.mp4	68.stroke_top_to_bottom_with_shawl_short_horflip_short_600ms.mp4	262.3416205367739	262.94991550143277	0.6082949646588531	n/a	n/a	n/a	n/a
245.564453125	0.2	502916	194	60	2	0	0	2	42	stimuli\Videos_short_600ms\48.single_slap_with_hand_short_short_600ms.mp4	48.single_slap_with_hand_short_short_600ms.mp4	263.14159719446616	263.749892159125	0.6082949646588531	n/a	n/a	n/a	n/a
246.3642578125	0.2	504554	195	60	2	0	0	3	143	stimuli\Videos_short_600ms_horflip\58.single_slap_with_pencil_short_horflip_short_600ms.mp4	58.single_slap_with_pencil_short_horflip_short_600ms.mp4	263.9415407154647	264.5498787871493	0.6083380716845568	n/a	n/a	n/a	n/a
247.16455078125	0.2	506193	196	60	2	0	0	4	289	stimuli\Videos_short_600ms_vertflip\27.single_push_with_a_plastic_whisk_short_vertflip_short_600ms.mp4	27.single_push_with_a_plastic_whisk_short_vertflip_short_600ms.mp4	264.7416830566217	265.34987509226266	0.6081920356409682	n/a	n/a	n/a	n/a
247.96435546875	0.2	507831	197	60	2	0	0	5	61	stimuli\Videos_short_600ms\65.stroke_top_to_bottom_with_stanley_knife_short_short_600ms.mp4	65.stroke_top_to_bottom_with_stanley_knife_short_short_600ms.mp4	265.5415966666242	266.1498212524675	0.6082245858433453	n/a	n/a	n/a	n/a
248.76416015625	0.2	509469	198	60	2	0	0	6	79	stimuli\Videos_short_600ms\81.single_stroke_top_to_bottom_with_cotton_pad_short_short_600ms.mp4	81.single_stroke_top_to_bottom_with_cotton_pad_short_short_600ms.mp4	266.34155807557363	266.94978266141516	0.6082245858415263	n/a	n/a	n/a	n/a
249.564453125	0.2	511108	199	60	2	0	0	7	346	stimuli\Videos_short_600ms_vertflip\79.long_with_soft_brush_all_over_the_hand_short_vertflip_short_600ms.mp4	79.long_with_soft_brush_all_over_the_hand_short_vertflip_short_600ms.mp4	267.1415139128658	267.749777500303	0.60826358743725	n/a	n/a	n/a	n/a
250.3642578125	0.2	512746	200	60	2	0	0	8	41	stimuli\Videos_short_600ms\47.(long)scratching_with_finger_nails_short_short_600ms.mp4	47.(long)scratching_with_finger_nails_short_short_600ms.mp4	267.94149233002827	268.5497717526996	0.6082794226713304	n/a	n/a	n/a	n/a
251.16455078125	0.2	514385	201	60	2	0	0	9	177	stimuli\Videos_short_600ms_horflip\89.single_touch_with_plastic_brush_short_horflip_short_600ms.mp4	89.single_touch_with_plastic_brush_short_horflip_short_600ms.mp4	268.74147895805254	269.34975192933234	0.6082729712798027	n/a	n/a	n/a	n/a
251.96435546875	0.2	516023	202	60	2	0	0	10	354	stimuli\Videos_short_600ms_vertflip\86.touch_top_to_bottom_with_hair_brush_short_vertflip_short_600ms.mp4	86.touch_top_to_bottom_with_hair_brush_short_vertflip_short_600ms.mp4	269.5414397805125	270.1497467682202	0.6083069877076923	n/a	n/a	n/a	n/a
252.76416015625	0.2	517661	203	60	2	0	0	11	262	stimuli\Videos_short_600ms_horvertflip\84.single_touch_with_cotton_bud_short_horvertflip_short_600ms.mp4	84.single_touch_with_cotton_bud_short_horvertflip_short_600ms.mp4	270.34141995714526	270.94974629902754	0.6083263418822753	n/a	n/a	n/a	n/a
253.564453125	0.2	519300	204	60	2	0	0	12	210	stimuli\Videos_short_600ms_horvertflip\37.single_stab_with_nail_file_short_horvertflip_short_600ms.mp4	37.single_stab_with_nail_file_short_horvertflip_short_600ms.mp4	271.14137755390766	271.7497341000326	0.6083565461249236	n/a	n/a	n/a	n/a
254.3642578125	0.2	520938	205	60	2	0	0	13	21	stimuli\Videos_short_600ms\29.single_pinch_with_tweezers_short_short_600ms.mp4	29.single_pinch_with_tweezers_short_short_600ms.mp4	271.94149848817506	272.5497098779888	0.6082113898137322	n/a	n/a	n/a	n/a
255.1640625	0.2	522576	206	60	2	0	0	14	14	stimuli\Videos_short_600ms\22.single_touch_with_metal_chopstick_short_short_600ms.mp4	22.single_touch_with_metal_chopstick_short_short_600ms.mp4	272.74142060228405	273.3497187926405	0.608298190356436	n/a	n/a	n/a	n/a
255.96435546875	0.2	524215	207	60	2	0	0	15	128	stimuli\Videos_short_600ms_horflip\44.pushing_top_to_bottom_with_finger_short_horflip_short_600ms.mp4	44.pushing_top_to_bottom_with_finger_short_horflip_short_600ms.mp4	273.54146089415735	274.1496675920498	0.6082066978924558	n/a	n/a	n/a	n/a
256.76416015625	0.2	525853	208	60	2	0	0	16	269	stimuli\Videos_short_600ms_horvertflip\90.repeated_touch_with_sponge_short_horvertflip_short_600ms.mp4	90.repeated_touch_with_sponge_short_horvertflip_short_600ms.mp4	274.3413369687896	274.94966037822087	0.6083234094312502	n/a	n/a	n/a	n/a
257.56396484375	0.2	527491	209	60	2	0	0	17	312	stimuli\Videos_short_600ms_vertflip\48.single_slap_with_hand_short_vertflip_short_600ms.mp4	48.single_slap_with_hand_short_vertflip_short_600ms.mp4	275.14130658860086	275.74964290081516	0.6083363122143055	n/a	n/a	n/a	n/a
258.3642578125	0.2	529130	210	60	2	0	0	18	330	stimuli\Videos_short_600ms_vertflip\64.repeated_touch_with_screwdriver_short_vertflip_short_600ms.mp4	64.repeated_touch_with_screwdriver_short_vertflip_short_600ms.mp4	275.94125920019724	276.54962043824344	0.6083612380462	n/a	n/a	n/a	n/a
259.1640625	0.2	530768	211	60	2	0	0	19	70	stimuli\Videos_short_600ms\73.single_stroke_with_flat_hand_short_short_600ms.mp4	73.single_stroke_with_flat_hand_short_short_600ms.mp4	276.7414159103628	277.3496082392485	0.608192328885707	n/a	n/a	n/a	n/a
259.9638671875	0.2	532406	212	60	2	0	0	20	203	stimuli\Videos_short_600ms_horvertflip\30.finger_pulling_back_another_finger_short_horvertflip_short_600ms.mp4	30.finger_pulling_back_another_finger_short_horvertflip_short_600ms.mp4	277.5412881728098	278.149594574028	0.6083064012182149	n/a	n/a	n/a	n/a
260.76416015625	0.2	534045	213	60	2	0	0	21	191	stimuli\Videos_short_600ms_horvertflip\2.single_touch_with_finger_short_horvertflip_short_600ms.mp4	2.single_touch_with_finger_short_horvertflip_short_600ms.mp4	278.3413223065363	278.94957328443525	0.6082509778989333	n/a	n/a	n/a	n/a
261.56396484375	0.2	535683	214	60	2	0	0	22	304	stimuli\Videos_short_600ms_vertflip\40.repeated_push_with_finger_short_vertflip_short_600ms.mp4	40.repeated_push_with_finger_short_vertflip_short_600ms.mp4	279.1412526315071	279.74953733258917	0.6082847010820842	n/a	n/a	n/a	n/a
262.36376953125	0.2	537321	215	60	2	0	0	23	152	stimuli\Videos_short_600ms_horflip\66.stroke_top_to_bottom_with_sponge_short_horflip_short_600ms.mp4	66.stroke_top_to_bottom_with_sponge_short_horflip_short_600ms.mp4	279.94120436336925	280.5495251335942	0.6083207702249638	n/a	n/a	n/a	n/a
263.1640625	0.2	538960	216	60	2	0	0	24	308	stimuli\Videos_short_600ms_vertflip\44.pushing_top_to_bottom_with_finger_short_vertflip_short_600ms.mp4	44.pushing_top_to_bottom_with_finger_short_vertflip_short_600ms.mp4	280.7412094658339	281.34947950466267	0.6082700388287776	n/a	n/a	n/a	n/a
263.9638671875	0.2	540598	217	60	2	0	0	25	8	stimuli\Videos_short_600ms\17.repeated_touch_with_rolling_pin_short_short_600ms.mp4	17.repeated_touch_with_rolling_pin_short_short_600ms.mp4	281.54118201809433	282.1494925247425	0.6083105066481949	n/a	n/a	n/a	n/a
264.763671875	0.2	542236	218	60	2	0	0	26	256	stimuli\Videos_short_600ms_horvertflip\79.long_with_soft_brush_all_over_the_hand_short_horvertflip_short_600ms.mp4	79.long_with_soft_brush_all_over_the_hand_short_horvertflip_short_600ms.mp4	282.3411774434717	282.94948296495386	0.6083055214821798	n/a	n/a	n/a	n/a
265.56396484375	0.2	543875	219	60	2	0	0	27	195	stimuli\Videos_short_600ms_horvertflip\23.single_push_with_a_spoon_short_horvertflip_short_600ms.mp4	23.single_push_with_a_spoon_short_horvertflip_short_600ms.mp4	283.1411482362637	283.74944877257803	0.6083005363143457	n/a	n/a	n/a	n/a
266.36376953125	0.2	545513	220	60	2	0	0	28	91	stimuli\Videos_short_600ms_horflip\10.single_touch_with_knife_short_horflip_short_600ms.mp4	10.single_touch_with_knife_short_horflip_short_600ms.mp4	283.94113339806245	284.54946355212996	0.6083301540675166	n/a	n/a	n/a	n/a
267.16357421875	0.2	547151	221	60	2	0	0	29	62	stimuli\Videos_short_600ms\66.stroke_top_to_bottom_with_sponge_short_short_600ms.mp4	66.stroke_top_to_bottom_with_sponge_short_short_600ms.mp4	284.741131755889	285.3494255475689	0.6082937916798983	n/a	n/a	n/a	n/a
267.9638671875	0.2	548790	222	60	2	0	0	30	288	stimuli\Videos_short_600ms_vertflip\26.single_touch_with_a_blunt_syringe_short_vertflip_short_600ms.mp4	26.single_touch_with_a_blunt_syringe_short_vertflip_short_600ms.mp4	285.54115562603874	286.14942801082725	0.6082723847885063	n/a	n/a	n/a	n/a
268.763671875	0.2	550428	223	60	2	0	0	31	19	stimuli\Videos_short_600ms\27.single_push_with_a_plastic_whisk_short_short_600ms.mp4	27.single_push_with_a_plastic_whisk_short_short_600ms.mp4	286.3410856577648	286.94940789421526	0.6083222364504763	n/a	n/a	n/a	n/a
269.5634765625	0.2	552066	224	60	2	0	0	32	3	stimuli\Videos_short_600ms\12.repeated_touch_with_nail_file_short_short_600ms.mp4	12.repeated_touch_with_nail_file_short_short_600ms.mp4	287.1412060055409	287.7493871911138	0.6081811855729029	n/a	n/a	n/a	n/a
270.36376953125	0.2	553705	225	60	2	0	0	33	105	stimuli\Videos_short_600ms_horflip\23.single_push_with_a_spoon_short_horflip_short_600ms.mp4	23.single_push_with_a_spoon_short_horflip_short_600ms.mp4	287.9410295893067	288.5493705934423	0.6083410041355819	n/a	n/a	n/a	n/a
271.16357421875	0.2	555343	226	60	2	0	0	34	283	stimuli\Videos_short_600ms_vertflip\21.repeated_touch_with_metal_chopstick_short_vertflip_short_600ms.mp4	21.repeated_touch_with_metal_chopstick_short_vertflip_short_600ms.mp4	288.7410302930948	289.3493525295471	0.6083222364522953	n/a	n/a	n/a	n/a
271.9638671875	0.2	556982	227	60	2	0	0	35	313	stimuli\Videos_short_600ms_vertflip\49.repeated_slap_with_hand_short_vertflip_short_600ms.mp4	49.repeated_slap_with_hand_short_vertflip_short_600ms.mp4	289.54101310893384	290.14933475889484	0.6083216499609989	n/a	n/a	n/a	n/a
272.763671875	0.2	558620	228	60	2	0	1	36	370	stimuli\Targets_short_600ms_horflip\hand-pinch_short_horflip_short_600ms.mp4	hand-pinch_short_horflip_short_600ms.mp4	290.34098243550034	290.94931816122516	0.6083357257248281	n/a	n/a	n/a	n/a
273.57177734375	0.2	560275	229	60	2	0	0	37	127	stimuli\Videos_short_600ms_horflip\43.touch_top_to_bottom_with_sharp_wooden_stick_short_horflip_short_600ms.mp4	43.touch_top_to_bottom_with_sharp_wooden_stick_short_horflip_short_600ms.mp4	291.1492928248499	291.7576423330938	0.6083495082439185	n/a	n/a	n/a	n/a
274.3720703125	0.2	561914	230	60	2	0	0	38	87	stimuli\Videos_short_600ms\89.single_touch_with_plastic_brush_short_short_600ms.mp4	89.single_touch_with_plastic_brush_short_short_600ms.mp4	291.9492788663847	292.5576310138331	0.608352147448386	n/a	n/a	n/a	n/a
275.171875	0.2	563552	231	60	2	0	0	39	334	stimuli\Videos_short_600ms_vertflip\68.stroke_top_to_bottom_with_shawl_short_vertflip_short_600ms.mp4	68.stroke_top_to_bottom_with_shawl_short_vertflip_short_600ms.mp4	292.74928338235986	293.3576018066233	0.6083184242634161	n/a	n/a	n/a	n/a
275.9716796875	0.2	565190	232	60	2	0	0	40	38	stimuli\Videos_short_600ms\44.pushing_top_to_bottom_with_finger_short_short_600ms.mp4	44.pushing_top_to_bottom_with_finger_short_short_600ms.mp4	293.54933892297595	294.15758696842386	0.6082480454479082	n/a	n/a	n/a	n/a
276.77197265625	0.2	566829	233	60	2	0	0	41	100	stimuli\Videos_short_600ms_horflip\19.single_touch_with_rolling_pin_short_horflip_short_600ms.mp4	19.single_touch_with_rolling_pin_short_horflip_short_600ms.mp4	294.34934167947904	294.95757095724366	0.6082292777646217	n/a	n/a	n/a	n/a
277.57177734375	0.2	568467	234	60	2	0	0	42	98	stimuli\Videos_short_600ms_horflip\17.repeated_touch_with_rolling_pin_short_horflip_short_600ms.mp4	17.repeated_touch_with_rolling_pin_short_horflip_short_600ms.mp4	295.1492725909411	295.7575505473851	0.6082779564439988	n/a	n/a	n/a	n/a
278.37158203125	0.2	570105	235	60	2	0	0	43	219	stimuli\Videos_short_600ms_horvertflip\45.scratching_with_finger_nails_short_horvertflip_short_600ms.mp4	45.scratching_with_finger_nails_short_horvertflip_short_600ms.mp4	295.94929030294225	296.55753541594095	0.6082451129987021	n/a	n/a	n/a	n/a
279.171875	0.2	571744	236	60	2	0	0	44	309	stimuli\Videos_short_600ms_vertflip\45.scratching_with_finger_nails_short_vertflip_short_600ms.mp4	45.scratching_with_finger_nails_short_vertflip_short_600ms.mp4	296.74925962950874	297.35751940475893	0.6082597752501897	n/a	n/a	n/a	n/a
279.9716796875	0.2	573382	237	60	2	0	0	45	155	stimuli\Videos_short_600ms_horflip\69.stroke_with_soft_sock_short_horflip_short_600ms.mp4	69.stroke_with_soft_sock_short_horflip_short_600ms.mp4	297.54991339006847	298.157506032785	0.6075926427165541	n/a	n/a	n/a	n/a
280.771484375	0.2	575020	238	60	2	0	0	46	317	stimuli\Videos_short_600ms_vertflip\52.touch_top_to_bottom_with_hammer_short_vertflip_short_600ms.mp4	52.touch_top_to_bottom_with_hammer_short_vertflip_short_600ms.mp4	298.34914227283116	298.95748562292647	0.6083433500953106	n/a	n/a	n/a	n/a
281.57177734375	0.2	576659	239	60	2	0	0	47	29	stimuli\Videos_short_600ms\36.single_slap_with_full_hand_short_short_600ms.mp4	36.single_slap_with_full_hand_short_short_600ms.mp4	299.14911658456367	299.75747225095256	0.6083556663888885	n/a	n/a	n/a	n/a
282.37158203125	0.2	578297	240	60	2	0	0	48	151	stimuli\Videos_short_600ms_horflip\65.stroke_top_to_bottom_with_stanley_knife_short_horflip_short_600ms.mp4	65.stroke_top_to_bottom_with_stanley_knife_short_horflip_short_600ms.mp4	299.94920115644163	300.55744363023405	0.6082424737924157	n/a	n/a	n/a	n/a
283.17138671875	0.2	579935	241	60	2	0	0	49	193	stimuli\Videos_short_600ms_horvertflip\21.repeated_touch_with_metal_chopstick_short_horvertflip_short_600ms.mp4	21.repeated_touch_with_metal_chopstick_short_horvertflip_short_600ms.mp4	300.74913236114844	301.35742849878807	0.608296137639627	n/a	n/a	n/a	n/a
283.9716796875	0.2	581574	242	60	2	0	0	50	35	stimuli\Videos_short_600ms\41.injection_with_blunt_syringe_short_short_600ms.mp4	41.injection_with_blunt_syringe_short_short_600ms.mp4	301.5491559380516	302.1573910807165	0.6082351426648529	n/a	n/a	n/a	n/a
284.771484375	0.2	583212	243	60	2	0	0	51	148	stimuli\Videos_short_600ms_horflip\62.touch_top_to_bottom_with_scissors_short_horflip_short_600ms.mp4	62.touch_top_to_bottom_with_scissors_short_horflip_short_600ms.mp4	302.3491188132248	302.95737565602576	0.6082568428009836	n/a	n/a	n/a	n/a
285.5712890625	0.2	584850	244	60	2	0	0	52	124	stimuli\Videos_short_600ms_horflip\40.repeated_push_with_finger_short_horflip_short_600ms.mp4	40.repeated_push_with_finger_short_horflip_short_600ms.mp4	303.1490995763488	303.7573634570308	0.6082638806819887	n/a	n/a	n/a	n/a
286.37158203125	0.2	586489	245	60	2	0	0	53	85	stimuli\Videos_short_600ms\87.single_stroke_top_to_bottom_with_plastic_brush_short_short_600ms.mp4	87.single_stroke_top_to_bottom_with_plastic_brush_short_short_600ms.mp4	303.94910555854767	304.55734568638036	0.608240127832687	n/a	n/a	n/a	n/a
287.17138671875	0.2	588127	246	60	2	0	0	54	185	stimuli\Videos_short_600ms_horvertflip\14.repeated_touch_with_pencil_short_horvertflip_short_600ms.mp4	14.repeated_touch_with_pencil_short_horvertflip_short_600ms.mp4	304.7490813365057	305.35735254831343	0.6082712118077325	n/a	n/a	n/a	n/a
287.9716796875	0.2	589766	247	60	2	0	0	55	113	stimuli\Videos_short_600ms_horflip\30.finger_pulling_back_another_finger_short_horflip_short_600ms.mp4	30.finger_pulling_back_another_finger_short_horflip_short_600ms.mp4	305.5490304291616	306.1573280330267	0.6082976038651395	n/a	n/a	n/a	n/a
288.771484375	0.2	591404	248	60	2	0	0	56	207	stimuli\Videos_short_600ms_horvertflip\34.repeated_punch_with_hand_short_horvertflip_short_600ms.mp4	34.repeated_punch_with_hand_short_horvertflip_short_600ms.mp4	306.34919212449313	306.9573134880702	0.6081213635770837	n/a	n/a	n/a	n/a
289.5712890625	0.2	593042	249	60	2	0	0	57	306	stimuli\Videos_short_600ms_vertflip\42.single_slap_with_plastic_whisk_short_vertflip_short_600ms.mp4	42.single_slap_with_plastic_whisk_short_vertflip_short_600ms.mp4	307.14894679566714	307.75730334179207	0.6083565461249236	n/a	n/a	n/a	n/a
290.37158203125	0.2	594681	250	60	2	0	1	58	382	stimuli\Targets_short_600ms_vertflip\hand-pinch_short_horvertflip_short_600ms.mp4	hand-pinch_short_horvertflip_short_600ms.mp4	307.94896069548304	308.5572826386888	0.6083219432057376	n/a	n/a	n/a	n/a
291.17138671875	0.2	596319	251	60	2	0	0	59	71	stimuli\Videos_short_600ms\74.fingers_walking_from_top_to_bottom_short_short_600ms.mp4	74.fingers_walking_from_top_to_bottom_short_short_600ms.mp4	308.74894820324334	309.3572604693618	0.6083122661184461	n/a	n/a	n/a	n/a
291.97119140625	0.2	597957	252	60	2	0	1	60	371	stimuli\Targets_short_600ms_horflip\hand-stroke_short_horflip_short_600ms.mp4	hand-stroke_short_horflip_short_600ms.mp4	309.54891342437804	310.15725237579863	0.6083389514205919	n/a	n/a	n/a	n/a
292.771484375	0.2	599596	253	60	2	0	0	61	208	stimuli\Videos_short_600ms_horvertflip\35.single_punch_with_hand_short_horvertflip_short_600ms.mp4	35.single_punch_with_hand_short_horvertflip_short_600ms.mp4	310.34891559439166	310.95722756726536	0.6083119728737074	n/a	n/a	n/a	n/a
293.5712890625	0.2	601234	254	60	2	0	0	62	120	stimuli\Videos_short_600ms_horflip\37.single_stab_with_nail_file_short_horflip_short_600ms.mp4	37.single_stab_with_nail_file_short_horflip_short_600ms.mp4	311.14885090452844	311.75721096959387	0.6083600650654262	n/a	n/a	n/a	n/a
294.37109375	0.2	602872	255	60	2	0	1	63	381	stimuli\Targets_short_600ms_vertflip\finger-tap_short_horvertflip_short_600ms.mp4	finger-tap_short_horvertflip_short_600ms.mp4	311.9488304946717	312.5571937854329	0.60836329076119	n/a	n/a	n/a	n/a
295.17138671875	0.2	604511	256	60	2	0	0	64	28	stimuli\Videos_short_600ms\35.single_punch_with_hand_short_short_600ms.mp4	35.single_punch_with_hand_short_short_600ms.mp4	312.7488546580662	313.3571798269677	0.6083251689015015	n/a	n/a	n/a	n/a
295.97119140625	0.2	606149	257	60	2	0	0	65	200	stimuli\Videos_short_600ms_horvertflip\28.single_injection_with_sharp_needle_short_horvertflip_short_600ms.mp4	28.single_injection_with_sharp_needle_short_horvertflip_short_600ms.mp4	313.5489368839844	314.1571582441302	0.6082213601457624	n/a	n/a	n/a	n/a
296.77099609375	0.2	607787	258	60	2	0	0	66	68	stimuli\Videos_short_600ms\71.single_stroke_with_finger_top_to_bottom_short_short_600ms.mp4	71.single_stroke_with_finger_top_to_bottom_short_short_600ms.mp4	314.348868381936	314.95714809785204	0.6082797159160691	n/a	n/a	n/a	n/a
297.5712890625	0.2	609426	259	60	2	0	1	67	365	stimuli\Targets_short_600ms\hand-stroke_short_short_600ms.mp4	hand-stroke_short_short_600ms.mp4	315.1488500247942	315.75710217567394	0.6082521508797072	n/a	n/a	n/a	n/a
298.37109375	0.2	611064	260	60	2	0	0	68	34	stimuli\Videos_short_600ms\40.repeated_push_with_finger_short_short_600ms.mp4	40.repeated_push_with_finger_short_short_600ms.mp4	315.94880204990113	316.55712457959635	0.608322529695215	n/a	n/a	n/a	n/a
299.1708984375	0.2	612702	261	60	2	0	0	69	150	stimuli\Videos_short_600ms_horflip\64.repeated_touch_with_screwdriver_short_horflip_short_600ms.mp4	64.repeated_touch_with_screwdriver_short_horflip_short_600ms.mp4	316.74884762018337	317.35707719119273	0.6082295710093604	n/a	n/a	n/a	n/a
299.97119140625	0.2	614341	262	60	2	0	0	70	50	stimuli\Videos_short_600ms\55.touch_top_to_bottom_with_nail_file_short_short_600ms.mp4	55.touch_top_to_bottom_with_nail_file_short_short_600ms.mp4	317.5487324921687	318.15705150292524	0.6083190107565315	n/a	n/a	n/a	n/a
300.77099609375	0.2	615979	263	60	2	0	0	71	350	stimuli\Videos_short_600ms_vertflip\82.repeated_touch_with_cotton_bud_short_vertflip_short_600ms.mp4	82.repeated_touch_with_cotton_bud_short_vertflip_short_600ms.mp4	318.3487516703972	318.95703695796874	0.6082852875715616	n/a	n/a	n/a	n/a
301.57080078125	0.2	617617	264	60	2	0	1	72	364	stimuli\Targets_short_600ms\hand-pinch_short_short_600ms.mp4	hand-pinch_short_short_600ms.mp4	319.1489793458695	319.75702241301406	0.6080430671445356	n/a	n/a	n/a	n/a
302.37109375	0.2	619256	265	60	2	0	0	73	133	stimuli\Videos_short_600ms_horflip\49.repeated_slap_with_hand_short_horflip_short_600ms.mp4	49.repeated_slap_with_hand_short_horflip_short_600ms.mp4	319.94872785889675	320.55701255997883	0.6082847010820842	n/a	n/a	n/a	n/a
303.1708984375	0.2	620894	266	60	2	0	0	74	140	stimuli\Videos_short_600ms_horflip\55.touch_top_to_bottom_with_nail_file_short_horflip_short_600ms.mp4	55.touch_top_to_bottom_with_nail_file_short_horflip_short_600ms.mp4	320.748702463874	321.3570088650922	0.6083064012182149	n/a	n/a	n/a	n/a
303.970703125	0.2	622532	267	60	2	0	0	75	248	stimuli\Videos_short_600ms_horvertflip\71.single_stroke_with_finger_top_to_bottom_short_horvertflip_short_600ms.mp4	71.single_stroke_with_finger_top_to_bottom_short_horvertflip_short_600ms.mp4	321.5486858662025	322.15695209284604	0.6082662266435364	n/a	n/a	n/a	n/a
304.77099609375	0.2	624171	268	60	2	0	0	76	204	stimuli\Videos_short_600ms_horvertflip\31.hand_grabbing_wrist_short_horvertflip_short_600ms.mp4	31.hand_grabbing_wrist_short_horvertflip_short_600ms.mp4	322.3486786523754	322.9569794819363	0.6083008295609034	n/a	n/a	n/a	n/a
305.57080078125	0.2	625809	269	60	2	0	0	77	190	stimuli\Videos_short_600ms_horvertflip\19.single_touch_with_rolling_pin_short_horvertflip_short_600ms.mp4	19.single_touch_with_rolling_pin_short_horvertflip_short_600ms.mp4	323.1486177746974	323.756958778833	0.6083410041355819	n/a	n/a	n/a	n/a
306.37060546875	0.2	627447	270	60	2	0	0	78	58	stimuli\Videos_short_600ms\62.touch_top_to_bottom_with_scissors_short_short_600ms.mp4	62.touch_top_to_bottom_with_scissors_short_short_600ms.mp4	323.9486211176918	324.55693836897626	0.6083172512844612	n/a	n/a	n/a	n/a
307.1708984375	0.2	629086	271	60	2	0	0	79	126	stimuli\Videos_short_600ms_horflip\42.single_slap_with_plastic_whisk_short_horflip_short_600ms.mp4	42.single_slap_with_plastic_whisk_short_horflip_short_600ms.mp4	324.7486059862458	325.35692147806003	0.60831549181421	n/a	n/a	n/a	n/a
307.970703125	0.2	630724	272	60	2	0	0	80	15	stimuli\Videos_short_600ms\23.single_push_with_a_spoon_short_short_600ms.mp4	23.single_push_with_a_spoon_short_short_600ms.mp4	325.5485996521529	326.15690546687983	0.6083058147269185	n/a	n/a	n/a	n/a
308.77099609375	0.2	632363	273	60	2	0	0	81	216	stimuli\Videos_short_600ms_horvertflip\42.single_slap_with_plastic_whisk_short_horvertflip_short_600ms.mp4	42.single_slap_with_plastic_whisk_short_horvertflip_short_600ms.mp4	326.3488727806107	326.9568912151699	0.6080184345591988	n/a	n/a	n/a	n/a
309.57080078125	0.2	634001	274	60	2	0	0	82	257	stimuli\Videos_short_600ms_horvertflip\8.single_touch_with_hairbrush_short_horvertflip_short_600ms.mp4	8.single_touch_with_hairbrush_short_horvertflip_short_600ms.mp4	327.1486010597291	327.7568705120666	0.6082694523374812	n/a	n/a	n/a	n/a
310.37060546875	0.2	635639	275	60	2	0	0	83	246	stimuli\Videos_short_600ms_horvertflip\7.repeated_touch_with_hairbrush_short_horvertflip_short_600ms.mp4	7.repeated_touch_with_hairbrush_short_horvertflip_short_600ms.mp4	327.9485648146383	328.5568550873759	0.6082902727375767	n/a	n/a	n/a	n/a
311.1708984375	0.2	637278	276	60	2	0	0	84	234	stimuli\Videos_short_600ms_horvertflip\59.single_push_with_long_side_pencil_short_horvertflip_short_600ms.mp4	59.single_push_with_long_side_pencil_short_horvertflip_short_600ms.mp4	328.7485162532539	329.3568364369894	0.6083201837354864	n/a	n/a	n/a	n/a
311.970703125	0.2	638916	277	60	2	0	0	85	92	stimuli\Videos_short_600ms_horflip\11.single_touch_with_lighter_short_horflip_short_600ms.mp4	11.single_touch_with_lighter_short_horflip_short_600ms.mp4	329.54845889451826	330.15682013256446	0.6083612380462	n/a	n/a	n/a	n/a
312.7705078125	0.2	640554	278	60	2	0	0	86	351	stimuli\Videos_short_600ms_vertflip\83.single_stroke_top_to_bottom_with_cotton_bud_short_vertflip_short_600ms.mp4	83.single_stroke_top_to_bottom_with_cotton_bud_short_vertflip_short_600ms.mp4	330.3484431765828	330.9567786090629	0.6083354324800894	n/a	n/a	n/a	n/a
313.57080078125	0.2	642193	279	60	2	0	0	87	355	stimuli\Videos_short_600ms_vertflip\87.single_stroke_top_to_bottom_with_plastic_brush_short_vertflip_short_600ms.mp4	87.single_stroke_top_to_bottom_with_plastic_brush_short_vertflip_short_600ms.mp4	331.1484702724283	331.7567878169575	0.6083175445292	n/a	n/a	n/a	n/a
314.37060546875	0.2	643831	280	60	2	0	0	88	104	stimuli\Videos_short_600ms_horflip\22.single_touch_with_metal_chopstick_short_horflip_short_600ms.mp4	22.single_touch_with_metal_chopstick_short_horflip_short_600ms.mp4	331.9485668673533	332.5567647678945	0.6081979005411995	n/a	n/a	n/a	n/a
315.17041015625	0.2	645469	281	60	2	0	0	89	315	stimuli\Videos_short_600ms_vertflip\50.single_(long)hard_push_with_thumb_short_vertflip_short_600ms.mp4	50.single_(long)hard_push_with_thumb_short_vertflip_short_600ms.mp4	332.74839191734463	333.3567299890292	0.6083380716845568	n/a	n/a	n/a	n/a
315.970703125	0.2	647108	282	60	2	0	0	90	83	stimuli\Videos_short_600ms\85.touch_top_to_bottom_with_fabric_short_short_600ms.mp4	85.touch_top_to_bottom_with_fabric_short_short_600ms.mp4	333.5485110921418	334.15671427109373	0.6082031789519533	n/a	n/a	n/a	n/a
316.7705078125	0.2	648746	283	60	2	0	0	91	274	stimuli\Videos_short_600ms_vertflip\13.single_touch_with_pen_short_vertflip_short_600ms.mp4	13.single_touch_with_pen_short_vertflip_short_600ms.mp4	334.3484725010894	334.95669913964775	0.6082266385583353	n/a	n/a	n/a	n/a
317.5703125	0.2	650384	284	60	2	0	0	92	284	stimuli\Videos_short_600ms_vertflip\22.single_touch_with_metal_chopstick_short_vertflip_short_600ms.mp4	22.single_touch_with_metal_chopstick_short_vertflip_short_600ms.mp4	335.14858111906506	335.75668371495703	0.6081025958919781	n/a	n/a	n/a	n/a
318.37060546875	0.2	652023	285	60	2	0	0	93	48	stimuli\Videos_short_600ms\53.touch_top_to_bottom_with_knife_short_short_600ms.mp4	53.touch_top_to_bottom_with_knife_short_short_600ms.mp4	335.9484305083952	336.55669614854924	0.6082656401540589	n/a	n/a	n/a	n/a
319.17041015625	0.2	653661	286	60	2	0	0	94	169	stimuli\Videos_short_600ms_horflip\81.single_stroke_top_to_bottom_with_cotton_pad_short_horflip_short_600ms.mp4	81.single_stroke_top_to_bottom_with_cotton_pad_short_horflip_short_600ms.mp4	336.74835027654444	337.35666782107546	0.6083175445310189	n/a	n/a	n/a	n/a
319.97021484375	0.2	655299	287	60	2	0	0	95	215	stimuli\Videos_short_600ms_horvertflip\41.injection_with_blunt_syringe_short_horvertflip_short_600ms.mp4	41.injection_with_blunt_syringe_short_horvertflip_short_600ms.mp4	337.54831960311094	338.15665386261026	0.6083342594993155	6.0	6.0	2.1324816714513872	1.0
355.65234375	0.2	728376	288	60	3	0	0	0	319	stimuli\Videos_short_600ms_vertflip\54.repeated_touch_with_knife_short_vertflip_short_600ms.mp4	54.repeated_touch_with_knife_short_vertflip_short_600ms.mp4	373.23090498067904	373.8392283901103	0.6083234094312502	n/a	n/a	n/a	n/a
356.45263671875	0.2	730015	289	60	3	0	0	1	241	stimuli\Videos_short_600ms_horvertflip\65.stroke_top_to_bottom_with_stanley_knife_short_horvertflip_short_600ms.mp4	65.stroke_top_to_bottom_with_stanley_knife_short_horvertflip_short_600ms.mp4	374.0308907289691	374.6392100329704	0.6083193040012702	n/a	n/a	n/a	n/a
357.25244140625	0.2	731653	290	60	3	0	0	2	110	stimuli\Videos_short_600ms_horflip\28.single_injection_with_sharp_needle_short_horflip_short_600ms.mp4	28.single_injection_with_sharp_needle_short_horflip_short_600ms.mp4	374.8309333668021	375.4391887433776	0.608255376575471	n/a	n/a	n/a	n/a
358.05224609375	0.2	733291	291	60	3	0	0	3	275	stimuli\Videos_short_600ms_vertflip\14.repeated_touch_with_pencil_short_vertflip_short_600ms.mp4	14.repeated_touch_with_pencil_short_vertflip_short_600ms.mp4	375.6308789405175	376.2391724389509	0.6082934984333406	n/a	n/a	n/a	n/a
358.8525390625	0.2	734930	292	60	3	0	1	4	368	stimuli\Targets_short_600ms_horflip\chopstickwood-tap_short_horflip_short_600ms.mp4	chopstickwood-tap_short_horflip_short_600ms.mp4	376.4308852159611	377.0391576007514	0.6082723847903253	n/a	n/a	n/a	n/a
359.65234375	0.2	736568	293	60	3	0	0	5	94	stimuli\Videos_short_600ms_horflip\13.single_touch_with_pen_short_horflip_short_600ms.mp4	13.single_touch_with_pen_short_horflip_short_600ms.mp4	377.23084310597005	377.8391421760607	0.6082990700906521	n/a	n/a	n/a	n/a
360.4521484375	0.2	738206	294	60	3	0	0	6	174	stimuli\Videos_short_600ms_horflip\86.touch_top_to_bottom_with_hair_brush_short_horflip_short_600ms.mp4	86.touch_top_to_bottom_with_hair_brush_short_horflip_short_600ms.mp4	378.03078193504734	378.6391232324295	0.6083412973821396	n/a	n/a	n/a	n/a
361.25244140625	0.2	739845	295	60	3	0	0	7	229	stimuli\Videos_short_600ms_horvertflip\54.repeated_touch_with_knife_short_horvertflip_short_600ms.mp4	54.repeated_touch_with_knife_short_horvertflip_short_600ms.mp4	378.8307556602904	379.4391051685325	0.6083495082420995	n/a	n/a	n/a	n/a
362.05224609375	0.2	741483	296	60	3	0	0	8	235	stimuli\Videos_short_600ms_horvertflip\6.single_touch_with_flat_hand_short_horvertflip_short_600ms.mp4	6.single_touch_with_flat_hand_short_horvertflip_short_600ms.mp4	379.6307760114978	380.2390891573523	0.6083131458544813	n/a	n/a	n/a	n/a
362.8525390625	0.2	743122	297	60	3	0	0	9	175	stimuli\Videos_short_600ms_horflip\87.single_stroke_top_to_bottom_with_plastic_brush_short_horflip_short_600ms.mp4	87.single_stroke_top_to_bottom_with_plastic_brush_short_horflip_short_600ms.mp4	380.4307523759453	381.0390725596808	0.6083201837354864	n/a	n/a	n/a	n/a
363.65234375	0.2	744760	298	60	3	0	0	10	252	stimuli\Videos_short_600ms_horvertflip\75.(long)stroke_with_fingers_all_over_the_hand_short_horvertflip_short_600ms.mp4	75.(long)stroke_with_fingers_all_over_the_hand_short_horvertflip_short_600ms.mp4	381.2307390039696	381.839031329424	0.6082923254543857	n/a	n/a	n/a	n/a
364.4521484375	0.2	746398	299	60	3	0	0	11	344	stimuli\Videos_short_600ms_vertflip\77.tapping_with_all_fingers_short_vertflip_short_600ms.mp4	77.tapping_with_all_fingers_short_vertflip_short_600ms.mp4	382.0312168174878	382.6390370183781	0.6078202008902736	n/a	n/a	n/a	n/a
365.25244140625	0.2	748037	300	60	3	0	1	12	372	stimuli\Targets_short_600ms_horvertflip\brush-stroke_short_vertflip_short_600ms.mp4	brush-stroke_short_vertflip_short_600ms.mp4	382.8307758941992	383.4389963746107	0.6082204804115463	n/a	n/a	n/a	n/a
366.05224609375	0.2	749675	301	60	3	0	0	13	46	stimuli\Videos_short_600ms\51.repeated_touch_with_hammer_short_short_600ms.mp4	51.repeated_touch_with_hammer_short_short_600ms.mp4	383.6306815865846	384.2389577835602	0.6082761969755666	n/a	n/a	n/a	n/a
366.85205078125	0.2	751313	302	60	3	0	0	14	352	stimuli\Videos_short_600ms_vertflip\84.single_touch_with_cotton_bud_short_vertflip_short_600ms.mp4	84.single_touch_with_cotton_bud_short_vertflip_short_600ms.mp4	384.4307286230942	385.0389168465481	0.608188223453908	n/a	n/a	n/a	n/a
367.65234375	0.2	752952	303	60	3	0	0	15	338	stimuli\Videos_short_600ms_vertflip\71.single_stroke_with_finger_top_to_bottom_short_vertflip_short_600ms.mp4	71.single_stroke_with_finger_top_to_bottom_short_vertflip_short_600ms.mp4	385.23060411123697	385.8389448221278	0.6083407108908432	n/a	n/a	n/a	n/a
368.4521484375	0.2	754590	304	60	3	0	0	16	201	stimuli\Videos_short_600ms_horvertflip\29.single_pinch_with_tweezers_short_horvertflip_short_600ms.mp4	29.single_pinch_with_tweezers_short_horvertflip_short_600ms.mp4	386.0306285678762	386.6389288109476	0.6083002430714259	n/a	n/a	n/a	n/a
369.251953125	0.2	756228	305	60	3	0	0	17	144	stimuli\Videos_short_600ms_horflip\59.single_push_with_long_side_pencil_short_horflip_short_600ms.mp4	59.single_push_with_long_side_pencil_short_horflip_short_600ms.mp4	386.8306454001431	387.4389224768529	0.6082770767097827	n/a	n/a	n/a	n/a
370.05224609375	0.2	757867	306	60	3	0	0	18	130	stimuli\Videos_short_600ms_horflip\46.scratching_top_to_bottom_with_finger_nails_short_horflip_short_600ms.mp4	46.scratching_top_to_bottom_with_finger_nails_short_horflip_short_600ms.mp4	387.6306534350588	388.23891790223024	0.6082644671714661	n/a	n/a	n/a	n/a
370.85205078125	0.2	759505	307	60	3	0	0	19	52	stimuli\Videos_short_600ms\57.single_touch_with_nail_file_short_short_600ms.mp4	57.single_touch_with_nail_file_short_short_600ms.mp4	388.4305559017485	389.038898078863	0.6083421771145368	n/a	n/a	n/a	n/a
371.65185546875	0.2	761143	308	60	3	0	0	20	39	stimuli\Videos_short_600ms\45.scratching_with_finger_nails_short_short_600ms.mp4	45.scratching_with_finger_nails_short_short_600ms.mp4	389.23056159070256	389.8388847068891	0.6083231161865115	n/a	n/a	n/a	n/a
372.4521484375	0.2	762782	309	60	3	0	0	21	168	stimuli\Videos_short_600ms_horflip\80.stroke_with_sharp_stick_all_over_the_hand_short_horflip_short_600ms.mp4	80.stroke_with_sharp_stick_all_over_the_hand_short_horflip_short_600ms.mp4	390.03052329289494	390.6388669362368	0.6083436433418683	n/a	n/a	n/a	n/a
373.251953125	0.2	764420	310	60	3	0	0	22	5	stimuli\Videos_short_600ms\14.repeated_touch_with_pencil_short_short_600ms.mp4	14.repeated_touch_with_pencil_short_short_600ms.mp4	390.8305609455619	391.438826585716	0.6082656401540589	n/a	n/a	n/a	n/a
374.0517578125	0.2	766058	311	60	3	0	0	23	348	stimuli\Videos_short_600ms_vertflip\80.stroke_with_sharp_stick_all_over_the_hand_short_vertflip_short_600ms.mp4	80.stroke_with_sharp_stick_all_over_the_hand_short_vertflip_short_600ms.mp4	391.6305185423262	392.23882816923833	0.6083096269121597	n/a	n/a	n/a	n/a
374.85205078125	0.2	767697	312	60	3	0	0	24	108	stimuli\Videos_short_600ms_horflip\26.single_touch_with_a_blunt_syringe_short_horflip_short_600ms.mp4	26.single_touch_with_a_blunt_syringe_short_horflip_short_600ms.mp4	392.430511621742	393.0388147972626	0.6083031755206321	n/a	n/a	n/a	n/a
375.65185546875	0.2	769335	313	60	3	0	0	25	90	stimuli\Videos_short_600ms_horflip\1.repeated_touch_with_finger_fast_short_horflip_short_600ms.mp4	1.repeated_touch_with_finger_fast_short_horflip_short_600ms.mp4	393.2304580751915	393.838798199593	0.6083401244013658	n/a	n/a	n/a	n/a
376.45166015625	0.2	770973	314	60	3	0	0	26	276	stimuli\Videos_short_600ms_vertflip\15.single_stroke_top_to_bottom_with_a_plastic_whisk_short_vertflip_short_600ms.mp4	15.single_stroke_top_to_bottom_with_a_plastic_whisk_short_vertflip_short_600ms.mp4	394.030417431426	394.6387783762257	0.6083609447996423	n/a	n/a	n/a	n/a
377.251953125	0.2	772612	315	60	3	0	0	27	228	stimuli\Videos_short_600ms_horvertflip\53.touch_top_to_bottom_with_knife_short_horvertflip_short_600ms.mp4	53.touch_top_to_bottom_with_knife_short_horvertflip_short_600ms.mp4	394.8305219439681	395.43876295153495	0.6082410075669031	n/a	n/a	n/a	n/a
378.0517578125	0.2	774250	316	60	3	0	0	28	77	stimuli\Videos_short_600ms\8.single_touch_with_hairbrush_short_short_600ms.mp4	8.single_touch_with_hairbrush_short_short_600ms.mp4	395.6304549081451	396.2387472335995	0.6082923254543857	n/a	n/a	n/a	n/a
378.8515625	0.2	775888	317	60	3	0	0	29	331	stimuli\Videos_short_600ms_vertflip\65.stroke_top_to_bottom_with_stanley_knife_short_vertflip_short_600ms.mp4	65.stroke_top_to_bottom_with_stanley_knife_short_vertflip_short_600ms.mp4	396.4304151441138	397.0387083493024	0.6082932051886019	n/a	n/a	n/a	n/a
379.65185546875	0.2	777527	318	60	3	0	0	30	64	stimuli\Videos_short_600ms\68.stroke_top_to_bottom_with_shawl_short_short_600ms.mp4	68.stroke_top_to_bottom_with_shawl_short_short_600ms.mp4	397.23040235862936	397.8386952705732	0.6082929119438631	n/a	n/a	n/a	n/a
380.45166015625	0.2	779165	319	60	3	0	0	31	347	stimuli\Videos_short_600ms_vertflip\8.single_touch_with_hairbrush_short_vertflip_short_600ms.mp4	8.single_touch_with_hairbrush_short_vertflip_short_600ms.mp4	398.0303520377747	398.63865110786537	0.6082990700906521	n/a	n/a	n/a	n/a
381.25146484375	0.2	780803	320	60	3	0	1	32	383	stimuli\Targets_short_600ms_vertflip\hand-stroke_short_horvertflip_short_600ms.mp4	hand-stroke_short_horvertflip_short_600ms.mp4	398.83035714023936	399.43865591708345	0.6082987768440944	n/a	n/a	n/a	n/a
382.0517578125	0.2	782442	321	60	3	0	0	33	340	stimuli\Videos_short_600ms_vertflip\73.single_stroke_with_flat_hand_short_vertflip_short_600ms.mp4	73.single_stroke_with_flat_hand_short_vertflip_short_600ms.mp4	399.6308554809111	400.2386715763714	0.6078160954602936	n/a	n/a	n/a	n/a
382.8515625	0.2	784080	322	60	3	0	0	34	301	stimuli\Videos_short_600ms_vertflip\38.double_slap_with_pencil_short_vertflip_short_600ms.mp4	38.double_slap_with_pencil_short_vertflip_short_600ms.mp4	400.4303081096623	401.03862946637855	0.6083213567162602	n/a	n/a	n/a	n/a
383.65185546875	0.2	785719	323	60	3	0	0	35	122	stimuli\Videos_short_600ms_horflip\39.single_stab_with_scissors_short_horflip_short_600ms.mp4	39.single_stab_with_scissors_short_horflip_short_600ms.mp4	401.2303615975634	401.8386181471196	0.6082565495562449	n/a	n/a	n/a	n/a
384.45166015625	0.2	787357	324	60	3	0	0	36	270	stimuli\Videos_short_600ms_vertflip\1.repeated_touch_with_finger_fast_short_vertflip_short_600ms.mp4	1.repeated_touch_with_finger_fast_short_vertflip_short_600ms.mp4	402.0303341498257	402.6386200238885	0.6082858740628581	n/a	n/a	n/a	n/a
385.25146484375	0.2	788995	325	60	3	0	0	37	145	stimuli\Videos_short_600ms_horflip\6.single_touch_with_flat_hand_short_horflip_short_600ms.mp4	6.single_touch_with_flat_hand_short_horflip_short_600ms.mp4	402.8302483463176	403.4386040127065	0.6083556663888885	n/a	n/a	n/a	n/a
386.0517578125	0.2	790634	326	60	3	0	0	38	341	stimuli\Videos_short_600ms_vertflip\74.fingers_walking_from_top_to_bottom_short_vertflip_short_600ms.mp4	74.fingers_walking_from_top_to_bottom_short_vertflip_short_600ms.mp4	403.6302572609675	404.238576271724	0.6083190107565315	n/a	n/a	n/a	n/a
386.8515625	0.2	792272	327	60	3	0	0	39	136	stimuli\Videos_short_600ms_horflip\51.repeated_touch_with_hammer_short_horflip_short_600ms.mp4	51.repeated_touch_with_hammer_short_horflip_short_600ms.mp4	404.43030429747705	405.038556155112	0.6082518576349685	n/a	n/a	n/a	n/a
387.6513671875	0.2	793910	328	60	3	0	0	40	224	stimuli\Videos_short_600ms_horvertflip\5.repeated_tap_with_finger_moving_from_top_to_bottom_short_horvertflip_short_600ms.mp4	5.repeated_tap_with_finger_moving_from_top_to_bottom_short_horvertflip_short_600ms.mp4	405.23021820072427	405.8385421966468	0.6083239959225466	n/a	n/a	n/a	n/a
388.45166015625	0.2	795549	329	60	3	0	0	41	251	stimuli\Videos_short_600ms_horvertflip\74.fingers_walking_from_top_to_bottom_short_horvertflip_short_600ms.mp4	74.fingers_walking_from_top_to_bottom_short_horvertflip_short_600ms.mp4	406.0302062949741	406.63852589222006	0.6083195972460089	n/a	n/a	n/a	n/a
389.25146484375	0.2	797187	330	60	3	0	0	42	54	stimuli\Videos_short_600ms\59.single_push_with_long_side_pencil_short_short_600ms.mp4	59.single_push_with_long_side_pencil_short_short_600ms.mp4	406.83018676485335	407.4385087080591	0.6083219432057376	n/a	n/a	n/a	n/a
390.05126953125	0.2	798825	331	60	3	0	0	43	1	stimuli\Videos_short_600ms\10.single_touch_with_knife_short_short_600ms.mp4	10.single_touch_with_knife_short_short_600ms.mp4	407.63020271738424	408.23848976442787	0.6082870470436319	n/a	n/a	n/a	n/a
390.8515625	0.2	800464	332	60	3	0	0	44	172	stimuli\Videos_short_600ms_horflip\84.single_touch_with_cotton_bud_short_horflip_short_600ms.mp4	84.single_touch_with_cotton_bud_short_horflip_short_600ms.mp4	408.4301905183893	409.03847639245214	0.6082858740628581	n/a	n/a	n/a	n/a
391.6513671875	0.2	802102	333	60	3	0	0	45	303	stimuli\Videos_short_600ms_vertflip\4.repeated_tap_with_finger_slow_short_vertflip_short_600ms.mp4	4.repeated_tap_with_finger_slow_short_vertflip_short_600ms.mp4	409.23009357157025	409.8384580353104	0.6083644637401449	n/a	n/a	n/a	n/a
392.451171875	0.2	803740	334	60	3	0	0	46	31	stimuli\Videos_short_600ms\38.double_slap_with_pencil_short_short_600ms.mp4	38.double_slap_with_pencil_short_short_600ms.mp4	410.03007902661375	410.63844114439416	0.6083621177804162	n/a	n/a	n/a	n/a
393.25146484375	0.2	805379	335	60	3	0	0	47	53	stimuli\Videos_short_600ms\58.single_slap_with_pencil_short_short_600ms.mp4	58.single_slap_with_pencil_short_short_600ms.mp4	410.8301008440467	411.4384227872524	0.6083219432057376	n/a	n/a	n/a	n/a
394.05126953125	0.2	807017	336	60	3	0	0	48	356	stimuli\Videos_short_600ms_vertflip\88.repeated_stroke_with_plastic_brush_short_vertflip_short_600ms.mp4	88.repeated_stroke_with_plastic_brush_short_vertflip_short_600ms.mp4	411.63009304372827	412.23837921103586	0.6082861673075968	n/a	n/a	n/a	n/a
394.85107421875	0.2	808655	337	60	3	0	0	49	20	stimuli\Videos_short_600ms\28.single_injection_with_sharp_needle_short_short_600ms.mp4	28.single_injection_with_sharp_needle_short_short_600ms.mp4	412.4300764460568	413.0383511768068	0.608274730750054	n/a	n/a	n/a	n/a
395.6513671875	0.2	810294	338	60	3	0	0	50	287	stimuli\Videos_short_600ms_vertflip\25.single_touch_with_stanley_knife_short_vertflip_short_600ms.mp4	25.single_touch_with_stanley_knife_short_vertflip_short_600ms.mp4	413.2300343360657	413.8383237290691	0.6082893930033606	n/a	n/a	n/a	n/a
396.451171875	0.2	811932	339	60	3	0	0	51	146	stimuli\Videos_short_600ms_horflip\60.single_push_with_tip_of_pencil_short_horflip_short_600ms.mp4	60.single_push_with_tip_of_pencil_short_horflip_short_600ms.mp4	414.03003533309857	414.6383083043784	0.6082729712798027	n/a	n/a	n/a	n/a
397.2509765625	0.2	813570	340	60	3	0	0	52	258	stimuli\Videos_short_600ms_horvertflip\80.stroke_with_sharp_stick_all_over_the_hand_short_horvertflip_short_600ms.mp4	80.stroke_with_sharp_stick_all_over_the_hand_short_horvertflip_short_600ms.mp4	414.8300430747677	415.4382917067069	0.6082486319392046	n/a	n/a	n/a	n/a
398.05126953125	0.2	815209	341	60	3	0	0	53	69	stimuli\Videos_short_600ms\72.(short)stroke_with_finger_all_over_the_hand_short_short_600ms.mp4	72.(short)stroke_with_finger_all_over_the_hand_short_short_600ms.mp4	415.6299965661001	416.2383070727483	0.6083105066481949	n/a	n/a	n/a	n/a
398.85107421875	0.2	816847	342	60	3	0	0	54	328	stimuli\Videos_short_600ms_vertflip\62.touch_top_to_bottom_with_scissors_short_vertflip_short_600ms.mp4	62.touch_top_to_bottom_with_scissors_short_vertflip_short_600ms.mp4	416.4299591480285	417.03829428726385	0.6083351392353507	n/a	n/a	n/a	n/a
399.65087890625	0.2	818485	343	60	3	0	1	55	366	stimuli\Targets_short_600ms_horflip\brush-stroke_short_horflip_short_600ms.mp4	brush-stroke_short_horflip_short_600ms.mp4	417.23023960761384	417.8382870734349	0.6080474658210733	n/a	n/a	n/a	n/a
400.451171875	0.2	820124	344	60	3	0	0	56	179	stimuli\Videos_short_600ms_horflip\90.repeated_touch_with_sponge_short_horflip_short_600ms.mp4	90.repeated_touch_with_sponge_short_horflip_short_600ms.mp4	418.0299634880557	418.63827604742073	0.6083125593650038	n/a	n/a	n/a	n/a
401.2509765625	0.2	821762	345	60	3	0	0	57	32	stimuli\Videos_short_600ms\39.single_stab_with_scissors_short_short_600ms.mp4	39.single_stab_with_scissors_short_short_600ms.mp4	418.8300093515845	419.4382544645832	0.6082451129987021	n/a	n/a	n/a	n/a
402.05078125	0.2	823400	346	60	3	0	0	58	273	stimuli\Videos_short_600ms_vertflip\12.repeated_touch_with_nail_file_short_vertflip_short_600ms.mp4	12.repeated_touch_with_nail_file_short_vertflip_short_600ms.mp4	419.6299646023872	420.2382364006862	0.6082717982990289	n/a	n/a	n/a	n/a
402.85107421875	0.2	825039	347	60	3	0	1	59	363	stimuli\Targets_short_600ms\finger-tap_short_short_600ms.mp4	finger-tap_short_short_600ms.mp4	420.4298943408685	421.0382162840742	0.6083219432057376	n/a	n/a	n/a	n/a
403.65087890625	0.2	826677	348	60	3	0	0	60	73	stimuli\Videos_short_600ms\76.tickle_with_fingers_from_top_to_bottom_short_short_600ms.mp4	76.tickle_with_fingers_from_top_to_bottom_short_short_600ms.mp4	421.229877743197	421.8381756403087	0.6082978971116972	n/a	n/a	n/a	n/a
404.451171875	0.2	828316	349	60	3	0	0	61	81	stimuli\Videos_short_600ms\83.single_stroke_top_to_bottom_with_cotton_bud_short_short_600ms.mp4	83.single_stroke_top_to_bottom_with_cotton_bud_short_short_600ms.mp4	422.0298693563891	422.63817898330126	0.6083096269121597	n/a	n/a	n/a	n/a
405.2509765625	0.2	829954	350	60	3	0	0	62	198	stimuli\Videos_short_600ms_horvertflip\26.single_touch_with_a_blunt_syringe_short_horvertflip_short_600ms.mp4	26.single_touch_with_a_blunt_syringe_short_horvertflip_short_600ms.mp4	422.82982402070047	423.4381606261595	0.6083366054590442	n/a	n/a	n/a	n/a
406.05078125	0.2	831592	351	60	3	0	1	63	377	stimuli\Targets_short_600ms_horvertflip\hand-stroke_short_vertflip_short_600ms.mp4	hand-stroke_short_vertflip_short_600ms.mp4	423.62981973932256	424.23815018663663	0.6083304473140743	n/a	n/a	n/a	n/a
406.85107421875	0.2	833231	352	60	3	0	0	64	156	stimuli\Videos_short_600ms_horflip\7.repeated_touch_with_hairbrush_short_horflip_short_600ms.mp4	7.repeated_touch_with_hairbrush_short_horflip_short_600ms.mp4	424.4299459520007	425.0381318294949	0.6081858774941793	n/a	n/a	n/a	n/a
407.65087890625	0.2	834869	353	60	3	0	0	65	255	stimuli\Videos_short_600ms_horvertflip\78.single_stroke_top_to_bottom_with_soft_brush_short_horvertflip_short_600ms.mp4	78.single_stroke_top_to_bottom_with_soft_brush_short_horvertflip_short_600ms.mp4	425.22977041550257	425.83810995341264	0.6083395379100693	n/a	n/a	n/a	n/a
408.45068359375	0.2	836507	354	60	3	0	0	66	116	stimuli\Videos_short_600ms_horflip\33.scratch_top_to_bottom_with_scissors_short_horflip_short_600ms.mp4	33.scratch_top_to_bottom_with_scissors_short_horflip_short_600ms.mp4	426.0297473664395	426.6380910097814	0.6083436433418683	n/a	n/a	n/a	n/a
409.2509765625	0.2	838146	355	60	3	0	0	67	24	stimuli\Videos_short_600ms\31.hand_grabbing_wrist_short_short_600ms.mp4	31.hand_grabbing_wrist_short_short_600ms.mp4	426.82982724639623	427.43808848787376	0.6082612414775213	n/a	n/a	n/a	n/a
410.05078125	0.2	839784	356	60	3	0	0	68	244	stimuli\Videos_short_600ms_horvertflip\68.stroke_top_to_bottom_with_shawl_short_horvertflip_short_600ms.mp4	68.stroke_top_to_bottom_with_shawl_short_horvertflip_short_600ms.mp4	427.6297866026289	428.23804344542987	0.6082568428009836	n/a	n/a	n/a	n/a
410.8505859375	0.2	841422	357	60	3	0	1	69	382	stimuli\Targets_short_600ms_vertflip\hand-pinch_short_horvertflip_short_600ms.mp4	hand-pinch_short_horvertflip_short_600ms.mp4	428.43018113454673	429.0380192233879	0.607838088841163	n/a	n/a	n/a	n/a
411.65087890625	0.2	843061	358	60	3	0	0	70	47	stimuli\Videos_short_600ms\52.touch_top_to_bottom_with_hammer_short_short_600ms.mp4	52.touch_top_to_bottom_with_hammer_short_short_600ms.mp4	429.229762204639	429.8379838580313	0.6082216533923201	n/a	n/a	n/a	n/a
412.45068359375	0.2	844699	359	60	3	0	1	71	370	stimuli\Targets_short_600ms_horflip\hand-pinch_short_horflip_short_600ms.mp4	hand-pinch_short_horflip_short_600ms.mp4	430.0296998607373	430.6379663806256	0.6082665198882751	n/a	n/a	n/a	n/a
