onset	duration	onsetsample	eventnumber	subjectnr	sequencenumber	blocksequencenumber	istarget	presentationnumber	stimnumber	stim	stimname	time_stimon	time_stimoff	stimdur	cresp	resp	rt	correct
0.2919921875	0.2	598	0	51	0	0	0	0	294	stimuli\Videos_short_600ms_vertflip\31.hand_grabbing_wrist_short_vertflip_short_600ms.mp4	31.hand_grabbing_wrist_short_vertflip_short_600ms.mp4	46.65435555436943	47.26269333280925	0.6083377784398181				
1.091796875	0.2	2236	1	51	0	0	0	1	95	stimuli\Videos_short_600ms_horflip\14.repeated_touch_with_pencil_short_horflip_short_600ms.mp4	14.repeated_touch_with_pencil_short_horflip_short_600ms.mp4	47.45455742427589	48.06266412560035	0.6081067013244592				
1.8916015625	0.2	3874	2	51	0	0	0	2	296	stimuli\Videos_short_600ms_vertflip\33.scratch_top_to_bottom_with_scissors_short_vertflip_short_600ms.mp4	33.scratch_top_to_bottom_with_scissors_short_vertflip_short_600ms.mp4	48.25432558472335	48.86264635494899	0.6083207702256459				
2.69189453125	0.2	5513	3	51	0	0	0	3	184	stimuli\Videos_short_600ms_horvertflip\13.single_touch_with_pen_short_horvertflip_short_600ms.mp4	13.single_touch_with_pen_short_horvertflip_short_600ms.mp4	49.05431016003263	49.66263122350347	0.6083210634708394				
3.49169921875	0.2	7151	4	51	0	0	0	4	1	stimuli\Videos_short_600ms\10.single_touch_with_knife_short_short_600ms.mp4	10.single_touch_with_knife_short_short_600ms.mp4	49.85426365136436	50.46261638530291	0.6083527339385455				
4.29150390625	0.2	8789	5	51	0	0	0	5	45	stimuli\Videos_short_600ms\50.single_(long)hard_push_with_thumb_short_short_600ms.mp4	50.single_(long)hard_push_with_thumb_short_short_600ms.mp4	50.65430394323698	51.26259802816139	0.6082940849244096				
5.091796875	0.2	10428	6	51	0	0	0	6	252	stimuli\Videos_short_600ms_horvertflip\75.(long)stroke_with_fingers_all_over_the_hand_short_horvertflip_short_600ms.mp4	75.(long)stroke_with_fingers_all_over_the_hand_short_horvertflip_short_600ms.mp4	51.4542759090084	52.062580844000195	0.6083049349917928				
5.8916015625	0.2	12066	7	51	0	0	0	7	308	stimuli\Videos_short_600ms_vertflip\44.pushing_top_to_bottom_with_finger_short_vertflip_short_600ms.mp4	44.pushing_top_to_bottom_with_finger_short_vertflip_short_600ms.mp4	52.25426634921905	52.86256512606451	0.6082987768454586				
6.69140625	0.2	13704	8	51	0	0	0	8	88	stimuli\Videos_short_600ms\9.single_touch_with_hammer_short_short_600ms.mp4	9.single_touch_with_hammer_short_short_600ms.mp4	53.054226291942314	53.66254618243306	0.6083198904907476				
7.49169921875	0.2	15343	9	51	0	0	0	9	217	stimuli\Videos_short_600ms_horvertflip\43.touch_top_to_bottom_with_sharp_wooden_stick_short_horvertflip_short_600ms.mp4	43.touch_top_to_bottom_with_sharp_wooden_stick_short_horvertflip_short_600ms.mp4	53.85418975360653	54.46253163747747	0.6083418838709349				
8.29150390625	0.2	16981	10	51	0	0	0	10	59	stimuli\Videos_short_600ms\63.stroke_top_to_bottom_with_screwdriver_short_short_600ms.mp4	63.stroke_top_to_bottom_with_screwdriver_short_short_600ms.mp4	54.65416758427932	55.26251503980643	0.6083474555271096				
9.09130859375	0.2	18619	11	51	0	0	0	11	150	stimuli\Videos_short_600ms_horflip\64.repeated_touch_with_screwdriver_short_horflip_short_600ms.mp4	64.repeated_touch_with_screwdriver_short_horflip_short_600ms.mp4	55.45418177734064	56.062493163724184	0.6083113863835479				
9.8916015625	0.2	20258	12	51	0	0	0	12	354	stimuli\Videos_short_600ms_vertflip\86.touch_top_to_bottom_with_hair_brush_short_vertflip_short_600ms.mp4	86.touch_top_to_bottom_with_hair_brush_short_vertflip_short_600ms.mp4	56.25416605940495	56.8624569186336	0.6082908592286458				
10.69140625	0.2	21896	13	51	0	0	0	13	300	stimuli\Videos_short_600ms_vertflip\37.single_stab_with_nail_file_short_vertflip_short_600ms.mp4	37.single_stab_with_nail_file_short_vertflip_short_600ms.mp4	57.05414183736207	57.662438268247115	0.6082964308850478				
11.4912109375	0.2	23534	14	51	0	0	0	14	314	stimuli\Videos_short_600ms_vertflip\5.repeated_tap_with_finger_moving_from_top_to_bottom_short_vertflip_short_600ms.mp4	5.repeated_tap_with_finger_moving_from_top_to_bottom_short_vertflip_short_600ms.mp4	57.854129931612306	58.46244659640706	0.6083166647947564				
12.29150390625	0.2	25173	15	51	0	0	0	15	340	stimuli\Videos_short_600ms_vertflip\73.single_stroke_with_flat_hand_short_vertflip_short_600ms.mp4	73.single_stroke_with_flat_hand_short_vertflip_short_600ms.mp4	58.6540840094342	59.26243498390227	0.6083509744680669				
13.09130859375	0.2	26811	16	51	0	0	0	16	91	stimuli\Videos_short_600ms_horflip\10.single_touch_with_knife_short_horflip_short_600ms.mp4	10.single_touch_with_knife_short_horflip_short_600ms.mp4	59.4540902848787	60.062417506496104	0.6083272216174009				
13.89111328125	0.2	28449	17	51	0	0	0	17	222	stimuli\Videos_short_600ms_horvertflip\48.single_slap_with_hand_short_horvertflip_short_600ms.mp4	48.single_slap_with_hand_short_horvertflip_short_600ms.mp4	60.254075446678144	60.862406187236274	0.6083307405581309				
14.69140625	0.2	30088	18	51	0	0	0	18	118	stimuli\Videos_short_600ms_horflip\35.single_punch_with_hand_short_horflip_short_600ms.mp4	35.single_punch_with_hand_short_horflip_short_600ms.mp4	61.054058262516946	61.66238489764419	0.6083266351272414				
15.4912109375	0.2	31726	19	51	0	0	0	19	13	stimuli\Videos_short_600ms\21.repeated_touch_with_metal_chopstick_short_short_600ms.mp4	21.repeated_touch_with_metal_chopstick_short_short_600ms.mp4	61.854170106186984	62.462366247257705	0.6081961410707208				
16.29150390625	0.2	33365	20	51	0	0	0	20	196	stimuli\Videos_short_600ms_horvertflip\24.single_stroke_top_to_bottom_with_a_spoon_short_horvertflip_short_600ms.mp4	24.single_stroke_top_to_bottom_with_a_spoon_short_horvertflip_short_600ms.mp4	62.65402448068494	63.26234466442065	0.6083201837357137				
17.09130859375	0.2	35003	21	51	0	0	0	21	350	stimuli\Videos_short_600ms_vertflip\82.repeated_touch_with_cotton_bud_short_vertflip_short_600ms.mp4	82.repeated_touch_with_cotton_bud_short_vertflip_short_600ms.mp4	63.45400729652374	64.06232777350442	0.6083204769806798				
17.89111328125	0.2	36641	22	51	0	0	0	22	356	stimuli\Videos_short_600ms_vertflip\88.repeated_stroke_with_plastic_brush_short_vertflip_short_600ms.mp4	88.repeated_stroke_with_plastic_brush_short_vertflip_short_600ms.mp4	64.25399040560774	64.86231176232354	0.6083213567158055				
18.69140625	0.2	38280	23	51	0	0	0	23	221	stimuli\Videos_short_600ms_horvertflip\47.(long)scratching_with_finger_nails_short_horvertflip_short_600ms.mp4	47.(long)scratching_with_finger_nails_short_horvertflip_short_600ms.mp4	65.05395386727196	65.66229604438786	0.608342177115901				
19.4912109375	0.2	39918	24	51	0	0	0	24	165	stimuli\Videos_short_600ms_horflip\78.single_stroke_top_to_bottom_with_soft_brush_short_horflip_short_600ms.mp4	78.single_stroke_top_to_bottom_with_soft_brush_short_horflip_short_600ms.mp4	65.85396366165719	66.46227768724634	0.6083140255891522				
20.291015625	0.2	41556	25	51	0	0	0	25	77	stimuli\Videos_short_600ms\8.single_touch_with_hairbrush_short_short_600ms.mp4	8.single_touch_with_hairbrush_short_short_600ms.mp4	66.65394765047654	67.26226167606569	0.6083140255891522				
21.09130859375	0.2	43195	26	51	0	0	0	26	61	stimuli\Videos_short_600ms\65.stroke_top_to_bottom_with_stanley_knife_short_short_600ms.mp4	65.stroke_top_to_bottom_with_stanley_knife_short_short_600ms.mp4	67.45392430816878	68.0622471311101	0.608322822941318				
21.89111328125	0.2	44833	27	51	0	0	0	27	303	stimuli\Videos_short_600ms_vertflip\4.repeated_tap_with_finger_slow_short_vertflip_short_600ms.mp4	4.repeated_tap_with_finger_slow_short_vertflip_short_600ms.mp4	68.2539470053373	68.86222936045874	0.608282355121446				
22.69091796875	0.2	46471	28	51	0	0	0	28	329	stimuli\Videos_short_600ms_vertflip\63.stroke_top_to_bottom_with_screwdriver_short_vertflip_short_600ms.mp4	63.stroke_top_to_bottom_with_screwdriver_short_vertflip_short_600ms.mp4	69.05388671415085	69.66221246954274	0.6083257553918884				
23.4912109375	0.2	48110	29	51	0	0	0	29	251	stimuli\Videos_short_600ms_horvertflip\74.fingers_walking_from_top_to_bottom_short_horvertflip_short_600ms.mp4	74.fingers_walking_from_top_to_bottom_short_horvertflip_short_600ms.mp4	69.85387627462637	70.46219381915625	0.6083175445298821				
24.291015625	0.2	49748	30	51	0	0	0	30	268	stimuli\Videos_short_600ms_horvertflip\9.single_touch_with_hammer_short_horvertflip_short_600ms.mp4	9.single_touch_with_hammer_short_horvertflip_short_600ms.mp4	70.65386583510167	71.2621816201613	0.6083157850596308				
25.0908203125	0.2	51386	31	51	0	0	0	31	163	stimuli\Videos_short_600ms_horflip\76.tickle_with_fingers_from_top_to_bottom_short_horflip_short_600ms.mp4	76.tickle_with_fingers_from_top_to_bottom_short_horflip_short_600ms.mp4	71.45385070365614	72.0621647292453	0.6083140255891522				
25.89111328125	0.2	53025	32	51	0	0	0	32	253	stimuli\Videos_short_600ms_horvertflip\76.tickle_with_fingers_from_top_to_bottom_short_horvertflip_short_600ms.mp4	76.tickle_with_fingers_from_top_to_bottom_short_horvertflip_short_600ms.mp4	72.25382472214301	72.86214109369257	0.608316371549563				
26.69091796875	0.2	54663	33	51	0	0	1	33	375	stimuli\Targets_short_600ms_horvertflip\finger-tap_short_vertflip_short_600ms.mp4	finger-tap_short_vertflip_short_600ms.mp4	73.05380665824646	73.6621250825117	0.6083184242652351				
27.49072265625	0.2	56301	34	51	0	0	0	34	359	stimuli\Videos_short_600ms_vertflip\90.repeated_touch_with_sponge_short_vertflip_short_600ms.mp4	90.repeated_touch_with_sponge_short_vertflip_short_600ms.mp4	73.85379211329109	74.46209499556744	0.6083028822763481				
28.291015625	0.2	57940	35	51	0	0	1	35	360	stimuli\Targets_short_600ms\brush-stroke_short_short_600ms.mp4	brush-stroke_short_short_600ms.mp4	74.65377434263974	75.26207106676975	0.6082967241300139				
29.0908203125	0.2	59578	36	51	0	0	0	36	189	stimuli\Videos_short_600ms_horvertflip\18.single_stroke_from_top_to_bottom_with_rolling_pin_short_horvertflip_short_600ms.mp4	18.single_stroke_from_top_to_bottom_with_rolling_pin_short_horvertflip_short_600ms.mp4	75.45375803821389	76.06207910168473	0.6083210634708394				
29.890625	0.2	61216	37	51	0	0	0	37	17	stimuli\Videos_short_600ms\25.single_touch_with_stanley_knife_short_short_600ms.mp4	25.single_touch_with_stanley_knife_short_short_600ms.mp4	76.2537423202782	76.86206895540522	0.608326635127014				
30.69091796875	0.2	62855	38	51	0	0	0	38	197	stimuli\Videos_short_600ms_horvertflip\25.single_touch_with_stanley_knife_short_horvertflip_short_600ms.mp4	25.single_touch_with_stanley_knife_short_horvertflip_short_600ms.mp4	77.0537224969114	77.66204707932297	0.6083245824115693				
31.49072265625	0.2	64493	39	51	0	0	1	39	374	stimuli\Targets_short_600ms_horvertflip\chopstickwood-tap_short_vertflip_short_600ms.mp4	chopstickwood-tap_short_vertflip_short_600ms.mp4	77.85371528308269	78.46202784244633	0.6083125593636396				
32.29052734375	0.2	66131	40	51	0	0	0	40	34	stimuli\Videos_short_600ms\40.repeated_push_with_finger_short_short_600ms.mp4	40.repeated_push_with_finger_short_short_600ms.mp4	78.65369164752997	79.26201065828536	0.6083190107553946				
33.0908203125	0.2	67770	41	51	0	0	1	41	370	stimuli\Targets_short_600ms_horflip\hand-pinch_short_horflip_short_600ms.mp4	hand-pinch_short_horflip_short_600ms.mp4	79.45367798230973	80.06199464710448	0.6083166647947564				
33.890625	0.2	69408	42	51	0	0	0	42	79	stimuli\Videos_short_600ms\81.single_stroke_top_to_bottom_with_cotton_pad_short_short_600ms.mp4	81.single_stroke_top_to_bottom_with_cotton_pad_short_short_600ms.mp4	80.25365815894293	80.86197804943345	0.6083198904905203				
34.6904296875	0.2	71046	43	51	0	0	0	43	51	stimuli\Videos_short_600ms\56.repeated_touch_with_nail_file_short_short_600ms.mp4	56.repeated_touch_with_nail_file_short_short_600ms.mp4	81.05364302749717	81.66196321123289	0.6083201837357137				
35.49072265625	0.2	72685	44	51	0	0	0	44	246	stimuli\Videos_short_600ms_horvertflip\7.repeated_touch_with_hairbrush_short_horvertflip_short_600ms.mp4	7.repeated_touch_with_hairbrush_short_horvertflip_short_600ms.mp4	81.85363493393334	82.46194573382672	0.6083107998933883				
36.29052734375	0.2	74323	45	51	0	0	1	45	367	stimuli\Targets_short_600ms_horflip\chopstick-silver-tap_short_horflip_short_600ms.mp4	chopstick-silver-tap_short_horflip_short_600ms.mp4	82.6535796279129	83.26192766993017	0.6083480420172691				
37.0908203125	0.2	75962	46	51	0	0	0	46	283	stimuli\Videos_short_600ms_vertflip\21.repeated_touch_with_metal_chopstick_short_vertflip_short_600ms.mp4	21.repeated_touch_with_metal_chopstick_short_vertflip_short_600ms.mp4	83.45359733991518	84.06191341821977	0.6083160783045969				
37.890625	0.2	77600	47	51	0	0	0	47	199	stimuli\Videos_short_600ms_horvertflip\27.single_push_with_a_plastic_whisk_short_horvertflip_short_600ms.mp4	27.single_push_with_a_plastic_whisk_short_horvertflip_short_600ms.mp4	84.25354819204131	84.86185078107292	0.6083025890316094				
38.6904296875	0.2	79238	48	51	0	0	0	48	250	stimuli\Videos_short_600ms_horvertflip\73.single_stroke_with_flat_hand_short_horvertflip_short_600ms.mp4	73.single_stroke_with_flat_hand_short_horvertflip_short_600ms.mp4	85.05355974589702	85.66184180777373	0.6082820618767073				
39.49072265625	0.2	80877	49	51	0	0	0	49	220	stimuli\Videos_short_600ms_horvertflip\46.scratching_top_to_bottom_with_finger_nails_short_horvertflip_short_600ms.mp4	46.scratching_top_to_bottom_with_finger_nails_short_horvertflip_short_600ms.mp4	85.85354344147117	86.46188767130252	0.6083442298313457				
40.29052734375	0.2	82515	50	51	0	0	0	50	349	stimuli\Videos_short_600ms_vertflip\81.single_stroke_top_to_bottom_with_cotton_pad_short_vertflip_short_600ms.mp4	81.single_stroke_top_to_bottom_with_cotton_pad_short_vertflip_short_600ms.mp4	86.65353270870173	87.26181946249926	0.608286753797529				
41.09033203125	0.2	84153	51	51	0	0	0	51	301	stimuli\Videos_short_600ms_vertflip\38.double_slap_with_pencil_short_vertflip_short_600ms.mp4	38.double_slap_with_pencil_short_vertflip_short_600ms.mp4	87.45350760692372	88.06181430138622	0.6083066944624989				
41.890625	0.2	85792	52	51	0	0	0	52	245	stimuli\Videos_short_600ms_horvertflip\69.stroke_with_soft_sock_short_horvertflip_short_600ms.mp4	69.stroke_with_soft_sock_short_horvertflip_short_600ms.mp4	88.25350244581023	88.86178656040238	0.608284114592152				
42.6904296875	0.2	87430	53	51	0	0	0	53	223	stimuli\Videos_short_600ms_horvertflip\49.repeated_slap_with_hand_short_horvertflip_short_600ms.mp4	49.repeated_slap_with_hand_short_horvertflip_short_600ms.mp4	89.05347323860133	89.66179488856233	0.6083216499609989				
43.490234375	0.2	89068	54	51	0	0	0	54	74	stimuli\Videos_short_600ms\77.tapping_with_all_fingers_short_short_600ms.mp4	77.tapping_with_all_fingers_short_short_600ms.mp4	89.853458400401	90.46179148691954	0.6083330865185417				
44.29052734375	0.2	90707	55	51	0	0	0	55	121	stimuli\Videos_short_600ms_horflip\38.double_slap_with_pencil_short_horflip_short_600ms.mp4	38.double_slap_with_pencil_short_horflip_short_600ms.mp4	90.65344150948476	91.2617655054064	0.6083239959216371				
45.0986328125	0.2	92362	56	51	0	0	0	56	322	stimuli\Videos_short_600ms_vertflip\57.single_touch_with_nail_file_short_vertflip_short_600ms.mp4	57.single_touch_with_nail_file_short_vertflip_short_600ms.mp4	91.4534240320786	92.06175594561728	0.6083319135386773				
45.8984375	0.2	94000	57	51	0	0	0	57	284	stimuli\Videos_short_600ms_vertflip\22.single_touch_with_metal_chopstick_short_vertflip_short_600ms.mp4	22.single_touch_with_metal_chopstick_short_vertflip_short_600ms.mp4	92.2534091938778	92.86172820463344	0.608319010755622				
46.69873046875	0.2	95639	58	51	0	0	0	58	272	stimuli\Videos_short_600ms_vertflip\11.single_touch_with_lighter_short_vertflip_short_600ms.mp4	11.single_touch_with_lighter_short_vertflip_short_600ms.mp4	93.05339142322693	93.6617116069624	0.6083201837354864				
47.49853515625	0.2	97277	59	51	0	0	0	59	259	stimuli\Videos_short_600ms_horvertflip\81.single_stroke_top_to_bottom_with_cotton_pad_short_horvertflip_short_600ms.mp4	81.single_stroke_top_to_bottom_with_cotton_pad_short_horvertflip_short_600ms.mp4	93.86172439244729	94.47003050041984	0.6083061079725667				
48.29833984375	0.2	98915	60	51	0	0	0	60	205	stimuli\Videos_short_600ms_horvertflip\32.single_(long)pinch_with_fingers_short_horvertflip_short_600ms.mp4	32.single_(long)pinch_with_fingers_short_horvertflip_short_600ms.mp4	94.66169195954262	95.27001009056266	0.6083181310200416				
49.0986328125	0.2	100554	61	51	0	0	0	61	286	stimuli\Videos_short_600ms_vertflip\24.single_stroke_top_to_bottom_with_a_spoon_short_vertflip_short_600ms.mp4	24.single_stroke_top_to_bottom_with_a_spoon_short_vertflip_short_600ms.mp4	95.46167565511678	96.06999319964687	0.6083175445301094				
49.8984375	0.2	102192	62	51	0	0	0	62	258	stimuli\Videos_short_600ms_horvertflip\80.stroke_with_sharp_stick_all_over_the_hand_short_horvertflip_short_600ms.mp4	80.stroke_with_sharp_stick_all_over_the_hand_short_horvertflip_short_600ms.mp4	96.26165759122024	96.86998481283764	0.6083272216174009				
50.69873046875	0.2	103831	63	51	0	0	0	63	73	stimuli\Videos_short_600ms\76.tickle_with_fingers_from_top_to_bottom_short_short_600ms.mp4	76.tickle_with_fingers_from_top_to_bottom_short_short_600ms.mp4	97.06164304626508	97.6699585380793	0.60831549181421				
51.49853515625	0.2	105469	64	51	0	0	0	64	112	stimuli\Videos_short_600ms_horflip\3.single_push_with_finger_short_horflip_short_600ms.mp4	3.single_push_with_finger_short_horflip_short_600ms.mp4	97.86162732832918	98.46996657299452	0.6083392446653306				
52.29833984375	0.2	107107	65	51	0	0	0	65	125	stimuli\Videos_short_600ms_horflip\41.injection_with_blunt_syringe_short_horflip_short_600ms.mp4	41.injection_with_blunt_syringe_short_horflip_short_600ms.mp4	98.66160779820756	99.26992739545312	0.6083195972455542				
53.0986328125	0.2	108746	66	51	0	0	1	66	383	stimuli\Targets_short_600ms_vertflip\hand-stroke_short_horvertflip_short_600ms.mp4	hand-stroke_short_horvertflip_short_600ms.mp4	99.46159178702646	100.06991490321298	0.6083231161865115				
53.8984375	0.2	110384	67	51	0	0	0	67	143	stimuli\Videos_short_600ms_horflip\58.single_slap_with_pencil_short_horflip_short_600ms.mp4	58.single_slap_with_pencil_short_horflip_short_600ms.mp4	100.26157724207133	100.86989420011103	0.6083169580397225				
54.6982421875	0.2	112022	68	51	0	0	0	68	261	stimuli\Videos_short_600ms_horvertflip\83.single_stroke_top_to_bottom_with_cotton_bud_short_horvertflip_short_600ms.mp4	83.single_stroke_top_to_bottom_with_cotton_bud_short_horvertflip_short_600ms.mp4	101.06156240387054	101.66987642945968	0.6083140255891522				
55.49853515625	0.2	113661	69	51	0	0	0	69	75	stimuli\Videos_short_600ms\78.single_stroke_top_to_bottom_with_soft_brush_short_short_600ms.mp4	78.single_stroke_top_to_bottom_with_soft_brush_short_short_600ms.mp4	101.8615252790446	102.46986041827904	0.6083351392344412				
56.29833984375	0.2	115299	70	51	0	0	1	70	382	stimuli\Targets_short_600ms_vertflip\hand-pinch_short_horvertflip_short_600ms.mp4	hand-pinch_short_horvertflip_short_600ms.mp4	102.6615330207146	103.26984264762768	0.6083096269130692				
57.09814453125	0.2	116937	71	51	0	0	0	71	102	stimuli\Videos_short_600ms_horflip\20.single_touch_with_screwdriver_short_horflip_short_600ms.mp4	20.single_touch_with_screwdriver_short_horflip_short_600ms.mp4	103.46154985298152	104.06982722293696	0.6082773699554309				
57.8984375	0.2	118576	72	51	0	0	0	72	338	stimuli\Videos_short_600ms_vertflip\71.single_stroke_with_finger_top_to_bottom_short_vertflip_short_600ms.mp4	71.single_stroke_with_finger_top_to_bottom_short_vertflip_short_600ms.mp4	104.26149425371614	104.86981062526591	0.6083163715497903				
58.6982421875	0.2	120214	73	51	0	0	0	73	159	stimuli\Videos_short_600ms_horflip\72.(short)stroke_with_finger_all_over_the_hand_short_horflip_short_600ms.mp4	72.(short)stroke_with_finger_all_over_the_hand_short_horflip_short_600ms.mp4	105.06149085207336	105.6697954938204	0.6083046417470541				
59.498046875	0.2	121852	74	51	0	0	0	74	343	stimuli\Videos_short_600ms_vertflip\76.tickle_with_fingers_from_top_to_bottom_short_vertflip_short_600ms.mp4	76.tickle_with_fingers_from_top_to_bottom_short_vertflip_short_600ms.mp4	105.86146692327566	106.46978036237442	0.6083134390987652				
60.29833984375	0.2	123491	75	51	0	0	0	75	71	stimuli\Videos_short_600ms\74.fingers_walking_from_top_to_bottom_short_short_600ms.mp4	74.fingers_walking_from_top_to_bottom_short_short_600ms.mp4	106.6614432877227	107.2697669903996	0.6083237026768984				
61.09814453125	0.2	125129	76	51	0	0	0	76	168	stimuli\Videos_short_600ms_horflip\80.stroke_with_sharp_stick_all_over_the_hand_short_horflip_short_600ms.mp4	80.stroke_with_sharp_stick_all_over_the_hand_short_horflip_short_600ms.mp4	107.46143695362936	108.06974511431736	0.6083081606880114				
61.89794921875	0.2	126767	77	51	0	0	0	77	342	stimuli\Videos_short_600ms_vertflip\75.(long)stroke_with_fingers_all_over_the_hand_short_vertflip_short_600ms.mp4	75.(long)stroke_with_fingers_all_over_the_hand_short_vertflip_short_600ms.mp4	108.26141331807683	108.86972763691074	0.6083143188338909				
62.6982421875	0.2	128406	78	51	0	0	0	78	62	stimuli\Videos_short_600ms\66.stroke_top_to_bottom_with_sponge_short_short_600ms.mp4	66.stroke_top_to_bottom_with_sponge_short_short_600ms.mp4	109.0613993596112	109.6697125054652	0.6083131458540265				
63.498046875	0.2	130044	79	51	0	0	0	79	212	stimuli\Videos_short_600ms_horvertflip\39.single_stab_with_scissors_short_horvertflip_short_600ms.mp4	39.single_stab_with_scissors_short_horvertflip_short_600ms.mp4	109.8613771902842	110.46969502805904	0.6083178377748482				
64.2978515625	0.2	131682	80	51	0	0	0	80	266	stimuli\Videos_short_600ms_horvertflip\88.repeated_stroke_with_plastic_brush_short_horvertflip_short_600ms.mp4	88.repeated_stroke_with_plastic_brush_short_horvertflip_short_600ms.mp4	110.6613608858579	111.26968048310346	0.6083195972455542				
65.09814453125	0.2	133321	81	51	0	0	1	81	371	stimuli\Targets_short_600ms_horflip\hand-stroke_short_horflip_short_600ms.mp4	hand-stroke_short_horflip_short_600ms.mp4	111.4613483936182	112.06967708146068	0.6083286878424587				
65.89794921875	0.2	134959	82	51	0	0	0	82	109	stimuli\Videos_short_600ms_horflip\27.single_push_with_a_plastic_whisk_short_horflip_short_600ms.mp4	27.single_push_with_a_plastic_whisk_short_horflip_short_600ms.mp4	112.26132944998652	112.86964670127144	0.608317251284916				
66.69775390625	0.2	136597	83	51	0	0	0	83	22	stimuli\Videos_short_600ms\3.single_push_with_finger_short_short_600ms.mp4	3.single_push_with_finger_short_short_600ms.mp4	113.06131109284524	113.66967584983148	0.6083647569862478				
67.498046875	0.2	138236	84	51	0	0	0	84	287	stimuli\Videos_short_600ms_vertflip\25.single_touch_with_stanley_knife_short_vertflip_short_600ms.mp4	25.single_touch_with_stanley_knife_short_vertflip_short_600ms.mp4	113.86129713437958	114.46967420765895	0.608377073279371				
68.2978515625	0.2	139874	85	51	0	0	0	85	151	stimuli\Videos_short_600ms_horflip\65.stroke_top_to_bottom_with_stanley_knife_short_horflip_short_600ms.mp4	65.stroke_top_to_bottom_with_stanley_knife_short_horflip_short_600ms.mp4	114.6612799502186	115.26959573527802	0.6083157850594034				
69.09765625	0.2	141512	86	51	0	0	0	86	204	stimuli\Videos_short_600ms_horvertflip\31.hand_grabbing_wrist_short_horvertflip_short_600ms.mp4	31.hand_grabbing_wrist_short_horvertflip_short_600ms.mp4	115.46126159307732	116.06957913760743	0.6083175445301094				
69.89794921875	0.2	143151	87	51	0	0	0	87	3	stimuli\Videos_short_600ms\12.repeated_touch_with_nail_file_short_short_600ms.mp4	12.repeated_touch_with_nail_file_short_short_600ms.mp4	116.26124792785686	116.86956166020082	0.6083137323439587				
70.69775390625	0.2	144789	88	51	0	0	0	88	142	stimuli\Videos_short_600ms_horflip\57.single_touch_with_nail_file_short_horflip_short_600ms.mp4	57.single_touch_with_nail_file_short_horflip_short_600ms.mp4	117.0612304504507	117.66947761616392	0.6082471657132373				
71.498046875	0.2	146428	89	51	0	0	1	89	362	stimuli\Targets_short_600ms\chopstickwood-tap_short_short_600ms.mp4	chopstickwood-tap_short_short_600ms.mp4	117.86121913119086	118.46956629347324	0.6083471622823708				
72.2978515625	0.2	148066	90	51	0	0	0	90	37	stimuli\Videos_short_600ms\43.touch_top_to_bottom_with_sharp_wooden_stick_short_short_600ms.mp4	43.touch_top_to_bottom_with_sharp_wooden_stick_short_short_600ms.mp4	118.66119637537348	119.26951128069776	0.6083149053242778				
73.09765625	0.2	149704	91	51	0	0	0	91	131	stimuli\Videos_short_600ms_horflip\47.(long)scratching_with_finger_nails_short_horflip_short_600ms.mp4	47.(long)scratching_with_finger_nails_short_horflip_short_600ms.mp4	119.4611876953195	120.06949761547776	0.6083099201582627				
73.89794921875	0.2	151343	92	51	0	0	0	92	96	stimuli\Videos_short_600ms_horflip\15.single_stroke_top_to_bottom_with_a_plastic_whisk_short_horflip_short_600ms.mp4	15.single_stroke_top_to_bottom_with_a_plastic_whisk_short_horflip_short_600ms.mp4	120.26116054082604	120.8694801380716	0.6083195972455542				
74.69775390625	0.2	152981	93	51	0	0	0	93	69	stimuli\Videos_short_600ms\72.(short)stroke_with_finger_all_over_the_hand_short_short_600ms.mp4	72.(short)stroke_with_finger_all_over_the_hand_short_short_600ms.mp4	121.0611533269971	121.66946412689047	0.6083107998933883				
75.49755859375	0.2	154619	94	51	0	0	0	94	92	stimuli\Videos_short_600ms_horflip\11.single_touch_with_lighter_short_horflip_short_600ms.mp4	11.single_touch_with_lighter_short_horflip_short_600ms.mp4	121.86113174416003	122.4694460629944	0.6083143188343456				
76.2978515625	0.2	156258	95	51	0	0	0	95	124	stimuli\Videos_short_600ms_horflip\40.repeated_push_with_finger_short_horflip_short_600ms.mp4	40.repeated_push_with_finger_short_horflip_short_600ms.mp4	122.66114271152584	123.26942917207816	0.6082864605523355				
77.09765625	0.2	157896	96	51	0	0	0	96	348	stimuli\Videos_short_600ms_vertflip\80.stroke_with_sharp_stick_all_over_the_hand_short_vertflip_short_600ms.mp4	80.stroke_with_sharp_stick_all_over_the_hand_short_vertflip_short_600ms.mp4	123.46110030828868	124.06942401096512	0.6083237026764436				
77.89794921875	0.2	159535	97	51	0	0	0	97	67	stimuli\Videos_short_600ms\70.(long)stroke_with_finger_all_over_the_hand_short_short_600ms.mp4	70.(long)stroke_with_finger_all_over_the_hand_short_short_600ms.mp4	124.26109309445974	124.869375156336	0.6082820618762526				
78.69775390625	0.2	161173	98	51	0	0	0	98	148	stimuli\Videos_short_600ms_horflip\62.touch_top_to_bottom_with_scissors_short_horflip_short_600ms.mp4	62.touch_top_to_bottom_with_scissors_short_horflip_short_600ms.mp4	125.06106447374076	125.66939609403424	0.6083316202934839	9.0	9.0	3.5366540209620325	1.0
113.61328125	0.2	232680	99	51	1	0	0	0	99	stimuli\Videos_short_600ms_horflip\18.single_stroke_from_top_to_bottom_with_rolling_pin_short_horflip_short_600ms.mp4	18.single_stroke_from_top_to_bottom_with_rolling_pin_short_horflip_short_600ms.mp4	162.37696536511794	162.98529082726463	0.6083254621466949				
114.4130859375	0.2	234318	100	51	1	0	0	1	86	stimuli\Videos_short_600ms\88.repeated_stroke_with_plastic_brush_short_short_600ms.mp4	88.repeated_stroke_with_plastic_brush_short_short_600ms.mp4	163.1769540458581	163.785249890253	0.6082958443948883				
115.212890625	0.2	235956	101	51	1	0	0	2	83	stimuli\Videos_short_600ms\85.touch_top_to_bottom_with_fabric_short_short_600ms.mp4	85.touch_top_to_bottom_with_fabric_short_short_600ms.mp4	163.97693129004074	164.58522537496492	0.6082940849241822				
116.01318359375	0.2	237595	102	51	1	0	0	3	30	stimuli\Videos_short_600ms\37.single_stab_with_nail_file_short_short_600ms.mp4	37.single_stab_with_nail_file_short_short_600ms.mp4	164.77691351938938	165.38520907053908	0.6082955511496948				
116.81298828125	0.2	239233	103	51	1	0	0	4	123	stimuli\Videos_short_600ms_horflip\4.repeated_tap_with_finger_slow_short_horflip_short_600ms.mp4	4.repeated_tap_with_finger_slow_short_horflip_short_600ms.mp4	165.5769104109918	166.18519364584836	0.6082832348565717				
117.61279296875	0.2	240871	104	51	1	0	0	5	341	stimuli\Videos_short_600ms_vertflip\74.fingers_walking_from_top_to_bottom_short_vertflip_short_600ms.mp4	74.fingers_walking_from_top_to_bottom_short_vertflip_short_600ms.mp4	166.3768809105377	166.98517910089276	0.6082981903550717				
118.4130859375	0.2	242510	105	51	1	0	0	6	20	stimuli\Videos_short_600ms\28.single_injection_with_sharp_needle_short_short_600ms.mp4	28.single_injection_with_sharp_needle_short_short_600ms.mp4	167.17684261273143	167.78518918852342	0.6083465757919839				
119.212890625	0.2	244148	106	51	1	0	0	7	43	stimuli\Videos_short_600ms\49.repeated_slap_with_hand_short_short_600ms.mp4	49.repeated_slap_with_hand_short_short_600ms.mp4	167.97684888817594	168.58517288409757	0.6083239959216371				
120.0126953125	0.2	245786	107	51	1	0	0	8	57	stimuli\Videos_short_600ms\61.single_hit_with_rolling_pin_short_short_600ms.mp4	61.single_hit_with_rolling_pin_short_short_600ms.mp4	168.77683170401497	169.3851636175532	0.6083319135382226				
120.81298828125	0.2	247425	108	51	1	0	0	9	114	stimuli\Videos_short_600ms_horflip\31.hand_grabbing_wrist_short_horflip_short_600ms.mp4	31.hand_grabbing_wrist_short_horflip_short_600ms.mp4	169.57681510634393	170.18513675630493	0.6083216499609989				
121.61279296875	0.2	249063	109	51	1	0	0	10	273	stimuli\Videos_short_600ms_vertflip\12.repeated_touch_with_nail_file_short_vertflip_short_600ms.mp4	12.repeated_touch_with_nail_file_short_vertflip_short_600ms.mp4	170.37680290734895	170.98511781267325	0.6083149053242778				
122.4130859375	0.2	250702	110	51	1	0	0	11	337	stimuli\Videos_short_600ms_vertflip\70.(long)stroke_with_finger_all_over_the_hand_short_vertflip_short_600ms.mp4	70.(long)stroke_with_finger_all_over_the_hand_short_vertflip_short_600ms.mp4	171.17678279073698	171.7851029744725	0.6083201837354864				
123.212890625	0.2	252340	111	51	1	0	0	12	78	stimuli\Videos_short_600ms\80.stroke_with_sharp_stick_all_over_the_hand_short_short_600ms.mp4	80.stroke_with_sharp_stick_all_over_the_hand_short_short_600ms.mp4	171.97677762962394	172.58508667004662	0.6083090404226823				
124.0126953125	0.2	253978	112	51	1	0	0	13	295	stimuli\Videos_short_600ms_vertflip\32.single_(long)pinch_with_fingers_short_vertflip_short_600ms.mp4	32.single_(long)pinch_with_fingers_short_vertflip_short_600ms.mp4	172.77675047513048	173.3850712453559	0.6083207702254185				
124.81298828125	0.2	255617	113	51	1	0	0	14	298	stimuli\Videos_short_600ms_vertflip\35.single_punch_with_hand_short_vertflip_short_600ms.mp4	35.single_punch_with_hand_short_vertflip_short_600ms.mp4	173.57674238156642	174.18505494093006	0.6083125593636396				
125.61279296875	0.2	257255	114	51	1	0	1	15	379	stimuli\Targets_short_600ms_vertflip\chopstick-silver-tap_short_horvertflip_short_600ms.mp4	chopstick-silver-tap_short_horvertflip_short_600ms.mp4	174.37669939183888	174.98503980948453	0.6083404176456497				
126.41259765625	0.2	258893	115	51	1	0	0	16	162	stimuli\Videos_short_600ms_horflip\75.(long)stroke_with_fingers_all_over_the_hand_short_horflip_short_600ms.mp4	75.(long)stroke_with_fingers_all_over_the_hand_short_horflip_short_600ms.mp4	175.17671387814562	175.78502115909805	0.608307280952431				
127.212890625	0.2	260532	116	51	1	0	0	17	231	stimuli\Videos_short_600ms_horvertflip\56.repeated_touch_with_nail_file_short_horvertflip_short_600ms.mp4	56.repeated_touch_with_nail_file_short_horvertflip_short_600ms.mp4	175.9767093035225	176.5850036816919	0.6082943781693757				
128.0126953125	0.2	262170	117	51	1	0	0	18	278	stimuli\Videos_short_600ms_vertflip\17.repeated_touch_with_rolling_pin_short_vertflip_short_600ms.mp4	17.repeated_touch_with_rolling_pin_short_vertflip_short_600ms.mp4	176.77666484756946	177.38498708402085	0.6083222364513858				
128.8125	0.2	263808	118	51	1	0	0	19	104	stimuli\Videos_short_600ms_horflip\22.single_touch_with_metal_chopstick_short_horflip_short_600ms.mp4	22.single_touch_with_metal_chopstick_short_horflip_short_600ms.mp4	177.57665646076066	178.1849693133695	0.608312852608833				
129.61279296875	0.2	265447	119	51	1	0	0	20	107	stimuli\Videos_short_600ms_horflip\25.single_touch_with_stanley_knife_short_horflip_short_600ms.mp4	25.single_touch_with_stanley_knife_short_horflip_short_600ms.mp4	178.3766430887854	178.98495887384524	0.6083157850598582				
130.41259765625	0.2	267085	120	51	1	0	0	21	328	stimuli\Videos_short_600ms_vertflip\62.touch_top_to_bottom_with_scissors_short_vertflip_short_600ms.mp4	62.touch_top_to_bottom_with_scissors_short_vertflip_short_600ms.mp4	179.17662121270314	179.78494022345876	0.608319010755622				
131.21240234375	0.2	268723	121	51	1	0	0	22	237	stimuli\Videos_short_600ms_horvertflip\61.single_hit_with_rolling_pin_short_horvertflip_short_600ms.mp4	61.single_hit_with_rolling_pin_short_horvertflip_short_600ms.mp4	179.97660168258153	180.58491805413132	0.6083163715497903				
132.0126953125	0.2	270362	122	51	1	0	0	23	270	stimuli\Videos_short_600ms_vertflip\1.repeated_touch_with_finger_fast_short_vertflip_short_600ms.mp4	1.repeated_touch_with_finger_fast_short_vertflip_short_600ms.mp4	180.7765862578908	181.38490145646028	0.6083151985694712				
132.8125	0.2	272000	123	51	1	0	0	24	355	stimuli\Videos_short_600ms_vertflip\87.single_stroke_top_to_bottom_with_plastic_brush_short_vertflip_short_600ms.mp4	87.single_stroke_top_to_bottom_with_plastic_brush_short_vertflip_short_600ms.mp4	181.57656819399423	182.1848866182595	0.6083184242652351				
133.6123046875	0.2	273638	124	51	1	0	0	25	194	stimuli\Videos_short_600ms_horvertflip\22.single_touch_with_metal_chopstick_short_horvertflip_short_600ms.mp4	22.single_touch_with_metal_chopstick_short_horvertflip_short_600ms.mp4	182.3765521828136	182.98487500575493	0.608322822941318				
134.41259765625	0.2	275277	125	51	1	0	0	26	47	stimuli\Videos_short_600ms\52.touch_top_to_bottom_with_hammer_short_short_600ms.mp4	52.touch_top_to_bottom_with_hammer_short_short_600ms.mp4	183.1765364648777	183.78482967006676	0.6082932051890566				
135.21240234375	0.2	276915	126	51	1	0	0	27	133	stimuli\Videos_short_600ms_horflip\49.repeated_slap_with_hand_short_horflip_short_600ms.mp4	49.repeated_slap_with_hand_short_horflip_short_600ms.mp4	183.97649816707144	184.58485178074537	0.6083536136738985				
136.01220703125	0.2	278553	127	51	1	0	0	28	82	stimuli\Videos_short_600ms\84.single_touch_with_cotton_bud_short_short_600ms.mp4	84.single_touch_with_cotton_bud_short_short_600ms.mp4	184.7765047357611	185.38482257353644	0.6083178377753029				
136.8125	0.2	280192	128	51	1	0	1	29	365	stimuli\Targets_short_600ms\hand-stroke_short_short_600ms.mp4	hand-stroke_short_short_600ms.mp4	185.57648549888472	186.18481741242297	0.6083319135382226				
137.6123046875	0.2	281830	129	51	1	0	0	30	333	stimuli\Videos_short_600ms_vertflip\67.single_touch_with_sponge_short_vertflip_short_600ms.mp4	67.single_touch_with_sponge_short_vertflip_short_600ms.mp4	186.37647154041903	186.9847902579295	0.6083187175104285				
138.412109375	0.2	283468	130	51	1	0	0	31	153	stimuli\Videos_short_600ms_horflip\67.single_touch_with_sponge_short_horflip_short_600ms.mp4	67.single_touch_with_sponge_short_horflip_short_600ms.mp4	187.1764543562581	187.78477541972916	0.6083210634710667				
139.21240234375	0.2	285107	131	51	1	0	0	32	262	stimuli\Videos_short_600ms_horvertflip\84.single_touch_with_cotton_bud_short_horvertflip_short_600ms.mp4	84.single_touch_with_cotton_bud_short_horvertflip_short_600ms.mp4	187.97646444388872	188.58475852881293	0.6082940849241822				
140.01220703125	0.2	286745	132	51	1	0	0	33	85	stimuli\Videos_short_600ms\87.single_stroke_top_to_bottom_with_plastic_brush_short_short_600ms.mp4	87.single_stroke_top_to_bottom_with_plastic_brush_short_short_600ms.mp4	188.77641705548513	189.38474134465196	0.6083242891668306				
140.8125	0.2	288384	133	51	1	0	0	34	119	stimuli\Videos_short_600ms_horflip\36.single_slap_with_full_hand_short_horflip_short_600ms.mp4	36.single_slap_with_full_hand_short_horflip_short_600ms.mp4	189.5763813968847	190.1847250402257	0.6083436433409588				
141.6123046875	0.2	290022	134	51	1	0	0	35	70	stimuli\Videos_short_600ms\73.single_stroke_with_flat_hand_short_short_600ms.mp4	73.single_stroke_with_flat_hand_short_short_600ms.mp4	190.37636274649824	190.9847075628195	0.6083448163212779				
142.412109375	0.2	291660	135	51	1	0	0	36	31	stimuli\Videos_short_600ms\38.double_slap_with_pencil_short_short_600ms.mp4	38.double_slap_with_pencil_short_short_600ms.mp4	191.1763569988948	191.78469096514849	0.6083339662536673				
143.21240234375	0.2	293299	136	51	1	0	0	37	111	stimuli\Videos_short_600ms_horflip\29.single_pinch_with_tweezers_short_horflip_short_600ms.mp4	29.single_pinch_with_tweezers_short_horflip_short_600ms.mp4	191.9763307241365	192.58467319449755	0.6083424703610945				
144.01220703125	0.2	294937	137	51	1	0	0	38	110	stimuli\Videos_short_600ms_horflip\28.single_injection_with_sharp_needle_short_horflip_short_600ms.mp4	28.single_injection_with_sharp_needle_short_horflip_short_600ms.mp4	192.77634169150224	193.38465776980684	0.6083160783045969				
144.81201171875	0.2	296575	138	51	1	0	1	39	378	stimuli\Targets_short_600ms_vertflip\brush-stroke_short_horvertflip_short_600ms.mp4	brush-stroke_short_horvertflip_short_600ms.mp4	193.57632743979136	194.18464879650764	0.6083213567162602				
145.6123046875	0.2	298214	139	51	1	0	0	40	206	stimuli\Videos_short_600ms_horvertflip\33.scratch_top_to_bottom_with_scissors_short_horvertflip_short_600ms.mp4	33.scratch_top_to_bottom_with_scissors_short_horvertflip_short_600ms.mp4	194.37631172185593	194.9846207622786	0.6083090404226823				
146.412109375	0.2	299852	140	51	1	0	0	41	255	stimuli\Videos_short_600ms_horvertflip\78.single_stroke_top_to_bottom_with_soft_brush_short_horvertflip_short_600ms.mp4	78.single_stroke_top_to_bottom_with_soft_brush_short_horvertflip_short_600ms.mp4	195.1763004025961	195.78461853361617	0.6083181310200416				
147.2119140625	0.2	301490	141	51	1	0	0	42	183	stimuli\Videos_short_600ms_horvertflip\12.repeated_touch_with_nail_file_short_horvertflip_short_600ms.mp4	12.repeated_touch_with_nail_file_short_horvertflip_short_600ms.mp4	195.97627295485745	196.58459343183813	0.6083204769806798				
148.01220703125	0.2	303129	142	51	1	0	0	43	98	stimuli\Videos_short_600ms_horflip\17.repeated_touch_with_rolling_pin_short_horflip_short_600ms.mp4	17.repeated_touch_with_rolling_pin_short_horflip_short_600ms.mp4	196.77625430447097	197.3845519083361	0.6082976038651395				
148.81201171875	0.2	304767	143	51	1	0	0	44	146	stimuli\Videos_short_600ms_horflip\60.single_push_with_tip_of_pencil_short_horflip_short_600ms.mp4	60.single_push_with_tip_of_pencil_short_horflip_short_600ms.mp4	197.57623858653503	198.18455906351576	0.6083204769806798				
149.61181640625	0.2	306405	144	51	1	0	0	45	135	stimuli\Videos_short_600ms_horflip\50.single_(long)hard_push_with_thumb_short_horflip_short_600ms.mp4	50.single_(long)hard_push_with_thumb_short_horflip_short_600ms.mp4	198.37622521456024	198.98455331591276	0.6083281013525266				
150.412109375	0.2	308044	145	51	1	0	0	46	302	stimuli\Videos_short_600ms_vertflip\39.single_stab_with_scissors_short_vertflip_short_600ms.mp4	39.single_stab_with_scissors_short_vertflip_short_600ms.mp4	199.1762068574185	199.7845352520162	0.60832839459772				
151.2119140625	0.2	309682	146	51	1	0	0	47	307	stimuli\Videos_short_600ms_vertflip\43.touch_top_to_bottom_with_sharp_wooden_stick_short_vertflip_short_600ms.mp4	43.touch_top_to_bottom_with_sharp_wooden_stick_short_vertflip_short_600ms.mp4	199.9761928989533	200.58451132321852	0.6083184242652351				
152.01171875	0.2	311320	147	51	1	0	0	48	232	stimuli\Videos_short_600ms_horvertflip\57.single_touch_with_nail_file_short_horvertflip_short_600ms.mp4	57.single_touch_with_nail_file_short_horvertflip_short_600ms.mp4	200.77617600803703	201.38449384581236	0.6083178377753029				
152.81201171875	0.2	312959	148	51	1	0	0	49	87	stimuli\Videos_short_600ms\89.single_touch_with_plastic_brush_short_short_600ms.mp4	89.single_touch_with_plastic_brush_short_short_600ms.mp4	201.57615823738615	202.18447695489613	0.6083187175099738				
153.61181640625	0.2	314597	149	51	1	0	0	50	68	stimuli\Videos_short_600ms\71.single_stroke_with_finger_top_to_bottom_short_short_600ms.mp4	71.single_stroke_with_finger_top_to_bottom_short_short_600ms.mp4	202.3761407599795	202.9844618234506	0.6083210634710667				
154.41162109375	0.2	316235	150	51	1	0	0	51	23	stimuli\Videos_short_600ms\30.finger_pulling_back_another_finger_short_short_600ms.mp4	30.finger_pulling_back_another_finger_short_short_600ms.mp4	203.176125628534	203.78444522577956	0.6083195972455542				
155.2119140625	0.2	317874	151	51	1	0	0	52	54	stimuli\Videos_short_600ms\59.single_push_with_long_side_pencil_short_short_600ms.mp4	59.single_push_with_long_side_pencil_short_short_600ms.mp4	203.97610375245176	204.5844280416186	0.6083242891668306				
156.01171875	0.2	319512	152	51	1	0	0	53	132	stimuli\Videos_short_600ms_horflip\48.single_slap_with_hand_short_horflip_short_600ms.mp4	48.single_slap_with_hand_short_horflip_short_600ms.mp4	204.77609360617225	205.3844120304375	0.6083184242652351				
156.8115234375	0.2	321150	153	51	1	0	0	54	276	stimuli\Videos_short_600ms_vertflip\15.single_stroke_top_to_bottom_with_a_plastic_whisk_short_vertflip_short_600ms.mp4	15.single_stroke_top_to_bottom_with_a_plastic_whisk_short_vertflip_short_600ms.mp4	205.5760778882368	206.184393380051	0.60831549181421				
157.61181640625	0.2	322789	154	51	1	0	0	55	214	stimuli\Videos_short_600ms_horvertflip\40.repeated_push_with_finger_short_horvertflip_short_600ms.mp4	40.repeated_push_with_finger_short_horvertflip_short_600ms.mp4	206.376033139039	206.98437678237997	0.6083436433409588				
158.41162109375	0.2	324427	155	51	1	0	0	56	64	stimuli\Videos_short_600ms\68.stroke_top_to_bottom_with_shawl_short_short_600ms.mp4	68.stroke_top_to_bottom_with_shawl_short_short_600ms.mp4	207.17603853474793	207.7843654631206	0.6083269283726622				
159.2119140625	0.2	326066	156	51	1	0	0	57	182	stimuli\Videos_short_600ms_horvertflip\11.single_touch_with_lighter_short_horvertflip_short_600ms.mp4	11.single_touch_with_lighter_short_horvertflip_short_600ms.mp4	207.97602692224336	208.58434622624372	0.6083193040003607				
160.01171875	0.2	327704	157	51	1	0	0	58	138	stimuli\Videos_short_600ms_horflip\53.touch_top_to_bottom_with_knife_short_horflip_short_600ms.mp4	53.touch_top_to_bottom_with_knife_short_horflip_short_600ms.mp4	208.7760097380824	209.38433021506307	0.6083204769806798				
160.8115234375	0.2	329342	158	51	1	0	0	59	105	stimuli\Videos_short_600ms_horflip\23.single_push_with_a_spoon_short_horflip_short_600ms.mp4	23.single_push_with_a_spoon_short_horflip_short_600ms.mp4	209.57599314041136	210.18431009845108	0.6083169580397225				
161.61181640625	0.2	330981	159	51	1	0	0	60	188	stimuli\Videos_short_600ms_horvertflip\17.repeated_touch_with_rolling_pin_short_horvertflip_short_600ms.mp4	17.repeated_touch_with_rolling_pin_short_horvertflip_short_600ms.mp4	210.37598797929783	210.98430024541676	0.6083122661189009				
162.41162109375	0.2	332619	160	51	1	0	0	61	97	stimuli\Videos_short_600ms_horflip\16.repeated_touch_with_plastic_brush_short_horflip_short_600ms.mp4	16.repeated_touch_with_plastic_brush_short_horflip_short_600ms.mp4	211.17595847884377	211.78425344350353	0.6082949646597626				
163.21142578125	0.2	334257	161	51	1	0	0	62	234	stimuli\Videos_short_600ms_horvertflip\59.single_push_with_long_side_pencil_short_horvertflip_short_600ms.mp4	59.single_push_with_long_side_pencil_short_horvertflip_short_600ms.mp4	211.9759454001137	212.5842629446438	0.6083175445301094				
164.01171875	0.2	335896	162	51	1	0	0	63	176	stimuli\Videos_short_600ms_horflip\88.repeated_stroke_with_plastic_brush_short_horflip_short_600ms.mp4	88.repeated_stroke_with_plastic_brush_short_horflip_short_600ms.mp4	212.775926456482	213.38424781319827	0.6083213567162602				
164.8115234375	0.2	337534	163	51	1	0	0	64	275	stimuli\Videos_short_600ms_vertflip\14.repeated_touch_with_pencil_short_vertflip_short_600ms.mp4	14.repeated_touch_with_pencil_short_vertflip_short_600ms.mp4	213.57591044530136	214.18423062903685	0.6083201837354864				
165.611328125	0.2	339172	164	51	1	0	0	65	320	stimuli\Videos_short_600ms_vertflip\55.touch_top_to_bottom_with_nail_file_short_vertflip_short_600ms.mp4	55.touch_top_to_bottom_with_nail_file_short_vertflip_short_600ms.mp4	214.3758944341207	214.98421784355196	0.6083234094312502				
166.41162109375	0.2	340811	165	51	1	0	0	66	240	stimuli\Videos_short_600ms_horvertflip\64.repeated_touch_with_screwdriver_short_horvertflip_short_600ms.mp4	64.repeated_touch_with_screwdriver_short_horvertflip_short_600ms.mp4	215.17587637022416	215.7842059378022	0.6083295675780391				
167.21142578125	0.2	342449	166	51	1	0	0	67	106	stimuli\Videos_short_600ms_horflip\24.single_stroke_top_to_bottom_with_a_spoon_short_horflip_short_600ms.mp4	24.single_stroke_top_to_bottom_with_a_spoon_short_horflip_short_600ms.mp4	215.9758583063281	216.5841817157593	0.6083234094312502				
168.01123046875	0.2	344087	167	51	1	0	0	68	89	stimuli\Videos_short_600ms\90.repeated_touch_with_sponge_short_short_600ms.mp4	90.repeated_touch_with_sponge_short_short_600ms.mp4	216.77584816004855	217.38416365186276	0.60831549181421				
168.8115234375	0.2	345726	168	51	1	0	0	69	170	stimuli\Videos_short_600ms_horflip\82.repeated_touch_with_cotton_bud_short_horflip_short_600ms.mp4	82.repeated_touch_with_cotton_bud_short_horflip_short_600ms.mp4	217.57583214886745	218.18414852041724	0.6083163715497903				
169.611328125	0.2	347364	169	51	1	0	0	70	304	stimuli\Videos_short_600ms_vertflip\40.repeated_push_with_finger_short_vertflip_short_600ms.mp4	40.repeated_push_with_finger_short_vertflip_short_600ms.mp4	218.37581144576552	218.98412957678556	0.6083181310200416				
170.4111328125	0.2	349002	170	51	1	0	0	71	158	stimuli\Videos_short_600ms_horflip\71.single_stroke_with_finger_top_to_bottom_short_horflip_short_600ms.mp4	71.single_stroke_with_finger_top_to_bottom_short_horflip_short_600ms.mp4	219.17579338186945	219.78411561832036	0.6083222364509311				
171.21142578125	0.2	350641	171	51	1	0	0	72	130	stimuli\Videos_short_600ms_horflip\46.scratching_top_to_bottom_with_finger_nails_short_horflip_short_600ms.mp4	46.scratching_top_to_bottom_with_finger_nails_short_horflip_short_600ms.mp4	219.9759676867393	220.58410048687483	0.608132800135536				
172.01123046875	0.2	352279	172	51	1	0	0	73	247	stimuli\Videos_short_600ms_horvertflip\70.(long)stroke_with_finger_all_over_the_hand_short_horvertflip_short_600ms.mp4	70.(long)stroke_with_finger_all_over_the_hand_short_horvertflip_short_600ms.mp4	220.77576429195824	221.38408124999796	0.6083169580397225				
172.81103515625	0.2	353917	173	51	1	0	0	74	316	stimuli\Videos_short_600ms_vertflip\51.repeated_touch_with_hammer_short_vertflip_short_600ms.mp4	51.repeated_touch_with_hammer_short_vertflip_short_600ms.mp4	221.5757482807776	222.18406465232692	0.6083163715493356				
173.611328125	0.2	355556	174	51	1	0	0	75	313	stimuli\Videos_short_600ms_vertflip\49.repeated_slap_with_hand_short_vertflip_short_600ms.mp4	49.repeated_slap_with_hand_short_vertflip_short_600ms.mp4	222.3757278709204	222.98404893439147	0.6083210634710667				
174.4111328125	0.2	357194	175	51	1	0	0	76	263	stimuli\Videos_short_600ms_horvertflip\85.touch_top_to_bottom_with_fabric_short_horvertflip_short_600ms.mp4	85.touch_top_to_bottom_with_fabric_short_horvertflip_short_600ms.mp4	223.1757150854355	223.7840338029455	0.6083187175099738				
175.2109375	0.2	358832	176	51	1	0	0	77	331	stimuli\Videos_short_600ms_vertflip\65.stroke_top_to_bottom_with_stanley_knife_short_vertflip_short_600ms.mp4	65.stroke_top_to_bottom_with_stanley_knife_short_vertflip_short_600ms.mp4	223.97569115663785	224.58401749851964	0.6083263418818206				
176.01123046875	0.2	360471	177	51	1	0	0	78	167	stimuli\Videos_short_600ms_horflip\8.single_touch_with_hairbrush_short_horflip_short_600ms.mp4	8.single_touch_with_hairbrush_short_horflip_short_600ms.mp4	224.7756813036035	225.3840009008486	0.6083195972450994				
176.81103515625	0.2	362109	178	51	1	0	0	79	42	stimuli\Videos_short_600ms\48.single_slap_with_hand_short_short_600ms.mp4	48.single_slap_with_hand_short_short_600ms.mp4	225.5756705708336	226.1839854761579	0.6083149053242778				
177.611328125	0.2	363748	179	51	1	0	0	80	229	stimuli\Videos_short_600ms_horvertflip\54.repeated_touch_with_knife_short_horvertflip_short_600ms.mp4	54.repeated_touch_with_knife_short_horvertflip_short_600ms.mp4	226.3756451758104	226.9839413134505	0.6082961376400817				
178.4111328125	0.2	365386	180	51	1	0	0	81	55	stimuli\Videos_short_600ms\6.single_touch_with_flat_hand_short_short_600ms.mp4	6.single_touch_with_flat_hand_short_short_600ms.mp4	227.1756318038356	227.78392588875977	0.6082940849241822				
179.2109375	0.2	367024	181	51	1	0	0	82	154	stimuli\Videos_short_600ms_horflip\68.stroke_top_to_bottom_with_shawl_short_horflip_short_600ms.mp4	68.stroke_top_to_bottom_with_shawl_short_horflip_short_600ms.mp4	227.97561432642945	228.58393069797876	0.6083163715493356				
180.01123046875	0.2	368663	182	51	1	0	0	83	200	stimuli\Videos_short_600ms_horvertflip\28.single_injection_with_sharp_needle_short_horvertflip_short_600ms.mp4	28.single_injection_with_sharp_needle_short_horvertflip_short_600ms.mp4	228.7755986084935	229.38391585977843	0.608317251284916				
180.81103515625	0.2	370301	183	51	1	0	0	84	157	stimuli\Videos_short_600ms_horflip\70.(long)stroke_with_finger_all_over_the_hand_short_horflip_short_600ms.mp4	70.(long)stroke_with_finger_all_over_the_hand_short_horflip_short_600ms.mp4	229.57558171757728	230.18390805945955	0.6083263418822753				
181.61083984375	0.2	371939	184	51	1	0	0	85	274	stimuli\Videos_short_600ms_vertflip\13.single_touch_with_pen_short_vertflip_short_600ms.mp4	13.single_touch_with_pen_short_vertflip_short_600ms.mp4	230.3755648266615	230.98389351450396	0.6083286878424587				
182.4111328125	0.2	373578	185	51	1	0	0	86	346	stimuli\Videos_short_600ms_vertflip\79.long_with_soft_brush_all_over_the_hand_short_vertflip_short_600ms.mp4	79.long_with_soft_brush_all_over_the_hand_short_vertflip_short_600ms.mp4	231.17554734925488	231.7838666532557	0.6083193040008155				
183.2109375	0.2	375216	186	51	1	0	0	87	225	stimuli\Videos_short_600ms_horvertflip\50.single_(long)hard_push_with_thumb_short_horvertflip_short_600ms.mp4	50.single_(long)hard_push_with_thumb_short_horvertflip_short_600ms.mp4	231.975529578604	232.58386383810284	0.6083342594988608				
184.0107421875	0.2	376854	187	51	1	0	0	88	120	stimuli\Videos_short_600ms_horflip\37.single_stab_with_nail_file_short_horflip_short_600ms.mp4	37.single_stab_with_nail_file_short_horflip_short_600ms.mp4	232.77551767285377	233.38383463089392	0.6083169580401773				
184.81103515625	0.2	378493	188	51	1	0	0	89	277	stimuli\Videos_short_600ms_vertflip\16.repeated_touch_with_plastic_brush_short_vertflip_short_600ms.mp4	16.repeated_touch_with_plastic_brush_short_vertflip_short_600ms.mp4	233.57549872922257	234.1838177399777	0.6083190107551673				
185.61083984375	0.2	380131	189	51	1	0	0	90	16	stimuli\Videos_short_600ms\24.single_stroke_top_to_bottom_with_a_spoon_short_short_600ms.mp4	24.single_stroke_top_to_bottom_with_a_spoon_short_short_600ms.mp4	234.37548447751217	234.983802315287	0.6083178377748482				
186.41064453125	0.2	381769	190	51	1	0	0	91	181	stimuli\Videos_short_600ms_horvertflip\10.single_touch_with_knife_short_horvertflip_short_600ms.mp4	10.single_touch_with_knife_short_horvertflip_short_600ms.mp4	235.17546494739008	235.7837883568218	0.6083234094317049				
187.2109375	0.2	383408	191	51	1	0	0	92	179	stimuli\Videos_short_600ms_horflip\90.repeated_touch_with_sponge_short_horflip_short_600ms.mp4	90.repeated_touch_with_sponge_short_horflip_short_600ms.mp4	235.9754521619052	236.5837682402098	0.6083160783045969	3.0	3.0	2.540808130630012	1.0
223.69287109375	0.2	458123	192	51	2	0	0	0	127	stimuli\Videos_short_600ms_horflip\43.touch_top_to_bottom_with_sharp_wooden_stick_short_horflip_short_600ms.mp4	43.touch_top_to_bottom_with_sharp_wooden_stick_short_horflip_short_600ms.mp4	272.458032085116	273.0663437647445	0.608311679628514				
224.49267578125	0.2	459761	193	51	2	0	0	1	129	stimuli\Videos_short_600ms_horflip\45.scratching_with_finger_nails_short_horflip_short_600ms.mp4	45.scratching_with_finger_nails_short_horflip_short_600ms.mp4	273.2580105022789	273.8663265805835	0.6083160783045969				
225.29296875	0.2	461400	194	51	2	0	0	2	319	stimuli\Videos_short_600ms_vertflip\54.repeated_touch_with_knife_short_vertflip_short_600ms.mp4	54.repeated_touch_with_knife_short_vertflip_short_600ms.mp4	274.0579795355993	274.6663152613237	0.6083357257243733				
226.0927734375	0.2	463038	195	51	2	0	0	3	6	stimuli\Videos_short_600ms\15.single_stroke_top_to_bottom_with_a_plastic_whisk_short_short_600ms.mp4	15.single_stroke_top_to_bottom_with_a_plastic_whisk_short_short_600ms.mp4	274.85795091488035	275.4662966109372	0.6083456960568583				
226.89306640625	0.2	464677	196	51	2	0	0	4	238	stimuli\Videos_short_600ms_horvertflip\62.touch_top_to_bottom_with_scissors_short_horvertflip_short_600ms.mp4	62.touch_top_to_bottom_with_scissors_short_horvertflip_short_600ms.mp4	275.65796452145196	276.26628529167783	0.6083207702258733				
227.69287109375	0.2	466315	197	51	2	0	0	5	101	stimuli\Videos_short_600ms_horflip\2.single_touch_with_finger_short_horflip_short_600ms.mp4	2.single_touch_with_finger_short_horflip_short_600ms.mp4	276.45794997649637	277.06626605480096	0.6083160783045969				
228.49267578125	0.2	467953	198	51	2	0	0	6	144	stimuli\Videos_short_600ms_horflip\59.single_push_with_long_side_pencil_short_horflip_short_600ms.mp4	59.single_push_with_long_side_pencil_short_horflip_short_600ms.mp4	277.25792516796355	277.86624887064	0.6083237026764436				
229.29296875	0.2	469592	199	51	2	0	0	7	241	stimuli\Videos_short_600ms_horvertflip\65.stroke_top_to_bottom_with_stanley_knife_short_horvertflip_short_600ms.mp4	65.stroke_top_to_bottom_with_stanley_knife_short_horvertflip_short_600ms.mp4	278.0579076905574	278.66623256621415	0.6083248756567627				
230.0927734375	0.2	471230	200	51	2	0	0	8	330	stimuli\Videos_short_600ms_vertflip\64.repeated_touch_with_screwdriver_short_vertflip_short_600ms.mp4	64.repeated_touch_with_screwdriver_short_vertflip_short_600ms.mp4	278.8578937320917	279.4661889899967	0.6082952579049561				
230.892578125	0.2	472868	201	51	2	0	0	9	317	stimuli\Videos_short_600ms_vertflip\52.touch_top_to_bottom_with_hammer_short_vertflip_short_600ms.mp4	52.touch_top_to_bottom_with_hammer_short_vertflip_short_600ms.mp4	279.65788036011645	280.2661935059705	0.6083131458540265				
231.69287109375	0.2	474507	202	51	2	0	0	10	49	stimuli\Videos_short_600ms\54.repeated_touch_with_knife_short_short_600ms.mp4	54.repeated_touch_with_knife_short_short_600ms.mp4	280.4578576042991	281.06618893134737	0.6083313270482904				
232.49267578125	0.2	476145	203	51	2	0	0	11	100	stimuli\Videos_short_600ms_horflip\19.single_touch_with_rolling_pin_short_horflip_short_600ms.mp4	19.single_touch_with_rolling_pin_short_horflip_short_600ms.mp4	281.25784188636317	281.8661699877157	0.6083281013525266				
233.29248046875	0.2	477783	204	51	2	0	0	12	10	stimuli\Videos_short_600ms\19.single_touch_with_rolling_pin_short_short_600ms.mp4	19.single_touch_with_rolling_pin_short_short_600ms.mp4	282.0578255819373	282.66615397653504	0.60832839459772				
234.0927734375	0.2	479422	205	51	2	0	0	13	18	stimuli\Videos_short_600ms\26.single_touch_with_a_blunt_syringe_short_short_600ms.mp4	26.single_touch_with_a_blunt_syringe_short_short_600ms.mp4	282.8578092775115	283.4661282882671	0.608319010755622				
234.892578125	0.2	481060	206	51	2	0	0	14	12	stimuli\Videos_short_600ms\20.single_touch_with_screwdriver_short_short_600ms.mp4	20.single_touch_with_screwdriver_short_short_600ms.mp4	283.65779825149684	284.26611520953657	0.6083169580397225				
235.6923828125	0.2	482698	207	51	2	0	0	15	248	stimuli\Videos_short_600ms_horvertflip\71.single_stroke_with_finger_top_to_bottom_short_horvertflip_short_600ms.mp4	71.single_stroke_with_finger_top_to_bottom_short_horvertflip_short_600ms.mp4	284.4577760821694	285.06609714564047	0.6083210634710667				
236.49267578125	0.2	484337	208	51	2	0	0	16	187	stimuli\Videos_short_600ms_horvertflip\16.repeated_touch_with_plastic_brush_short_horvertflip_short_600ms.mp4	16.repeated_touch_with_plastic_brush_short_horvertflip_short_600ms.mp4	285.25775977774356	285.8660779087636	0.6083181310200416				
237.29248046875	0.2	485975	209	51	2	0	0	17	66	stimuli\Videos_short_600ms\7.repeated_touch_with_hairbrush_short_short_600ms.mp4	7.repeated_touch_with_hairbrush_short_short_600ms.mp4	286.05774142060227	286.6660610178478	0.6083195972455542				
238.09228515625	0.2	487613	210	51	2	0	0	18	236	stimuli\Videos_short_600ms_horvertflip\60.single_push_with_tip_of_pencil_short_horvertflip_short_600ms.mp4	60.single_push_with_tip_of_pencil_short_horvertflip_short_600ms.mp4	286.8577333270382	287.466044713422	0.6083113863837752				
238.892578125	0.2	489252	211	51	2	0	0	19	218	stimuli\Videos_short_600ms_horvertflip\44.pushing_top_to_bottom_with_finger_short_horvertflip_short_600ms.mp4	44.pushing_top_to_bottom_with_finger_short_horvertflip_short_600ms.mp4	287.65771584963204	288.2660284089957	0.6083125593636396				
239.6923828125	0.2	490890	212	51	2	0	0	20	305	stimuli\Videos_short_600ms_vertflip\41.injection_with_blunt_syringe_short_vertflip_short_600ms.mp4	41.injection_with_blunt_syringe_short_vertflip_short_600ms.mp4	288.4576983722259	289.0660126910602	0.6083143188343456				
240.4921875	0.2	492528	213	51	2	0	1	21	372	stimuli\Targets_short_600ms_horvertflip\brush-stroke_short_vertflip_short_600ms.mp4	brush-stroke_short_vertflip_short_600ms.mp4	289.2576747366734	289.86599755961424	0.6083228229408633				
241.29248046875	0.2	494167	214	51	2	0	0	22	332	stimuli\Videos_short_600ms_vertflip\66.stroke_top_to_bottom_with_sponge_short_vertflip_short_600ms.mp4	66.stroke_top_to_bottom_with_sponge_short_vertflip_short_600ms.mp4	290.05763849158257	290.6659827214139	0.6083442298313457				
242.09228515625	0.2	495805	215	51	2	0	0	23	28	stimuli\Videos_short_600ms\35.single_punch_with_hand_short_short_600ms.mp4	35.single_punch_with_hand_short_short_600ms.mp4	290.85764300755636	291.46596553725294	0.6083225296965793				
242.89208984375	0.2	497443	216	51	2	0	0	24	311	stimuli\Videos_short_600ms_vertflip\47.(long)scratching_with_finger_nails_short_vertflip_short_600ms.mp4	47.(long)scratching_with_finger_nails_short_vertflip_short_600ms.mp4	291.6576313950518	292.2659231340158	0.6082917389639988				
243.6923828125	0.2	499082	217	51	2	0	0	25	190	stimuli\Videos_short_600ms_horvertflip\19.single_touch_with_rolling_pin_short_horvertflip_short_600ms.mp4	19.single_touch_with_rolling_pin_short_horvertflip_short_600ms.mp4	292.4576215420175	293.0659170931672	0.6082955511496948				
244.4921875	0.2	500720	218	51	2	0	0	26	215	stimuli\Videos_short_600ms_horvertflip\41.injection_with_blunt_syringe_short_horvertflip_short_600ms.mp4	41.injection_with_blunt_syringe_short_horvertflip_short_600ms.mp4	293.2575923348086	293.8659107590738	0.6083184242652351				
245.29248046875	0.2	502359	219	51	2	0	0	27	19	stimuli\Videos_short_600ms\27.single_push_with_a_plastic_whisk_short_short_600ms.mp4	27.single_push_with_a_plastic_whisk_short_short_600ms.mp4	294.0575816020387	294.6658988533236	0.608317251284916				
246.09228515625	0.2	503997	220	51	2	0	0	28	260	stimuli\Videos_short_600ms_horvertflip\82.repeated_touch_with_cotton_bud_short_horvertflip_short_600ms.mp4	82.repeated_touch_with_cotton_bud_short_horvertflip_short_600ms.mp4	294.8575579664862	295.4658837218781	0.6083257553918884				
246.89208984375	0.2	505635	221	51	2	0	0	29	11	stimuli\Videos_short_600ms\2.single_touch_with_finger_short_short_600ms.mp4	2.single_touch_with_finger_short_short_600ms.mp4	295.65754254179546	296.26586712420703	0.6083245824115693				
247.6923828125	0.2	507274	222	51	2	0	0	30	36	stimuli\Videos_short_600ms\42.single_slap_with_plastic_whisk_short_short_600ms.mp4	42.single_slap_with_plastic_whisk_short_short_600ms.mp4	296.4575250643893	297.0658575644179	0.6083325000286095				
248.4921875	0.2	508912	223	51	2	0	0	31	156	stimuli\Videos_short_600ms_horflip\7.repeated_touch_with_hairbrush_short_horflip_short_600ms.mp4	7.repeated_touch_with_hairbrush_short_horflip_short_600ms.mp4	297.25750846671826	297.865841846482	0.6083333797637351				
249.2919921875	0.2	510550	224	51	2	0	0	32	166	stimuli\Videos_short_600ms_horflip\79.long_with_soft_brush_all_over_the_hand_short_horflip_short_600ms.mp4	79.long_with_soft_brush_all_over_the_hand_short_horflip_short_600ms.mp4	298.05749392176267	298.66581586496886	0.6083219432061924				
250.09228515625	0.2	512189	225	51	2	0	0	33	53	stimuli\Videos_short_600ms\58.single_slap_with_pencil_short_short_600ms.mp4	58.single_slap_with_pencil_short_short_600ms.mp4	298.8574764443565	299.4657972145824	0.6083207702258733				
250.89208984375	0.2	513827	226	51	2	0	0	34	178	stimuli\Videos_short_600ms_horflip\9.single_touch_with_hammer_short_horflip_short_600ms.mp4	9.single_touch_with_hammer_short_horflip_short_600ms.mp4	299.65746013993066	300.26578003042096	0.6083198904902929				
251.69189453125	0.2	515465	227	51	2	0	0	35	290	stimuli\Videos_short_600ms_vertflip\28.single_injection_with_sharp_needle_short_vertflip_short_600ms.mp4	28.single_injection_with_sharp_needle_short_vertflip_short_600ms.mp4	300.4574435422596	301.06576284626	0.6083193040003607				
252.4921875	0.2	517104	228	51	2	0	0	36	279	stimuli\Videos_short_600ms_vertflip\18.single_stroke_from_top_to_bottom_with_rolling_pin_short_vertflip_short_600ms.mp4	18.single_stroke_from_top_to_bottom_with_rolling_pin_short_vertflip_short_600ms.mp4	301.25742870405884	301.8657497675299	0.6083210634710667				
253.2919921875	0.2	518742	229	51	2	0	0	37	174	stimuli\Videos_short_600ms_horflip\86.touch_top_to_bottom_with_hair_brush_short_horflip_short_600ms.mp4	86.touch_top_to_bottom_with_hair_brush_short_horflip_short_600ms.mp4	302.05741034691755	302.6657299441631	0.6083195972455542				
254.091796875	0.2	520380	230	51	2	0	0	38	351	stimuli\Videos_short_600ms_vertflip\83.single_stroke_top_to_bottom_with_cotton_bud_short_vertflip_short_600ms.mp4	83.single_stroke_top_to_bottom_with_cotton_bud_short_vertflip_short_600ms.mp4	302.8574298183903	303.46571217351175	0.608282355121446				
254.89208984375	0.2	522019	231	51	2	0	1	39	368	stimuli\Targets_short_600ms_horflip\chopstickwood-tap_short_horflip_short_600ms.mp4	chopstickwood-tap_short_horflip_short_600ms.mp4	303.6573935732995	304.2657017339875	0.6083081606880114				
255.69189453125	0.2	523657	232	51	2	0	0	40	211	stimuli\Videos_short_600ms_horvertflip\38.double_slap_with_pencil_short_horvertflip_short_600ms.mp4	38.double_slap_with_pencil_short_horvertflip_short_600ms.mp4	304.4573596741693	305.0656874822771	0.6083278081077879				
256.49169921875	0.2	525295	233	51	2	0	0	41	72	stimuli\Videos_short_600ms\75.(long)stroke_with_fingers_all_over_the_hand_short_short_600ms.mp4	75.(long)stroke_with_fingers_all_over_the_hand_short_short_600ms.mp4	305.25735216709563	305.8656685386454	0.6083163715497903				
257.2919921875	0.2	526934	234	51	2	0	0	42	282	stimuli\Videos_short_600ms_vertflip\20.single_touch_with_screwdriver_short_vertflip_short_600ms.mp4	20.single_touch_with_screwdriver_short_vertflip_short_600ms.mp4	306.05730184624144	306.66564988825894	0.6083480420174965				
258.091796875	0.2	528572	235	51	2	0	0	43	344	stimuli\Videos_short_600ms_vertflip\77.tapping_with_all_fingers_short_vertflip_short_600ms.mp4	77.tapping_with_all_fingers_short_vertflip_short_600ms.mp4	306.85731340009715	307.4656329973427	0.6083195972455542				
258.8916015625	0.2	530210	236	51	2	0	1	44	380	stimuli\Targets_short_600ms_vertflip\chopstickwood-tap_short_horvertflip_short_600ms.mp4	chopstickwood-tap_short_horvertflip_short_600ms.mp4	307.6572947497107	308.26561639967167	0.6083216499609989				
259.69189453125	0.2	531849	237	51	2	0	0	45	147	stimuli\Videos_short_600ms_horflip\61.single_hit_with_rolling_pin_short_horflip_short_600ms.mp4	61.single_hit_with_rolling_pin_short_horflip_short_600ms.mp4	308.4572834304513	309.0655945235894	0.608311093138127				
260.49169921875	0.2	533487	238	51	2	0	0	46	233	stimuli\Videos_short_600ms_horvertflip\58.single_slap_with_pencil_short_horvertflip_short_600ms.mp4	58.single_slap_with_pencil_short_horvertflip_short_600ms.mp4	309.2572592084084	309.86558203134973	0.608322822941318				
261.29150390625	0.2	535125	239	51	2	0	0	47	117	stimuli\Videos_short_600ms_horflip\34.repeated_punch_with_hand_short_horflip_short_600ms.mp4	34.repeated_punch_with_hand_short_horflip_short_600ms.mp4	310.05724583643314	310.665566606659	0.6083207702258733				
262.091796875	0.2	536764	240	51	2	0	0	48	35	stimuli\Videos_short_600ms\41.injection_with_blunt_syringe_short_short_600ms.mp4	41.injection_with_blunt_syringe_short_short_600ms.mp4	310.8572254265764	311.46555030223317	0.6083248756567627				
262.8916015625	0.2	538402	241	51	2	0	0	49	310	stimuli\Videos_short_600ms_vertflip\46.scratching_top_to_bottom_with_finger_nails_short_vertflip_short_600ms.mp4	46.scratching_top_to_bottom_with_finger_nails_short_vertflip_short_600ms.mp4	311.6572085356602	312.2655419154239	0.6083333797637351				
263.69189453125	0.2	540041	242	51	2	0	1	50	373	stimuli\Targets_short_600ms_horvertflip\chopstick-silver-tap_short_vertflip_short_600ms.mp4	chopstick-silver-tap_short_vertflip_short_600ms.mp4	312.4571925244795	313.06552590424326	0.6083333797637351				
264.49169921875	0.2	541679	243	51	2	0	0	51	335	stimuli\Videos_short_600ms_vertflip\69.stroke_with_soft_sock_short_vertflip_short_600ms.mp4	69.stroke_with_soft_sock_short_vertflip_short_600ms.mp4	313.2571762200532	313.86550109571	0.6083248756567627				
265.29150390625	0.2	543317	244	51	2	0	1	52	369	stimuli\Targets_short_600ms_horflip\finger-tap_short_horflip_short_600ms.mp4	finger-tap_short_horflip_short_600ms.mp4	314.0571602088726	314.665483911549	0.6083237026764436				
266.091796875	0.2	544956	245	51	2	0	0	53	309	stimuli\Videos_short_600ms_vertflip\45.scratching_with_finger_nails_short_vertflip_short_600ms.mp4	45.scratching_with_finger_nails_short_vertflip_short_600ms.mp4	314.8571415584861	315.46546496791734	0.6083234094312502				
266.8916015625	0.2	546594	246	51	2	0	0	54	81	stimuli\Videos_short_600ms\83.single_stroke_top_to_bottom_with_cotton_bud_short_short_600ms.mp4	83.single_stroke_top_to_bottom_with_cotton_bud_short_short_600ms.mp4	315.65712642704057	316.2654527689224	0.6083263418818206				
267.69140625	0.2	548232	247	51	2	0	0	55	93	stimuli\Videos_short_600ms_horflip\12.repeated_touch_with_nail_file_short_horflip_short_600ms.mp4	12.repeated_touch_with_nail_file_short_horflip_short_600ms.mp4	316.4571086563892	317.0654329455556	0.6083242891663758				
268.49169921875	0.2	549871	248	51	2	0	0	56	15	stimuli\Videos_short_600ms\23.single_push_with_a_spoon_short_short_600ms.mp4	23.single_push_with_a_spoon_short_short_600ms.mp4	317.2570932316985	317.8654145884143	0.6083213567158055				
269.29150390625	0.2	551509	249	51	2	0	0	57	327	stimuli\Videos_short_600ms_vertflip\61.single_hit_with_rolling_pin_short_vertflip_short_600ms.mp4	61.single_hit_with_rolling_pin_short_vertflip_short_600ms.mp4	318.0570625582641	318.66540326915447	0.6083407108903884				
270.09130859375	0.2	553147	250	51	2	0	0	58	8	stimuli\Videos_short_600ms\17.repeated_touch_with_rolling_pin_short_short_600ms.mp4	17.repeated_touch_with_rolling_pin_short_short_600ms.mp4	318.85706648774794	319.46538256605254	0.6083160783045969				
270.8916015625	0.2	554786	251	51	2	0	0	59	228	stimuli\Videos_short_600ms_horvertflip\53.touch_top_to_bottom_with_knife_short_horvertflip_short_600ms.mp4	53.touch_top_to_bottom_with_knife_short_horvertflip_short_600ms.mp4	319.65704226570506	320.2653659683815	0.6083237026764436				
271.69140625	0.2	556424	252	51	2	0	0	60	249	stimuli\Videos_short_600ms_horvertflip\72.(short)stroke_with_finger_all_over_the_hand_short_horvertflip_short_600ms.mp4	72.(short)stroke_with_finger_all_over_the_hand_short_horvertflip_short_600ms.mp4	320.4570265477696	321.06535025044604	0.6083237026764436				
272.4912109375	0.2	558062	253	51	2	0	0	61	46	stimuli\Videos_short_600ms\51.repeated_touch_with_hammer_short_short_600ms.mp4	51.repeated_touch_with_hammer_short_short_600ms.mp4	321.2570111230789	321.8653324797947	0.6083213567158055				
273.29150390625	0.2	559701	254	51	2	0	0	62	94	stimuli\Videos_short_600ms_horflip\13.single_touch_with_pen_short_horflip_short_600ms.mp4	13.single_touch_with_pen_short_horflip_short_600ms.mp4	322.05699569838816	322.6653185213295	0.608322822941318				
274.09130859375	0.2	561339	255	51	2	0	0	63	136	stimuli\Videos_short_600ms_horflip\51.repeated_touch_with_hammer_short_horflip_short_600ms.mp4	51.repeated_touch_with_hammer_short_horflip_short_600ms.mp4	322.8569767547565	323.4653080818048	0.6083313270482904				
274.89111328125	0.2	562977	256	51	2	0	0	64	265	stimuli\Videos_short_600ms_horvertflip\87.single_stroke_top_to_bottom_with_plastic_brush_short_horvertflip_short_600ms.mp4	87.single_stroke_top_to_bottom_with_plastic_brush_short_horvertflip_short_600ms.mp4	323.6569692476828	324.2652908976438	0.6083216499609989				
275.69140625	0.2	564616	257	51	2	0	0	65	137	stimuli\Videos_short_600ms_horflip\52.touch_top_to_bottom_with_hammer_short_horflip_short_600ms.mp4	52.touch_top_to_bottom_with_hammer_short_horflip_short_600ms.mp4	324.4569423864341	325.06526227692484	0.6083198904907476				
276.4912109375	0.2	566254	258	51	2	0	0	66	5	stimuli\Videos_short_600ms\14.repeated_touch_with_pencil_short_short_600ms.mp4	14.repeated_touch_with_pencil_short_short_600ms.mp4	325.2569527673095	325.86524919819476	0.6082964308852752				
277.291015625	0.2	567892	259	51	2	0	0	67	41	stimuli\Videos_short_600ms\47.(long)scratching_with_finger_nails_short_short_600ms.mp4	47.(long)scratching_with_finger_nails_short_short_600ms.mp4	326.0569083113569	326.66521852476035	0.6083102134034561				
278.09130859375	0.2	569531	260	51	2	0	0	68	2	stimuli\Videos_short_600ms\11.single_touch_with_lighter_short_short_600ms.mp4	11.single_touch_with_lighter_short_short_600ms.mp4	326.8568943528917	327.46521864205806	0.6083242891663758				
278.89111328125	0.2	571169	261	51	2	0	1	69	363	stimuli\Targets_short_600ms\finger-tap_short_short_600ms.mp4	finger-tap_short_short_600ms.mp4	327.65687540926	328.2652011646519	0.6083257553918884				
279.69970703125	0.2	572825	262	51	2	0	0	70	0	stimuli\Videos_short_600ms\1.repeated_touch_with_finger_fast_short_short_600ms.mp4	1.repeated_touch_with_finger_fast_short_short_600ms.mp4	328.4652224542442	329.0735191783742	0.6082967241300139				
280.49951171875	0.2	574463	263	51	2	0	0	71	40	stimuli\Videos_short_600ms\46.scratching_top_to_bottom_with_finger_nails_short_short_600ms.mp4	46.scratching_top_to_bottom_with_finger_nails_short_short_600ms.mp4	329.26517975776187	329.87349906176223	0.6083193040003607				
281.29931640625	0.2	576101	264	51	2	0	0	72	186	stimuli\Videos_short_600ms_horvertflip\15.single_stroke_top_to_bottom_with_a_plastic_whisk_short_horvertflip_short_600ms.mp4	15.single_stroke_top_to_bottom_with_a_plastic_whisk_short_horvertflip_short_600ms.mp4	330.0651625736009	330.67348158435607	0.6083190107551673				
282.099609375	0.2	577740	265	51	2	0	0	73	201	stimuli\Videos_short_600ms_horvertflip\29.single_pinch_with_tweezers_short_horvertflip_short_600ms.mp4	29.single_pinch_with_tweezers_short_horvertflip_short_600ms.mp4	330.86514509619474	331.4734629339696	0.6083178377748482				
282.8994140625	0.2	579378	266	51	2	0	0	74	141	stimuli\Videos_short_600ms_horflip\56.repeated_touch_with_nail_file_short_horflip_short_600ms.mp4	56.repeated_touch_with_nail_file_short_horflip_short_600ms.mp4	331.66512908501363	332.2734609985523	0.6083319135386773				
283.69921875	0.2	581016	267	51	2	0	0	75	33	stimuli\Videos_short_600ms\4.repeated_tap_with_finger_slow_short_short_600ms.mp4	4.repeated_tap_with_finger_slow_short_short_600ms.mp4	332.465109554892	333.0734353102839	0.6083257553918884				
284.49951171875	0.2	582655	268	51	2	0	0	76	269	stimuli\Videos_short_600ms_horvertflip\90.repeated_touch_with_sponge_short_horvertflip_short_600ms.mp4	90.repeated_touch_with_sponge_short_horvertflip_short_600ms.mp4	333.2650944234465	333.87341783287775	0.6083234094312502				
285.29931640625	0.2	584293	269	51	2	0	0	77	321	stimuli\Videos_short_600ms_vertflip\56.repeated_touch_with_nail_file_short_vertflip_short_600ms.mp4	56.repeated_touch_with_nail_file_short_vertflip_short_600ms.mp4	334.0650801717361	334.67339976898165	0.6083195972455542				
286.09912109375	0.2	585931	270	51	2	0	0	78	323	stimuli\Videos_short_600ms_vertflip\58.single_slap_with_pencil_short_vertflip_short_600ms.mp4	58.single_slap_with_pencil_short_vertflip_short_600ms.mp4	334.86506181459436	335.47338522402606	0.6083234094317049				
286.8994140625	0.2	587570	271	51	2	0	0	79	257	stimuli\Videos_short_600ms_horvertflip\8.single_touch_with_hairbrush_short_horvertflip_short_600ms.mp4	8.single_touch_with_hairbrush_short_horvertflip_short_600ms.mp4	335.6650452169238	336.27336569390445	0.6083204769806798				
287.69921875	0.2	589208	272	51	2	0	0	80	152	stimuli\Videos_short_600ms_horflip\66.stroke_top_to_bottom_with_sponge_short_horflip_short_600ms.mp4	66.stroke_top_to_bottom_with_sponge_short_horflip_short_600ms.mp4	336.4650271530272	337.0733482164983	0.6083210634710667				
288.4990234375	0.2	590846	273	51	2	0	0	81	324	stimuli\Videos_short_600ms_vertflip\59.single_push_with_long_side_pencil_short_vertflip_short_600ms.mp4	59.single_push_with_long_side_pencil_short_vertflip_short_600ms.mp4	337.2650123148269	337.8733330850523	0.6083207702254185				
289.29931640625	0.2	592485	274	51	2	0	0	82	243	stimuli\Videos_short_600ms_horvertflip\67.single_touch_with_sponge_short_horvertflip_short_600ms.mp4	67.single_touch_with_sponge_short_horvertflip_short_600ms.mp4	338.0650027550373	338.67331678062646	0.6083140255891522				
290.09912109375	0.2	594123	275	51	2	0	0	83	352	stimuli\Videos_short_600ms_vertflip\84.single_touch_with_cotton_bud_short_vertflip_short_600ms.mp4	84.single_touch_with_cotton_bud_short_vertflip_short_600ms.mp4	338.86497589378905	339.4732990099751	0.6083231161860567				
290.89892578125	0.2	595761	276	51	2	0	0	84	280	stimuli\Videos_short_600ms_vertflip\19.single_touch_with_rolling_pin_short_vertflip_short_600ms.mp4	19.single_touch_with_rolling_pin_short_vertflip_short_600ms.mp4	339.66493671624767	340.2732841717748	0.6083474555271096				
291.69921875	0.2	597400	277	51	2	0	0	85	145	stimuli\Videos_short_600ms_horflip\6.single_touch_with_flat_hand_short_horflip_short_600ms.mp4	6.single_touch_with_flat_hand_short_horflip_short_600ms.mp4	340.46491953208624	341.0732655213883	0.6083459893020517				
292.4990234375	0.2	599038	278	51	2	0	0	86	164	stimuli\Videos_short_600ms_horflip\77.tapping_with_all_fingers_short_horflip_short_600ms.mp4	77.tapping_with_all_fingers_short_horflip_short_600ms.mp4	341.264930499452	341.8732500966976	0.6083195972455542				
293.298828125	0.2	600676	279	51	2	0	0	87	293	stimuli\Videos_short_600ms_vertflip\30.finger_pulling_back_another_finger_short_vertflip_short_600ms.mp4	30.finger_pulling_back_another_finger_short_vertflip_short_600ms.mp4	342.06491038284	342.67323467200686	0.6083242891668306				
294.09912109375	0.2	602315	280	51	2	0	0	88	126	stimuli\Videos_short_600ms_horflip\42.single_slap_with_plastic_whisk_short_horflip_short_600ms.mp4	42.single_slap_with_plastic_whisk_short_horflip_short_600ms.mp4	342.8649008230509	343.47319021605426	0.6082893930033606				
294.89892578125	0.2	603953	281	51	2	0	0	89	347	stimuli\Videos_short_600ms_vertflip\8.single_touch_with_hairbrush_short_vertflip_short_600ms.mp4	8.single_touch_with_hairbrush_short_vertflip_short_600ms.mp4	343.6648798267038	344.27317332513803	0.6082934984342501				
295.69873046875	0.2	605591	282	51	2	0	0	90	345	stimuli\Videos_short_600ms_vertflip\78.single_stroke_top_to_bottom_with_soft_brush_short_vertflip_short_600ms.mp4	78.single_stroke_top_to_bottom_with_soft_brush_short_vertflip_short_600ms.mp4	344.4648705601594	345.073156727467	0.6082861673075968				
296.4990234375	0.2	607230	283	51	2	0	0	91	29	stimuli\Videos_short_600ms\36.single_slap_with_full_hand_short_short_600ms.mp4	36.single_slap_with_full_hand_short_short_600ms.mp4	345.2648483908324	345.87314042304115	0.6082920322087375				
297.298828125	0.2	608868	284	51	2	0	0	92	39	stimuli\Videos_short_600ms\45.scratching_with_finger_nails_short_short_600ms.mp4	45.scratching_with_finger_nails_short_short_600ms.mp4	346.0648268079949	346.67313291596747	0.6083061079725667				
298.09912109375	0.2	610507	285	51	2	0	0	93	48	stimuli\Videos_short_600ms\53.touch_top_to_bottom_with_knife_short_short_600ms.mp4	53.touch_top_to_bottom_with_knife_short_short_600ms.mp4	346.86481402251	347.47314241710774	0.60832839459772				
298.89892578125	0.2	612145	286	51	2	0	0	94	26	stimuli\Videos_short_600ms\33.scratch_top_to_bottom_with_scissors_short_short_600ms.mp4	33.scratch_top_to_bottom_with_scissors_short_short_600ms.mp4	347.6647944923884	348.27312083427023	0.6083263418818206				
299.69873046875	0.2	613783	287	51	2	0	0	95	140	stimuli\Videos_short_600ms_horflip\55.touch_top_to_bottom_with_nail_file_short_horflip_short_600ms.mp4	55.touch_top_to_bottom_with_nail_file_short_horflip_short_600ms.mp4	348.4647954894217	349.0731059960699	0.6083105066481949	6.0	6.0	2.4021486652800377	1.0
335.40625	0.2	686912	288	51	3	0	0	0	281	stimuli\Videos_short_600ms_vertflip\2.single_touch_with_finger_short_vertflip_short_600ms.mp4	2.single_touch_with_finger_short_vertflip_short_600ms.mp4	384.1723650537501	384.7806913956324	0.6083263418822753				
336.2060546875	0.2	688550	289	51	3	0	0	1	80	stimuli\Videos_short_600ms\82.repeated_touch_with_cotton_bud_short_short_600ms.mp4	82.repeated_touch_with_cotton_bud_short_short_600ms.mp4	384.9723478695891	385.5806662938544	0.6083184242652351				
337.005859375	0.2	690188	290	51	3	0	0	2	264	stimuli\Videos_short_600ms_horvertflip\86.touch_top_to_bottom_with_hair_brush_short_horvertflip_short_600ms.mp4	86.touch_top_to_bottom_with_hair_brush_short_horvertflip_short_600ms.mp4	385.77232863271274	386.38064998942855	0.6083213567158055				
337.80615234375	0.2	691827	291	51	3	0	0	3	195	stimuli\Videos_short_600ms_horvertflip\23.single_push_with_a_spoon_short_horvertflip_short_600ms.mp4	23.single_push_with_a_spoon_short_horvertflip_short_600ms.mp4	386.5723123282864	387.1806328052671	0.6083204769806798				
338.60595703125	0.2	693465	292	51	3	0	0	4	25	stimuli\Videos_short_600ms\32.single_(long)pinch_with_fingers_short_short_600ms.mp4	32.single_(long)pinch_with_fingers_short_short_600ms.mp4	387.3722951441255	387.98061708733167	0.6083219432061924				
339.40576171875	0.2	695103	293	51	3	0	1	5	364	stimuli\Targets_short_600ms\hand-pinch_short_short_600ms.mp4	hand-pinch_short_short_600ms.mp4	388.1722797194347	388.7805978504548	0.6083181310200416				
340.2060546875	0.2	696742	294	51	3	0	0	6	203	stimuli\Videos_short_600ms_horvertflip\30.finger_pulling_back_another_finger_short_horvertflip_short_600ms.mp4	30.finger_pulling_back_another_finger_short_horvertflip_short_600ms.mp4	388.9722886340851	389.5805833054992	0.6082946714141144				
341.005859375	0.2	698380	295	51	3	0	0	7	175	stimuli\Videos_short_600ms_horflip\87.single_stroke_top_to_bottom_with_plastic_brush_short_horflip_short_600ms.mp4	87.single_stroke_top_to_bottom_with_plastic_brush_short_horflip_short_600ms.mp4	389.772239192966	390.380564361868	0.6083251689019562				
341.8056640625	0.2	700018	296	51	3	0	0	8	185	stimuli\Videos_short_600ms_horvertflip\14.repeated_touch_with_pencil_short_horvertflip_short_600ms.mp4	14.repeated_touch_with_pencil_short_horvertflip_short_600ms.mp4	390.5722354980781	391.1805483506869	0.608312852608833				
342.60595703125	0.2	701657	297	51	3	0	0	9	60	stimuli\Videos_short_600ms\64.repeated_touch_with_screwdriver_short_short_600ms.mp4	64.repeated_touch_with_screwdriver_short_short_600ms.mp4	391.3722098098101	391.9805308732807	0.608321063470612				
343.40576171875	0.2	703295	298	51	3	0	1	10	361	stimuli\Targets_short_600ms\chopstick-silver-tap_short_short_600ms.mp4	chopstick-silver-tap_short_short_600ms.mp4	392.1721929188938	392.7805163283251	0.6083234094312502				
344.20556640625	0.2	704933	299	51	3	0	0	11	224	stimuli\Videos_short_600ms_horvertflip\5.repeated_tap_with_finger_moving_from_top_to_bottom_short_horvertflip_short_600ms.mp4	5.repeated_tap_with_finger_moving_from_top_to_bottom_short_horvertflip_short_600ms.mp4	392.9721754414877	393.58049797118383	0.6083225296961245				
345.005859375	0.2	706572	300	51	3	0	0	12	334	stimuli\Videos_short_600ms_vertflip\68.stroke_top_to_bottom_with_shawl_short_vertflip_short_600ms.mp4	68.stroke_top_to_bottom_with_shawl_short_vertflip_short_600ms.mp4	393.7721661749433	394.3804813735128	0.6083151985694712				
345.8056640625	0.2	708210	301	51	3	0	0	13	198	stimuli\Videos_short_600ms_horvertflip\26.single_touch_with_a_blunt_syringe_short_horvertflip_short_600ms.mp4	26.single_touch_with_a_blunt_syringe_short_horvertflip_short_600ms.mp4	394.57214371237114	395.18046096365606	0.608317251284916				
346.60546875	0.2	709848	302	51	3	0	0	14	161	stimuli\Videos_short_600ms_horflip\74.fingers_walking_from_top_to_bottom_short_horflip_short_600ms.mp4	74.fingers_walking_from_top_to_bottom_short_horflip_short_600ms.mp4	395.3722655263732	395.9804226658498	0.6081571394765888				
347.40576171875	0.2	711487	303	51	3	0	0	15	325	stimuli\Videos_short_600ms_vertflip\6.single_touch_with_flat_hand_short_vertflip_short_600ms.mp4	6.single_touch_with_flat_hand_short_vertflip_short_600ms.mp4	396.1721102237839	396.7804318737449	0.6083216499609989				
348.20556640625	0.2	713125	304	51	3	0	0	16	318	stimuli\Videos_short_600ms_vertflip\53.touch_top_to_bottom_with_knife_short_vertflip_short_600ms.mp4	53.touch_top_to_bottom_with_knife_short_vertflip_short_600ms.mp4	396.9721091681017	397.580410584153	0.6083014160512903				
349.00537109375	0.2	714763	305	51	3	0	0	17	139	stimuli\Videos_short_600ms_horflip\54.repeated_touch_with_knife_short_horflip_short_600ms.mp4	54.repeated_touch_with_knife_short_horflip_short_600ms.mp4	397.7720761487067	398.3803810836989	0.6083049349922476				
349.8056640625	0.2	716402	306	51	3	0	0	18	172	stimuli\Videos_short_600ms_horflip\84.single_touch_with_cotton_bud_short_horflip_short_600ms.mp4	84.single_touch_with_cotton_bud_short_horflip_short_600ms.mp4	398.5720610172611	399.180381787487	0.6083207702258733				
350.60546875	0.2	718040	307	51	3	0	0	19	226	stimuli\Videos_short_600ms_horvertflip\51.repeated_touch_with_hammer_short_horvertflip_short_600ms.mp4	51.repeated_touch_with_hammer_short_horvertflip_short_600ms.mp4	399.3720461790608	399.980365189816	0.6083190107551673				
351.4052734375	0.2	719678	308	51	3	0	0	20	7	stimuli\Videos_short_600ms\16.repeated_touch_with_plastic_brush_short_short_600ms.mp4	16.repeated_touch_with_plastic_brush_short_short_600ms.mp4	400.1720278219191	400.7803192676379	0.6082914457188053				
352.20556640625	0.2	721317	309	51	3	0	0	21	227	stimuli\Videos_short_600ms_horvertflip\52.touch_top_to_bottom_with_hammer_short_horvertflip_short_600ms.mp4	52.touch_top_to_bottom_with_hammer_short_horvertflip_short_600ms.mp4	400.972009758023	401.5803311147388	0.6083213567158055				
353.00537109375	0.2	722955	310	51	3	0	0	22	21	stimuli\Videos_short_600ms\29.single_pinch_with_tweezers_short_short_600ms.mp4	29.single_pinch_with_tweezers_short_short_600ms.mp4	401.7719914008817	402.38031451706775	0.6083231161860567				
353.8056640625	0.2	724594	311	51	3	0	0	23	244	stimuli\Videos_short_600ms_horvertflip\68.stroke_top_to_bottom_with_shawl_short_horvertflip_short_600ms.mp4	68.stroke_top_to_bottom_with_shawl_short_horvertflip_short_600ms.mp4	402.5719750964554	403.18029557343607	0.6083204769806798				
354.60546875	0.2	726232	312	51	3	0	0	24	207	stimuli\Videos_short_600ms_horvertflip\34.repeated_punch_with_hand_short_horvertflip_short_600ms.mp4	34.repeated_punch_with_hand_short_horvertflip_short_600ms.mp4	403.3719582055396	403.9802786825203	0.6083204769806798				
355.4052734375	0.2	727870	313	51	3	0	0	25	180	stimuli\Videos_short_600ms_horvertflip\1.repeated_touch_with_finger_fast_short_horvertflip_short_600ms.mp4	1.repeated_touch_with_finger_fast_short_horvertflip_short_600ms.mp4	404.1719375024377	404.7802588591535	0.6083213567158055				
356.20556640625	0.2	729509	314	51	3	0	0	26	202	stimuli\Videos_short_600ms_horvertflip\3.single_push_with_finger_short_horvertflip_short_600ms.mp4	3.single_push_with_finger_short_horvertflip_short_600ms.mp4	404.9719285291385	405.5802434344628	0.6083149053242778				
357.00537109375	0.2	731147	315	51	3	0	0	27	210	stimuli\Videos_short_600ms_horvertflip\37.single_stab_with_nail_file_short_horvertflip_short_600ms.mp4	37.single_stab_with_nail_file_short_horvertflip_short_600ms.mp4	405.7719177963686	406.3802303557327	0.6083125593640943				
357.80517578125	0.2	732785	316	51	3	0	0	28	213	stimuli\Videos_short_600ms_horvertflip\4.repeated_tap_with_finger_slow_short_horvertflip_short_600ms.mp4	4.repeated_tap_with_finger_slow_short_horvertflip_short_600ms.mp4	406.57188653644425	407.18021229183614	0.6083257553918884				
358.60546875	0.2	734424	317	51	3	0	0	29	9	stimuli\Videos_short_600ms\18.single_stroke_from_top_to_bottom_with_rolling_pin_short_short_600ms.mp4	18.single_stroke_from_top_to_bottom_with_rolling_pin_short_short_600ms.mp4	407.37185146433376	407.98019481443	0.6083433500962201				
359.4052734375	0.2	736062	318	51	3	0	0	30	288	stimuli\Videos_short_600ms_vertflip\26.single_touch_with_a_blunt_syringe_short_vertflip_short_600ms.mp4	26.single_touch_with_a_blunt_syringe_short_vertflip_short_600ms.mp4	408.1719152158121	408.7801770437786	0.6082618279665439				
360.205078125	0.2	737700	319	51	3	0	0	31	289	stimuli\Videos_short_600ms_vertflip\27.single_push_with_a_plastic_whisk_short_vertflip_short_600ms.mp4	27.single_push_with_a_plastic_whisk_short_vertflip_short_600ms.mp4	408.97184524753857	409.5801624988235	0.608317251284916				
361.00537109375	0.2	739339	320	51	3	0	0	32	358	stimuli\Videos_short_600ms_vertflip\9.single_touch_with_hammer_short_vertflip_short_600ms.mp4	9.single_touch_with_hammer_short_vertflip_short_600ms.mp4	409.771827183642	410.3801459011525	0.6083187175104285				
361.80517578125	0.2	740977	321	51	3	0	0	33	193	stimuli\Videos_short_600ms_horvertflip\21.repeated_touch_with_metal_chopstick_short_horvertflip_short_600ms.mp4	21.repeated_touch_with_metal_chopstick_short_horvertflip_short_600ms.mp4	410.5718290604104	411.18013076970647	0.608301709296029				
362.60498046875	0.2	742615	322	51	3	0	0	34	32	stimuli\Videos_short_600ms\39.single_stab_with_scissors_short_short_600ms.mp4	39.single_stab_with_scissors_short_short_600ms.mp4	411.3717892963791	411.9801115328301	0.6083222364509311				
363.4052734375	0.2	744254	323	51	3	0	0	35	315	stimuli\Videos_short_600ms_vertflip\50.single_(long)hard_push_with_thumb_short_vertflip_short_600ms.mp4	50.single_(long)hard_push_with_thumb_short_vertflip_short_600ms.mp4	412.1717876542066	412.7801060784718	0.6083184242652351				
364.205078125	0.2	745892	324	51	3	0	0	36	326	stimuli\Videos_short_600ms_vertflip\60.single_push_with_tip_of_pencil_short_vertflip_short_600ms.mp4	60.single_push_with_tip_of_pencil_short_vertflip_short_600ms.mp4	412.9717584469977	413.58008185642893	0.6083234094312502				
365.0048828125	0.2	747530	325	51	3	0	0	37	149	stimuli\Videos_short_600ms_horflip\63.stroke_top_to_bottom_with_screwdriver_short_horflip_short_600ms.mp4	63.stroke_top_to_bottom_with_screwdriver_short_horflip_short_600ms.mp4	413.77174155608145	414.38006877769885	0.6083272216174009				
365.80517578125	0.2	749169	326	51	3	0	0	38	76	stimuli\Videos_short_600ms\79.long_with_soft_brush_all_over_the_hand_short_short_600ms.mp4	79.long_with_soft_brush_all_over_the_hand_short_short_600ms.mp4	414.5717234921849	415.1800454353911	0.6083219432061924				
366.60498046875	0.2	750807	327	51	3	0	0	39	44	stimuli\Videos_short_600ms\5.repeated_tap_with_finger_moving_from_top_to_bottom_short_short_600ms.mp4	5.repeated_tap_with_finger_moving_from_top_to_bottom_short_short_600ms.mp4	415.3716790362323	415.9800367553371	0.608357719104788				
367.40478515625	0.2	752445	328	51	3	0	0	40	339	stimuli\Videos_short_600ms_vertflip\72.(short)stroke_with_finger_all_over_the_hand_short_vertflip_short_600ms.mp4	72.(short)stroke_with_finger_all_over_the_hand_short_vertflip_short_600ms.mp4	416.1716885373726	416.7800084278633	0.6083198904907476				
368.205078125	0.2	754084	329	51	3	0	0	41	306	stimuli\Videos_short_600ms_vertflip\42.single_slap_with_plastic_whisk_short_vertflip_short_600ms.mp4	42.single_slap_with_plastic_whisk_short_vertflip_short_600ms.mp4	416.97167487215256	417.5799938829078	0.6083190107551673				
369.0048828125	0.2	755722	330	51	3	0	0	42	115	stimuli\Videos_short_600ms_horflip\32.single_(long)pinch_with_fingers_short_horflip_short_600ms.mp4	32.single_(long)pinch_with_fingers_short_horflip_short_600ms.mp4	417.7716573947464	418.3799796311974	0.6083222364509311				
369.8046875	0.2	757360	331	51	3	0	0	43	271	stimuli\Videos_short_600ms_vertflip\10.single_touch_with_knife_short_vertflip_short_600ms.mp4	10.single_touch_with_knife_short_vertflip_short_600ms.mp4	418.57163786462434	419.17995951458533	0.6083216499609989				
370.60498046875	0.2	758999	332	51	3	0	0	44	208	stimuli\Videos_short_600ms_horvertflip\35.single_punch_with_hand_short_horvertflip_short_600ms.mp4	35.single_punch_with_hand_short_horvertflip_short_600ms.mp4	419.3716218534437	419.97994086419885	0.6083190107551673				
371.40478515625	0.2	760637	333	51	3	0	0	45	24	stimuli\Videos_short_600ms\31.hand_grabbing_wrist_short_short_600ms.mp4	31.hand_grabbing_wrist_short_short_600ms.mp4	420.17160056385137	420.7799277854688	0.6083272216174009				
372.20458984375	0.2	762275	334	51	3	0	0	46	58	stimuli\Videos_short_600ms\62.touch_top_to_bottom_with_scissors_short_short_600ms.mp4	62.touch_top_to_bottom_with_scissors_short_short_600ms.mp4	420.97157077015254	421.5799088418375	0.6083380716850115				
373.0048828125	0.2	763914	335	51	3	0	0	47	353	stimuli\Videos_short_600ms_vertflip\85.touch_top_to_bottom_with_fabric_short_vertflip_short_600ms.mp4	85.touch_top_to_bottom_with_fabric_short_vertflip_short_600ms.mp4	421.77154625486446	422.3798904846958	0.6083442298313457				
373.8046875	0.2	765552	336	51	3	0	0	48	254	stimuli\Videos_short_600ms_horvertflip\77.tapping_with_all_fingers_short_horvertflip_short_600ms.mp4	77.tapping_with_all_fingers_short_horvertflip_short_600ms.mp4	422.5715542897792	423.1798756464955	0.6083213567162602				
374.60498046875	0.2	767191	337	51	3	0	0	49	116	stimuli\Videos_short_600ms_horflip\33.scratch_top_to_bottom_with_scissors_short_horflip_short_600ms.mp4	33.scratch_top_to_bottom_with_scissors_short_horflip_short_600ms.mp4	423.3715359326379	423.9798602218048	0.6083242891668306				
375.40478515625	0.2	768829	338	51	3	0	0	50	292	stimuli\Videos_short_600ms_vertflip\3.single_push_with_finger_short_vertflip_short_600ms.mp4	3.single_push_with_finger_short_vertflip_short_600ms.mp4	424.1715216809275	424.7798439173789	0.6083222364513858				
376.20458984375	0.2	770467	339	51	3	0	0	51	52	stimuli\Videos_short_600ms\57.single_touch_with_nail_file_short_short_600ms.mp4	57.single_touch_with_nail_file_short_short_600ms.mp4	424.97150977517776	425.5798214548063	0.608311679628514				
377.0048828125	0.2	772106	340	51	3	0	0	52	216	stimuli\Videos_short_600ms_horvertflip\42.single_slap_with_plastic_whisk_short_horvertflip_short_600ms.mp4	42.single_slap_with_plastic_whisk_short_horvertflip_short_600ms.mp4	425.77148848558545	426.3798139477326	0.6083254621471497				
377.8046875	0.2	773744	341	51	3	0	0	53	108	stimuli\Videos_short_600ms_horflip\26.single_touch_with_a_blunt_syringe_short_horflip_short_600ms.mp4	26.single_touch_with_a_blunt_syringe_short_horflip_short_600ms.mp4	426.57146924870904	427.1797862067488	0.6083169580397225				
378.6044921875	0.2	775382	342	51	3	0	0	54	297	stimuli\Videos_short_600ms_vertflip\34.repeated_punch_with_hand_short_vertflip_short_600ms.mp4	34.repeated_punch_with_hand_short_vertflip_short_600ms.mp4	427.37146144839016	427.979774887489	0.6083134390987652				
379.40478515625	0.2	777021	343	51	3	0	0	55	169	stimuli\Videos_short_600ms_horflip\81.single_stroke_top_to_bottom_with_cotton_pad_short_horflip_short_600ms.mp4	81.single_stroke_top_to_bottom_with_cotton_pad_short_horflip_short_600ms.mp4	428.17143663985735	428.779757703328	0.608321063470612				
380.20458984375	0.2	778659	344	51	3	0	0	56	128	stimuli\Videos_short_600ms_horflip\44.pushing_top_to_bottom_with_finger_short_horflip_short_600ms.mp4	44.pushing_top_to_bottom_with_finger_short_horflip_short_600ms.mp4	428.97142209490175	429.5797522489697	0.6083301540679713				
381.00439453125	0.2	780297	345	51	3	0	0	57	285	stimuli\Videos_short_600ms_vertflip\23.single_push_with_a_spoon_short_vertflip_short_600ms.mp4	23.single_push_with_a_spoon_short_vertflip_short_600ms.mp4	429.7714028580249	430.37972421474115	0.6083213567162602				
381.8046875	0.2	781936	346	51	3	0	0	58	209	stimuli\Videos_short_600ms_horvertflip\36.single_slap_with_full_hand_short_horvertflip_short_600ms.mp4	36.single_slap_with_full_hand_short_horvertflip_short_600ms.mp4	430.5713853806187	431.1797064440898	0.6083210634710667				
382.6044921875	0.2	783574	347	51	3	0	0	59	90	stimuli\Videos_short_600ms_horflip\1.repeated_touch_with_finger_fast_short_horflip_short_600ms.mp4	1.repeated_touch_with_finger_fast_short_horflip_short_600ms.mp4	431.37136848970295	431.9796877937033	0.6083193040003607				
383.404296875	0.2	785212	348	51	3	0	0	60	291	stimuli\Videos_short_600ms_vertflip\29.single_pinch_with_tweezers_short_vertflip_short_600ms.mp4	29.single_pinch_with_tweezers_short_vertflip_short_600ms.mp4	432.17135247852184	432.7796706095419	0.6083181310200416				
384.20458984375	0.2	786851	349	51	3	0	1	61	377	stimuli\Targets_short_600ms_horvertflip\hand-stroke_short_vertflip_short_600ms.mp4	hand-stroke_short_vertflip_short_600ms.mp4	432.97133529436087	433.5796548916064	0.6083195972455542				
385.00439453125	0.2	788489	350	51	3	0	0	62	173	stimuli\Videos_short_600ms_horflip\85.touch_top_to_bottom_with_fabric_short_horflip_short_600ms.mp4	85.touch_top_to_bottom_with_fabric_short_horflip_short_600ms.mp4	433.771318989935	434.3796365344647	0.6083175445296547				
385.80419921875	0.2	790127	351	51	3	0	0	63	192	stimuli\Videos_short_600ms_horvertflip\20.single_touch_with_screwdriver_short_horvertflip_short_600ms.mp4	20.single_touch_with_screwdriver_short_horvertflip_short_600ms.mp4	434.5712991665682	435.1796202300389	0.608321063470612				
386.6044921875	0.2	791766	352	51	3	0	0	64	134	stimuli\Videos_short_600ms_horflip\5.repeated_tap_with_finger_moving_from_top_to_bottom_short_horflip_short_600ms.mp4	5.repeated_tap_with_finger_moving_from_top_to_bottom_short_horflip_short_600ms.mp4	435.37129107300416	435.9796045121034	0.60831343909922				
387.404296875	0.2	793404	353	51	3	0	0	65	242	stimuli\Videos_short_600ms_horvertflip\66.stroke_top_to_bottom_with_sponge_short_horvertflip_short_600ms.mp4	66.stroke_top_to_bottom_with_sponge_short_horvertflip_short_600ms.mp4	436.17126450500064	436.77958879416747	0.6083242891668306				
388.2041015625	0.2	795042	354	51	3	0	0	66	299	stimuli\Videos_short_600ms_vertflip\36.single_slap_with_full_hand_short_vertflip_short_600ms.mp4	36.single_slap_with_full_hand_short_vertflip_short_600ms.mp4	436.9712525992509	437.579570143781	0.6083175445301094				
389.00439453125	0.2	796681	355	51	3	0	0	67	177	stimuli\Videos_short_600ms_horflip\89.single_touch_with_plastic_brush_short_horflip_short_600ms.mp4	89.single_touch_with_plastic_brush_short_horflip_short_600ms.mp4	437.7712342421096	438.3795541325999	0.6083198904902929				
389.80419921875	0.2	798319	356	51	3	0	0	68	312	stimuli\Videos_short_600ms_vertflip\48.single_slap_with_hand_short_vertflip_short_600ms.mp4	48.single_slap_with_hand_short_vertflip_short_600ms.mp4	438.5711924253624	439.1795372416841	0.6083448163217327				
390.60400390625	0.2	799957	357	51	3	0	0	69	27	stimuli\Videos_short_600ms\34.repeated_punch_with_hand_short_short_600ms.mp4	34.repeated_punch_with_hand_short_short_600ms.mp4	439.3712004602776	439.9795200575227	0.6083195972450994				
391.404296875	0.2	801596	358	51	3	0	0	70	336	stimuli\Videos_short_600ms_vertflip\7.repeated_touch_with_hairbrush_short_vertflip_short_600ms.mp4	7.repeated_touch_with_hairbrush_short_vertflip_short_600ms.mp4	440.17118474234167	440.7795034598521	0.6083187175104285				
392.2041015625	0.2	803234	359	51	3	0	0	71	63	stimuli\Videos_short_600ms\67.single_touch_with_sponge_short_short_600ms.mp4	67.single_touch_with_sponge_short_short_600ms.mp4	440.9711728365919	441.57949096761195	0.6083181310200416				
393.00439453125	0.2	804873	360	51	3	0	0	72	4	stimuli\Videos_short_600ms\13.single_touch_with_pen_short_short_600ms.mp4	13.single_touch_with_pen_short_short_600ms.mp4	441.77114802805863	442.3794441656987	0.6082961376400817				
393.80419921875	0.2	806511	361	51	3	0	0	73	113	stimuli\Videos_short_600ms_horflip\30.finger_pulling_back_another_finger_short_horflip_short_600ms.mp4	30.finger_pulling_back_another_finger_short_horflip_short_600ms.mp4	442.5711334831035	443.1794530803486	0.6083195972450994				
394.60400390625	0.2	808149	362	51	3	0	0	74	230	stimuli\Videos_short_600ms_horvertflip\55.touch_top_to_bottom_with_nail_file_short_horvertflip_short_600ms.mp4	55.touch_top_to_bottom_with_nail_file_short_horvertflip_short_600ms.mp4	443.3711133664915	443.9794344299621	0.608321063470612				
395.404296875	0.2	809788	363	51	3	0	0	75	84	stimuli\Videos_short_600ms\86.touch_top_to_bottom_with_hair_brush_short_short_600ms.mp4	86.touch_top_to_bottom_with_hair_brush_short_short_600ms.mp4	444.1710991147811	444.77941871202665	0.6083195972455542				
396.2041015625	0.2	811426	364	51	3	0	0	76	38	stimuli\Videos_short_600ms\44.pushing_top_to_bottom_with_finger_short_short_600ms.mp4	44.pushing_top_to_bottom_with_finger_short_short_600ms.mp4	444.9710807576398	445.5794073927668	0.608326635127014				
397.00390625	0.2	813064	365	51	3	0	0	77	191	stimuli\Videos_short_600ms_horvertflip\2.single_touch_with_finger_short_horvertflip_short_600ms.mp4	2.single_touch_with_finger_short_horvertflip_short_600ms.mp4	445.7710638667236	446.37939020860586	0.6083263418822753				
397.80419921875	0.2	814703	366	51	3	0	0	78	219	stimuli\Videos_short_600ms_horvertflip\45.scratching_with_finger_nails_short_horvertflip_short_600ms.mp4	45.scratching_with_finger_nails_short_horvertflip_short_600ms.mp4	446.57104697580735	447.17936891901354	0.6083219432061924				
398.60400390625	0.2	816341	367	51	3	0	0	79	171	stimuli\Videos_short_600ms_horflip\83.single_stroke_top_to_bottom_with_cotton_bud_short_horflip_short_600ms.mp4	83.single_stroke_top_to_bottom_with_cotton_bud_short_horflip_short_600ms.mp4	447.3710318443618	447.9793628781649	0.6083310338030969				
399.40380859375	0.2	817979	368	51	3	0	0	80	103	stimuli\Videos_short_600ms_horflip\21.repeated_touch_with_metal_chopstick_short_horflip_short_600ms.mp4	21.repeated_touch_with_metal_chopstick_short_horflip_short_600ms.mp4	448.17101319397534	448.7793330844661	0.6083198904907476				
400.2041015625	0.2	819618	369	51	3	0	0	81	235	stimuli\Videos_short_600ms_horvertflip\6.single_touch_with_flat_hand_short_horvertflip_short_600ms.mp4	6.single_touch_with_flat_hand_short_horvertflip_short_600ms.mp4	448.970995423324	449.579317073285	0.6083216499609989				
401.00390625	0.2	821256	370	51	3	0	0	82	50	stimuli\Videos_short_600ms\55.touch_top_to_bottom_with_nail_file_short_short_600ms.mp4	55.touch_top_to_bottom_with_nail_file_short_short_600ms.mp4	449.7709779459178	450.37930164859426	0.6083237026764436				
401.8037109375	0.2	822894	371	51	3	0	0	83	239	stimuli\Videos_short_600ms_horvertflip\63.stroke_top_to_bottom_with_screwdriver_short_horvertflip_short_600ms.mp4	63.stroke_top_to_bottom_with_screwdriver_short_horvertflip_short_600ms.mp4	450.5709639874526	451.1792844644333	0.6083204769806798				
402.60400390625	0.2	824533	372	51	3	0	0	84	155	stimuli\Videos_short_600ms_horflip\69.stroke_with_soft_sock_short_horflip_short_600ms.mp4	69.stroke_with_soft_sock_short_horflip_short_600ms.mp4	451.3709473897816	451.9792690397426	0.6083216499609989				
403.40380859375	0.2	826171	373	51	3	0	0	85	65	stimuli\Videos_short_600ms\69.stroke_with_soft_sock_short_short_600ms.mp4	69.stroke_with_soft_sock_short_short_600ms.mp4	452.170910851446	452.7792503893561	0.6083395379100693				
404.20361328125	0.2	827809	374	51	3	0	0	86	122	stimuli\Videos_short_600ms_horflip\39.single_stab_with_scissors_short_horflip_short_600ms.mp4	39.single_stab_with_scissors_short_horflip_short_600ms.mp4	452.9709139011943	453.57923437817544	0.6083204769811346				
