onset	duration	onsetsample	eventnumber	subjectnr	sequencenumber	blocksequencenumber	istarget	presentationnumber	stimnumber	stim	stimname	time_stimon	time_stimoff	stimdur	cresp	resp	rt	correct
50.2744140625	0.2	102962	0	32	0	0	0	0	183	stimuli\Videos_short_600ms_horvertflip\12.repeated_touch_with_nail_file_short_horvertflip_short_600ms.mp4	12.repeated_touch_with_nail_file_short_horvertflip_short_600ms.mp4	54.444542486620776	55.052629001460446	0.6080865148396697				
51.07421875	0.2	104600	1	32	0	0	0	1	41	stimuli\Videos_short_600ms\47.(long)scratching_with_finger_nails_short_short_600ms.mp4	47.(long)scratching_with_finger_nails_short_short_600ms.mp4	55.24429920908369	55.85261680239637	0.6083175933126768				
51.87451171875	0.2	106239	2	32	0	0	0	2	120	stimuli\Videos_short_600ms_horflip\37.single_stab_with_nail_file_short_horflip_short_600ms.mp4	37.single_stab_with_nail_file_short_horflip_short_600ms.mp4	56.044402256004105	56.65260782904443	0.6082055730403226				
52.67431640625	0.2	107877	3	32	0	0	0	3	216	stimuli\Videos_short_600ms_horvertflip\42.single_slap_with_plastic_whisk_short_horvertflip_short_600ms.mp4	42.single_slap_with_plastic_whisk_short_horvertflip_short_600ms.mp4	56.84431146679708	57.45261791673329	0.6083064499362081				
53.47412109375	0.2	109515	4	32	0	0	1	4	363	stimuli\Targets_short_600ms\finger-tap_short_short_600ms.mp4	finger-tap_short_short_600ms.mp4	57.64425997266153	58.25260131896357	0.6083413463020406				
54.2744140625	0.2	111154	5	32	0	0	0	5	167	stimuli\Videos_short_600ms_horflip\8.single_touch_with_hairbrush_short_horflip_short_600ms.mp4	8.single_touch_with_hairbrush_short_horflip_short_600ms.mp4	58.44421932865589	59.0525888266493	0.608369497993408				
55.07421875	0.2	112792	6	32	0	0	0	6	286	stimuli\Videos_short_600ms_vertflip\24.single_stroke_top_to_bottom_with_a_spoon_short_vertflip_short_600ms.mp4	24.single_stroke_top_to_bottom_with_a_spoon_short_vertflip_short_600ms.mp4	59.24428308050847	59.85258689122202	0.6083038107135508				
55.8740234375	0.2	114430	7	32	0	0	0	7	101	stimuli\Videos_short_600ms_horflip\2.single_touch_with_finger_short_horflip_short_600ms.mp4	2.single_touch_with_finger_short_horflip_short_600ms.mp4	60.04425651234851	60.652578211116634	0.6083216987681226				
56.67431640625	0.2	116069	8	32	0	0	0	8	218	stimuli\Videos_short_600ms_horvertflip\44.pushing_top_to_bottom_with_finger_short_horvertflip_short_600ms.mp4	44.pushing_top_to_bottom_with_finger_short_horvertflip_short_600ms.mp4	60.84431615874564	61.4525487104911	0.6082325517454592				
57.47412109375	0.2	117707	9	32	0	0	0	9	306	stimuli\Videos_short_600ms_vertflip\42.single_slap_with_plastic_whisk_short_vertflip_short_600ms.mp4	42.single_slap_with_plastic_whisk_short_vertflip_short_600ms.mp4	61.64416437420732	62.25253856414929	0.6083741899419692				
58.27392578125	0.2	119345	10	32	0	0	1	10	373	stimuli\Targets_short_600ms_horvertflip\chopstick-silver-tap_short_vertflip_short_600ms.mp4	chopstick-silver-tap_short_vertflip_short_600ms.mp4	62.44417240917028	63.05252724482489	0.6083548356546089				
59.07421875	0.2	120984	11	32	0	0	0	11	125	stimuli\Videos_short_600ms_horflip\41.injection_with_blunt_syringe_short_horflip_short_600ms.mp4	41.injection_with_blunt_syringe_short_horflip_short_600ms.mp4	63.24465374445208	63.85251680524016	0.6078630607880768				
59.8740234375	0.2	122622	12	32	0	0	0	12	154	stimuli\Videos_short_600ms_horflip\68.stroke_top_to_bottom_with_shawl_short_horflip_short_600ms.mp4	68.stroke_top_to_bottom_with_shawl_short_horflip_short_600ms.mp4	64.04420607390057	64.6525028466931	0.6082967727925279				
60.673828125	0.2	124260	13	32	0	0	1	13	360	stimuli\Targets_short_600ms\brush-stroke_short_short_600ms.mp4	brush-stroke_short_short_600ms.mp4	64.84417481379569	65.45248800840272	0.6083131946070353				
61.47412109375	0.2	125899	14	32	0	0	0	14	129	stimuli\Videos_short_600ms_horflip\45.scratching_with_finger_nails_short_horflip_short_600ms.mp4	45.scratching_with_finger_nails_short_horflip_short_600ms.mp4	65.64415029836164	66.25247551609209	0.608325217730453				
62.27392578125	0.2	127537	15	32	0	0	0	15	159	stimuli\Videos_short_600ms_horflip\72.(short)stroke_with_finger_all_over_the_hand_short_horflip_short_600ms.mp4	72.(short)stroke_with_finger_all_over_the_hand_short_horflip_short_600ms.mp4	66.44415158865013	67.05246331702438	0.6083117283742467				
63.07373046875	0.2	129175	16	32	0	0	0	16	28	stimuli\Videos_short_600ms\35.single_punch_with_hand_short_short_600ms.mp4	35.single_punch_with_hand_short_short_600ms.mp4	67.24414994646577	67.85245405042588	0.6083041039601085				
63.8740234375	0.2	130814	17	32	0	0	0	17	72	stimuli\Videos_short_600ms\75.(long)stroke_with_fingers_all_over_the_hand_short_short_600ms.mp4	75.(long)stroke_with_fingers_all_over_the_hand_short_short_600ms.mp4	68.04410402401845	68.65243833239947	0.6083343083810178				
64.673828125	0.2	132452	18	32	0	0	0	18	186	stimuli\Videos_short_600ms_horvertflip\15.single_stroke_top_to_bottom_with_a_plastic_whisk_short_horvertflip_short_600ms.mp4	15.single_stroke_top_to_bottom_with_a_plastic_whisk_short_horvertflip_short_600ms.mp4	68.84406631248203	69.45242466709897	0.6083583546169393				
65.47412109375	0.2	134091	19	32	0	0	0	19	137	stimuli\Videos_short_600ms_horflip\52.touch_top_to_bottom_with_hammer_short_horflip_short_600ms.mp4	52.touch_top_to_bottom_with_hammer_short_horflip_short_600ms.mp4	69.64414120771107	70.25242038569559	0.6082791779845138				
66.27392578125	0.2	135729	20	32	0	0	0	20	61	stimuli\Videos_short_600ms\65.stroke_top_to_bottom_with_stanley_knife_short_short_600ms.mp4	65.stroke_top_to_bottom_with_stanley_knife_short_short_600ms.mp4	70.44440231465342	71.05239968247042	0.6079973678170063				
67.07373046875	0.2	137367	21	32	0	0	0	21	344	stimuli\Videos_short_600ms_vertflip\77.tapping_with_all_fingers_short_vertflip_short_600ms.mp4	77.tapping_with_all_fingers_short_vertflip_short_600ms.mp4	71.2440924700968	71.85238836314602	0.6082958930492168				
67.8740234375	0.2	139006	22	32	0	0	0	22	145	stimuli\Videos_short_600ms_horflip\6.single_touch_with_flat_hand_short_horflip_short_600ms.mp4	6.single_touch_with_flat_hand_short_horflip_short_600ms.mp4	72.04402836634836	72.65237821680785	0.60834985045949				
68.673828125	0.2	140644	23	32	0	0	0	23	115	stimuli\Videos_short_600ms_horflip\32.single_(long)pinch_with_fingers_short_horflip_short_600ms.mp4	32.single_(long)pinch_with_fingers_short_horflip_short_600ms.mp4	72.84407217741682	73.4523668974798	0.608294720062986				
69.4736328125	0.2	142282	24	32	0	0	1	24	374	stimuli\Targets_short_600ms_horvertflip\chopstickwood-tap_short_vertflip_short_600ms.mp4	chopstickwood-tap_short_vertflip_short_600ms.mp4	73.64400338171981	74.25235235243963	0.6083489707198169				
70.27392578125	0.2	143921	25	32	0	0	0	25	94	stimuli\Videos_short_600ms_horflip\13.single_touch_with_pen_short_horflip_short_600ms.mp4	13.single_touch_with_pen_short_horflip_short_600ms.mp4	74.44410202994186	75.05235129675202	0.6082492668101622				
71.07373046875	0.2	145559	26	32	0	0	1	26	364	stimuli\Targets_short_600ms\hand-pinch_short_short_600ms.mp4	hand-pinch_short_short_600ms.mp4	75.24402824904973	75.85232971378719	0.6083014647374512				
71.87353515625	0.2	147197	27	32	0	0	0	27	348	stimuli\Videos_short_600ms_vertflip\80.stroke_with_sharp_stick_all_over_the_hand_short_vertflip_short_600ms.mp4	80.stroke_with_sharp_stick_all_over_the_hand_short_vertflip_short_600ms.mp4	76.0439729427053	76.65231751471947	0.6083445720141754				
72.673828125	0.2	148836	28	32	0	0	0	28	95	stimuli\Videos_short_600ms_horflip\14.repeated_touch_with_pencil_short_horflip_short_600ms.mp4	14.repeated_touch_with_pencil_short_horflip_short_600ms.mp4	76.8439276067511	77.45230414266553	0.6083765359144309				
73.4736328125	0.2	150474	29	32	0	0	0	29	195	stimuli\Videos_short_600ms_horvertflip\23.single_push_with_a_spoon_short_horvertflip_short_600ms.mp4	23.single_push_with_a_spoon_short_horvertflip_short_600ms.mp4	77.64391921989227	78.25229311658768	0.6083738966954115				
74.2734375	0.2	152112	30	32	0	0	0	30	162	stimuli\Videos_short_600ms_horflip\75.(long)stroke_with_fingers_all_over_the_hand_short_horflip_short_600ms.mp4	75.(long)stroke_with_fingers_all_over_the_hand_short_horflip_short_600ms.mp4	78.44403575616525	79.05228033102685	0.608244574861601				
75.07373046875	0.2	153751	31	32	0	0	0	31	288	stimuli\Videos_short_600ms_vertflip\26.single_touch_with_a_blunt_syringe_short_vertflip_short_600ms.mp4	26.single_touch_with_a_blunt_syringe_short_vertflip_short_600ms.mp4	79.24389922046248	79.85226725221946	0.6083680317569815				
75.87353515625	0.2	155389	32	32	0	0	0	32	3	stimuli\Videos_short_600ms\12.repeated_touch_with_nail_file_short_short_600ms.mp4	12.repeated_touch_with_nail_file_short_short_600ms.mp4	80.04400754582457	80.6522556396485	0.6082480938239314				
76.67333984375	0.2	157027	33	32	0	0	0	33	273	stimuli\Videos_short_600ms_vertflip\12.repeated_touch_with_nail_file_short_vertflip_short_600ms.mp4	12.repeated_touch_with_nail_file_short_vertflip_short_600ms.mp4	80.84392467428188	81.45224226759456	0.6083175933126768				
77.4736328125	0.2	158666	34	32	0	0	0	34	228	stimuli\Videos_short_600ms_horvertflip\53.touch_top_to_bottom_with_knife_short_horvertflip_short_600ms.mp4	53.touch_top_to_bottom_with_knife_short_horvertflip_short_600ms.mp4	81.6439077832656	82.25222713606126	0.608319352795661				
78.2734375	0.2	160304	35	32	0	0	0	35	278	stimuli\Videos_short_600ms_vertflip\17.repeated_touch_with_rolling_pin_short_vertflip_short_600ms.mp4	17.repeated_touch_with_rolling_pin_short_vertflip_short_600ms.mp4	82.44391757771155	83.05221464374699	0.6082970660354476				
79.0732421875	0.2	161942	36	32	0	0	0	36	89	stimuli\Videos_short_600ms\90.repeated_touch_with_sponge_short_short_600ms.mp4	90.repeated_touch_with_sponge_short_short_600ms.mp4	83.24386989578124	83.8522030311724	0.608333135391149				
79.87353515625	0.2	163581	37	32	0	0	0	37	276	stimuli\Videos_short_600ms_vertflip\15.single_stroke_top_to_bottom_with_a_plastic_whisk_short_vertflip_short_600ms.mp4	15.single_stroke_top_to_bottom_with_a_plastic_whisk_short_vertflip_short_600ms.mp4	84.04390901490478	84.65219493756376	0.608285922658979				
80.67333984375	0.2	165219	38	32	0	0	0	38	187	stimuli\Videos_short_600ms_horvertflip\16.repeated_touch_with_plastic_brush_short_horvertflip_short_600ms.mp4	16.repeated_touch_with_plastic_brush_short_horvertflip_short_600ms.mp4	84.84385429505346	85.45217980602683	0.6083255109733727				
81.47314453125	0.2	166857	39	32	0	0	0	39	96	stimuli\Videos_short_600ms_horflip\15.single_stroke_top_to_bottom_with_a_plastic_whisk_short_horflip_short_600ms.mp4	15.single_stroke_top_to_bottom_with_a_plastic_whisk_short_horflip_short_600ms.mp4	85.64395235677875	86.25216467449354	0.6082123177147878				
82.2734375	0.2	168496	40	32	0	0	0	40	136	stimuli\Videos_short_600ms_horflip\51.repeated_touch_with_hammer_short_horflip_short_600ms.mp4	51.repeated_touch_with_hammer_short_horflip_short_600ms.mp4	86.44385716886973	87.05213370763158	0.6082765387618565				
83.0732421875	0.2	170134	41	32	0	0	0	41	90	stimuli\Videos_short_600ms_horflip\1.repeated_touch_with_finger_fast_short_horflip_short_600ms.mp4	1.repeated_touch_with_finger_fast_short_horflip_short_600ms.mp4	87.24381769785396	87.85214966025887	0.6083319624049182				
83.873046875	0.2	171772	42	32	0	0	0	42	175	stimuli\Videos_short_600ms_horflip\87.single_stroke_top_to_bottom_with_plastic_brush_short_horflip_short_600ms.mp4	87.single_stroke_top_to_bottom_with_plastic_brush_short_horflip_short_600ms.mp4	88.04378849047134	88.6521327692426	0.6083442787712556				
84.67333984375	0.2	173411	43	32	0	0	0	43	222	stimuli\Videos_short_600ms_horvertflip\48.single_slap_with_hand_short_horvertflip_short_600ms.mp4	48.single_slap_with_hand_short_horvertflip_short_600ms.mp4	88.84380209712253	89.4521191039421	0.6083170068195614				
85.47314453125	0.2	175049	44	32	0	0	0	44	143	stimuli\Videos_short_600ms_horflip\58.single_slap_with_pencil_short_horflip_short_600ms.mp4	58.single_slap_with_pencil_short_horflip_short_600ms.mp4	89.64374649753154	90.25211042383673	0.6083639263051737				
86.2734375	0.2	176688	45	32	0	0	0	45	259	stimuli\Videos_short_600ms_horvertflip\81.single_stroke_top_to_bottom_with_cotton_pad_short_horvertflip_short_600ms.mp4	81.single_stroke_top_to_bottom_with_cotton_pad_short_horvertflip_short_600ms.mp4	90.44393370628312	91.05209587879654	0.6081621725134028				
87.0732421875	0.2	178326	46	32	0	0	0	46	307	stimuli\Videos_short_600ms_vertflip\43.touch_top_to_bottom_with_sharp_wooden_stick_short_vertflip_short_600ms.mp4	43.touch_top_to_bottom_with_sharp_wooden_stick_short_vertflip_short_600ms.mp4	91.2438253222681	91.85208719869117	0.6082618764230574				
87.873046875	0.2	179964	47	32	0	0	1	47	376	stimuli\Targets_short_600ms_horvertflip\hand-pinch_short_vertflip_short_600ms.mp4	hand-pinch_short_vertflip_short_600ms.mp4	92.0437424507254	92.65207324014408	0.6083307894186873				
88.67333984375	0.2	181603	48	32	0	0	0	48	318	stimuli\Videos_short_600ms_vertflip\53.touch_top_to_bottom_with_knife_short_vertflip_short_600ms.mp4	53.touch_top_to_bottom_with_knife_short_vertflip_short_600ms.mp4	92.84369095658984	93.45205898835049	0.6083680317606195				
89.47314453125	0.2	183241	49	32	0	0	1	49	371	stimuli\Targets_short_600ms_horflip\hand-stroke_short_horflip_short_600ms.mp4	hand-stroke_short_horflip_short_600ms.mp4	93.6437429785692	94.25200426849916	0.608261289929942				
90.27294921875	0.2	184879	50	32	0	0	0	50	352	stimuli\Videos_short_600ms_vertflip\84.single_touch_with_cotton_bud_short_vertflip_short_600ms.mp4	84.single_touch_with_cotton_bud_short_vertflip_short_600ms.mp4	94.44367066391352	95.05204866606437	0.6083780021508574				
91.0732421875	0.2	186518	51	32	0	0	0	51	256	stimuli\Videos_short_600ms_horvertflip\79.long_with_soft_brush_all_over_the_hand_short_horvertflip_short_600ms.mp4	79.long_with_soft_brush_all_over_the_hand_short_horvertflip_short_600ms.mp4	95.24365172017131	95.85202092491818	0.6083692047468503				
91.873046875	0.2	188156	52	32	0	0	0	52	333	stimuli\Videos_short_600ms_vertflip\67.single_touch_with_sponge_short_vertflip_short_600ms.mp4	67.single_touch_with_sponge_short_vertflip_short_600ms.mp4	96.0436365886344	96.65201195156624	0.608375362931838				
92.6728515625	0.2	189794	53	32	0	0	0	53	116	stimuli\Videos_short_600ms_horflip\33.scratch_top_to_bottom_with_scissors_short_horflip_short_600ms.mp4	33.scratch_top_to_bottom_with_scissors_short_horflip_short_600ms.mp4	96.8436457965836	97.45199652678276	0.6083507301991631				
93.47314453125	0.2	191433	54	32	0	0	0	54	315	stimuli\Videos_short_600ms_vertflip\50.single_(long)hard_push_with_thumb_short_vertflip_short_600ms.mp4	50.single_(long)hard_push_with_thumb_short_vertflip_short_600ms.mp4	97.64362567985518	98.25198638044458	0.608360700589401				
94.27294921875	0.2	193071	55	32	0	0	0	55	192	stimuli\Videos_short_600ms_horvertflip\20.single_touch_with_screwdriver_short_horvertflip_short_600ms.mp4	20.single_touch_with_screwdriver_short_horvertflip_short_600ms.mp4	98.44373869716948	99.0519733016372	0.6082346044677251				
95.07275390625	0.2	194709	56	32	0	0	0	56	27	stimuli\Videos_short_600ms\34.repeated_punch_with_hand_short_short_600ms.mp4	34.repeated_punch_with_hand_short_short_600ms.mp4	99.24368221783516	99.85193617659388	0.6082539587587235				
95.873046875	0.2	196348	57	32	0	0	0	57	266	stimuli\Videos_short_600ms_horvertflip\88.repeated_stroke_with_plastic_brush_short_horvertflip_short_600ms.mp4	88.repeated_stroke_with_plastic_brush_short_horvertflip_short_600ms.mp4	100.04376297800265	100.65195212922116	0.6081891512185393				
96.6728515625	0.2	197986	58	32	0	0	0	58	212	stimuli\Videos_short_600ms_horvertflip\39.single_stab_with_scissors_short_horvertflip_short_600ms.mp4	39.single_stab_with_scissors_short_horvertflip_short_600ms.mp4	100.84369623503152	101.45193406521868	0.6082378301871358				
97.47265625	0.2	199624	59	32	0	0	0	59	252	stimuli\Videos_short_600ms_horvertflip\75.(long)stroke_with_fingers_all_over_the_hand_short_horvertflip_short_600ms.mp4	75.(long)stroke_with_fingers_all_over_the_hand_short_horvertflip_short_600ms.mp4	101.64376526532578	102.25192773108574	0.6081624657599605				
98.27294921875	0.2	201263	60	32	0	0	0	60	320	stimuli\Videos_short_600ms_vertflip\55.touch_top_to_bottom_with_nail_file_short_vertflip_short_600ms.mp4	55.touch_top_to_bottom_with_nail_file_short_vertflip_short_600ms.mp4	102.4435853290961	103.05190174942254	0.608316420326446				
99.07275390625	0.2	202901	61	32	0	0	0	61	334	stimuli\Videos_short_600ms_vertflip\68.stroke_top_to_bottom_with_shawl_short_vertflip_short_600ms.mp4	68.stroke_top_to_bottom_with_shawl_short_vertflip_short_600ms.mp4	103.24357782197694	103.85190538567986	0.6083275637029146				
99.87255859375	0.2	204539	62	32	0	0	0	62	81	stimuli\Videos_short_600ms\83.single_stroke_top_to_bottom_with_cotton_bud_short_short_600ms.mp4	83.single_stroke_top_to_bottom_with_cotton_bud_short_short_600ms.mp4	104.04363805487084	104.651885562198	0.608247507327178				
100.6728515625	0.2	206178	63	32	0	0	0	63	56	stimuli\Videos_short_600ms\60.single_push_with_tip_of_pencil_short_short_600ms.mp4	60.single_push_with_tip_of_pencil_short_short_600ms.mp4	104.84359271891664	105.45189007819864	0.6082973592820053				
101.47265625	0.2	207816	64	32	0	0	1	64	382	stimuli\Targets_short_600ms_vertflip\hand-pinch_short_horvertflip_short_600ms.mp4	hand-pinch_short_horvertflip_short_600ms.mp4	105.6435863847837	106.25186380328525	0.6082774185015296				
102.2724609375	0.2	209454	65	32	0	0	0	65	23	stimuli\Videos_short_600ms\30.finger_pulling_back_another_finger_short_short_600ms.mp4	30.finger_pulling_back_another_finger_short_short_600ms.mp4	106.44361846598258	107.05185043123129	0.6082319652487058				
103.07275390625	0.2	211093	66	32	0	0	0	66	87	stimuli\Videos_short_600ms\89.single_touch_with_plastic_brush_short_short_600ms.mp4	89.single_touch_with_plastic_brush_short_short_600ms.mp4	107.24350011158094	107.8518382321672	0.6083381205862679				
103.87255859375	0.2	212731	67	32	0	0	0	67	126	stimuli\Videos_short_600ms_horflip\42.single_slap_with_plastic_whisk_short_horflip_short_600ms.mp4	42.single_slap_with_plastic_whisk_short_horflip_short_600ms.mp4	108.04408554947076	108.65182720608573	0.6077416566149623				
104.67236328125	0.2	214369	68	32	0	0	0	68	124	stimuli\Videos_short_600ms_horflip\40.repeated_push_with_finger_short_horflip_short_600ms.mp4	40.repeated_push_with_finger_short_horflip_short_600ms.mp4	108.84405399611568	109.4518153002682	0.6077613041525183				
105.47265625	0.2	216008	69	32	0	0	0	69	40	stimuli\Videos_short_600ms\46.scratching_top_to_bottom_with_finger_nails_short_short_600ms.mp4	46.scratching_top_to_bottom_with_finger_nails_short_short_600ms.mp4	109.64349401204528	110.25180280795394	0.6083087959086697				
106.2724609375	0.2	217646	70	32	0	0	0	70	164	stimuli\Videos_short_600ms_horflip\77.tapping_with_all_fingers_short_horflip_short_600ms.mp4	77.tapping_with_all_fingers_short_horflip_short_600ms.mp4	110.4437316592448	111.05179031563966	0.60805865639486				
107.07275390625	0.2	219285	71	32	0	0	0	71	58	stimuli\Videos_short_600ms\62.touch_top_to_bottom_with_scissors_short_short_600ms.mp4	62.touch_top_to_bottom_with_scissors_short_short_600ms.mp4	111.24341301728418	111.85177782332904	0.6083648060448468				
107.87255859375	0.2	220923	72	32	0	0	0	72	329	stimuli\Videos_short_600ms_vertflip\63.stroke_top_to_bottom_with_screwdriver_short_vertflip_short_600ms.mp4	63.stroke_top_to_bottom_with_screwdriver_short_vertflip_short_600ms.mp4	112.0433999384768	112.65176445127508	0.6083645127982891				
108.67236328125	0.2	222561	73	32	0	0	0	73	245	stimuli\Videos_short_600ms_horvertflip\69.stroke_with_soft_sock_short_horvertflip_short_600ms.mp4	69.stroke_with_soft_sock_short_horvertflip_short_600ms.mp4	112.84348011214752	113.45175313194704	0.6082730197995261				
109.47265625	0.2	224200	74	32	0	0	0	74	55	stimuli\Videos_short_600ms\6.single_touch_with_flat_hand_short_short_600ms.mp4	6.single_touch_with_flat_hand_short_short_600ms.mp4	113.6434916660728	114.25173800041377	0.6082463343409472				
110.2724609375	0.2	225838	75	32	0	0	0	75	272	stimuli\Videos_short_600ms_vertflip\11.single_touch_with_lighter_short_vertflip_short_600ms.mp4	11.single_touch_with_lighter_short_vertflip_short_600ms.mp4	114.4434357732316	115.05173225277758	0.6082964795459702				
111.072265625	0.2	227476	76	32	0	0	0	76	295	stimuli\Videos_short_600ms_vertflip\32.single_(long)pinch_with_fingers_short_vertflip_short_600ms.mp4	32.single_(long)pinch_with_fingers_short_vertflip_short_600ms.mp4	115.24346345573213	115.85169747370674	0.6082340179746097				
111.87255859375	0.2	229115	77	32	0	0	0	77	225	stimuli\Videos_short_600ms_horvertflip\50.single_(long)hard_push_with_thumb_short_horvertflip_short_600ms.mp4	50.single_(long)hard_push_with_thumb_short_horvertflip_short_600ms.mp4	116.04338556938455	116.65170110996768	0.6083155405831349				
112.67236328125	0.2	230753	78	32	0	0	0	78	264	stimuli\Videos_short_600ms_horvertflip\86.touch_top_to_bottom_with_hair_brush_short_horvertflip_short_600ms.mp4	86.touch_top_to_bottom_with_hair_brush_short_horvertflip_short_600ms.mp4	116.84348421760296	117.4516666241434	0.6081824065404362				
113.47216796875	0.2	232391	79	32	0	0	0	79	336	stimuli\Videos_short_600ms_vertflip\7.repeated_touch_with_hairbrush_short_vertflip_short_600ms.mp4	7.repeated_touch_with_hairbrush_short_vertflip_short_600ms.mp4	117.64335882527666	118.2516611697538	0.6083023444771243				
114.2724609375	0.2	234030	80	32	0	0	0	80	323	stimuli\Videos_short_600ms_vertflip\58.single_slap_with_pencil_short_vertflip_short_600ms.mp4	58.single_slap_with_pencil_short_vertflip_short_600ms.mp4	118.44336920621208	119.05166421952164	0.6082950133095437				
115.072265625	0.2	235668	81	32	0	0	0	81	244	stimuli\Videos_short_600ms_horvertflip\68.stroke_top_to_bottom_with_shawl_short_horvertflip_short_600ms.mp4	68.stroke_top_to_bottom_with_shawl_short_horvertflip_short_600ms.mp4	119.24394408721857	119.85165935162512	0.6077152644065791				
115.8720703125	0.2	237306	82	32	0	0	0	82	11	stimuli\Videos_short_600ms\2.single_touch_with_finger_short_short_600ms.mp4	2.single_touch_with_finger_short_short_600ms.mp4	120.04386297515885	120.65164920528696	0.607786230128113				
116.67236328125	0.2	238945	83	32	0	0	0	83	221	stimuli\Videos_short_600ms_horvertflip\47.(long)scratching_with_finger_nails_short_horvertflip_short_600ms.mp4	47.(long)scratching_with_finger_nails_short_horvertflip_short_600ms.mp4	120.844046078455	121.45163231427068	0.6075862358156883				
117.47216796875	0.2	240583	84	32	0	0	0	84	260	stimuli\Videos_short_600ms_horvertflip\82.repeated_touch_with_cotton_bud_short_horvertflip_short_600ms.mp4	82.repeated_touch_with_cotton_bud_short_horvertflip_short_600ms.mp4	121.64346879282311	122.25162979234663	0.608160999523534				
118.27197265625	0.2	242221	85	32	0	0	0	85	49	stimuli\Videos_short_600ms\54.repeated_touch_with_knife_short_short_600ms.mp4	54.repeated_touch_with_knife_short_short_600ms.mp4	122.44328123217564	123.051608502632	0.6083272704563569				
119.072265625	0.2	243860	86	32	0	0	1	86	369	stimuli\Targets_short_600ms_horflip\finger-tap_short_horflip_short_600ms.mp4	finger-tap_short_horflip_short_600ms.mp4	123.24330422272396	123.85159513057806	0.6082909078540979				
119.8720703125	0.2	245498	87	32	0	0	0	87	106	stimuli\Videos_short_600ms_horflip\24.single_stroke_top_to_bottom_with_a_spoon_short_horflip_short_600ms.mp4	24.single_stroke_top_to_bottom_with_a_spoon_short_horflip_short_600ms.mp4	124.04326973689967	124.65158381125002	0.6083140743503463				
120.671875	0.2	247136	88	32	0	0	0	88	138	stimuli\Videos_short_600ms_horflip\53.touch_top_to_bottom_with_knife_short_horflip_short_600ms.mp4	53.touch_top_to_bottom_with_knife_short_horflip_short_600ms.mp4	124.84334991057403	125.45157014594952	0.6082202353754838				
121.47216796875	0.2	248775	89	32	0	0	0	89	25	stimuli\Videos_short_600ms\32.single_(long)pinch_with_fingers_short_short_600ms.mp4	32.single_(long)pinch_with_fingers_short_short_600ms.mp4	125.64319783278916	126.25155853337856	0.608360700589401				
122.27197265625	0.2	250413	90	32	0	0	0	90	189	stimuli\Videos_short_600ms_horvertflip\18.single_stroke_from_top_to_bottom_with_rolling_pin_short_horvertflip_short_600ms.mp4	18.single_stroke_from_top_to_bottom_with_rolling_pin_short_horvertflip_short_600ms.mp4	126.44322023684072	127.05154486807804	0.6083246312373376				
123.07177734375	0.2	252051	91	32	0	0	0	91	113	stimuli\Videos_short_600ms_horflip\30.finger_pulling_back_another_finger_short_horflip_short_600ms.mp4	30.finger_pulling_back_another_finger_short_horflip_short_600ms.mp4	127.24320921076288	127.8515329622569	0.6083237514940265				
123.8720703125	0.2	253690	92	32	0	0	0	92	242	stimuli\Videos_short_600ms_horvertflip\66.stroke_top_to_bottom_with_sponge_short_horvertflip_short_600ms.mp4	66.stroke_top_to_bottom_with_sponge_short_horvertflip_short_600ms.mp4	128.04317531143533	128.65152252267217	0.6083472112368327				
124.671875	0.2	255328	93	32	0	0	0	93	42	stimuli\Videos_short_600ms\48.single_slap_with_hand_short_short_600ms.mp4	48.single_slap_with_hand_short_short_600ms.mp4	128.84316751106962	129.45151178984088	0.6083442787712556				
125.4716796875	0.2	256966	94	32	0	0	0	94	107	stimuli\Videos_short_600ms_horflip\25.single_touch_with_stanley_knife_short_horflip_short_600ms.mp4	25.single_touch_with_stanley_knife_short_horflip_short_600ms.mp4	129.64322803720643	130.25149548531772	0.6082674481112917				
126.27197265625	0.2	258605	95	32	0	0	0	95	64	stimuli\Videos_short_600ms\68.stroke_top_to_bottom_with_shawl_short_short_600ms.mp4	68.stroke_top_to_bottom_with_shawl_short_short_600ms.mp4	130.44319325813922	131.05148006053787	0.6082868023986521				
127.07177734375	0.2	260243	96	32	0	0	0	96	172	stimuli\Videos_short_600ms_horflip\84.single_touch_with_cotton_bud_short_horflip_short_600ms.mp4	84.single_touch_with_cotton_bud_short_horflip_short_600ms.mp4	131.24315935880804	131.85147489939482	0.6083155405867728				
127.8720703125	0.2	261882	97	32	0	0	0	97	48	stimuli\Videos_short_600ms\53.touch_top_to_bottom_with_knife_short_short_600ms.mp4	53.touch_top_to_bottom_with_knife_short_short_600ms.mp4	132.04314862597676	132.65146944500157	0.6083208190248115				
128.671875	0.2	263520	98	32	0	0	0	98	279	stimuli\Videos_short_600ms_vertflip\18.single_stroke_from_top_to_bottom_with_rolling_pin_short_vertflip_short_600ms.mp4	18.single_stroke_from_top_to_bottom_with_rolling_pin_short_vertflip_short_600ms.mp4	132.84311179418	133.45142440229756	0.6083126081175578	9.0	9.0	1.7531829739746172	1.0
163.13720703125	0.2	334105	99	32	1	0	0	0	149	stimuli\Videos_short_600ms_horflip\63.stroke_top_to_bottom_with_screwdriver_short_horflip_short_600ms.mp4	63.stroke_top_to_bottom_with_screwdriver_short_horflip_short_600ms.mp4	167.30924222976682	167.917595599185	0.6083533694181824				
163.9375	0.2	335744	100	32	1	0	0	1	114	stimuli\Videos_short_600ms_horflip\31.hand_grabbing_wrist_short_horflip_short_600ms.mp4	31.hand_grabbing_wrist_short_horflip_short_600ms.mp4	168.10922915095944	168.71778691339205	0.6085577624326106				
164.7373046875	0.2	337382	101	32	1	0	0	2	102	stimuli\Videos_short_600ms_horflip\20.single_touch_with_screwdriver_short_horflip_short_600ms.mp4	20.single_touch_with_screwdriver_short_horflip_short_600ms.mp4	168.9092184181245	169.51756944157023	0.6083510234457208				
165.537109375	0.2	339020	102	32	1	0	0	3	51	stimuli\Videos_short_600ms\56.repeated_touch_with_nail_file_short_short_600ms.mp4	56.repeated_touch_with_nail_file_short_short_600ms.mp4	169.7092534317926	170.31755606951992	0.60830263772732				
166.33740234375	0.2	340659	103	32	1	0	0	4	9	stimuli\Videos_short_600ms\18.single_stroke_from_top_to_bottom_with_rolling_pin_short_short_600ms.mp4	18.single_stroke_from_top_to_bottom_with_rolling_pin_short_short_600ms.mp4	170.5095236293855	171.11753976499676	0.6080161356112512				
167.13720703125	0.2	342297	104	32	1	0	1	5	375	stimuli\Targets_short_600ms_horvertflip\finger-tap_short_vertflip_short_600ms.mp4	finger-tap_short_vertflip_short_600ms.mp4	171.30975335892072	171.9175340173606	0.6077806584398786				
167.93701171875	0.2	343935	105	32	1	0	0	6	70	stimuli\Videos_short_600ms\73.single_stroke_with_flat_hand_short_short_600ms.mp4	73.single_stroke_with_flat_hand_short_short_600ms.mp4	172.10923560238734	172.7174951328343	0.6082595304469578				
168.7373046875	0.2	345574	106	32	1	0	0	7	54	stimuli\Videos_short_600ms\59.single_push_with_long_side_pencil_short_short_600ms.mp4	59.single_push_with_long_side_pencil_short_short_600ms.mp4	172.9092474495592	173.51750551377336	0.6082580642141693				
169.537109375	0.2	347212	107	32	1	0	0	8	171	stimuli\Videos_short_600ms_horflip\83.single_stroke_top_to_bottom_with_cotton_bud_short_horflip_short_600ms.mp4	83.single_stroke_top_to_bottom_with_cotton_bud_short_horflip_short_600ms.mp4	173.70916839022175	174.3174956606781	0.6083272704563569				
170.3369140625	0.2	348850	108	32	1	0	0	9	233	stimuli\Videos_short_600ms_horvertflip\58.single_slap_with_pencil_short_horvertflip_short_600ms.mp4	58.single_slap_with_pencil_short_horvertflip_short_600ms.mp4	174.50915648440423	175.1174887400557	0.6083322556514759				
171.13720703125	0.2	350489	109	32	1	0	0	10	7	stimuli\Videos_short_600ms\16.repeated_touch_with_plastic_brush_short_short_600ms.mp4	16.repeated_touch_with_plastic_brush_short_short_600ms.mp4	175.3091451650762	175.91747243553257	0.6083272704563569				
171.93701171875	0.2	352127	110	32	1	0	0	11	332	stimuli\Videos_short_600ms_vertflip\66.stroke_top_to_bottom_with_sponge_short_vertflip_short_600ms.mp4	66.stroke_top_to_bottom_with_sponge_short_vertflip_short_600ms.mp4	176.10929219901664	176.71746815412916	0.6081759551125288				
172.73681640625	0.2	353765	111	32	1	0	1	12	367	stimuli\Targets_short_600ms_horflip\chopstick-silver-tap_short_horflip_short_600ms.mp4	chopstick-silver-tap_short_horflip_short_600ms.mp4	176.90928879735657	177.51744657116797	0.6081577738113992				
173.537109375	0.2	355404	112	32	1	0	0	13	194	stimuli\Videos_short_600ms_horvertflip\22.single_touch_with_metal_chopstick_short_horvertflip_short_600ms.mp4	22.single_touch_with_metal_chopstick_short_horvertflip_short_600ms.mp4	177.70952145935735	178.31743437210025	0.6079129127429042				
174.3369140625	0.2	357042	113	32	1	0	0	14	247	stimuli\Videos_short_600ms_horvertflip\70.(long)stroke_with_finger_all_over_the_hand_short_horvertflip_short_600ms.mp4	70.(long)stroke_with_finger_all_over_the_hand_short_horvertflip_short_600ms.mp4	178.5096245062814	179.11742187978598	0.6077973735045816				
175.13671875	0.2	358680	114	32	1	0	0	15	71	stimuli\Videos_short_600ms\74.fingers_walking_from_top_to_bottom_short_short_600ms.mp4	74.fingers_walking_from_top_to_bottom_short_short_600ms.mp4	179.30915777468908	179.9174117334478	0.6082539587587235				
175.93701171875	0.2	360319	115	32	1	0	0	16	206	stimuli\Videos_short_600ms_horvertflip\33.scratch_top_to_bottom_with_scissors_short_horvertflip_short_600ms.mp4	33.scratch_top_to_bottom_with_scissors_short_horvertflip_short_600ms.mp4	180.1091197699061	180.71739894788695	0.6082791779808758				
176.73681640625	0.2	361957	116	32	1	0	0	17	281	stimuli\Videos_short_600ms_vertflip\2.single_touch_with_finger_short_vertflip_short_600ms.mp4	2.single_touch_with_finger_short_vertflip_short_600ms.mp4	180.90904188355853	181.51738645557631	0.6083445720178133				
177.537109375	0.2	363596	117	32	1	0	0	18	202	stimuli\Videos_short_600ms_horvertflip\3.single_push_with_finger_short_horvertflip_short_600ms.mp4	3.single_push_with_finger_short_horvertflip_short_600ms.mp4	181.70903173722036	182.31737484300177	0.6083431057813868				
178.3369140625	0.2	365234	118	32	1	0	0	19	327	stimuli\Videos_short_600ms_vertflip\61.single_hit_with_rolling_pin_short_vertflip_short_600ms.mp4	61.single_hit_with_rolling_pin_short_vertflip_short_600ms.mp4	182.50907261582324	183.11736323042717	0.6082906146039022				
179.13671875	0.2	366872	119	32	1	0	0	20	299	stimuli\Videos_short_600ms_vertflip\36.single_slap_with_full_hand_short_vertflip_short_600ms.mp4	36.single_slap_with_full_hand_short_vertflip_short_600ms.mp4	183.3090255203861	183.91735044486995	0.6083249244838953				
179.93701171875	0.2	368511	120	32	1	0	0	21	180	stimuli\Videos_short_600ms_horvertflip\1.repeated_touch_with_finger_fast_short_horvertflip_short_600ms.mp4	1.repeated_touch_with_finger_fast_short_horvertflip_short_600ms.mp4	184.10899162105852	184.71733736606257	0.6083457450040441				
180.73681640625	0.2	370149	121	32	1	0	0	22	178	stimuli\Videos_short_600ms_horflip\9.single_touch_with_hammer_short_horflip_short_600ms.mp4	9.single_touch_with_hammer_short_horflip_short_600ms.mp4	184.90903543212696	185.51732809946407	0.6082926673370821				
181.53662109375	0.2	371787	122	32	1	0	0	23	108	stimuli\Videos_short_600ms_horflip\26.single_touch_with_a_blunt_syringe_short_horflip_short_600ms.mp4	26.single_touch_with_a_blunt_syringe_short_horflip_short_600ms.mp4	185.70952028637112	186.31731296793075	0.6077926815596584				
182.3369140625	0.2	373426	123	32	1	0	0	24	269	stimuli\Videos_short_600ms_horvertflip\90.repeated_touch_with_sponge_short_horvertflip_short_600ms.mp4	90.repeated_touch_with_sponge_short_horvertflip_short_600ms.mp4	186.50915032622288	187.1172849335344	0.6081346073115128				
183.13671875	0.2	375064	124	32	1	0	0	25	153	stimuli\Videos_short_600ms_horflip\67.single_touch_with_sponge_short_horflip_short_600ms.mp4	67.single_touch_with_sponge_short_horflip_short_600ms.mp4	187.3092659827562	187.91728563732977	0.6080196545735816				
183.9365234375	0.2	376702	125	32	1	0	1	26	362	stimuli\Targets_short_600ms\chopstickwood-tap_short_short_600ms.mp4	chopstickwood-tap_short_short_600ms.mp4	188.10895467196315	188.71727461124829	0.6083199392851384				
184.73681640625	0.2	378341	126	32	1	0	0	27	2	stimuli\Videos_short_600ms\11.single_touch_with_lighter_short_short_600ms.mp4	11.single_touch_with_lighter_short_short_600ms.mp4	188.9089369012072	189.5172454038693	0.608308502662112				
185.53662109375	0.2	379979	127	32	1	0	0	28	45	stimuli\Videos_short_600ms\50.single_(long)hard_push_with_thumb_short_short_600ms.mp4	50.single_(long)hard_push_with_thumb_short_short_600ms.mp4	189.7089725013684	190.31725138610273	0.6082788847343181				
186.33642578125	0.2	381617	128	32	1	0	0	29	109	stimuli\Videos_short_600ms_horflip\27.single_push_with_a_plastic_whisk_short_horflip_short_600ms.mp4	27.single_push_with_a_plastic_whisk_short_horflip_short_600ms.mp4	190.5090491560768	191.11724387898357	0.6081947229067737				
187.13671875	0.2	383256	129	32	1	0	0	30	161	stimuli\Videos_short_600ms_horflip\74.fingers_walking_from_top_to_bottom_short_horflip_short_600ms.mp4	74.fingers_walking_from_top_to_bottom_short_horflip_short_600ms.mp4	191.3088853484223	191.91723959758383	0.6083542491614935				
187.9365234375	0.2	384894	130	32	1	0	0	31	53	stimuli\Videos_short_600ms\58.single_slap_with_pencil_short_short_600ms.mp4	58.single_slap_with_pencil_short_short_600ms.mp4	192.10902681067455	192.71721830786555	0.608191497191001				
188.736328125	0.2	386532	131	32	1	0	0	32	36	stimuli\Videos_short_600ms\42.single_slap_with_plastic_whisk_short_short_600ms.mp4	42.single_slap_with_plastic_whisk_short_short_600ms.mp4	192.9089201861389	193.51721549269496	0.6082953065561014				
189.53662109375	0.2	388171	132	32	1	0	0	33	141	stimuli\Videos_short_600ms_horflip\56.repeated_touch_with_nail_file_short_horflip_short_600ms.mp4	56.repeated_touch_with_nail_file_short_horflip_short_600ms.mp4	193.70898247175865	194.31719244349733	0.6082099717386882				
190.33642578125	0.2	389809	133	32	1	0	0	34	38	stimuli\Videos_short_600ms\44.pushing_top_to_bottom_with_finger_short_short_600ms.mp4	44.pushing_top_to_bottom_with_finger_short_short_600ms.mp4	194.50955148783032	195.1171796579365	0.6076281701061816				
191.13623046875	0.2	391447	134	32	1	0	0	35	356	stimuli\Videos_short_600ms_vertflip\88.repeated_stroke_with_plastic_brush_short_vertflip_short_600ms.mp4	88.repeated_stroke_with_plastic_brush_short_vertflip_short_600ms.mp4	195.30887801725112	195.91716951159833	0.6082914943472133				
191.9365234375	0.2	393086	135	32	1	0	0	36	146	stimuli\Videos_short_600ms_horflip\60.single_push_with_tip_of_pencil_short_horflip_short_600ms.mp4	60.single_push_with_tip_of_pencil_short_horflip_short_600ms.mp4	196.108892503642	196.71715408681848	0.6082615831764997				
192.736328125	0.2	394724	136	32	1	0	0	37	275	stimuli\Videos_short_600ms_vertflip\14.repeated_touch_with_pencil_short_vertflip_short_600ms.mp4	14.repeated_touch_with_pencil_short_vertflip_short_600ms.mp4	196.9088207754794	197.51714130125765	0.6083205257782538				
193.5361328125	0.2	396362	137	32	1	0	0	38	240	stimuli\Videos_short_600ms_horvertflip\64.repeated_touch_with_screwdriver_short_horvertflip_short_600ms.mp4	64.repeated_touch_with_screwdriver_short_horvertflip_short_600ms.mp4	197.70933055569913	198.31713144816604	0.607800892466912				
194.33642578125	0.2	398001	138	32	1	0	0	39	128	stimuli\Videos_short_600ms_horflip\44.pushing_top_to_bottom_with_finger_short_horflip_short_600ms.mp4	44.pushing_top_to_bottom_with_finger_short_horflip_short_600ms.mp4	198.5091869820717	199.11711836935865	0.6079313872869534				
195.13623046875	0.2	399639	139	32	1	0	0	40	14	stimuli\Videos_short_600ms\22.single_touch_with_metal_chopstick_short_short_600ms.mp4	22.single_touch_with_metal_chopstick_short_short_600ms.mp4	199.30900294038292	199.9171088095136	0.608105869130668				
195.9365234375	0.2	401278	140	32	1	0	0	41	324	stimuli\Videos_short_600ms_vertflip\59.single_push_with_long_side_pencil_short_vertflip_short_600ms.mp4	59.single_push_with_long_side_pencil_short_vertflip_short_600ms.mp4	200.1089115646828	200.71709485096653	0.6081832862837473				
196.736328125	0.2	402916	141	32	1	0	0	42	86	stimuli\Videos_short_600ms\88.repeated_stroke_with_plastic_brush_short_short_600ms.mp4	88.repeated_stroke_with_plastic_brush_short_short_600ms.mp4	200.90881080508916	201.51708734384735	0.6082765387582185				
197.5361328125	0.2	404554	142	32	1	0	0	43	123	stimuli\Videos_short_600ms_horflip\4.repeated_tap_with_finger_slow_short_horflip_short_600ms.mp4	4.repeated_tap_with_finger_slow_short_horflip_short_600ms.mp4	201.7093205853089	202.31706810685864	0.6077475215497543				
198.33642578125	0.2	406193	143	32	1	0	0	44	104	stimuli\Videos_short_600ms_horflip\22.single_touch_with_metal_chopstick_short_horflip_short_600ms.mp4	22.single_touch_with_metal_chopstick_short_horflip_short_600ms.mp4	202.50872834409165	203.11706177272936	0.6083334286377067				
199.13623046875	0.2	407831	144	32	1	0	0	45	158	stimuli\Videos_short_600ms_horflip\71.single_stroke_with_finger_top_to_bottom_short_horflip_short_600ms.mp4	71.single_stroke_with_finger_top_to_bottom_short_horflip_short_600ms.mp4	203.30878945672157	203.91702142197028	0.6082319652487058				
199.93603515625	0.2	409469	145	32	1	0	0	46	338	stimuli\Videos_short_600ms_vertflip\71.single_stroke_with_finger_top_to_bottom_short_vertflip_short_600ms.mp4	71.single_stroke_with_finger_top_to_bottom_short_vertflip_short_600ms.mp4	204.1087241799869	204.71700951614912	0.6082853361622256				
200.736328125	0.2	411108	146	32	1	0	0	47	133	stimuli\Videos_short_600ms_horflip\49.repeated_slap_with_hand_short_horflip_short_600ms.mp4	49.repeated_slap_with_hand_short_horflip_short_600ms.mp4	204.9089046440604	205.51702605526953	0.6081214112091402				
201.5361328125	0.2	412746	147	32	1	0	0	48	268	stimuli\Videos_short_600ms_horvertflip\9.single_touch_with_hammer_short_horvertflip_short_600ms.mp4	9.single_touch_with_hammer_short_horvertflip_short_600ms.mp4	205.7087399566626	206.31701297646217	0.6082730197995261				
202.3359375	0.2	414384	148	32	1	0	0	49	304	stimuli\Videos_short_600ms_vertflip\40.repeated_push_with_finger_short_vertflip_short_600ms.mp4	40.repeated_push_with_finger_short_vertflip_short_600ms.mp4	206.50867321369515	207.11699901791508	0.6083258042199304				
203.13623046875	0.2	416023	149	32	1	0	0	50	63	stimuli\Videos_short_600ms\67.single_touch_with_sponge_short_short_600ms.mp4	67.single_touch_with_sponge_short_short_600ms.mp4	207.30863491566197	207.9169944432651	0.6083595276031701				
203.93603515625	0.2	417661	150	32	1	0	0	51	330	stimuli\Videos_short_600ms_vertflip\64.repeated_touch_with_screwdriver_short_vertflip_short_600ms.mp4	64.repeated_touch_with_screwdriver_short_vertflip_short_600ms.mp4	208.1086253558169	208.71696025069105	0.6083348948741332				
204.73583984375	0.2	419299	151	32	1	0	0	52	127	stimuli\Videos_short_600ms_horflip\43.touch_top_to_bottom_with_sharp_wooden_stick_short_horflip_short_600ms.mp4	43.touch_top_to_bottom_with_sharp_wooden_stick_short_horflip_short_600ms.mp4	208.90865039909477	209.51695978149655	0.6083093824017851				
205.5361328125	0.2	420938	152	32	1	0	0	53	78	stimuli\Videos_short_600ms\80.stroke_with_sharp_stick_all_over_the_hand_short_short_600ms.mp4	80.stroke_with_sharp_stick_all_over_the_hand_short_short_600ms.mp4	209.7088472849864	210.31694582294585	0.6080985379594495				
206.3359375	0.2	422576	153	32	1	0	0	54	134	stimuli\Videos_short_600ms_horflip\5.repeated_tap_with_finger_moving_from_top_to_bottom_short_horflip_short_600ms.mp4	5.repeated_tap_with_finger_moving_from_top_to_bottom_short_horflip_short_600ms.mp4	210.50868289083883	211.1169386090769	0.6082557182380697				
207.1357421875	0.2	424214	154	32	1	0	1	55	361	stimuli\Targets_short_600ms\chopstick-silver-tap_short_short_600ms.mp4	chopstick-silver-tap_short_short_600ms.mp4	211.30861820059727	211.91692465052984	0.6083064499325701				
207.93603515625	0.2	425853	155	32	1	0	0	56	82	stimuli\Videos_short_600ms\84.single_touch_with_cotton_bud_short_short_600ms.mp4	84.single_touch_with_cotton_bud_short_short_600ms.mp4	212.10864060464883	212.71691655691757	0.6082759522687411				
208.73583984375	0.2	427491	156	32	1	0	1	57	372	stimuli\Targets_short_600ms_horvertflip\brush-stroke_short_vertflip_short_600ms.mp4	brush-stroke_short_vertflip_short_600ms.mp4	212.90856066557535	213.5169005456446	0.6083398800692521				
209.53564453125	0.2	429129	157	32	1	0	0	58	0	stimuli\Videos_short_600ms\1.repeated_touch_with_finger_fast_short_short_600ms.mp4	1.repeated_touch_with_finger_fast_short_short_600ms.mp4	213.70853820287084	214.31688951956312	0.6083513166922785				
210.3359375	0.2	430768	158	32	1	0	0	59	73	stimuli\Videos_short_600ms\76.tickle_with_fingers_from_top_to_bottom_short_short_600ms.mp4	76.tickle_with_fingers_from_top_to_bottom_short_short_600ms.mp4	214.50857585575795	215.1168576729615	0.6082818172035331				
211.1357421875	0.2	432406	159	32	1	0	1	60	368	stimuli\Targets_short_600ms_horflip\chopstickwood-tap_short_horflip_short_600ms.mp4	chopstickwood-tap_short_horflip_short_600ms.mp4	215.30912581078883	215.91686365519857	0.6077378444097121				
211.935546875	0.2	434044	160	32	1	0	0	61	237	stimuli\Videos_short_600ms_horvertflip\61.single_hit_with_rolling_pin_short_horvertflip_short_600ms.mp4	61.single_hit_with_rolling_pin_short_horvertflip_short_600ms.mp4	216.10854500619823	216.71685174937735	0.6083067431791278				
212.73583984375	0.2	435683	161	32	1	0	0	62	111	stimuli\Videos_short_600ms_horflip\29.single_pinch_with_tweezers_short_horflip_short_600ms.mp4	29.single_pinch_with_tweezers_short_horflip_short_600ms.mp4	216.9087383731312	217.51683368537488	0.6080953122436767				
213.53564453125	0.2	437321	162	32	1	0	0	63	21	stimuli\Videos_short_600ms\29.single_pinch_with_tweezers_short_short_600ms.mp4	29.single_pinch_with_tweezers_short_short_600ms.mp4	217.7088769029142	218.31680301175948	0.6079261088452768				
214.33544921875	0.2	438959	163	32	1	0	0	64	263	stimuli\Videos_short_600ms_horvertflip\85.touch_top_to_bottom_with_fabric_short_horvertflip_short_600ms.mp4	85.touch_top_to_bottom_with_fabric_short_horvertflip_short_600ms.mp4	218.50858465316196	219.1167943316541	0.6082096784921305				
215.1357421875	0.2	440598	164	32	1	0	0	65	203	stimuli\Videos_short_600ms_horvertflip\30.finger_pulling_back_another_finger_short_horvertflip_short_600ms.mp4	30.finger_pulling_back_another_finger_short_horvertflip_short_600ms.mp4	219.30848360031817	219.91680529908623	0.6083216987681226				
215.935546875	0.2	442236	165	32	1	0	0	66	169	stimuli\Videos_short_600ms_horflip\81.single_stroke_top_to_bottom_with_cotton_pad_short_horflip_short_600ms.mp4	81.single_stroke_top_to_bottom_with_cotton_pad_short_horflip_short_600ms.mp4	220.10846025787396	220.71679310001855	0.6083328421445913				
216.73583984375	0.2	443875	166	32	1	0	0	67	335	stimuli\Videos_short_600ms_vertflip\69.stroke_with_soft_sock_short_vertflip_short_600ms.mp4	69.stroke_with_soft_sock_short_vertflip_short_600ms.mp4	220.9084545102378	221.5167835401735	0.6083290299357031				
217.53564453125	0.2	445513	167	32	1	0	0	68	165	stimuli\Videos_short_600ms_horflip\78.single_stroke_top_to_bottom_with_soft_brush_short_horflip_short_600ms.mp4	78.single_stroke_top_to_bottom_with_soft_brush_short_horflip_short_600ms.mp4	221.7085613693671	222.316774273575	0.6082129042079032				
218.33544921875	0.2	447151	168	32	1	0	0	69	163	stimuli\Videos_short_600ms_horflip\76.tickle_with_fingers_from_top_to_bottom_short_horflip_short_600ms.mp4	76.tickle_with_fingers_from_top_to_bottom_short_horflip_short_600ms.mp4	222.50846031652327	223.11675415684655	0.6082938403233129				
219.1357421875	0.2	448790	169	32	1	0	0	70	62	stimuli\Videos_short_600ms\66.stroke_top_to_bottom_with_sponge_short_short_600ms.mp4	66.stroke_top_to_bottom_with_sponge_short_short_600ms.mp4	223.30841351433628	223.9167431307651	0.6083296164288186				
219.935546875	0.2	450428	170	32	1	0	0	71	292	stimuli\Videos_short_600ms_vertflip\3.single_push_with_finger_short_vertflip_short_600ms.mp4	3.single_push_with_finger_short_vertflip_short_600ms.mp4	224.10850219216445	224.7167294654646	0.6082272733001446				
220.7353515625	0.2	452066	171	32	1	0	0	72	177	stimuli\Videos_short_600ms_horflip\89.single_touch_with_plastic_brush_short_horflip_short_600ms.mp4	89.single_touch_with_plastic_brush_short_horflip_short_600ms.mp4	224.9083935149065	225.5167193191264	0.6083258042199304				
221.53564453125	0.2	453705	172	32	1	0	0	73	265	stimuli\Videos_short_600ms_horvertflip\87.single_stroke_top_to_bottom_with_plastic_brush_short_horvertflip_short_600ms.mp4	87.single_stroke_top_to_bottom_with_plastic_brush_short_horvertflip_short_600ms.mp4	225.70838014285255	226.3167065335656	0.6083263907130458				
222.33544921875	0.2	455343	173	32	1	0	0	74	297	stimuli\Videos_short_600ms_vertflip\34.repeated_punch_with_hand_short_vertflip_short_600ms.mp4	34.repeated_punch_with_hand_short_vertflip_short_600ms.mp4	226.5083433110558	227.11669316151165	0.608349850455852				
223.13525390625	0.2	456981	174	32	1	0	0	75	358	stimuli\Videos_short_600ms_vertflip\9.single_touch_with_hammer_short_vertflip_short_600ms.mp4	9.single_touch_with_hammer_short_vertflip_short_600ms.mp4	227.30836043666568	227.9166797894577	0.608319352792023				
223.935546875	0.2	458620	175	32	1	0	0	76	204	stimuli\Videos_short_600ms_horvertflip\31.hand_grabbing_wrist_short_horvertflip_short_600ms.mp4	31.hand_grabbing_wrist_short_horvertflip_short_600ms.mp4	228.10841040591913	228.7166681768867	0.6082577709676116				
224.7353515625	0.2	460258	176	32	1	0	0	77	176	stimuli\Videos_short_600ms_horflip\88.repeated_stroke_with_plastic_brush_short_horflip_short_600ms.mp4	88.repeated_stroke_with_plastic_brush_short_horflip_short_600ms.mp4	228.9084175611424	229.51665421833968	0.608236657197267				
225.53515625	0.2	461896	177	32	1	0	0	78	246	stimuli\Videos_short_600ms_horvertflip\7.repeated_touch_with_hairbrush_short_horvertflip_short_600ms.mp4	7.repeated_touch_with_hairbrush_short_horvertflip_short_600ms.mp4	229.708362254798	230.31664524498777	0.608282990189764				
226.33544921875	0.2	463535	178	32	1	0	0	79	341	stimuli\Videos_short_600ms_vertflip\74.fingers_walking_from_top_to_bottom_short_vertflip_short_600ms.mp4	74.fingers_walking_from_top_to_bottom_short_vertflip_short_600ms.mp4	230.50836325183627	231.11663275267347	0.6082695008371957				
227.13525390625	0.2	465173	179	32	1	0	0	80	300	stimuli\Videos_short_600ms_vertflip\37.single_stab_with_nail_file_short_vertflip_short_600ms.mp4	37.single_stab_with_nail_file_short_vertflip_short_600ms.mp4	231.30837920445992	231.91662495230776	0.6082457478478318				
227.93505859375	0.2	466811	180	32	1	0	0	81	43	stimuli\Videos_short_600ms\49.repeated_slap_with_hand_short_short_600ms.mp4	49.repeated_slap_with_hand_short_short_600ms.mp4	232.1082878287598	232.71660864778823	0.6083208190284495				
228.7353515625	0.2	468450	181	32	1	0	0	82	346	stimuli\Videos_short_600ms_vertflip\79.long_with_soft_brush_all_over_the_hand_short_vertflip_short_600ms.mp4	79.long_with_soft_brush_all_over_the_hand_short_vertflip_short_600ms.mp4	232.9082770959285	233.5165990879432	0.6083219920146803				
229.53515625	0.2	470088	182	32	1	0	0	83	309	stimuli\Videos_short_600ms_vertflip\45.scratching_with_finger_nails_short_vertflip_short_600ms.mp4	45.scratching_with_finger_nails_short_vertflip_short_600ms.mp4	233.7082804389429	234.3165584439375	0.608278004994645				
230.3349609375	0.2	471726	183	32	1	0	0	84	255	stimuli\Videos_short_600ms_horvertflip\78.single_stroke_top_to_bottom_with_soft_brush_short_horvertflip_short_600ms.mp4	78.single_stroke_top_to_bottom_with_soft_brush_short_horvertflip_short_600ms.mp4	234.5082776237723	235.1165664789005	0.608288855128194				
231.13525390625	0.2	473365	184	32	1	0	0	85	139	stimuli\Videos_short_600ms_horflip\54.repeated_touch_with_knife_short_horflip_short_600ms.mp4	54.repeated_touch_with_knife_short_horflip_short_600ms.mp4	235.30823404730108	235.91657510035657	0.6083410530554829				
231.93505859375	0.2	475003	185	32	1	0	0	86	217	stimuli\Videos_short_600ms_horvertflip\43.touch_top_to_bottom_with_sharp_wooden_stick_short_horvertflip_short_600ms.mp4	43.touch_top_to_bottom_with_sharp_wooden_stick_short_horvertflip_short_600ms.mp4	236.10834501188583	236.71655557011763	0.6082105582318036				
232.73486328125	0.2	476641	186	32	1	0	0	87	131	stimuli\Videos_short_600ms_horflip\47.(long)scratching_with_finger_nails_short_horflip_short_600ms.mp4	47.(long)scratching_with_finger_nails_short_horflip_short_600ms.mp4	236.9082477712509	237.51653516014267	0.6082873888917675				
233.53515625	0.2	478280	187	32	1	0	0	88	119	stimuli\Videos_short_600ms_horflip\36.single_slap_with_full_hand_short_horflip_short_600ms.mp4	36.single_slap_with_full_hand_short_horflip_short_600ms.mp4	237.70819715685505	238.31652090834905	0.6083237514940265				
234.3349609375	0.2	479918	188	32	1	0	0	89	298	stimuli\Videos_short_600ms_vertflip\35.single_punch_with_hand_short_vertflip_short_600ms.mp4	35.single_punch_with_hand_short_vertflip_short_600ms.mp4	238.50816765622585	239.11651046876432	0.6083428125384671				
235.134765625	0.2	481556	189	32	1	0	0	90	250	stimuli\Videos_short_600ms_horvertflip\73.single_stroke_with_flat_hand_short_horvertflip_short_600ms.mp4	73.single_stroke_with_flat_hand_short_horvertflip_short_600ms.mp4	239.3081498854699	239.9164976832035	0.608347797733586				
235.93505859375	0.2	483195	190	32	1	0	0	91	112	stimuli\Videos_short_600ms_horflip\3.single_push_with_finger_short_horflip_short_600ms.mp4	3.single_push_with_finger_short_horflip_short_600ms.mp4	240.10816085290207	240.7164846043961	0.6083237514940265				
236.73486328125	0.2	484833	191	32	1	0	0	92	234	stimuli\Videos_short_600ms_horvertflip\59.single_push_with_long_side_pencil_short_horvertflip_short_600ms.mp4	59.single_push_with_long_side_pencil_short_horvertflip_short_600ms.mp4	240.90812636707776	241.51647445805793	0.6083480909801438				
237.53515625	0.2	486472	192	32	1	0	0	93	357	stimuli\Videos_short_600ms_vertflip\89.single_touch_with_plastic_brush_short_vertflip_short_600ms.mp4	89.single_touch_with_plastic_brush_short_vertflip_short_600ms.mp4	241.70815111710908	242.316461086004	0.6083099688949005				
238.3349609375	0.2	488110	193	32	1	0	0	94	342	stimuli\Videos_short_600ms_vertflip\75.(long)stroke_with_fingers_all_over_the_hand_short_vertflip_short_600ms.mp4	75.(long)stroke_with_fingers_all_over_the_hand_short_vertflip_short_600ms.mp4	242.5081570993425	243.1164509396658	0.6082938403233129				
239.134765625	0.2	489748	194	32	1	0	0	95	34	stimuli\Videos_short_600ms\40.repeated_push_with_finger_short_short_600ms.mp4	40.repeated_push_with_finger_short_short_600ms.mp4	243.3081017929981	243.916436394622	0.6083346016239375	6.0	6.0	1.94355087259828	1.0
272.01708984375	0.2	557091	195	32	2	0	0	0	257	stimuli\Videos_short_600ms_horvertflip\8.single_touch_with_hairbrush_short_horvertflip_short_600ms.mp4	8.single_touch_with_hairbrush_short_horvertflip_short_600ms.mp4	276.1909411960987	276.7992646543462	0.6083234582474688				
272.81689453125	0.2	558729	196	32	2	0	1	1	365	stimuli\Targets_short_600ms\hand-stroke_short_short_600ms.mp4	hand-stroke_short_short_600ms.mp4	276.99094629859246	277.59925362826834	0.6083073296758812				
273.6171875	0.2	560368	197	32	2	0	0	2	223	stimuli\Videos_short_600ms_horvertflip\49.repeated_slap_with_hand_short_horvertflip_short_600ms.mp4	49.repeated_slap_with_hand_short_horvertflip_short_600ms.mp4	277.7909170912135	278.3992417224472	0.6083246312336996				
274.4169921875	0.2	562006	198	32	2	0	0	3	213	stimuli\Videos_short_600ms_horvertflip\4.repeated_tap_with_finger_slow_short_horvertflip_short_600ms.mp4	4.repeated_tap_with_finger_slow_short_horvertflip_short_600ms.mp4	278.591026882812	279.19922835039324	0.6082014675812388				
275.216796875	0.2	563644	199	32	2	0	0	4	151	stimuli\Videos_short_600ms_horflip\65.stroke_top_to_bottom_with_stanley_knife_short_horflip_short_600ms.mp4	65.stroke_top_to_bottom_with_stanley_knife_short_horflip_short_600ms.mp4	279.39099298348447	279.99921908379474	0.6082261003102758				
276.01708984375	0.2	565283	200	32	2	0	0	5	170	stimuli\Videos_short_600ms_horflip\82.repeated_touch_with_cotton_bud_short_horflip_short_600ms.mp4	82.repeated_touch_with_cotton_bud_short_horflip_short_600ms.mp4	280.1909247742806	280.7992065914841	0.6082818172035331				
276.81689453125	0.2	566921	201	32	2	0	0	6	60	stimuli\Videos_short_600ms\64.repeated_touch_with_screwdriver_short_short_600ms.mp4	64.repeated_touch_with_screwdriver_short_short_600ms.mp4	280.99101286561563	281.5991911667006	0.6081783010849904				
277.6171875	0.2	568560	202	32	2	0	0	7	224	stimuli\Videos_short_600ms_horvertflip\5.repeated_tap_with_finger_moving_from_top_to_bottom_short_horvertflip_short_600ms.mp4	5.repeated_tap_with_finger_moving_from_top_to_bottom_short_horvertflip_short_600ms.mp4	281.79095638628496	282.39917603516733	0.6082196488823683				
278.4169921875	0.2	570198	203	32	2	0	0	8	262	stimuli\Videos_short_600ms_horvertflip\84.single_touch_with_cotton_bud_short_horvertflip_short_600ms.mp4	84.single_touch_with_cotton_bud_short_horvertflip_short_600ms.mp4	282.5908708755196	283.1991720470105	0.6083011714908935				
279.216796875	0.2	571836	204	32	2	0	0	9	337	stimuli\Videos_short_600ms_vertflip\70.(long)stroke_with_finger_all_over_the_hand_short_vertflip_short_600ms.mp4	70.(long)stroke_with_finger_all_over_the_hand_short_vertflip_short_600ms.mp4	283.3909821333509	283.9991360949534	0.6081539616025111				
280.01708984375	0.2	573475	205	32	2	0	0	10	17	stimuli\Videos_short_600ms\25.single_touch_with_stanley_knife_short_short_600ms.mp4	25.single_touch_with_stanley_knife_short_short_600ms.mp4	284.1908655384286	284.79911891069423	0.608253372265608				
280.81689453125	0.2	575113	206	32	2	0	0	11	343	stimuli\Videos_short_600ms_vertflip\76.tickle_with_fingers_from_top_to_bottom_short_vertflip_short_600ms.mp4	76.tickle_with_fingers_from_top_to_bottom_short_vertflip_short_600ms.mp4	284.99081873624164	285.5991278253932	0.6083090891515894				
281.61669921875	0.2	576751	207	32	2	0	0	12	249	stimuli\Videos_short_600ms_horvertflip\72.(short)stroke_with_finger_all_over_the_hand_short_horvertflip_short_600ms.mp4	72.(short)stroke_with_finger_all_over_the_hand_short_horvertflip_short_600ms.mp4	285.790793927561	286.3990953922985	0.6083014647374512				
282.4169921875	0.2	578390	208	32	2	0	0	13	226	stimuli\Videos_short_600ms_horvertflip\51.repeated_touch_with_hammer_short_horvertflip_short_600ms.mp4	51.repeated_touch_with_hammer_short_horvertflip_short_600ms.mp4	286.59075973498693	287.1991060664841	0.6083463314971596				
283.216796875	0.2	580028	209	32	2	0	0	14	121	stimuli\Videos_short_600ms_horflip\38.double_slap_with_pencil_short_horflip_short_600ms.mp4	38.double_slap_with_pencil_short_horflip_short_600ms.mp4	287.390746362933	287.9991011985876	0.6083548356546089				
284.0166015625	0.2	581666	210	32	2	0	0	15	185	stimuli\Videos_short_600ms_horvertflip\14.repeated_touch_with_pencil_short_horvertflip_short_600ms.mp4	14.repeated_touch_with_pencil_short_horvertflip_short_600ms.mp4	288.19079017400145	288.7990910522458	0.6083008782443358				
284.81689453125	0.2	583305	211	32	2	0	0	16	198	stimuli\Videos_short_600ms_horvertflip\26.single_touch_with_a_blunt_syringe_short_horvertflip_short_600ms.mp4	26.single_touch_with_a_blunt_syringe_short_horvertflip_short_600ms.mp4	288.9909961505473	289.5990715220105	0.608075371463201				
285.61669921875	0.2	584943	212	32	2	0	0	17	200	stimuli\Videos_short_600ms_horvertflip\28.single_injection_with_sharp_needle_short_horvertflip_short_600ms.mp4	28.single_injection_with_sharp_needle_short_horvertflip_short_600ms.mp4	289.7908191467868	290.3990637216484	0.608244574861601				
286.41650390625	0.2	586581	213	32	2	0	0	18	229	stimuli\Videos_short_600ms_horvertflip\54.repeated_touch_with_knife_short_horvertflip_short_600ms.mp4	54.repeated_touch_with_knife_short_horvertflip_short_600ms.mp4	290.59079199213375	291.19904507114916	0.6082530790154124				
287.216796875	0.2	588220	214	32	2	0	0	19	15	stimuli\Videos_short_600ms\23.single_push_with_a_spoon_short_short_600ms.mp4	23.single_push_with_a_spoon_short_short_600ms.mp4	291.390759559039	291.9990319923454	0.6082724333064107				
288.0166015625	0.2	589858	215	32	2	0	0	20	105	stimuli\Videos_short_600ms_horflip\23.single_push_with_a_spoon_short_horflip_short_600ms.mp4	23.single_push_with_a_spoon_short_horflip_short_600ms.mp4	292.19127432445384	292.7990192067846	0.607744882330735				
288.81640625	0.2	591496	216	32	2	0	0	21	37	stimuli\Videos_short_600ms\43.touch_top_to_bottom_with_sharp_wooden_stick_short_short_600ms.mp4	43.touch_top_to_bottom_with_sharp_wooden_stick_short_short_600ms.mp4	292.9907166863559	293.59899439810397	0.6082777117480873				
289.61669921875	0.2	593135	217	32	2	0	0	22	243	stimuli\Videos_short_600ms_horvertflip\67.single_touch_with_sponge_short_horvertflip_short_600ms.mp4	67.single_touch_with_sponge_short_horvertflip_short_600ms.mp4	293.79066871118266	294.39899656813213	0.6083278569494723				
290.41650390625	0.2	594773	218	32	2	0	1	23	366	stimuli\Targets_short_600ms_horflip\brush-stroke_short_horflip_short_600ms.mp4	brush-stroke_short_horflip_short_600ms.mp4	294.5906597378307	295.19898348932475	0.6083237514940265				
291.21630859375	0.2	596411	219	32	2	0	0	24	208	stimuli\Videos_short_600ms_horvertflip\35.single_punch_with_hand_short_horvertflip_short_600ms.mp4	35.single_punch_with_hand_short_horvertflip_short_600ms.mp4	295.3906498847391	295.9989715835036	0.6083216987644846				
292.0166015625	0.2	598050	220	32	2	0	0	25	302	stimuli\Videos_short_600ms_vertflip\39.single_stab_with_scissors_short_vertflip_short_600ms.mp4	39.single_stab_with_scissors_short_vertflip_short_600ms.mp4	296.1906110002128	296.79895762495653	0.6083466247437173				
292.81640625	0.2	599688	221	32	2	0	0	26	316	stimuli\Videos_short_600ms_vertflip\51.repeated_touch_with_hammer_short_vertflip_short_600ms.mp4	51.repeated_touch_with_hammer_short_vertflip_short_600ms.mp4	296.99059762815887	297.5989480651115	0.6083504369526054				
293.6162109375	0.2	601326	222	32	2	0	0	27	29	stimuli\Videos_short_600ms\36.single_slap_with_full_hand_short_short_600ms.mp4	36.single_slap_with_full_hand_short_short_600ms.mp4	297.79060859559104	298.39893674578707	0.60832815019603				
294.41650390625	0.2	602965	223	32	2	0	0	28	241	stimuli\Videos_short_600ms_horvertflip\65.stroke_top_to_bottom_with_stanley_knife_short_horvertflip_short_600ms.mp4	65.stroke_top_to_bottom_with_stanley_knife_short_horvertflip_short_600ms.mp4	298.59066677575174	299.19891809529145	0.6082513195397041				
295.21630859375	0.2	604603	224	32	2	0	0	29	351	stimuli\Videos_short_600ms_vertflip\83.single_stroke_top_to_bottom_with_cotton_bud_short_vertflip_short_600ms.mp4	83.single_stroke_top_to_bottom_with_cotton_bud_short_vertflip_short_600ms.mp4	299.3906616146087	299.99891264090184	0.6082510262931464				
296.01611328125	0.2	606241	225	32	2	0	0	30	331	stimuli\Videos_short_600ms_vertflip\65.stroke_top_to_bottom_with_stanley_knife_short_vertflip_short_600ms.mp4	65.stroke_top_to_bottom_with_stanley_knife_short_vertflip_short_600ms.mp4	300.1905620280013	300.79889428365277	0.6083322556514759				
296.81640625	0.2	607880	226	32	2	0	0	31	230	stimuli\Videos_short_600ms_horvertflip\55.touch_top_to_bottom_with_nail_file_short_horvertflip_short_600ms.mp4	55.touch_top_to_bottom_with_nail_file_short_horvertflip_short_600ms.mp4	300.9910187305504	301.59888208458506	0.6078633540346345				
297.6162109375	0.2	609518	227	32	2	0	0	32	277	stimuli\Videos_short_600ms_vertflip\16.repeated_touch_with_plastic_brush_short_vertflip_short_600ms.mp4	16.repeated_touch_with_plastic_brush_short_vertflip_short_600ms.mp4	301.79130359048213	302.39887487071246	0.6075712802303315				
298.41650390625	0.2	611157	228	32	2	0	0	33	236	stimuli\Videos_short_600ms_horvertflip\60.single_push_with_tip_of_pencil_short_horvertflip_short_600ms.mp4	60.single_push_with_tip_of_pencil_short_horvertflip_short_600ms.mp4	302.59111045814643	303.19886501762085	0.6077545594744151				
299.21630859375	0.2	612795	229	32	2	0	0	34	80	stimuli\Videos_short_600ms\82.repeated_touch_with_cotton_bud_short_short_600ms.mp4	82.repeated_touch_with_cotton_bud_short_short_600ms.mp4	303.39072671539543	303.99885223206	0.608125516664586				
300.01611328125	0.2	614433	230	32	2	0	1	35	377	stimuli\Targets_short_600ms_horvertflip\hand-stroke_short_vertflip_short_600ms.mp4	hand-stroke_short_vertflip_short_600ms.mp4	304.1905183342278	304.7988344613077	0.6083161270798882				
300.81640625	0.2	616072	231	32	2	0	0	36	347	stimuli\Videos_short_600ms_vertflip\8.single_touch_with_hairbrush_short_vertflip_short_600ms.mp4	8.single_touch_with_hairbrush_short_vertflip_short_600ms.mp4	304.9904973377561	305.598824901459	0.6083275637029146				
301.6162109375	0.2	617710	232	32	2	0	0	37	308	stimuli\Videos_short_600ms_vertflip\44.pushing_top_to_bottom_with_finger_short_vertflip_short_600ms.mp4	44.pushing_top_to_bottom_with_finger_short_vertflip_short_600ms.mp4	305.79050537271905	306.3988106496654	0.6083052769463393				
302.416015625	0.2	619348	233	32	2	0	0	38	282	stimuli\Videos_short_600ms_vertflip\20.single_touch_with_screwdriver_short_vertflip_short_600ms.mp4	20.single_touch_with_screwdriver_short_vertflip_short_600ms.mp4	306.59060519392733	307.1987984506013	0.6081932566739852				
303.21630859375	0.2	620987	234	32	2	0	0	39	65	stimuli\Videos_short_600ms\69.stroke_with_soft_sock_short_short_600ms.mp4	69.stroke_with_soft_sock_short_short_600ms.mp4	307.39055457953145	307.99878595828704	0.6082313787555904				
304.01611328125	0.2	622625	235	32	2	0	0	40	207	stimuli\Videos_short_600ms_horvertflip\34.repeated_punch_with_hand_short_horvertflip_short_600ms.mp4	34.repeated_punch_with_hand_short_horvertflip_short_600ms.mp4	308.1904670160402	308.7987740524659	0.6083070364256855				
304.81591796875	0.2	624263	236	32	2	0	0	41	57	stimuli\Videos_short_600ms\61.single_hit_with_rolling_pin_short_short_600ms.mp4	61.single_hit_with_rolling_pin_short_short_600ms.mp4	308.99044191411303	309.5987671318435	0.608325217730453				
305.6162109375	0.2	625902	237	32	2	0	0	42	148	stimuli\Videos_short_600ms_horflip\62.touch_top_to_bottom_with_scissors_short_horflip_short_600ms.mp4	62.touch_top_to_bottom_with_scissors_short_horflip_short_600ms.mp4	309.79066577871345	310.3987481881013	0.6080824093878618				
306.416015625	0.2	627540	238	32	2	0	0	43	350	stimuli\Videos_short_600ms_vertflip\82.repeated_touch_with_cotton_bud_short_vertflip_short_600ms.mp4	82.repeated_touch_with_cotton_bud_short_vertflip_short_600ms.mp4	310.5903993346801	311.19873862825625	0.6083392935761367				
307.2158203125	0.2	629178	239	32	2	0	0	44	24	stimuli\Videos_short_600ms\31.hand_grabbing_wrist_short_short_600ms.mp4	31.hand_grabbing_wrist_short_short_600ms.mp4	311.3904539958821	311.99872408321244	0.6082700873303111				
308.01611328125	0.2	630817	240	32	2	0	0	45	284	stimuli\Videos_short_600ms_vertflip\22.single_touch_with_metal_chopstick_short_vertflip_short_600ms.mp4	22.single_touch_with_metal_chopstick_short_vertflip_short_600ms.mp4	312.19039458408224	312.79871129765525	0.6083167135730037				
308.81591796875	0.2	632455	241	32	2	0	0	46	191	stimuli\Videos_short_600ms_horvertflip\2.single_touch_with_finger_short_horvertflip_short_600ms.mp4	2.single_touch_with_finger_short_horvertflip_short_600ms.mp4	312.99040232579864	313.59869968508065	0.6082973592820053				
309.61572265625	0.2	634093	242	32	2	0	0	47	117	stimuli\Videos_short_600ms_horflip\34.repeated_punch_with_hand_short_horflip_short_600ms.mp4	34.repeated_punch_with_hand_short_horflip_short_600ms.mp4	313.79038866049814	314.39866256003734	0.6082738995391992				
310.416015625	0.2	635732	243	32	2	0	0	48	271	stimuli\Videos_short_600ms_vertflip\10.single_touch_with_knife_short_vertflip_short_600ms.mp4	10.single_touch_with_knife_short_vertflip_short_600ms.mp4	314.5904920006651	315.19867909915774	0.6081870984926354				
311.2158203125	0.2	637370	244	32	2	0	0	49	75	stimuli\Videos_short_600ms\78.single_stroke_top_to_bottom_with_soft_brush_short_short_600ms.mp4	78.single_stroke_top_to_bottom_with_soft_brush_short_short_600ms.mp4	315.3903513595069	315.9986633811277	0.6083120216208044				
312.015625	0.2	639008	245	32	2	0	0	50	238	stimuli\Videos_short_600ms_horvertflip\62.touch_top_to_bottom_with_scissors_short_horvertflip_short_600ms.mp4	62.touch_top_to_bottom_with_scissors_short_horvertflip_short_600ms.mp4	316.19032479134694	316.79864619686487	0.6083214055179269				
312.81591796875	0.2	640647	246	32	2	0	0	51	201	stimuli\Videos_short_600ms_horvertflip\29.single_pinch_with_tweezers_short_horvertflip_short_600ms.mp4	29.single_pinch_with_tweezers_short_horvertflip_short_600ms.mp4	316.99038912969263	317.59863429104735	0.6082451613547164				
313.61572265625	0.2	642285	247	32	2	0	0	52	77	stimuli\Videos_short_600ms\8.single_touch_with_hairbrush_short_short_600ms.mp4	8.single_touch_with_hairbrush_short_short_600ms.mp4	317.79062179169705	318.39862649068164	0.6080046989845869				
314.41552734375	0.2	643923	248	32	2	0	0	53	97	stimuli\Videos_short_600ms_horflip\16.repeated_touch_with_plastic_brush_short_horflip_short_600ms.mp4	16.repeated_touch_with_plastic_brush_short_horflip_short_600ms.mp4	318.5904603300114	319.19861634434346	0.608156014332053				
315.2158203125	0.2	645562	249	32	2	0	0	54	312	stimuli\Videos_short_600ms_vertflip\48.single_slap_with_hand_short_vertflip_short_600ms.mp4	48.single_slap_with_hand_short_vertflip_short_600ms.mp4	319.39030356027797	319.9986023857964	0.6082988255184318				
316.015625	0.2	647200	250	32	2	0	0	55	132	stimuli\Videos_short_600ms_horflip\48.single_slap_with_hand_short_horflip_short_600ms.mp4	48.single_slap_with_hand_short_horflip_short_600ms.mp4	320.19024444172464	320.79858901374246	0.6083445720178133				
316.8154296875	0.2	648838	251	32	2	0	0	56	166	stimuli\Videos_short_600ms_horflip\79.long_with_soft_brush_all_over_the_hand_short_horflip_short_600ms.mp4	79.long_with_soft_brush_all_over_the_hand_short_horflip_short_600ms.mp4	320.99025511591026	321.5985765214282	0.6083214055179269				
317.61572265625	0.2	650477	252	32	2	0	0	57	219	stimuli\Videos_short_600ms_horvertflip\45.scratching_with_finger_nails_short_horvertflip_short_600ms.mp4	45.scratching_with_finger_nails_short_horvertflip_short_600ms.mp4	321.79023998437333	322.39856461561067	0.6083246312373376				
318.41552734375	0.2	652115	253	32	2	0	0	58	311	stimuli\Videos_short_600ms_vertflip\47.(long)scratching_with_finger_nails_short_vertflip_short_600ms.mp4	47.(long)scratching_with_finger_nails_short_vertflip_short_600ms.mp4	322.5902333569975	323.1985515368033	0.6083181798057922				
319.2158203125	0.2	653754	254	32	2	0	0	59	19	stimuli\Videos_short_600ms\27.single_push_with_a_plastic_whisk_short_short_600ms.mp4	27.single_push_with_a_plastic_whisk_short_short_600ms.mp4	323.3902132402691	323.99853875124245	0.6083255109733727				
320.015625	0.2	655392	255	32	2	0	0	60	35	stimuli\Videos_short_600ms\41.injection_with_blunt_syringe_short_short_600ms.mp4	41.injection_with_blunt_syringe_short_short_600ms.mp4	324.19018403288646	324.79852655217474	0.6083425192882714				
320.8154296875	0.2	657030	256	32	2	0	0	61	280	stimuli\Videos_short_600ms_vertflip\19.single_touch_with_rolling_pin_short_vertflip_short_600ms.mp4	19.single_touch_with_rolling_pin_short_vertflip_short_600ms.mp4	324.99017623252075	325.5985149396038	0.6083387070830213				
321.61572265625	0.2	658669	257	32	2	0	0	62	205	stimuli\Videos_short_600ms_horvertflip\32.single_(long)pinch_with_fingers_short_horvertflip_short_600ms.mp4	32.single_(long)pinch_with_fingers_short_horvertflip_short_600ms.mp4	325.79027136178047	326.39850215404294	0.608230792262475				
322.41552734375	0.2	660307	258	32	2	0	0	63	209	stimuli\Videos_short_600ms_horvertflip\36.single_slap_with_full_hand_short_horvertflip_short_600ms.mp4	36.single_slap_with_full_hand_short_horvertflip_short_600ms.mp4	326.5902304245283	327.198490541472	0.6082601169437112				
323.21533203125	0.2	661945	259	32	2	0	0	64	31	stimuli\Videos_short_600ms\38.double_slap_with_pencil_short_short_600ms.mp4	38.double_slap_with_pencil_short_short_600ms.mp4	327.3902082550703	327.9984795153905	0.6082712603201799				
324.015625	0.2	663584	260	32	2	0	1	65	383	stimuli\Targets_short_600ms_vertflip\hand-stroke_short_horvertflip_short_600ms.mp4	hand-stroke_short_horvertflip_short_600ms.mp4	328.19015118924654	328.7984620378811	0.6083108486345736				
324.82373046875	0.2	665239	261	32	2	0	0	66	274	stimuli\Videos_short_600ms_vertflip\13.single_touch_with_pen_short_vertflip_short_600ms.mp4	13.single_touch_with_pen_short_vertflip_short_600ms.mp4	328.9984390473328	329.6067868450664	0.608347797733586				
325.62353515625	0.2	666877	262	32	2	0	0	67	293	stimuli\Videos_short_600ms_vertflip\30.finger_pulling_back_another_finger_short_vertflip_short_600ms.mp4	30.finger_pulling_back_another_finger_short_vertflip_short_600ms.mp4	329.79847288801466	330.40677259327276	0.608299705258105				
326.423828125	0.2	668516	263	32	2	0	0	68	193	stimuli\Videos_short_600ms_horvertflip\21.repeated_touch_with_metal_chopstick_short_horvertflip_short_600ms.mp4	21.repeated_touch_with_metal_chopstick_short_horvertflip_short_600ms.mp4	330.5984222736188	331.20676420641394	0.608341932795156				
327.2236328125	0.2	670154	264	32	2	0	0	69	328	stimuli\Videos_short_600ms_vertflip\62.touch_top_to_bottom_with_scissors_short_vertflip_short_600ms.mp4	62.touch_top_to_bottom_with_scissors_short_vertflip_short_600ms.mp4	331.3984053826025	332.0067523005928	0.608346917990275				
328.0234375	0.2	671792	265	32	2	0	0	70	118	stimuli\Videos_short_600ms_horflip\35.single_punch_with_hand_short_horflip_short_600ms.mp4	35.single_punch_with_hand_short_horflip_short_600ms.mp4	332.19847236017085	332.80673746230605	0.6082651021351921				
328.82373046875	0.2	673431	266	32	2	0	0	71	1	stimuli\Videos_short_600ms\10.single_touch_with_knife_short_short_600ms.mp4	10.single_touch_with_knife_short_short_600ms.mp4	332.9984786356508	333.60672291726587	0.6082442816150433				
329.62353515625	0.2	675069	267	32	2	0	0	72	182	stimuli\Videos_short_600ms_horvertflip\11.single_touch_with_lighter_short_horvertflip_short_600ms.mp4	11.single_touch_with_lighter_short_horvertflip_short_600ms.mp4	333.79845793242566	334.4066986950784	0.6082407626527129				
330.42333984375	0.2	676707	268	32	2	0	0	73	251	stimuli\Videos_short_600ms_horvertflip\74.fingers_walking_from_top_to_bottom_short_horvertflip_short_600ms.mp4	74.fingers_walking_from_top_to_bottom_short_horvertflip_short_600ms.mp4	334.59840555855044	335.2066967596511	0.6082912011006556				
331.2236328125	0.2	678346	269	32	2	0	0	74	349	stimuli\Videos_short_600ms_vertflip\81.single_stroke_top_to_bottom_with_cotton_pad_short_vertflip_short_600ms.mp4	81.single_stroke_top_to_bottom_with_cotton_pad_short_vertflip_short_600ms.mp4	335.39836843350713	336.0066634468167	0.6082950133095437				
332.0234375	0.2	679984	270	32	2	0	0	75	85	stimuli\Videos_short_600ms\87.single_stroke_top_to_bottom_with_plastic_brush_short_short_600ms.mp4	87.single_stroke_top_to_bottom_with_plastic_brush_short_short_600ms.mp4	336.19835447496007	336.80668057242656	0.6083260974664881				
332.8232421875	0.2	681622	271	32	2	0	0	76	181	stimuli\Videos_short_600ms_horvertflip\10.single_touch_with_knife_short_horvertflip_short_600ms.mp4	10.single_touch_with_knife_short_horvertflip_short_600ms.mp4	336.9983616301797	337.6066601624516	0.6082985322718741				
333.62353515625	0.2	683261	272	32	2	0	0	77	305	stimuli\Videos_short_600ms_vertflip\41.injection_with_blunt_syringe_short_vertflip_short_600ms.mp4	41.injection_with_blunt_syringe_short_vertflip_short_600ms.mp4	337.79832714435906	338.4066781678048	0.6083510234457208				
334.42333984375	0.2	684899	273	32	2	0	0	78	91	stimuli\Videos_short_600ms_horflip\10.single_touch_with_knife_short_horflip_short_600ms.mp4	10.single_touch_with_knife_short_horflip_short_600ms.mp4	338.59831230607233	339.2066384035388	0.6083260974664881				
335.2236328125	0.2	686538	274	32	2	0	0	79	261	stimuli\Videos_short_600ms_horvertflip\83.single_stroke_top_to_bottom_with_cotton_bud_short_horvertflip_short_600ms.mp4	83.single_stroke_top_to_bottom_with_cotton_bud_short_horvertflip_short_600ms.mp4	339.39885082447654	340.00663324239576	0.6077824179192248				
336.0234375	0.2	688176	275	32	2	0	0	80	33	stimuli\Videos_short_600ms\4.repeated_tap_with_finger_slow_short_short_600ms.mp4	4.repeated_tap_with_finger_slow_short_short_600ms.mp4	340.19874009448904	340.8066128324208	0.607872737931757				
336.8232421875	0.2	689814	276	32	2	0	0	81	93	stimuli\Videos_short_600ms_horflip\12.repeated_touch_with_nail_file_short_horflip_short_600ms.mp4	12.repeated_touch_with_nail_file_short_horflip_short_600ms.mp4	340.9983721870667	341.6066129497194	0.6082407626527129				
337.62353515625	0.2	691453	277	32	2	0	1	82	379	stimuli\Targets_short_600ms_vertflip\chopstick-silver-tap_short_horvertflip_short_600ms.mp4	chopstick-silver-tap_short_horvertflip_short_600ms.mp4	341.79827729240424	342.40658843428537	0.6083111418811313				
338.42333984375	0.2	693091	278	32	2	0	0	83	13	stimuli\Videos_short_600ms\21.repeated_touch_with_metal_chopstick_short_short_600ms.mp4	21.repeated_touch_with_metal_chopstick_short_short_600ms.mp4	342.5982950045109	343.2065768217144	0.6082818172035331				
339.22314453125	0.2	694729	279	32	2	0	0	84	99	stimuli\Videos_short_600ms_horflip\18.single_stroke_from_top_to_bottom_with_rolling_pin_short_horflip_short_600ms.mp4	18.single_stroke_from_top_to_bottom_with_rolling_pin_short_horflip_short_600ms.mp4	343.3983332438911	344.0065640361536	0.608230792262475				
340.0234375	0.2	696368	280	32	2	0	0	85	157	stimuli\Videos_short_600ms_horflip\70.(long)stroke_with_finger_all_over_the_hand_short_horflip_short_600ms.mp4	70.(long)stroke_with_finger_all_over_the_hand_short_horflip_short_600ms.mp4	344.19822808559184	344.80655301007573	0.6083249244838953				
340.8232421875	0.2	698006	281	32	2	0	0	86	147	stimuli\Videos_short_600ms_horflip\61.single_hit_with_rolling_pin_short_horflip_short_600ms.mp4	61.single_hit_with_rolling_pin_short_horflip_short_600ms.mp4	344.9982012241853	345.6065422772408	0.6083410530554829				
341.623046875	0.2	699644	282	32	2	0	0	87	254	stimuli\Videos_short_600ms_horvertflip\77.tapping_with_all_fingers_short_horvertflip_short_600ms.mp4	77.tapping_with_all_fingers_short_horvertflip_short_600ms.mp4	345.79826087058245	346.4065280254472	0.608267154864734				
342.42333984375	0.2	701283	283	32	2	0	0	88	98	stimuli\Videos_short_600ms_horflip\17.repeated_touch_with_rolling_pin_short_horflip_short_600ms.mp4	17.repeated_touch_with_rolling_pin_short_horflip_short_600ms.mp4	346.59822433203226	347.20651318716045	0.608288855128194				
343.22314453125	0.2	702921	284	32	2	0	0	89	314	stimuli\Videos_short_600ms_vertflip\5.repeated_tap_with_finger_moving_from_top_to_bottom_short_vertflip_short_600ms.mp4	5.repeated_tap_with_finger_moving_from_top_to_bottom_short_vertflip_short_600ms.mp4	347.3982089072524	348.0065027475757	0.6082938403233129				
344.02294921875	0.2	704559	285	32	2	0	0	90	197	stimuli\Videos_short_600ms_horvertflip\25.single_touch_with_stanley_knife_short_horvertflip_short_600ms.mp4	25.single_touch_with_stanley_knife_short_horvertflip_short_600ms.mp4	348.19829582560124	348.8064890822752	0.6081932566739852				
344.8232421875	0.2	706198	286	32	2	0	0	91	239	stimuli\Videos_short_600ms_horvertflip\63.stroke_top_to_bottom_with_screwdriver_short_horvertflip_short_600ms.mp4	63.stroke_top_to_bottom_with_screwdriver_short_horvertflip_short_600ms.mp4	348.99848127486985	349.6064733642452	0.6079920893753297				
345.623046875	0.2	707836	287	32	2	0	0	92	345	stimuli\Videos_short_600ms_vertflip\78.single_stroke_top_to_bottom_with_soft_brush_short_vertflip_short_600ms.mp4	78.single_stroke_top_to_bottom_with_soft_brush_short_vertflip_short_600ms.mp4	349.7982596975962	350.40644972855443	0.6081900309582124				
346.4228515625	0.2	709474	288	32	2	0	0	93	156	stimuli\Videos_short_600ms_horflip\7.repeated_touch_with_hairbrush_short_horflip_short_600ms.mp4	7.repeated_touch_with_hairbrush_short_horflip_short_600ms.mp4	350.59871815962833	351.20642697260337	0.6077088129750337				
347.22314453125	0.2	711113	289	32	2	0	0	94	79	stimuli\Videos_short_600ms\81.single_stroke_top_to_bottom_with_cotton_pad_short_short_600ms.mp4	81.single_stroke_top_to_bottom_with_cotton_pad_short_short_600ms.mp4	351.3981106695792	352.0064364737991	0.6083258042199304	5.0	5.0	1.604913877818035	1.0
382.513671875	0.2	783388	290	32	3	0	0	0	4	stimuli\Videos_short_600ms\13.single_touch_with_pen_short_short_600ms.mp4	13.single_touch_with_pen_short_short_600ms.mp4	386.6892158786104	387.2975586911453	0.6083428125348291				
383.3134765625	0.2	785026	291	32	3	0	0	1	22	stimuli\Videos_short_600ms\3.single_push_with_finger_short_short_600ms.mp4	3.single_push_with_finger_short_short_600ms.mp4	387.4892544112372	388.0975435596119	0.6082891483747517				
384.11328125	0.2	786664	292	32	3	0	0	2	140	stimuli\Videos_short_600ms_horflip\55.touch_top_to_bottom_with_nail_file_short_horflip_short_600ms.mp4	55.touch_top_to_bottom_with_nail_file_short_horflip_short_600ms.mp4	388.2892246173614	388.89753136054424	0.6083067431827658				
384.91357421875	0.2	788303	293	32	3	0	0	3	8	stimuli\Videos_short_600ms\17.repeated_touch_with_rolling_pin_short_short_600ms.mp4	17.repeated_touch_with_rolling_pin_short_short_600ms.mp4	389.08919130452705	389.69752062771295	0.6083293231858988				
385.71337890625	0.2	789941	294	32	3	0	0	4	46	stimuli\Videos_short_600ms\51.repeated_touch_with_hammer_short_short_600ms.mp4	51.repeated_touch_with_hammer_short_short_600ms.mp4	389.8896919940962	390.4975107746177	0.6078187805214839				
386.51318359375	0.2	791579	295	32	3	0	0	5	214	stimuli\Videos_short_600ms_horvertflip\40.repeated_push_with_finger_short_horvertflip_short_600ms.mp4	40.repeated_push_with_finger_short_horvertflip_short_600ms.mp4	390.6898569160912	391.297517929841	0.6076610137497482				
387.3134765625	0.2	793218	296	32	3	0	0	6	211	stimuli\Videos_short_600ms_horvertflip\38.double_slap_with_pencil_short_horvertflip_short_600ms.mp4	38.double_slap_with_pencil_short_horvertflip_short_600ms.mp4	391.48968137856355	392.0974784588216	0.6077970802580239				
388.11328125	0.2	794856	297	32	3	0	0	7	322	stimuli\Videos_short_600ms_vertflip\57.single_touch_with_nail_file_short_vertflip_short_600ms.mp4	57.single_touch_with_nail_file_short_vertflip_short_600ms.mp4	392.2896776836533	392.8974656732644	0.6077879896110971				
388.9130859375	0.2	796494	298	32	3	0	0	8	253	stimuli\Videos_short_600ms_horvertflip\76.tickle_with_fingers_from_top_to_bottom_short_horvertflip_short_600ms.mp4	76.tickle_with_fingers_from_top_to_bottom_short_horvertflip_short_600ms.mp4	393.08918690582504	393.697455233676	0.6082683278509649				
389.71337890625	0.2	798133	299	32	3	0	0	9	92	stimuli\Videos_short_600ms_horflip\11.single_touch_with_lighter_short_horflip_short_600ms.mp4	11.single_touch_with_lighter_short_horflip_short_600ms.mp4	393.889113711426	394.49744948603984	0.6083357746138063				
390.51318359375	0.2	799771	300	32	3	0	0	10	353	stimuli\Videos_short_600ms_vertflip\85.touch_top_to_bottom_with_fabric_short_vertflip_short_600ms.mp4	85.touch_top_to_bottom_with_fabric_short_vertflip_short_600ms.mp4	394.6891082570364	395.29743435450655	0.6083260974701261				
391.31298828125	0.2	801409	301	32	3	0	1	11	380	stimuli\Targets_short_600ms_vertflip\chopstickwood-tap_short_horvertflip_short_600ms.mp4	chopstickwood-tap_short_horvertflip_short_600ms.mp4	395.489189603697	396.09742860686674	0.6082390031697287				
392.11328125	0.2	803048	302	32	3	0	0	12	135	stimuli\Videos_short_600ms_horflip\50.single_(long)hard_push_with_thumb_short_horflip_short_600ms.mp4	50.single_(long)hard_push_with_thumb_short_horflip_short_600ms.mp4	396.2891677274856	396.8974064374124	0.608238709926809				
392.9130859375	0.2	804686	303	32	3	0	0	13	190	stimuli\Videos_short_600ms_horvertflip\19.single_touch_with_rolling_pin_short_horvertflip_short_600ms.mp4	19.single_touch_with_rolling_pin_short_horvertflip_short_600ms.mp4	397.0894440832599	397.6973962910706	0.6079522078107402				
393.71337890625	0.2	806325	304	32	3	0	0	14	267	stimuli\Videos_short_600ms_horvertflip\89.single_touch_with_plastic_brush_short_horvertflip_short_600ms.mp4	89.single_touch_with_plastic_brush_short_horvertflip_short_600ms.mp4	397.8890905449298	398.49738379876	0.6082932538301975				
394.51318359375	0.2	807963	305	32	3	0	0	15	285	stimuli\Videos_short_600ms_vertflip\23.single_push_with_a_spoon_short_vertflip_short_600ms.mp4	23.single_push_with_a_spoon_short_vertflip_short_600ms.mp4	398.6891114827522	399.2973707199526	0.6082592372004001				
395.31298828125	0.2	809601	306	32	3	0	0	16	26	stimuli\Videos_short_600ms\33.scratch_top_to_bottom_with_scissors_short_short_600ms.mp4	33.scratch_top_to_bottom_with_scissors_short_short_600ms.mp4	399.48903330315807	400.09735793439177	0.6083246312336996				
396.11328125	0.2	811240	307	32	3	0	0	17	52	stimuli\Videos_short_600ms\57.single_touch_with_nail_file_short_short_600ms.mp4	57.single_touch_with_nail_file_short_short_600ms.mp4	400.2893275469869	400.8973477880536	0.608020241066697				
396.9130859375	0.2	812878	308	32	3	0	0	18	232	stimuli\Videos_short_600ms_horvertflip\57.single_touch_with_nail_file_short_horvertflip_short_600ms.mp4	57.single_touch_with_nail_file_short_horvertflip_short_600ms.mp4	401.0889945359304	401.6973350024928	0.6083404665623675				
397.712890625	0.2	814516	309	32	3	0	0	19	100	stimuli\Videos_short_600ms_horflip\19.single_touch_with_rolling_pin_short_horflip_short_600ms.mp4	19.single_touch_with_rolling_pin_short_horflip_short_600ms.mp4	401.8890415727182	402.4973186979696	0.6082771252513339				
398.51318359375	0.2	816155	310	32	3	0	0	20	220	stimuli\Videos_short_600ms_horvertflip\46.scratching_top_to_bottom_with_finger_nails_short_horvertflip_short_600ms.mp4	46.scratching_top_to_bottom_with_finger_nails_short_horvertflip_short_600ms.mp4	402.6890695484617	403.2973111908541	0.608241642392386				
399.31298828125	0.2	817793	311	32	3	0	0	21	67	stimuli\Videos_short_600ms\70.(long)stroke_with_finger_all_over_the_hand_short_short_600ms.mp4	70.(long)stroke_with_finger_all_over_the_hand_short_short_600ms.mp4	403.4890705455	404.0972966458139	0.6082261003139138				
400.11279296875	0.2	819431	312	32	3	0	0	22	160	stimuli\Videos_short_600ms_horflip\73.single_stroke_with_flat_hand_short_horflip_short_600ms.mp4	73.single_stroke_with_flat_hand_short_horflip_short_600ms.mp4	404.2893621501062	404.89729060492755	0.6079284548213764				
400.9130859375	0.2	821070	313	32	3	0	0	23	142	stimuli\Videos_short_600ms_horflip\57.single_touch_with_nail_file_short_horflip_short_600ms.mp4	57.single_touch_with_nail_file_short_horflip_short_600ms.mp4	405.08897312891713	405.69727635313393	0.6083032242167974				
401.712890625	0.2	822708	314	32	3	0	0	24	326	stimuli\Videos_short_600ms_vertflip\60.single_push_with_tip_of_pencil_short_vertflip_short_600ms.mp4	60.single_push_with_tip_of_pencil_short_vertflip_short_600ms.mp4	405.8889448012742	406.4972635675731	0.6083187662989076				
402.5126953125	0.2	824346	315	32	3	0	1	25	381	stimuli\Targets_short_600ms_vertflip\finger-tap_short_horvertflip_short_600ms.mp4	finger-tap_short_horvertflip_short_600ms.mp4	406.6889238048061	407.2972214573347	0.608297652528563				
403.31298828125	0.2	825985	316	32	3	0	0	26	258	stimuli\Videos_short_600ms_horvertflip\80.stroke_with_sharp_stick_all_over_the_hand_short_horvertflip_short_600ms.mp4	80.stroke_with_sharp_stick_all_over_the_hand_short_horvertflip_short_600ms.mp4	407.4889394641832	408.0972098447637	0.6082703805805068				
404.11279296875	0.2	827623	317	32	3	0	0	27	68	stimuli\Videos_short_600ms\71.single_stroke_with_finger_top_to_bottom_short_short_600ms.mp4	71.single_stroke_with_finger_top_to_bottom_short_short_600ms.mp4	408.2888950079723	408.8972175864765	0.6083225785041577				
404.91259765625	0.2	829261	318	32	3	0	0	28	44	stimuli\Videos_short_600ms\5.repeated_tap_with_finger_moving_from_top_to_bottom_short_short_600ms.mp4	5.repeated_tap_with_finger_moving_from_top_to_bottom_short_short_600ms.mp4	409.08947018222534	409.69720773338486	0.6077375511595164				
405.712890625	0.2	830900	319	32	3	0	0	29	10	stimuli\Videos_short_600ms\19.single_touch_with_rolling_pin_short_short_600ms.mp4	19.single_touch_with_rolling_pin_short_short_600ms.mp4	409.888886151919	410.4971978802933	0.6083117283742467				
406.5126953125	0.2	832538	320	32	3	0	0	30	122	stimuli\Videos_short_600ms_horflip\39.single_stab_with_scissors_short_horflip_short_600ms.mp4	39.single_stab_with_scissors_short_horflip_short_600ms.mp4	410.68897629598	411.29719301239675	0.6082167164167913				
407.3125	0.2	834176	321	32	3	0	0	31	303	stimuli\Videos_short_600ms_vertflip\4.repeated_tap_with_finger_slow_short_vertflip_short_600ms.mp4	4.repeated_tap_with_finger_slow_short_vertflip_short_600ms.mp4	411.48892656132375	412.0971714294319	0.6082448681081587				
408.11279296875	0.2	835815	322	32	3	0	0	32	150	stimuli\Videos_short_600ms_horflip\64.repeated_touch_with_screwdriver_short_horflip_short_600ms.mp4	64.repeated_touch_with_screwdriver_short_horflip_short_600ms.mp4	412.2888953012189	412.8971571776383	0.6082618764194194				
408.91259765625	0.2	837453	323	32	3	0	0	33	74	stimuli\Videos_short_600ms\77.tapping_with_all_fingers_short_short_600ms.mp4	77.tapping_with_all_fingers_short_short_600ms.mp4	413.08883823539145	413.6971449785742	0.6083067431827658				
409.71240234375	0.2	839091	324	32	3	0	0	34	18	stimuli\Videos_short_600ms\26.single_touch_with_a_blunt_syringe_short_short_600ms.mp4	26.single_touch_with_a_blunt_syringe_short_short_600ms.mp4	413.88878204930734	414.4971336592462	0.6083516099388362				
410.5126953125	0.2	840730	325	32	3	0	0	35	289	stimuli\Videos_short_600ms_vertflip\27.single_push_with_a_plastic_whisk_short_vertflip_short_600ms.mp4	27.single_push_with_a_plastic_whisk_short_vertflip_short_600ms.mp4	414.6889581146788	415.29712087368534	0.6081627590065182				
411.3125	0.2	842368	326	32	3	0	0	36	210	stimuli\Videos_short_600ms_horvertflip\37.single_stab_with_nail_file_short_horvertflip_short_600ms.mp4	37.single_stab_with_nail_file_short_horvertflip_short_600ms.mp4	415.4888579415747	416.09710955436094	0.6082516127862618				
412.1123046875	0.2	844006	327	32	3	0	0	37	301	stimuli\Videos_short_600ms_vertflip\38.double_slap_with_pencil_short_vertflip_short_600ms.mp4	38.double_slap_with_pencil_short_vertflip_short_600ms.mp4	416.2888181773123	416.8970947160742	0.6082765387618565				
412.91259765625	0.2	845645	328	32	3	0	0	38	235	stimuli\Videos_short_600ms_horvertflip\6.single_touch_with_flat_hand_short_horvertflip_short_600ms.mp4	6.single_touch_with_flat_hand_short_horvertflip_short_600ms.mp4	417.0888156553883	417.6971479110398	0.6083322556514759				
413.71240234375	0.2	847283	329	32	3	0	0	39	30	stimuli\Videos_short_600ms\37.single_stab_with_nail_file_short_short_600ms.mp4	37.single_stab_with_nail_file_short_short_600ms.mp4	417.88875243137954	418.4970703179388	0.6083178865592345				
414.5126953125	0.2	848922	330	32	3	0	0	40	294	stimuli\Videos_short_600ms_vertflip\31.hand_grabbing_wrist_short_vertflip_short_600ms.mp4	31.hand_grabbing_wrist_short_vertflip_short_600ms.mp4	418.68909095547497	419.2970575323816	0.6079665769066196				
415.3125	0.2	850560	331	32	3	0	0	41	291	stimuli\Videos_short_600ms_vertflip\29.single_pinch_with_tweezers_short_vertflip_short_600ms.mp4	29.single_pinch_with_tweezers_short_vertflip_short_600ms.mp4	419.48907963615056	420.09704679954666	0.607967163396097				
416.1123046875	0.2	852198	332	32	3	0	0	42	215	stimuli\Videos_short_600ms_horvertflip\41.injection_with_blunt_syringe_short_horvertflip_short_600ms.mp4	41.injection_with_blunt_syringe_short_horvertflip_short_600ms.mp4	420.28904632331614	420.89703108152025	0.6079847582041111				
416.91259765625	0.2	853837	333	32	3	0	0	43	20	stimuli\Videos_short_600ms\28.single_injection_with_sharp_needle_short_short_600ms.mp4	28.single_injection_with_sharp_needle_short_short_600ms.mp4	421.0887100865438	421.6970065660862	0.6082964795423322				
417.71240234375	0.2	855475	334	32	3	0	1	44	378	stimuli\Targets_short_600ms_vertflip\brush-stroke_short_horvertflip_short_600ms.mp4	brush-stroke_short_horvertflip_short_600ms.mp4	421.8887562435884	422.4970034576727	0.6082472140842583				
418.51220703125	0.2	857113	335	32	3	0	0	45	270	stimuli\Videos_short_600ms_vertflip\1.repeated_touch_with_finger_fast_short_vertflip_short_600ms.mp4	1.repeated_touch_with_finger_fast_short_vertflip_short_600ms.mp4	422.688811198037	423.2969941910742	0.6081829930371896				
419.3125	0.2	858752	336	32	3	0	0	46	69	stimuli\Videos_short_600ms\72.(short)stroke_with_finger_all_over_the_hand_short_short_600ms.mp4	72.(short)stroke_with_finger_all_over_the_hand_short_short_600ms.mp4	423.4886635189541	424.0969863907085	0.6083228717543534				
420.1123046875	0.2	860390	337	32	3	0	0	47	313	stimuli\Videos_short_600ms_vertflip\49.repeated_slap_with_hand_short_vertflip_short_600ms.mp4	49.repeated_slap_with_hand_short_vertflip_short_600ms.mp4	424.2887149544404	424.89697301865453	0.6082580642141693				
420.912109375	0.2	862028	338	32	3	0	0	48	12	stimuli\Videos_short_600ms\20.single_touch_with_screwdriver_short_short_600ms.mp4	20.single_touch_with_screwdriver_short_short_600ms.mp4	425.0886892660237	425.6969669777718	0.6082777117480873				
421.71240234375	0.2	863667	339	32	3	0	0	49	50	stimuli\Videos_short_600ms\55.touch_top_to_bottom_with_nail_file_short_short_600ms.mp4	55.touch_top_to_bottom_with_nail_file_short_short_600ms.mp4	425.88862164331294	426.4969553651972	0.6083337218842644				
422.51220703125	0.2	865305	340	32	3	0	0	50	47	stimuli\Videos_short_600ms\52.touch_top_to_bottom_with_hammer_short_short_600ms.mp4	52.touch_top_to_bottom_with_hammer_short_short_600ms.mp4	426.6885845182696	427.29693554171536	0.6083510234457208				
423.31201171875	0.2	866943	341	32	3	0	0	51	354	stimuli\Videos_short_600ms_vertflip\86.touch_top_to_bottom_with_hair_brush_short_vertflip_short_600ms.mp4	86.touch_top_to_bottom_with_hair_brush_short_vertflip_short_600ms.mp4	427.48867964752935	428.0969221696614	0.6082425221320591				
424.1123046875	0.2	868582	342	32	3	0	0	52	340	stimuli\Videos_short_600ms_vertflip\73.single_stroke_with_flat_hand_short_vertflip_short_600ms.mp4	73.single_stroke_with_flat_hand_short_vertflip_short_600ms.mp4	428.2886234614416	428.8969082111143	0.6082847496727481				
424.912109375	0.2	870220	343	32	3	0	0	53	355	stimuli\Videos_short_600ms_vertflip\87.single_stroke_top_to_bottom_with_plastic_brush_short_vertflip_short_600ms.mp4	87.single_stroke_top_to_bottom_with_plastic_brush_short_vertflip_short_600ms.mp4	429.08863530861345	429.6968968917863	0.6082615831728617				
425.7119140625	0.2	871858	344	32	3	0	0	54	179	stimuli\Videos_short_600ms_horflip\90.repeated_touch_with_sponge_short_horflip_short_600ms.mp4	90.repeated_touch_with_sponge_short_horflip_short_600ms.mp4	429.8886565396824	430.49688146700646	0.608224927324045				
426.51220703125	0.2	873497	345	32	3	0	0	55	310	stimuli\Videos_short_600ms_vertflip\46.scratching_top_to_bottom_with_finger_nails_short_vertflip_short_600ms.mp4	46.scratching_top_to_bottom_with_finger_nails_short_vertflip_short_600ms.mp4	430.6885378920306	431.2968716139149	0.6083337218842644				
427.31201171875	0.2	875135	346	32	3	0	0	56	248	stimuli\Videos_short_600ms_horvertflip\71.single_stroke_with_finger_top_to_bottom_short_horvertflip_short_600ms.mp4	71.single_stroke_with_finger_top_to_bottom_short_horvertflip_short_600ms.mp4	431.4885253997163	432.0968597080937	0.6083343083773798				
428.11181640625	0.2	876773	347	32	3	0	0	57	168	stimuli\Videos_short_600ms_horflip\80.stroke_with_sharp_stick_all_over_the_hand_short_horflip_short_600ms.mp4	80.stroke_with_sharp_stick_all_over_the_hand_short_horflip_short_600ms.mp4	432.2885451645489	432.8968475090296	0.6083023444807623				
428.912109375	0.2	878412	348	32	3	0	0	58	319	stimuli\Videos_short_600ms_vertflip\54.repeated_touch_with_knife_short_vertflip_short_600ms.mp4	54.repeated_touch_with_knife_short_vertflip_short_600ms.mp4	433.0884842865162	433.6968109704794	0.6083266839632415				
429.7119140625	0.2	880050	349	32	3	0	0	59	5	stimuli\Videos_short_600ms\14.repeated_touch_with_pencil_short_short_600ms.mp4	14.repeated_touch_with_pencil_short_short_600ms.mp4	433.88847384693145	434.4968222311545	0.6083483842230635				
430.51171875	0.2	881688	350	32	3	0	0	60	103	stimuli\Videos_short_600ms_horflip\21.repeated_touch_with_metal_chopstick_short_horflip_short_600ms.mp4	21.repeated_touch_with_metal_chopstick_short_horflip_short_600ms.mp4	434.68848950630854	435.29680827260745	0.6083187662989076				
431.31201171875	0.2	883327	351	32	3	0	0	61	174	stimuli\Videos_short_600ms_horflip\86.touch_top_to_bottom_with_hair_brush_short_horflip_short_600ms.mp4	86.touch_top_to_bottom_with_hair_brush_short_horflip_short_600ms.mp4	435.4884617651624	436.0967928478276	0.608331082665245				
432.11181640625	0.2	884965	352	32	3	0	0	62	283	stimuli\Videos_short_600ms_vertflip\21.repeated_touch_with_metal_chopstick_short_vertflip_short_600ms.mp4	21.repeated_touch_with_metal_chopstick_short_vertflip_short_600ms.mp4	436.28856715805887	436.89678475421533	0.6082175961564644				
432.91162109375	0.2	886603	353	32	3	0	0	63	296	stimuli\Videos_short_600ms_vertflip\33.scratch_top_to_bottom_with_scissors_short_vertflip_short_600ms.mp4	33.scratch_top_to_bottom_with_scissors_short_vertflip_short_600ms.mp4	437.088541176392	437.69674821566514	0.6082070392731111				
433.7119140625	0.2	888242	354	32	3	0	1	64	370	stimuli\Targets_short_600ms_horflip\hand-pinch_short_horflip_short_600ms.mp4	hand-pinch_short_horflip_short_600ms.mp4	437.8885389477182	438.49675419789855	0.6082152501803648				
434.51171875	0.2	889880	355	32	3	0	0	65	6	stimuli\Videos_short_600ms\15.single_stroke_top_to_bottom_with_a_plastic_whisk_short_short_600ms.mp4	15.single_stroke_top_to_bottom_with_a_plastic_whisk_short_short_600ms.mp4	438.68851003358577	439.2967425853276	0.6082325517418212				
435.31201171875	0.2	891519	356	32	3	0	0	66	76	stimuli\Videos_short_600ms\79.long_with_soft_brush_all_over_the_hand_short_short_600ms.mp4	79.long_with_soft_brush_all_over_the_hand_short_short_600ms.mp4	439.48838522774895	440.0967391836639	0.6083539559149358				
436.11181640625	0.2	893157	357	32	3	0	0	67	16	stimuli\Videos_short_600ms\24.single_stroke_top_to_bottom_with_a_spoon_short_short_600ms.mp4	24.single_stroke_top_to_bottom_with_a_spoon_short_short_600ms.mp4	440.28839443569814	440.8967246386237	0.6083302029255719				
436.91162109375	0.2	894795	358	32	3	0	0	68	290	stimuli\Videos_short_600ms_vertflip\28.single_injection_with_sharp_needle_short_vertflip_short_600ms.mp4	28.single_injection_with_sharp_needle_short_vertflip_short_600ms.mp4	441.0884320885889	441.696718597741	0.6082865091520944				
437.7119140625	0.2	896434	359	32	3	0	0	69	59	stimuli\Videos_short_600ms\63.stroke_top_to_bottom_with_screwdriver_short_short_600ms.mp4	63.stroke_top_to_bottom_with_screwdriver_short_short_600ms.mp4	441.8883800079566	442.4966961350365	0.6083161270798882				
438.51171875	0.2	898072	360	32	3	0	1	70	381	stimuli\Targets_short_600ms_vertflip\finger-tap_short_horvertflip_short_600ms.mp4	finger-tap_short_horvertflip_short_600ms.mp4	442.6884290974704	443.296695665842	0.6082665683716186				
439.3115234375	0.2	899710	361	32	3	0	0	71	130	stimuli\Videos_short_600ms_horflip\46.scratching_top_to_bottom_with_finger_nails_short_horflip_short_600ms.mp4	46.scratching_top_to_bottom_with_finger_nails_short_horflip_short_600ms.mp4	443.4884312674949	444.0966699774217	0.608238709926809				
440.11181640625	0.2	901349	362	32	3	0	0	72	321	stimuli\Videos_short_600ms_vertflip\56.repeated_touch_with_nail_file_short_vertflip_short_600ms.mp4	56.repeated_touch_with_nail_file_short_vertflip_short_600ms.mp4	444.2883334403669	444.89666159056287	0.60832815019603				
440.91162109375	0.2	902987	363	32	3	0	0	73	155	stimuli\Videos_short_600ms_horflip\69.stroke_with_soft_sock_short_horflip_short_600ms.mp4	69.stroke_with_soft_sock_short_horflip_short_600ms.mp4	445.0883212412991	445.69664733876925	0.6083260974701261				
441.71142578125	0.2	904625	364	32	3	0	1	74	375	stimuli\Targets_short_600ms_horvertflip\finger-tap_short_vertflip_short_600ms.mp4	finger-tap_short_vertflip_short_600ms.mp4	445.8882841162558	446.49663425996187	0.6083501437060477				
442.51171875	0.2	906264	365	32	3	0	0	75	83	stimuli\Videos_short_600ms\85.touch_top_to_bottom_with_fabric_short_short_600ms.mp4	85.touch_top_to_bottom_with_fabric_short_short_600ms.mp4	446.6883279273279	447.2966197149217	0.608291787593771				
443.3115234375	0.2	907902	366	32	3	0	1	76	362	stimuli\Targets_short_600ms\chopstickwood-tap_short_short_600ms.mp4	chopstickwood-tap_short_short_600ms.mp4	447.488268515528	448.09660810235073	0.6083395868226944				
444.111328125	0.2	909540	367	32	3	0	0	77	32	stimuli\Videos_short_600ms\39.single_stab_with_scissors_short_short_600ms.mp4	39.single_stab_with_scissors_short_short_600ms.mp4	448.28828417490513	448.8965944370502	0.6083102621450962				
444.91162109375	0.2	911179	368	32	3	0	0	78	188	stimuli\Videos_short_600ms_horvertflip\17.repeated_touch_with_rolling_pin_short_horvertflip_short_600ms.mp4	17.repeated_touch_with_rolling_pin_short_horvertflip_short_600ms.mp4	449.0884523226159	449.6965804784995	0.6081281558836054				
445.71142578125	0.2	912817	369	32	3	0	0	79	110	stimuli\Videos_short_600ms_horflip\28.single_injection_with_sharp_needle_short_horflip_short_600ms.mp4	28.single_injection_with_sharp_needle_short_horflip_short_600ms.mp4	449.88840376094595	450.4965650537197	0.6081612927737297				
446.51123046875	0.2	914455	370	32	3	0	0	80	173	stimuli\Videos_short_600ms_horflip\85.touch_top_to_bottom_with_fabric_short_horflip_short_600ms.mp4	85.touch_top_to_bottom_with_fabric_short_horflip_short_600ms.mp4	450.6883167839478	451.29656106556286	0.6082442816150433				
447.3115234375	0.2	916094	371	32	3	0	0	81	325	stimuli\Videos_short_600ms_vertflip\6.single_touch_with_flat_hand_short_vertflip_short_600ms.mp4	6.single_touch_with_flat_hand_short_vertflip_short_600ms.mp4	451.48851924153496	452.09652012831066	0.6080008867756987				
448.111328125	0.2	917732	372	32	3	0	0	82	317	stimuli\Videos_short_600ms_vertflip\52.touch_top_to_bottom_with_hammer_short_vertflip_short_600ms.mp4	52.touch_top_to_bottom_with_hammer_short_vertflip_short_600ms.mp4	452.2881876967113	452.89650704950327	0.608319352792023				
448.9111328125	0.2	919370	373	32	3	0	0	83	39	stimuli\Videos_short_600ms\45.scratching_with_finger_nails_short_short_600ms.mp4	45.scratching_with_finger_nails_short_short_600ms.mp4	453.0881969046605	453.69649719641166	0.6083002917512204				
449.71142578125	0.2	921009	374	32	3	0	0	84	227	stimuli\Videos_short_600ms_horvertflip\52.touch_top_to_bottom_with_hammer_short_horvertflip_short_600ms.mp4	52.touch_top_to_bottom_with_hammer_short_horvertflip_short_600ms.mp4	453.8881615391001	454.4965046448815	0.6083431057813868				
450.51123046875	0.2	922647	375	32	3	0	0	85	199	stimuli\Videos_short_600ms_horvertflip\27.single_push_with_a_plastic_whisk_short_horvertflip_short_600ms.mp4	27.single_push_with_a_plastic_whisk_short_horvertflip_short_600ms.mp4	454.6881684010732	455.296495378283	0.6083269772097992				
