onset	duration	onsetsample	eventnumber	subjectnr	sequencenumber	blocksequencenumber	istarget	presentationnumber	stimnumber	stim	stimname	time_stimon	time_stimoff	stimdur	cresp	resp	rt	correct
52.51123046875	0.2	107543	0	42	0	0	0	0	261	stimuli\Videos_short_600ms_horvertflip\83.single_stroke_top_to_bottom_with_cotton_bud_short_horvertflip_short_600ms.mp4	83.single_stroke_top_to_bottom_with_cotton_bud_short_horvertflip_short_600ms.mp4	2281.4433908207766	2282.0496681070786	0.6062772863019745	n/a	n/a	n/a	n/a
53.31103515625	0.2	109181	1	42	0	0	0	1	229	stimuli\Videos_short_600ms_horvertflip\54.repeated_touch_with_knife_short_horvertflip_short_600ms.mp4	54.repeated_touch_with_knife_short_horvertflip_short_600ms.mp4	2282.249651626797	2282.857970180661	0.6083185538641374	n/a	n/a	n/a	n/a
54.11083984375	0.2	110819	2	42	0	0	0	2	305	stimuli\Videos_short_600ms_vertflip\41.injection_with_blunt_syringe_short_vertflip_short_600ms.mp4	41.injection_with_blunt_syringe_short_vertflip_short_600ms.mp4	2283.0496288124577	2283.657920094682	0.6082912822243998	n/a	n/a	n/a	n/a
54.9111328125	0.2	112458	3	42	0	0	0	3	243	stimuli\Videos_short_600ms_horvertflip\67.single_touch_with_sponge_short_horvertflip_short_600ms.mp4	67.single_touch_with_sponge_short_horvertflip_short_600ms.mp4	2283.84964793193	2284.457901385751	0.6082534538209075	n/a	n/a	n/a	n/a
55.7109375	0.2	114096	4	42	0	0	0	4	56	stimuli\Videos_short_600ms\60.single_push_with_tip_of_pencil_short_short_600ms.mp4	60.single_push_with_tip_of_pencil_short_short_600ms.mp4	2284.6495913945955	2285.2578791578985	0.6082877633029966	n/a	n/a	n/a	n/a
56.5107421875	0.2	115734	5	42	0	0	0	5	236	stimuli\Videos_short_600ms_horvertflip\60.single_push_with_tip_of_pencil_short_horvertflip_short_600ms.mp4	60.single_push_with_tip_of_pencil_short_horvertflip_short_600ms.mp4	2285.4495624221436	2286.0578859611464	0.6083235390028676	n/a	n/a	n/a	n/a
57.31103515625	0.2	117373	6	42	0	0	0	6	124	stimuli\Videos_short_600ms_horflip\40.repeated_push_with_finger_short_horflip_short_600ms.mp4	40.repeated_push_with_finger_short_horflip_short_600ms.mp4	2286.2495431267257	2286.857861973833	0.6083188471075118	n/a	n/a	n/a	n/a
58.11083984375	0.2	119011	7	42	0	0	1	7	361	stimuli\Targets_short_600ms\chopstick-silver-tap_short_short_600ms.mp4	chopstick-silver-tap_short_short_600ms.mp4	2287.049521192117	2287.6578482500404	0.608327057923816	n/a	n/a	n/a	n/a
58.91064453125	0.2	120649	8	42	0	0	0	8	87	stimuli\Videos_short_600ms\89.single_touch_with_plastic_brush_short_short_600ms.mp4	89.single_touch_with_plastic_brush_short_short_600ms.mp4	2287.8495775535052	2288.4578219167797	0.6082443632744798	n/a	n/a	n/a	n/a
59.7109375	0.2	122288	9	42	0	0	0	9	199	stimuli\Videos_short_600ms_horvertflip\27.single_push_with_a_plastic_whisk_short_horvertflip_short_600ms.mp4	27.single_push_with_a_plastic_whisk_short_horvertflip_short_600ms.mp4	2288.6494793756024	2289.257802328118	0.6083229525156639	n/a	n/a	n/a	n/a
60.5107421875	0.2	123926	10	42	0	0	0	10	223	stimuli\Videos_short_600ms_horvertflip\49.repeated_slap_with_hand_short_horvertflip_short_600ms.mp4	49.repeated_slap_with_hand_short_horvertflip_short_600ms.mp4	2289.449460959914	2290.05777276918	0.6083118092651603	n/a	n/a	n/a	n/a
61.310546875	0.2	125564	11	42	0	0	0	11	193	stimuli\Videos_short_600ms_horvertflip\21.repeated_touch_with_metal_chopstick_short_horvertflip_short_600ms.mp4	21.repeated_touch_with_metal_chopstick_short_horvertflip_short_600ms.mp4	2290.2494360928713	2290.857755233222	0.6083191403508863	n/a	n/a	n/a	n/a
62.11083984375	0.2	127203	12	42	0	0	0	12	212	stimuli\Videos_short_600ms_horvertflip\39.single_stab_with_scissors_short_horvertflip_short_600ms.mp4	39.single_stab_with_scissors_short_horvertflip_short_600ms.mp4	2291.0494156244795	2291.6577350580737	0.6083194335942608	n/a	n/a	n/a	n/a
62.91064453125	0.2	128841	13	42	0	0	0	13	309	stimuli\Videos_short_600ms_vertflip\45.scratching_with_finger_nails_short_vertflip_short_600ms.mp4	45.scratching_with_finger_nails_short_vertflip_short_600ms.mp4	2291.8493972087917	2292.4577081383263	0.6083109295345821	n/a	n/a	n/a	n/a
63.71044921875	0.2	130479	14	42	0	0	0	14	89	stimuli\Videos_short_600ms\90.repeated_touch_with_sponge_short_short_600ms.mp4	90.repeated_touch_with_sponge_short_short_600ms.mp4	2292.649354747142	2293.257687083448	0.6083323363059208	n/a	n/a	n/a	n/a
64.5107421875	0.2	132118	15	42	0	0	0	15	149	stimuli\Videos_short_600ms_horflip\63.stroke_top_to_bottom_with_screwdriver_short_horflip_short_600ms.mp4	63.stroke_top_to_bottom_with_screwdriver_short_horflip_short_600ms.mp4	2293.449331346316	2294.057672186681	0.6083408403651447	n/a	n/a	n/a	n/a
65.310546875	0.2	133756	16	42	0	0	0	16	90	stimuli\Videos_short_600ms_horflip\1.repeated_touch_with_finger_fast_short_horflip_short_600ms.mp4	1.repeated_touch_with_finger_fast_short_horflip_short_600ms.mp4	2294.249323780635	2294.857650252072	0.6083264714366123	n/a	n/a	n/a	n/a
66.1103515625	0.2	135394	17	42	0	0	0	17	268	stimuli\Videos_short_600ms_horvertflip\9.single_touch_with_hammer_short_horvertflip_short_600ms.mp4	9.single_touch_with_hammer_short_horvertflip_short_600ms.mp4	2295.049311816302	2295.6576306634106	0.6083188471079666	n/a	n/a	n/a	n/a
66.91064453125	0.2	137033	18	42	0	0	0	18	258	stimuli\Videos_short_600ms_horvertflip\80.stroke_with_sharp_stick_all_over_the_hand_short_horvertflip_short_600ms.mp4	80.stroke_with_sharp_stick_all_over_the_hand_short_horvertflip_short_600ms.mp4	2295.849502776429	2296.457606382854	0.6081036064251748	n/a	n/a	n/a	n/a
67.71044921875	0.2	138671	19	42	0	0	0	19	207	stimuli\Videos_short_600ms_horvertflip\34.repeated_punch_with_hand_short_horvertflip_short_600ms.mp4	34.repeated_punch_with_hand_short_horvertflip_short_600ms.mp4	2296.649279676822	2297.2575947117653	0.608315034943189	n/a	n/a	n/a	n/a
68.5107421875	0.2	140310	20	42	0	0	0	20	270	stimuli\Videos_short_600ms_vertflip\1.repeated_touch_with_finger_fast_short_vertflip_short_600ms.mp4	1.repeated_touch_with_finger_fast_short_vertflip_short_600ms.mp4	2297.4492612611343	2298.057569551478	0.6083082903437571	n/a	n/a	n/a	n/a
69.310546875	0.2	141948	21	42	0	0	0	21	173	stimuli\Videos_short_600ms_horflip\85.touch_top_to_bottom_with_fabric_short_horflip_short_600ms.mp4	85.touch_top_to_bottom_with_fabric_short_horflip_short_600ms.mp4	2298.249227010301	2298.8575417520005	0.6083147416993597	n/a	n/a	n/a	n/a
70.1103515625	0.2	143586	22	42	0	0	0	22	283	stimuli\Videos_short_600ms_vertflip\21.repeated_touch_with_metal_chopstick_short_vertflip_short_600ms.mp4	21.repeated_touch_with_metal_chopstick_short_vertflip_short_600ms.mp4	2299.049204489205	2299.6575206971215	0.6083162079166868	n/a	n/a	n/a	n/a
70.91064453125	0.2	145225	23	42	0	0	0	23	97	stimuli\Videos_short_600ms_horflip\16.repeated_touch_with_plastic_brush_short_horflip_short_600ms.mp4	16.repeated_touch_with_plastic_brush_short_horflip_short_600ms.mp4	2299.849183141083	2300.4574776489853	0.6082945079024284	n/a	n/a	n/a	n/a
71.71044921875	0.2	146863	24	42	0	0	0	24	12	stimuli\Videos_short_600ms\20.single_touch_with_screwdriver_short_short_600ms.mp4	20.single_touch_with_screwdriver_short_short_600ms.mp4	2300.649214283536	2301.257482106286	0.6082678227494398	n/a	n/a	n/a	n/a
72.51025390625	0.2	148501	25	42	0	0	0	25	222	stimuli\Videos_short_600ms_horvertflip\48.single_slap_with_hand_short_horvertflip_short_600ms.mp4	48.single_slap_with_hand_short_horvertflip_short_600ms.mp4	2301.4495418951033	2302.0574736608746	0.6079317657713545	n/a	n/a	n/a	n/a
73.310546875	0.2	150140	26	42	0	0	0	26	263	stimuli\Videos_short_600ms_horvertflip\85.touch_top_to_bottom_with_fabric_short_horvertflip_short_600ms.mp4	85.touch_top_to_bottom_with_fabric_short_horvertflip_short_600ms.mp4	2302.249096810215	2302.8574470343706	0.6083502241554015	n/a	n/a	n/a	n/a
74.1103515625	0.2	151778	27	42	0	0	0	27	57	stimuli\Videos_short_600ms\61.single_hit_with_rolling_pin_short_short_600ms.mp4	61.single_hit_with_rolling_pin_short_short_600ms.mp4	2303.049699484126	2303.657414836241	0.6077153521150649	n/a	n/a	n/a	n/a
74.91015625	0.2	153416	28	42	0	0	0	28	264	stimuli\Videos_short_600ms_horvertflip\86.touch_top_to_bottom_with_hair_brush_short_horvertflip_short_600ms.mp4	86.touch_top_to_bottom_with_hair_brush_short_horvertflip_short_600ms.mp4	2303.84914707214	2304.4574093232645	0.6082622511244153	n/a	n/a	n/a	n/a
75.71044921875	0.2	155055	29	42	0	0	0	29	167	stimuli\Videos_short_600ms_horflip\8.single_touch_with_hairbrush_short_horflip_short_600ms.mp4	8.single_touch_with_hairbrush_short_horflip_short_600ms.mp4	2304.649058571271	2305.2573788845957	0.6083203133248389	n/a	n/a	n/a	n/a
76.51025390625	0.2	156693	30	42	0	0	0	30	201	stimuli\Videos_short_600ms_horvertflip\29.single_pinch_with_tweezers_short_horvertflip_short_600ms.mp4	29.single_pinch_with_tweezers_short_horvertflip_short_600ms.mp4	2305.4490357569316	2306.0573519648483	0.6083162079166868	n/a	n/a	n/a	n/a
77.31005859375	0.2	158331	31	42	0	0	0	31	211	stimuli\Videos_short_600ms_horvertflip\38.double_slap_with_pencil_short_horvertflip_short_600ms.mp4	38.double_slap_with_pencil_short_horvertflip_short_600ms.mp4	2306.249017341244	2306.8573317897	0.6083144484559853	n/a	n/a	n/a	n/a
78.1103515625	0.2	159970	32	42	0	0	0	32	183	stimuli\Videos_short_600ms_horvertflip\12.repeated_touch_with_nail_file_short_horvertflip_short_600ms.mp4	12.repeated_touch_with_nail_file_short_horvertflip_short_600ms.mp4	2307.049000391773	2307.657310734821	0.6083103430478332	n/a	n/a	n/a	n/a
78.91015625	0.2	161608	33	42	0	0	0	33	118	stimuli\Videos_short_600ms_horflip\35.single_punch_with_hand_short_horflip_short_600ms.mp4	35.single_punch_with_hand_short_horflip_short_600ms.mp4	2307.849032120713	2308.457295251568	0.6082631308545388	n/a	n/a	n/a	n/a
79.7099609375	0.2	163246	34	42	0	0	1	34	366	stimuli\Targets_short_600ms_horflip\brush-stroke_short_horflip_short_600ms.mp4	brush-stroke_short_horflip_short_600ms.mp4	2308.6489603347195	2309.25730498725	0.6083446525303771	n/a	n/a	n/a	n/a
80.51025390625	0.2	164885	35	42	0	0	0	35	340	stimuli\Videos_short_600ms_vertflip\73.single_stroke_with_flat_hand_short_vertflip_short_600ms.mp4	73.single_stroke_with_flat_hand_short_vertflip_short_600ms.mp4	2309.4489310690246	2310.057324399965	0.6083933309405438	n/a	n/a	n/a	n/a
81.31005859375	0.2	166523	36	42	0	0	0	36	237	stimuli\Videos_short_600ms_horvertflip\61.single_hit_with_rolling_pin_short_horvertflip_short_600ms.mp4	61.single_hit_with_rolling_pin_short_horvertflip_short_600ms.mp4	2310.248890366836	2310.8572276882796	0.6083373214437415	n/a	n/a	n/a	n/a
82.10986328125	0.2	168161	37	42	0	0	0	37	204	stimuli\Videos_short_600ms_horvertflip\31.hand_grabbing_wrist_short_horvertflip_short_600ms.mp4	31.hand_grabbing_wrist_short_horvertflip_short_600ms.mp4	2311.0488957038665	2311.657292553728	0.6083968498614922	n/a	n/a	n/a	n/a
82.91015625	0.2	169800	38	42	0	0	0	38	296	stimuli\Videos_short_600ms_vertflip\33.scratch_top_to_bottom_with_scissors_short_vertflip_short_600ms.mp4	33.scratch_top_to_bottom_with_scissors_short_vertflip_short_600ms.mp4	2311.848845911131	2312.4571952555557	0.6083493444248234	n/a	n/a	n/a	n/a
83.7099609375	0.2	171438	39	42	0	0	0	39	136	stimuli\Videos_short_600ms_horflip\51.repeated_touch_with_hammer_short_horflip_short_600ms.mp4	51.repeated_touch_with_hammer_short_horflip_short_600ms.mp4	2312.6488521278916	2313.257140770925	0.6082886430335748	n/a	n/a	n/a	n/a
84.509765625	0.2	173076	40	42	0	0	0	40	158	stimuli\Videos_short_600ms_horflip\71.single_stroke_with_finger_top_to_bottom_short_horflip_short_600ms.mp4	71.single_stroke_with_finger_top_to_bottom_short_horflip_short_600ms.mp4	2313.448919046044	2314.057149626877	0.6082305808331512	n/a	n/a	n/a	n/a
85.31005859375	0.2	174715	41	42	0	0	0	41	351	stimuli\Videos_short_600ms_vertflip\83.single_stroke_top_to_bottom_with_cotton_bud_short_vertflip_short_600ms.mp4	83.single_stroke_top_to_bottom_with_cotton_bud_short_vertflip_short_600ms.mp4	2314.248854297893	2314.8571232936165	0.6082689957233924	n/a	n/a	n/a	n/a
86.10986328125	0.2	176353	42	42	0	0	0	42	350	stimuli\Videos_short_600ms_vertflip\82.repeated_touch_with_cotton_bud_short_vertflip_short_600ms.mp4	82.repeated_touch_with_cotton_bud_short_vertflip_short_600ms.mp4	2315.0487869105514	2315.6571022387375	0.6083153281861087	n/a	n/a	n/a	n/a
86.90966796875	0.2	177991	43	42	0	0	0	43	176	stimuli\Videos_short_600ms_horflip\88.repeated_stroke_with_plastic_brush_short_horflip_short_600ms.mp4	88.repeated_stroke_with_plastic_brush_short_horflip_short_600ms.mp4	2315.848764682699	2316.457084116293	0.6083194335942608	n/a	n/a	n/a	n/a
87.7099609375	0.2	179630	44	42	0	0	0	44	269	stimuli\Videos_short_600ms_horvertflip\90.repeated_touch_with_sponge_short_horvertflip_short_600ms.mp4	90.repeated_touch_with_sponge_short_horvertflip_short_600ms.mp4	2316.6487439210637	2317.257099716844	0.608355795780426	n/a	n/a	n/a	n/a
88.509765625	0.2	181268	45	42	0	0	0	45	330	stimuli\Videos_short_600ms_vertflip\64.repeated_touch_with_screwdriver_short_vertflip_short_600ms.mp4	64.repeated_touch_with_screwdriver_short_vertflip_short_600ms.mp4	2317.4487260918627	2318.057051683569	0.6083255917064889	n/a	n/a	n/a	n/a
89.31005859375	0.2	182907	46	42	0	0	0	46	114	stimuli\Videos_short_600ms_horflip\31.hand_grabbing_wrist_short_horflip_short_600ms.mp4	31.hand_grabbing_wrist_short_horflip_short_600ms.mp4	2318.2487440383607	2318.8570191921963	0.6082751538356206	n/a	n/a	n/a	n/a
90.10986328125	0.2	184545	47	42	0	0	0	47	281	stimuli\Videos_short_600ms_vertflip\2.single_touch_with_finger_short_vertflip_short_600ms.mp4	2.single_touch_with_finger_short_vertflip_short_600ms.mp4	2319.048682809131	2319.657019837332	0.6083370282008218	n/a	n/a	n/a	n/a
90.90966796875	0.2	186183	48	42	0	0	0	48	301	stimuli\Videos_short_600ms_vertflip\38.double_slap_with_pencil_short_vertflip_short_600ms.mp4	38.double_slap_with_pencil_short_vertflip_short_600ms.mp4	2319.8486764164245	2320.456976495952	0.6083000795274529	n/a	n/a	n/a	n/a
91.7099609375	0.2	187822	49	42	0	0	0	49	104	stimuli\Videos_short_600ms_horflip\22.single_touch_with_metal_chopstick_short_horflip_short_600ms.mp4	22.single_touch_with_metal_chopstick_short_horflip_short_600ms.mp4	2320.648757703505	2321.2569572005336	0.608199497028636	n/a	n/a	n/a	n/a
92.509765625	0.2	189460	50	42	0	0	0	50	148	stimuli\Videos_short_600ms_horflip\62.touch_top_to_bottom_with_scissors_short_horflip_short_600ms.mp4	62.touch_top_to_bottom_with_scissors_short_horflip_short_600ms.mp4	2321.448620817469	2322.0569355591683	0.6083147416993597	n/a	n/a	n/a	n/a
93.3095703125	0.2	191098	51	42	0	0	0	51	240	stimuli\Videos_short_600ms_horvertflip\64.repeated_touch_with_screwdriver_short_horvertflip_short_600ms.mp4	64.repeated_touch_with_screwdriver_short_horvertflip_short_600ms.mp4	2322.24859976259	2322.856914797533	0.608315034943189	n/a	n/a	n/a	n/a
94.10986328125	0.2	192737	52	42	0	0	0	52	355	stimuli\Videos_short_600ms_vertflip\87.single_stroke_top_to_bottom_with_plastic_brush_short_vertflip_short_600ms.mp4	87.single_stroke_top_to_bottom_with_plastic_brush_short_vertflip_short_600ms.mp4	2323.048585159067	2323.656916322399	0.6083311633319681	n/a	n/a	n/a	n/a
94.90966796875	0.2	194375	53	42	0	0	0	53	273	stimuli\Videos_short_600ms_vertflip\12.repeated_touch_with_nail_file_short_vertflip_short_600ms.mp4	12.repeated_touch_with_nail_file_short_vertflip_short_600ms.mp4	2323.8485435771477	2324.456903478336	0.6083599011885781	n/a	n/a	n/a	n/a
95.70947265625	0.2	196013	54	42	0	0	0	54	242	stimuli\Videos_short_600ms_horvertflip\66.stroke_top_to_bottom_with_sponge_short_horvertflip_short_600ms.mp4	66.stroke_top_to_bottom_with_sponge_short_horvertflip_short_600ms.mp4	2324.648993471228	2325.2568583774955	0.6078649062674231	n/a	n/a	n/a	n/a
96.509765625	0.2	197652	55	42	0	0	0	55	313	stimuli\Videos_short_600ms_vertflip\49.repeated_slap_with_hand_short_vertflip_short_600ms.mp4	49.repeated_slap_with_hand_short_vertflip_short_600ms.mp4	2325.448585335013	2326.0568340969394	0.6082487619264612	n/a	n/a	n/a	n/a
97.3095703125	0.2	199290	56	42	0	0	0	56	98	stimuli\Videos_short_600ms_horflip\17.repeated_touch_with_rolling_pin_short_horflip_short_600ms.mp4	17.repeated_touch_with_rolling_pin_short_horflip_short_600ms.mp4	2326.2484977138743	2326.8568142150343	0.6083165011600613	n/a	n/a	n/a	n/a
98.109375	0.2	200928	57	42	0	0	0	57	241	stimuli\Videos_short_600ms_horvertflip\65.stroke_top_to_bottom_with_stanley_knife_short_horvertflip_short_600ms.mp4	65.stroke_top_to_bottom_with_stanley_knife_short_horvertflip_short_600ms.mp4	2327.048474606291	2327.6567905209645	0.6083159146733124	n/a	n/a	n/a	n/a
98.90966796875	0.2	202567	58	42	0	0	0	58	125	stimuli\Videos_short_600ms_horflip\41.injection_with_blunt_syringe_short_horflip_short_600ms.mp4	41.injection_with_blunt_syringe_short_horflip_short_600ms.mp4	2327.8484978311712	2328.456748059315	0.6082502281437883	n/a	n/a	n/a	n/a
99.70947265625	0.2	204205	59	42	0	0	0	59	76	stimuli\Videos_short_600ms\79.long_with_soft_brush_all_over_the_hand_short_short_600ms.mp4	79.long_with_soft_brush_all_over_the_hand_short_short_600ms.mp4	2328.6484410005933	2329.2567252449753	0.6082842443820482	n/a	n/a	n/a	n/a
100.50927734375	0.2	205843	60	42	0	0	0	60	54	stimuli\Videos_short_600ms\59.single_push_with_long_side_pencil_short_short_600ms.mp4	59.single_push_with_long_side_pencil_short_short_600ms.mp4	2329.4484096821943	2330.0567349806574	0.6083252984631144	n/a	n/a	n/a	n/a
101.3095703125	0.2	207482	61	42	0	0	0	61	352	stimuli\Videos_short_600ms_vertflip\84.single_touch_with_cotton_bud_short_vertflip_short_600ms.mp4	84.single_touch_with_cotton_bud_short_vertflip_short_600ms.mp4	2330.2484021165137	2330.8567174447003	0.6083153281865634	n/a	n/a	n/a	n/a
102.109375	0.2	209120	62	42	0	0	0	62	74	stimuli\Videos_short_600ms\77.tapping_with_all_fingers_short_short_600ms.mp4	77.tapping_with_all_fingers_short_short_600ms.mp4	2331.0483684521673	2331.65666471953	0.6082962673626753	n/a	n/a	n/a	n/a
102.9091796875	0.2	210758	63	42	0	0	0	63	321	stimuli\Videos_short_600ms_vertflip\56.repeated_touch_with_nail_file_short_vertflip_short_600ms.mp4	56.repeated_touch_with_nail_file_short_vertflip_short_600ms.mp4	2331.8483485702623	2332.4566770944034	0.6083285241411431	n/a	n/a	n/a	n/a
103.70947265625	0.2	212397	64	42	0	0	0	64	345	stimuli\Videos_short_600ms_vertflip\78.single_stroke_top_to_bottom_with_soft_brush_short_vertflip_short_600ms.mp4	78.single_stroke_top_to_bottom_with_soft_brush_short_vertflip_short_600ms.mp4	2332.6486621061445	2333.256649588169	0.6079874820243276	n/a	n/a	n/a	n/a
104.50927734375	0.2	214035	65	42	0	0	0	65	348	stimuli\Videos_short_600ms_vertflip\80.stroke_with_sharp_stick_all_over_the_hand_short_vertflip_short_600ms.mp4	80.stroke_with_sharp_stick_all_over_the_hand_short_vertflip_short_600ms.mp4	2333.448311738887	2334.0566329319417	0.6083211930549624	n/a	n/a	n/a	n/a
105.30908203125	0.2	215673	66	42	0	0	0	66	287	stimuli\Videos_short_600ms_vertflip\25.single_touch_with_stanley_knife_short_vertflip_short_600ms.mp4	25.single_touch_with_stanley_knife_short_vertflip_short_600ms.mp4	2334.248284232652	2334.8566022000296	0.6083179673773884	n/a	n/a	n/a	n/a
106.109375	0.2	217312	67	42	0	0	0	67	172	stimuli\Videos_short_600ms_horflip\84.single_touch_with_cotton_bud_short_horflip_short_600ms.mp4	84.single_touch_with_cotton_bud_short_horflip_short_600ms.mp4	2335.048266989938	2335.6565811451505	0.6083141552126108	n/a	n/a	n/a	n/a
106.9091796875	0.2	218950	68	42	0	0	1	68	378	stimuli\Targets_short_600ms_vertflip\brush-stroke_short_horvertflip_short_600ms.mp4	brush-stroke_short_horvertflip_short_600ms.mp4	2335.848273793186	2336.456560970002	0.6082871768162477	n/a	n/a	n/a	n/a
107.70947265625	0.2	220589	69	42	0	0	0	69	192	stimuli\Videos_short_600ms_horvertflip\20.single_touch_with_screwdriver_short_horvertflip_short_600ms.mp4	20.single_touch_with_screwdriver_short_horvertflip_short_600ms.mp4	2336.6482234139635	2337.2565425543144	0.6083191403508863	n/a	n/a	n/a	n/a
108.50927734375	0.2	222227	70	42	0	0	0	70	218	stimuli\Videos_short_600ms_horvertflip\44.pushing_top_to_bottom_with_finger_short_horvertflip_short_600ms.mp4	44.pushing_top_to_bottom_with_finger_short_horvertflip_short_600ms.mp4	2337.448201186111	2338.0565191534884	0.6083179673773884	n/a	n/a	n/a	n/a
109.30908203125	0.2	223865	71	42	0	0	0	71	230	stimuli\Videos_short_600ms_horvertflip\55.touch_top_to_bottom_with_nail_file_short_horvertflip_short_600ms.mp4	55.touch_top_to_bottom_with_nail_file_short_horvertflip_short_600ms.mp4	2338.2481810109625	2338.8564986850965	0.6083176741340139	n/a	n/a	n/a	n/a
110.109375	0.2	225504	72	42	0	0	0	72	131	stimuli\Videos_short_600ms_horflip\47.(long)scratching_with_finger_nails_short_horflip_short_600ms.mp4	47.(long)scratching_with_finger_nails_short_horflip_short_600ms.mp4	2339.0481840020457	2339.6564746977833	0.6082906957376508	n/a	n/a	n/a	n/a
110.9091796875	0.2	227142	73	42	0	0	0	73	257	stimuli\Videos_short_600ms_horvertflip\8.single_touch_with_hairbrush_short_horvertflip_short_600ms.mp4	8.single_touch_with_hairbrush_short_horvertflip_short_600ms.mp4	2339.84813420931	2340.456458041556	0.6083238322457873	n/a	n/a	n/a	n/a
111.708984375	0.2	228780	74	42	0	0	0	74	78	stimuli\Videos_short_600ms\80.stroke_with_sharp_stick_all_over_the_hand_short_short_600ms.mp4	80.stroke_with_sharp_stick_all_over_the_hand_short_short_600ms.mp4	2340.648119605787	2341.256437573164	0.6083179673769337	n/a	n/a	n/a	n/a
112.50927734375	0.2	230419	75	42	0	0	0	75	259	stimuli\Videos_short_600ms_horvertflip\81.single_stroke_top_to_bottom_with_cotton_pad_short_horvertflip_short_600ms.mp4	81.single_stroke_top_to_bottom_with_cotton_pad_short_horvertflip_short_600ms.mp4	2341.448096498204	2342.056415052068	0.6083185538641374	n/a	n/a	n/a	n/a
113.30908203125	0.2	232057	76	42	0	0	0	76	82	stimuli\Videos_short_600ms\84.single_touch_with_cotton_bud_short_short_600ms.mp4	84.single_touch_with_cotton_bud_short_short_600ms.mp4	2342.248360475946	2342.8563998620584	0.6080393861125231	n/a	n/a	n/a	n/a
114.10888671875	0.2	233695	77	42	0	0	0	77	276	stimuli\Videos_short_600ms_vertflip\15.single_stroke_top_to_bottom_with_a_plastic_whisk_short_vertflip_short_600ms.mp4	15.single_stroke_top_to_bottom_with_a_plastic_whisk_short_vertflip_short_600ms.mp4	2343.0481180222723	2343.656373822041	0.6082557997688127	n/a	n/a	n/a	n/a
114.9091796875	0.2	235334	78	42	0	0	0	78	75	stimuli\Videos_short_600ms\78.single_stroke_top_to_bottom_with_soft_brush_short_short_600ms.mp4	78.single_stroke_top_to_bottom_with_soft_brush_short_short_600ms.mp4	2343.848063830885	2344.45635599284	0.6082921619549779	n/a	n/a	n/a	n/a
115.708984375	0.2	236972	79	42	0	0	0	79	113	stimuli\Videos_short_600ms_horflip\30.finger_pulling_back_another_finger_short_horflip_short_600ms.mp4	30.finger_pulling_back_another_finger_short_horflip_short_600ms.mp4	2344.647989405701	2345.256308546052	0.6083191403508863	n/a	n/a	n/a	n/a
116.5087890625	0.2	238610	80	42	0	0	0	80	314	stimuli\Videos_short_600ms_vertflip\5.repeated_tap_with_finger_moving_from_top_to_bottom_short_vertflip_short_600ms.mp4	5.repeated_tap_with_finger_moving_from_top_to_bottom_short_vertflip_short_600ms.mp4	2345.4479947427317	2346.0563153493	0.6083206065682134	n/a	n/a	n/a	n/a
117.30908203125	0.2	240249	81	42	0	0	0	81	231	stimuli\Videos_short_600ms_horvertflip\56.repeated_touch_with_nail_file_short_horvertflip_short_600ms.mp4	56.repeated_touch_with_nail_file_short_horvertflip_short_600ms.mp4	2346.24802207302	2346.856268195755	0.6082461227351814	n/a	n/a	n/a	n/a
118.10888671875	0.2	241887	82	42	0	0	0	82	38	stimuli\Videos_short_600ms\44.pushing_top_to_bottom_with_finger_short_short_600ms.mp4	44.pushing_top_to_bottom_with_finger_short_short_600ms.mp4	2347.04795146	2347.656245674659	0.608294214659054	n/a	n/a	n/a	n/a
118.90869140625	0.2	243525	83	42	0	0	0	83	72	stimuli\Videos_short_600ms\75.(long)stroke_with_fingers_all_over_the_hand_short_short_600ms.mp4	75.(long)stroke_with_fingers_all_over_the_hand_short_short_600ms.mp4	2347.8480752673795	2348.456253944124	0.608178676744501	n/a	n/a	n/a	n/a
119.708984375	0.2	245164	84	42	0	0	0	84	37	stimuli\Videos_short_600ms\43.touch_top_to_bottom_with_sharp_wooden_stick_short_short_600ms.mp4	43.touch_top_to_bottom_with_sharp_wooden_stick_short_short_600ms.mp4	2348.647928117822	2349.2562287838373	0.6083006660146566	n/a	n/a	n/a	n/a
120.5087890625	0.2	246802	85	42	0	0	0	85	25	stimuli\Videos_short_600ms\32.single_(long)pinch_with_fingers_short_short_600ms.mp4	32.single_(long)pinch_with_fingers_short_short_600ms.mp4	2349.447888295364	2350.0562159397746	0.608327644410565	n/a	n/a	n/a	n/a
121.30859375	0.2	248440	86	42	0	0	0	86	144	stimuli\Videos_short_600ms_horflip\59.single_push_with_long_side_pencil_short_horflip_short_600ms.mp4	59.single_push_with_long_side_pencil_short_horflip_short_600ms.mp4	2350.2478722256237	2350.8561878470537	0.6083156214299379	n/a	n/a	n/a	n/a
122.10888671875	0.2	250079	87	42	0	0	0	87	1	stimuli\Videos_short_600ms\10.single_touch_with_knife_short_short_600ms.mp4	10.single_touch_with_knife_short_short_600ms.mp4	2351.047847945067	2351.6561653259578	0.6083173808906395	n/a	n/a	n/a	n/a
122.90869140625	0.2	251717	88	42	0	0	0	88	191	stimuli\Videos_short_600ms_horvertflip\2.single_touch_with_finger_short_horvertflip_short_600ms.mp4	2.single_touch_with_finger_short_horvertflip_short_600ms.mp4	2351.847826303702	2352.4561419251313	0.6083156214299379	n/a	n/a	n/a	n/a
123.70849609375	0.2	253355	89	42	0	0	0	89	123	stimuli\Videos_short_600ms_horflip\4.repeated_tap_with_finger_slow_short_horflip_short_600ms.mp4	4.repeated_tap_with_finger_slow_short_horflip_short_600ms.mp4	2352.6478794394125	2353.2561235094436	0.6082440700311054	n/a	n/a	n/a	n/a
124.5087890625	0.2	254994	90	42	0	0	0	90	335	stimuli\Videos_short_600ms_vertflip\69.stroke_with_soft_sock_short_vertflip_short_600ms.mp4	69.stroke_with_soft_sock_short_vertflip_short_600ms.mp4	2353.447841376414	2354.0561197559277	0.6082783795136493	n/a	n/a	n/a	n/a
125.30859375	0.2	256632	91	42	0	0	0	91	110	stimuli\Videos_short_600ms_horflip\28.single_injection_with_sharp_needle_short_horflip_short_600ms.mp4	28.single_injection_with_sharp_needle_short_horflip_short_600ms.mp4	2354.247811817476	2354.856085505094	0.6082736876182935	n/a	n/a	n/a	n/a
126.1083984375	0.2	258270	92	42	0	0	0	92	213	stimuli\Videos_short_600ms_horvertflip\4.repeated_tap_with_finger_slow_short_horvertflip_short_600ms.mp4	4.repeated_tap_with_finger_slow_short_horvertflip_short_600ms.mp4	2355.047749708516	2355.656092308342	0.608342599826301	3.0	3.0	2.962128489889892	1.0
160.0908203125	0.2	327866	93	42	1	0	0	0	304	stimuli\Videos_short_600ms_vertflip\40.repeated_push_with_finger_short_vertflip_short_600ms.mp4	40.repeated_push_with_finger_short_vertflip_short_600ms.mp4	2389.8301780339552	2390.438440578323	0.6082625443677898	n/a	n/a	n/a	n/a
160.89111328125	0.2	329505	94	42	1	0	0	1	59	stimuli\Videos_short_600ms\63.stroke_top_to_bottom_with_screwdriver_short_short_600ms.mp4	63.stroke_top_to_bottom_with_screwdriver_short_short_600ms.mp4	2390.630151407451	2391.238419523444	0.6082681159928143	n/a	n/a	n/a	n/a
161.69091796875	0.2	331143	95	42	1	0	0	2	347	stimuli\Videos_short_600ms_vertflip\8.single_touch_with_hairbrush_short_vertflip_short_600ms.mp4	8.single_touch_with_hairbrush_short_vertflip_short_600ms.mp4	2391.430136803928	2392.038399641539	0.6082628376111643	n/a	n/a	n/a	n/a
162.49072265625	0.2	332781	96	42	1	0	0	3	278	stimuli\Videos_short_600ms_vertflip\17.repeated_touch_with_rolling_pin_short_vertflip_short_600ms.mp4	17.repeated_touch_with_rolling_pin_short_vertflip_short_600ms.mp4	2392.2301090044502	2392.838378879904	0.6082698754535159	n/a	n/a	n/a	n/a
163.291015625	0.2	334420	97	42	1	0	0	4	5	stimuli\Videos_short_600ms\14.repeated_touch_with_pencil_short_short_600ms.mp4	14.repeated_touch_with_pencil_short_short_600ms.mp4	2393.030362132185	2393.6383569452946	0.6079948131100537	n/a	n/a	n/a	n/a
164.0908203125	0.2	336058	98	42	1	0	0	5	307	stimuli\Videos_short_600ms_vertflip\43.touch_top_to_bottom_with_sharp_wooden_stick_short_vertflip_short_600ms.mp4	43.touch_top_to_bottom_with_sharp_wooden_stick_short_vertflip_short_600ms.mp4	2393.830700887003	2394.438334717442	0.6076338304392266	n/a	n/a	n/a	n/a
164.890625	0.2	337696	99	42	1	0	0	6	282	stimuli\Videos_short_600ms_vertflip\20.single_touch_with_screwdriver_short_vertflip_short_600ms.mp4	20.single_touch_with_screwdriver_short_vertflip_short_600ms.mp4	2394.6301288277064	2395.2383145422937	0.6081857145873073	n/a	n/a	n/a	n/a
165.69091796875	0.2	339335	100	42	1	0	0	7	121	stimuli\Videos_short_600ms_horflip\38.double_slap_with_pencil_short_horflip_short_600ms.mp4	38.double_slap_with_pencil_short_horflip_short_600ms.mp4	2395.4300329957514	2396.038301404988	0.6082684092366435	n/a	n/a	n/a	n/a
166.49072265625	0.2	340973	101	42	1	0	0	8	6	stimuli\Videos_short_600ms\15.single_stroke_top_to_bottom_with_a_plastic_whisk_short_short_600ms.mp4	15.single_stroke_top_to_bottom_with_a_plastic_whisk_short_short_600ms.mp4	2396.230008128708	2396.838294425794	0.6082862970861243	n/a	n/a	n/a	n/a
167.29052734375	0.2	342611	102	42	1	0	0	9	86	stimuli\Videos_short_600ms\88.repeated_stroke_with_plastic_brush_short_short_600ms.mp4	88.repeated_stroke_with_plastic_brush_short_short_600ms.mp4	2397.030037218457	2397.6382622276647	0.608225009207672	n/a	n/a	n/a	n/a
168.0908203125	0.2	344250	103	42	1	0	0	10	64	stimuli\Videos_short_600ms\68.stroke_top_to_bottom_with_shawl_short_short_600ms.mp4	68.stroke_top_to_bottom_with_shawl_short_short_600ms.mp4	2397.829961620299	2398.4382341349433	0.6082725146443408	n/a	n/a	n/a	n/a
168.890625	0.2	345888	104	42	1	0	0	11	221	stimuli\Videos_short_600ms_horvertflip\47.(long)scratching_with_finger_nails_short_horvertflip_short_600ms.mp4	47.(long)scratching_with_finger_nails_short_horvertflip_short_600ms.mp4	2398.6299159329715	2399.2382122003346	0.60829626736313	n/a	n/a	n/a	n/a
169.6904296875	0.2	347526	105	42	1	0	0	12	334	stimuli\Videos_short_600ms_vertflip\68.stroke_top_to_bottom_with_shawl_short_vertflip_short_600ms.mp4	68.stroke_top_to_bottom_with_shawl_short_vertflip_short_600ms.mp4	2399.4299209767587	2400.0381937846464	0.6082728078877153	n/a	n/a	n/a	n/a
170.49072265625	0.2	349165	106	42	1	0	0	13	217	stimuli\Videos_short_600ms_horvertflip\43.touch_top_to_bottom_with_sharp_wooden_stick_short_horvertflip_short_600ms.mp4	43.touch_top_to_bottom_with_sharp_wooden_stick_short_horvertflip_short_600ms.mp4	2400.230021617906	2400.838199708164	0.6081780902582068	n/a	n/a	n/a	n/a
171.29052734375	0.2	350803	107	42	1	0	0	14	9	stimuli\Videos_short_600ms\18.single_stroke_from_top_to_bottom_with_rolling_pin_short_short_600ms.mp4	18.single_stroke_from_top_to_bottom_with_rolling_pin_short_short_600ms.mp4	2401.0298885440347	2401.6381575397577	0.6082689957229377	n/a	n/a	n/a	n/a
172.09033203125	0.2	352441	108	42	1	0	0	15	34	stimuli\Videos_short_600ms\40.repeated_push_with_finger_short_short_600ms.mp4	40.repeated_push_with_finger_short_short_600ms.mp4	2401.830042262244	2402.4381306200103	0.6080883577660643	n/a	n/a	n/a	n/a
172.890625	0.2	354080	109	42	1	0	0	16	232	stimuli\Videos_short_600ms_horvertflip\57.single_touch_with_nail_file_short_horvertflip_short_600ms.mp4	57.single_touch_with_nail_file_short_horvertflip_short_600ms.mp4	2402.6298869018715	2403.2381083921578	0.6082214902862688	n/a	n/a	n/a	n/a
173.6904296875	0.2	355718	110	42	1	0	0	17	142	stimuli\Videos_short_600ms_horflip\57.single_touch_with_nail_file_short_horflip_short_600ms.mp4	57.single_touch_with_nail_file_short_horflip_short_600ms.mp4	2403.4304919217298	2404.0380867507924	0.6075948290626911	n/a	n/a	n/a	n/a
174.490234375	0.2	357356	111	42	1	0	0	18	112	stimuli\Videos_short_600ms_horflip\3.single_push_with_finger_short_horflip_short_600ms.mp4	3.single_push_with_finger_short_horflip_short_600ms.mp4	2404.229858281312	2404.8380656959134	0.6082074146015657	n/a	n/a	n/a	n/a
175.29052734375	0.2	358995	112	42	1	0	0	19	31	stimuli\Videos_short_600ms\38.double_slap_with_pencil_short_short_600ms.mp4	38.double_slap_with_pencil_short_short_600ms.mp4	2405.029776818285	2405.6380443477915	0.6082675295065201	n/a	n/a	n/a	n/a
176.09033203125	0.2	360633	113	42	1	0	0	20	165	stimuli\Videos_short_600ms_horflip\78.single_stroke_top_to_bottom_with_soft_brush_short_horflip_short_600ms.mp4	78.single_stroke_top_to_bottom_with_soft_brush_short_horflip_short_600ms.mp4	2405.8297472593467	2406.4380227064257	0.6082754470789951	n/a	n/a	n/a	n/a
176.89013671875	0.2	362271	114	42	1	0	0	21	254	stimuli\Videos_short_600ms_horvertflip\77.tapping_with_all_fingers_short_horvertflip_short_600ms.mp4	77.tapping_with_all_fingers_short_horvertflip_short_600ms.mp4	2406.629758168003	2407.2380148475017	0.6082566794989361	n/a	n/a	n/a	n/a
177.6904296875	0.2	363910	115	42	1	0	1	22	373	stimuli\Targets_short_600ms_horvertflip\chopstick-silver-tap_short_vertflip_short_600ms.mp4	chopstick-silver-tap_short_vertflip_short_600ms.mp4	2407.429747083401	2408.037981769642	0.6082346862413033	n/a	n/a	n/a	n/a
178.490234375	0.2	365548	116	42	1	0	0	23	53	stimuli\Videos_short_600ms\58.single_slap_with_pencil_short_short_600ms.mp4	58.single_slap_with_pencil_short_short_600ms.mp4	2408.2297386379896	2408.8379797755865	0.6082411375969059	n/a	n/a	n/a	n/a
179.2900390625	0.2	367186	117	42	1	0	0	24	194	stimuli\Videos_short_600ms_horvertflip\22.single_touch_with_metal_chopstick_short_horvertflip_short_600ms.mp4	22.single_touch_with_metal_chopstick_short_horvertflip_short_600ms.mp4	2409.0296730101086	2409.6379590139513	0.6082860038427498	n/a	n/a	n/a	n/a
180.09033203125	0.2	368825	118	42	1	0	0	25	138	stimuli\Videos_short_600ms_horflip\53.touch_top_to_bottom_with_knife_short_horflip_short_600ms.mp4	53.touch_top_to_bottom_with_knife_short_horflip_short_600ms.mp4	2409.8296569403683	2410.437935613125	0.608278672756569	n/a	n/a	n/a	n/a
180.89013671875	0.2	370463	119	42	1	0	0	26	91	stimuli\Videos_short_600ms_horflip\10.single_touch_with_knife_short_horflip_short_600ms.mp4	10.single_touch_with_knife_short_horflip_short_600ms.mp4	2410.629632073325	2411.237913678516	0.6082816051912232	n/a	n/a	n/a	n/a
181.6904296875	0.2	372102	120	42	1	0	0	27	209	stimuli\Videos_short_600ms_horvertflip\36.single_slap_with_full_hand_short_horvertflip_short_600ms.mp4	36.single_slap_with_full_hand_short_horvertflip_short_600ms.mp4	2411.429618349532	2412.0379289858233	0.6083106362912076	n/a	n/a	n/a	n/a
182.490234375	0.2	373740	121	42	1	0	0	28	358	stimuli\Videos_short_600ms_vertflip\9.single_touch_with_hammer_short_vertflip_short_600ms.mp4	9.single_touch_with_hammer_short_vertflip_short_600ms.mp4	2412.2295914297847	2412.837906757971	0.6083153281861087	n/a	n/a	n/a	n/a
183.2900390625	0.2	375378	122	42	1	0	0	29	228	stimuli\Videos_short_600ms_horvertflip\53.touch_top_to_bottom_with_knife_short_horvertflip_short_600ms.mp4	53.touch_top_to_bottom_with_knife_short_horvertflip_short_600ms.mp4	2413.0295694951756	2413.637885409849	0.6083159146733124	n/a	n/a	n/a	n/a
184.09033203125	0.2	377017	123	42	1	0	1	30	367	stimuli\Targets_short_600ms_horflip\chopstick-silver-tap_short_horflip_short_600ms.mp4	chopstick-silver-tap_short_horflip_short_600ms.mp4	2413.8296469700913	2414.4378628887525	0.6082159186612444	n/a	n/a	n/a	n/a
184.89013671875	0.2	378655	124	42	1	0	0	31	250	stimuli\Videos_short_600ms_horvertflip\73.single_stroke_with_flat_hand_short_horvertflip_short_600ms.mp4	73.single_stroke_with_flat_hand_short_horvertflip_short_600ms.mp4	2414.6295769435587	2415.237846819012	0.6082698754535159	n/a	n/a	n/a	n/a
185.68994140625	0.2	380293	125	42	1	0	0	32	324	stimuli\Videos_short_600ms_vertflip\59.single_push_with_long_side_pencil_short_vertflip_short_600ms.mp4	59.single_push_with_long_side_pencil_short_vertflip_short_600ms.mp4	2415.429504864322	2416.037826643864	0.6083217795417113	n/a	n/a	n/a	n/a
186.490234375	0.2	381932	126	42	1	0	0	33	180	stimuli\Videos_short_600ms_horvertflip\1.repeated_touch_with_finger_fast_short_horvertflip_short_600ms.mp4	1.repeated_touch_with_finger_fast_short_horvertflip_short_600ms.mp4	2416.2294914337726	2416.8378091079067	0.6083176741340139	n/a	n/a	n/a	n/a
187.2900390625	0.2	383570	127	42	1	0	0	34	146	stimuli\Videos_short_600ms_horflip\60.single_push_with_tip_of_pencil_short_horflip_short_600ms.mp4	60.single_push_with_tip_of_pencil_short_horflip_short_600ms.mp4	2417.029463634294	2417.6377818949154	0.6083182606207629	n/a	n/a	n/a	n/a
188.08984375	0.2	385208	128	42	1	0	0	35	315	stimuli\Videos_short_600ms_vertflip\50.single_(long)hard_push_with_thumb_short_vertflip_short_600ms.mp4	50.single_(long)hard_push_with_thumb_short_vertflip_short_600ms.mp4	2417.829417653724	2418.4377605467935	0.6083428930696755	n/a	n/a	n/a	n/a
188.89013671875	0.2	386847	129	42	1	0	0	36	49	stimuli\Videos_short_600ms\54.repeated_touch_with_knife_short_short_600ms.mp4	54.repeated_touch_with_knife_short_short_600ms.mp4	2418.6294209380503	2419.2377400784017	0.608319140351341	n/a	n/a	n/a	n/a
189.68994140625	0.2	388485	130	42	1	0	0	37	322	stimuli\Videos_short_600ms_vertflip\57.single_touch_with_nail_file_short_vertflip_short_600ms.mp4	57.single_touch_with_nail_file_short_vertflip_short_600ms.mp4	2419.4294016426325	2420.03772048974	0.6083188471075118	n/a	n/a	n/a	n/a
190.48974609375	0.2	390123	131	42	1	0	0	38	60	stimuli\Videos_short_600ms\64.repeated_touch_with_screwdriver_short_short_600ms.mp4	64.repeated_touch_with_screwdriver_short_short_600ms.mp4	2420.229384399918	2420.8376965024268	0.6083121025085347	n/a	n/a	n/a	n/a
191.2900390625	0.2	391762	132	42	1	0	0	39	272	stimuli\Videos_short_600ms_vertflip\11.single_touch_with_lighter_short_vertflip_short_600ms.mp4	11.single_touch_with_lighter_short_vertflip_short_600ms.mp4	2421.0293598261183	2421.637675447548	0.6083156214299379	n/a	n/a	n/a	n/a
192.08984375	0.2	393400	133	42	1	0	0	40	181	stimuli\Videos_short_600ms_horvertflip\10.single_touch_with_knife_short_horvertflip_short_600ms.mp4	10.single_touch_with_knife_short_horvertflip_short_600ms.mp4	2421.829340823944	2422.437657325104	0.6083165011600613	n/a	n/a	n/a	n/a
192.8896484375	0.2	395038	134	42	1	0	0	41	171	stimuli\Videos_short_600ms_horflip\83.single_stroke_top_to_bottom_with_cotton_bud_short_horflip_short_600ms.mp4	83.single_stroke_top_to_bottom_with_cotton_bud_short_horflip_short_600ms.mp4	2422.6293177163607	2423.237636856712	0.608319140351341	n/a	n/a	n/a	n/a
193.68994140625	0.2	396677	135	42	1	0	0	42	11	stimuli\Videos_short_600ms\2.single_touch_with_finger_short_short_600ms.mp4	2.single_touch_with_finger_short_short_600ms.mp4	2423.4292963682387	2424.0376166815636	0.6083203133248389	n/a	n/a	n/a	n/a
194.48974609375	0.2	398315	136	42	1	0	0	43	326	stimuli\Videos_short_600ms_vertflip\60.single_push_with_tip_of_pencil_short_vertflip_short_600ms.mp4	60.single_push_with_tip_of_pencil_short_vertflip_short_600ms.mp4	2424.229812535336	2424.8376152739947	0.6078027386588474	n/a	n/a	n/a	n/a
195.28955078125	0.2	399953	137	42	1	0	0	44	143	stimuli\Videos_short_600ms_horflip\58.single_slap_with_pencil_short_horflip_short_600ms.mp4	58.single_slap_with_pencil_short_horflip_short_600ms.mp4	2425.0292774247127	2425.63757662451	0.6082991997973295	n/a	n/a	n/a	n/a
196.08984375	0.2	401592	138	42	1	0	1	45	380	stimuli\Targets_short_600ms_vertflip\chopstickwood-tap_short_horvertflip_short_600ms.mp4	chopstickwood-tap_short_horvertflip_short_600ms.mp4	2425.8293686820703	2426.437549998006	0.6081813159357807	n/a	n/a	n/a	n/a
196.8896484375	0.2	403230	139	42	1	0	0	46	58	stimuli\Videos_short_600ms\62.touch_top_to_bottom_with_scissors_short_short_600ms.mp4	62.touch_top_to_bottom_with_scissors_short_short_600ms.mp4	2426.629216547375	2427.2374881822893	0.6082716349142174	n/a	n/a	n/a	n/a
197.689453125	0.2	404868	140	42	1	0	0	47	185	stimuli\Videos_short_600ms_horvertflip\14.repeated_touch_with_pencil_short_horvertflip_short_600ms.mp4	14.repeated_touch_with_pencil_short_horvertflip_short_600ms.mp4	2427.429194026279	2428.0375119936566	0.6083179673773884	n/a	n/a	n/a	n/a
198.48974609375	0.2	406507	141	42	1	0	0	48	328	stimuli\Videos_short_600ms_vertflip\62.touch_top_to_bottom_with_scissors_short_vertflip_short_600ms.mp4	62.touch_top_to_bottom_with_scissors_short_vertflip_short_600ms.mp4	2428.2291474592216	2428.8374888860735	0.6083414268518936	n/a	n/a	n/a	n/a
199.28955078125	0.2	408145	142	42	1	0	1	49	368	stimuli\Targets_short_600ms_horflip\chopstickwood-tap_short_horflip_short_600ms.mp4	chopstickwood-tap_short_horflip_short_600ms.mp4	2429.0291504503048	2429.6374437852332	0.6082933349284758	n/a	n/a	n/a	n/a
200.08984375	0.2	409784	143	42	1	0	0	50	65	stimuli\Videos_short_600ms\69.stroke_with_soft_sock_short_short_600ms.mp4	69.stroke_with_soft_sock_short_short_600ms.mp4	2429.8291291021824	2430.437456746593	0.608327644410565	n/a	n/a	n/a	n/a
200.8896484375	0.2	411422	144	42	1	0	0	51	40	stimuli\Videos_short_600ms\46.scratching_top_to_bottom_with_finger_nails_short_short_600ms.mp4	46.scratching_top_to_bottom_with_finger_nails_short_short_600ms.mp4	2430.629108340547	2431.237440090366	0.6083317498187171	n/a	n/a	n/a	n/a
201.689453125	0.2	413060	145	42	1	0	0	52	94	stimuli\Videos_short_600ms_horflip\13.single_touch_with_pen_short_horflip_short_600ms.mp4	13.single_touch_with_pen_short_horflip_short_600ms.mp4	2431.4290916843197	2432.0374178625134	0.6083261781936926	n/a	n/a	n/a	n/a
202.48974609375	0.2	414699	146	42	1	0	0	53	159	stimuli\Videos_short_600ms_horflip\72.(short)stroke_with_finger_all_over_the_hand_short_horflip_short_600ms.mp4	72.(short)stroke_with_finger_all_over_the_hand_short_horflip_short_600ms.mp4	2432.229042184828	2432.837386250871	0.6083440660431734	n/a	n/a	n/a	n/a
203.28955078125	0.2	416337	147	42	1	0	0	54	238	stimuli\Videos_short_600ms_horvertflip\62.touch_top_to_bottom_with_scissors_short_horvertflip_short_600ms.mp4	62.touch_top_to_bottom_with_scissors_short_horvertflip_short_600ms.mp4	2433.0290659961947	2433.6373901216843	0.6083241254896166	n/a	n/a	n/a	n/a
204.08935546875	0.2	417975	148	42	1	0	0	55	189	stimuli\Videos_short_600ms_horvertflip\18.single_stroke_from_top_to_bottom_with_rolling_pin_short_horvertflip_short_600ms.mp4	18.single_stroke_from_top_to_bottom_with_rolling_pin_short_horvertflip_short_600ms.mp4	2433.8290528588886	2434.4373456073304	0.6082927484417269	n/a	n/a	n/a	n/a
204.8896484375	0.2	419614	149	42	1	0	0	56	245	stimuli\Videos_short_600ms_horvertflip\69.stroke_with_soft_sock_short_horvertflip_short_600ms.mp4	69.stroke_with_soft_sock_short_horvertflip_short_600ms.mp4	2434.628978433705	2435.237347132196	0.6083686984916312	n/a	n/a	n/a	n/a
205.689453125	0.2	421252	150	42	1	0	0	57	198	stimuli\Videos_short_600ms_horvertflip\26.single_touch_with_a_blunt_syringe_short_horvertflip_short_600ms.mp4	26.single_touch_with_a_blunt_syringe_short_horvertflip_short_600ms.mp4	2435.428982597761	2436.0373052570335	0.6083226592722895	n/a	n/a	n/a	n/a
206.4892578125	0.2	422890	151	42	1	0	0	58	177	stimuli\Videos_short_600ms_horflip\89.single_touch_with_plastic_brush_short_horflip_short_600ms.mp4	89.single_touch_with_plastic_brush_short_horflip_short_600ms.mp4	2436.2289630091	2436.837284202155	0.6083211930549624	n/a	n/a	n/a	n/a
207.28955078125	0.2	424529	152	42	1	0	0	59	297	stimuli\Videos_short_600ms_vertflip\34.repeated_punch_with_hand_short_vertflip_short_600ms.mp4	34.repeated_punch_with_hand_short_vertflip_short_600ms.mp4	2437.0289422474643	2437.637282501343	0.6083402538788505	n/a	n/a	n/a	n/a
208.08935546875	0.2	426167	153	42	1	0	0	60	19	stimuli\Videos_short_600ms\27.single_push_with_a_plastic_whisk_short_short_600ms.mp4	27.single_push_with_a_plastic_whisk_short_short_600ms.mp4	2437.8289291101587	2438.4372415059106	0.6083123957519092	n/a	n/a	n/a	n/a
208.88916015625	0.2	427805	154	42	1	0	0	61	147	stimuli\Videos_short_600ms_horflip\61.single_hit_with_rolling_pin_short_horflip_short_600ms.mp4	61.single_hit_with_rolling_pin_short_horflip_short_600ms.mp4	2438.628939725571	2439.237219278058	0.6082795524871472	n/a	n/a	n/a	n/a
209.689453125	0.2	429444	155	42	1	0	0	62	224	stimuli\Videos_short_600ms_horvertflip\5.repeated_tap_with_finger_moving_from_top_to_bottom_short_horvertflip_short_600ms.mp4	5.repeated_tap_with_finger_moving_from_top_to_bottom_short_horvertflip_short_600ms.mp4	2439.428929813943	2440.0371988096663	0.6082689957233924	n/a	n/a	n/a	n/a
210.4892578125	0.2	431082	156	42	1	0	0	63	187	stimuli\Videos_short_600ms_horvertflip\16.repeated_touch_with_plastic_brush_short_horvertflip_short_600ms.mp4	16.repeated_touch_with_plastic_brush_short_horvertflip_short_600ms.mp4	2440.2288753293124	2440.8371833264127	0.6083079971003826	n/a	n/a	n/a	n/a
211.2890625	0.2	432720	157	42	1	0	0	64	134	stimuli\Videos_short_600ms_horflip\5.repeated_tap_with_finger_moving_from_top_to_bottom_short_horflip_short_600ms.mp4	5.repeated_tap_with_finger_moving_from_top_to_bottom_short_horflip_short_600ms.mp4	2441.0288401987486	2441.6371599255863	0.6083197268376352	n/a	n/a	n/a	n/a
212.08935546875	0.2	434359	158	42	1	0	0	65	69	stimuli\Videos_short_600ms\72.(short)stroke_with_finger_all_over_the_hand_short_short_600ms.mp4	72.(short)stroke_with_finger_all_over_the_hand_short_short_600ms.mp4	2441.828882484452	2442.4371353517863	0.6082528673341585	n/a	n/a	n/a	n/a
212.88916015625	0.2	435997	159	42	1	0	0	66	284	stimuli\Videos_short_600ms_vertflip\22.single_touch_with_metal_chopstick_short_vertflip_short_600ms.mp4	22.single_touch_with_metal_chopstick_short_vertflip_short_600ms.mp4	2442.6288300525257	2443.237113710421	0.6082836578952993	n/a	n/a	n/a	n/a
213.68896484375	0.2	437635	160	42	1	0	0	67	85	stimuli\Videos_short_600ms\87.single_stroke_top_to_bottom_with_plastic_brush_short_short_600ms.mp4	87.single_stroke_top_to_bottom_with_plastic_brush_short_short_600ms.mp4	2443.428809584134	2444.037093242029	0.6082836578952993	n/a	n/a	n/a	n/a
214.4892578125	0.2	439274	161	42	1	0	0	68	7	stimuli\Videos_short_600ms\16.repeated_touch_with_plastic_brush_short_short_600ms.mp4	16.repeated_touch_with_plastic_brush_short_short_600ms.mp4	2444.2287524603125	2444.837073360124	0.6083208998115879	n/a	n/a	n/a	n/a
215.2890625	0.2	440912	162	42	1	0	0	69	169	stimuli\Videos_short_600ms_horflip\81.single_stroke_top_to_bottom_with_cotton_pad_short_horflip_short_600ms.mp4	81.single_stroke_top_to_bottom_with_cotton_pad_short_horflip_short_600ms.mp4	2445.028733164894	2445.6370528917323	0.60831972683809	n/a	n/a	n/a	n/a
216.0888671875	0.2	442550	163	42	1	0	0	70	293	stimuli\Videos_short_600ms_vertflip\30.finger_pulling_back_another_finger_short_vertflip_short_600ms.mp4	30.finger_pulling_back_another_finger_short_vertflip_short_600ms.mp4	2445.8288537465955	2446.4370330098272	0.6081792632317047	n/a	n/a	n/a	n/a
216.88916015625	0.2	444189	164	42	1	0	0	71	32	stimuli\Videos_short_600ms\39.single_stab_with_scissors_short_short_600ms.mp4	39.single_stab_with_scissors_short_short_600ms.mp4	2446.6286875362157	2447.2370222184686	0.6083346822529165	n/a	n/a	n/a	n/a
217.68896484375	0.2	445827	165	42	1	0	0	72	95	stimuli\Videos_short_600ms_horflip\14.repeated_touch_with_pencil_short_horflip_short_600ms.mp4	14.repeated_touch_with_pencil_short_horflip_short_600ms.mp4	2447.428710761096	2448.036992366287	0.6082816051912232	n/a	n/a	n/a	n/a
218.4892578125	0.2	447466	166	42	1	0	1	73	374	stimuli\Targets_short_600ms_horvertflip\chopstickwood-tap_short_vertflip_short_600ms.mp4	chopstickwood-tap_short_vertflip_short_600ms.mp4	2448.2286498251096	2448.8369695519473	0.6083197268376352	n/a	n/a	n/a	n/a
219.2890625	0.2	449104	167	42	1	0	0	74	331	stimuli\Videos_short_600ms_vertflip\65.stroke_top_to_bottom_with_stanley_knife_short_vertflip_short_600ms.mp4	65.stroke_top_to_bottom_with_stanley_knife_short_vertflip_short_600ms.mp4	2449.0286284769873	2449.636971370057	0.6083428930696755	n/a	n/a	n/a	n/a
220.0888671875	0.2	450742	168	42	1	0	0	75	357	stimuli\Videos_short_600ms_vertflip\89.single_touch_with_plastic_brush_short_vertflip_short_600ms.mp4	89.single_touch_with_plastic_brush_short_vertflip_short_600ms.mp4	2449.8286088883256	2450.4369286151637	0.60831972683809	n/a	n/a	n/a	n/a
220.88916015625	0.2	452381	169	42	1	0	0	76	132	stimuli\Videos_short_600ms_horflip\48.single_slap_with_hand_short_horflip_short_600ms.mp4	48.single_slap_with_hand_short_horflip_short_600ms.mp4	2450.6285884199337	2451.2369087332586	0.6083203133248389	n/a	n/a	n/a	n/a
221.68896484375	0.2	454019	170	42	1	0	0	77	133	stimuli\Videos_short_600ms_horflip\49.repeated_slap_with_hand_short_horflip_short_600ms.mp4	49.repeated_slap_with_hand_short_horflip_short_600ms.mp4	2451.4285661920812	2452.036884452702	0.6083182606207629	n/a	n/a	n/a	n/a
222.48876953125	0.2	455657	171	42	1	0	0	78	88	stimuli\Videos_short_600ms\9.single_touch_with_hammer_short_short_600ms.mp4	9.single_touch_with_hammer_short_short_600ms.mp4	2452.2285973345342	2452.836863397823	0.608266063289193	n/a	n/a	n/a	n/a
223.2890625	0.2	457296	172	42	1	0	0	79	252	stimuli\Videos_short_600ms_horvertflip\75.(long)stroke_with_fingers_all_over_the_hand_short_horvertflip_short_600ms.mp4	75.(long)stroke_with_fingers_all_over_the_hand_short_horvertflip_short_600ms.mp4	2453.028523495837	2453.6368443956485	0.6083208998115879	n/a	n/a	n/a	n/a
224.0888671875	0.2	458934	173	42	1	0	0	80	41	stimuli\Videos_short_600ms\47.(long)scratching_with_finger_nails_short_short_600ms.mp4	47.(long)scratching_with_finger_nails_short_short_600ms.mp4	2453.828509772044	2454.43682510023	0.6083153281865634	n/a	n/a	n/a	n/a
224.888671875	0.2	460572	174	42	1	0	0	81	2	stimuli\Videos_short_600ms\11.single_touch_with_lighter_short_short_600ms.mp4	11.single_touch_with_lighter_short_short_600ms.mp4	2454.628490476626	2455.236803458865	0.6083129822386582	n/a	n/a	n/a	n/a
225.68896484375	0.2	462211	175	42	1	0	0	82	291	stimuli\Videos_short_600ms_vertflip\29.single_pinch_with_tweezers_short_vertflip_short_600ms.mp4	29.single_pinch_with_tweezers_short_vertflip_short_600ms.mp4	2455.428508716368	2456.0367841634466	0.6082754470785403	n/a	n/a	n/a	n/a
226.48876953125	0.2	463849	176	42	1	0	0	83	286	stimuli\Videos_short_600ms_vertflip\24.single_stroke_top_to_bottom_with_a_spoon_short_vertflip_short_600ms.mp4	24.single_stroke_top_to_bottom_with_a_spoon_short_vertflip_short_600ms.mp4	2456.2284489533554	2456.8367628153246	0.6083138619692363	n/a	n/a	n/a	n/a
227.28857421875	0.2	465487	177	42	1	0	0	84	30	stimuli\Videos_short_600ms\37.single_stab_with_nail_file_short_short_600ms.mp4	37.single_stab_with_nail_file_short_short_600ms.mp4	2457.028421447121	2457.6367367753073	0.6083153281861087	n/a	n/a	n/a	n/a
228.0888671875	0.2	467126	178	42	1	0	0	85	343	stimuli\Videos_short_600ms_vertflip\76.tickle_with_fingers_from_top_to_bottom_short_vertflip_short_600ms.mp4	76.tickle_with_fingers_from_top_to_bottom_short_vertflip_short_600ms.mp4	2457.8284138814406	2458.4367262771925	0.6083123957519092	n/a	n/a	n/a	n/a
228.888671875	0.2	468764	179	42	1	0	0	86	168	stimuli\Videos_short_600ms_horflip\80.stroke_with_sharp_stick_all_over_the_hand_short_horflip_short_600ms.mp4	80.stroke_with_sharp_stick_all_over_the_hand_short_horflip_short_600ms.mp4	2458.62841657928	2459.2366990642013	0.6082824849213466	n/a	n/a	n/a	n/a
229.6884765625	0.2	470402	180	42	1	0	0	87	170	stimuli\Videos_short_600ms_horflip\82.repeated_touch_with_cotton_bud_short_horflip_short_600ms.mp4	82.repeated_touch_with_cotton_bud_short_horflip_short_600ms.mp4	2459.428427487936	2460.0366750768885	0.6082475889525085	n/a	n/a	n/a	n/a
230.48876953125	0.2	472041	181	42	1	0	0	88	186	stimuli\Videos_short_600ms_horvertflip\15.single_stroke_top_to_bottom_with_a_plastic_whisk_short_horvertflip_short_600ms.mp4	15.single_stroke_top_to_bottom_with_a_plastic_whisk_short_horvertflip_short_600ms.mp4	2460.2283134748877	2460.8366774814845	0.6083640065967302	n/a	n/a	n/a	n/a
231.28857421875	0.2	473679	182	42	1	0	0	89	215	stimuli\Videos_short_600ms_horvertflip\41.injection_with_blunt_syringe_short_horvertflip_short_600ms.mp4	41.injection_with_blunt_syringe_short_horvertflip_short_600ms.mp4	2461.02831470651	2461.6366367792957	0.6083220727855405	n/a	n/a	n/a	n/a
232.08837890625	0.2	475317	183	42	1	0	0	90	155	stimuli\Videos_short_600ms_horflip\69.stroke_with_soft_sock_short_horflip_short_600ms.mp4	69.stroke_with_soft_sock_short_horflip_short_600ms.mp4	2461.828293944875	2462.43661689739	0.6083229525156639	n/a	n/a	n/a	n/a
232.888671875	0.2	476956	184	42	1	0	0	91	325	stimuli\Videos_short_600ms_vertflip\6.single_touch_with_flat_hand_short_vertflip_short_600ms.mp4	6.single_touch_with_flat_hand_short_vertflip_short_600ms.mp4	2462.6282731832393	2463.236603173598	0.6083299903584702	n/a	n/a	n/a	n/a
233.6884765625	0.2	478594	185	42	1	0	0	92	116	stimuli\Videos_short_600ms_horflip\33.scratch_top_to_bottom_with_scissors_short_horflip_short_600ms.mp4	33.scratch_top_to_bottom_with_scissors_short_horflip_short_600ms.mp4	2463.428229255373	2464.0365750808764	0.608345825503875	n/a	n/a	n/a	n/a
234.48828125	0.2	480232	186	42	1	0	0	93	29	stimuli\Videos_short_600ms\36.single_slap_with_full_hand_short_short_600ms.mp4	36.single_slap_with_full_hand_short_short_600ms.mp4	2464.22823429916	2464.8365513868066	0.6083170876468103	n/a	n/a	n/a	n/a
235.28857421875	0.2	481871	187	42	1	0	0	94	333	stimuli\Videos_short_600ms_vertflip\67.single_touch_with_sponge_short_vertflip_short_600ms.mp4	67.single_touch_with_sponge_short_vertflip_short_600ms.mp4	2465.02820972536	2465.636531798146	0.6083220727855405	5.0	5.0	2.7396118512574503	1.0
269.720703125	0.2	552388	188	42	2	0	0	0	22	stimuli\Videos_short_600ms\3.single_push_with_finger_short_short_600ms.mp4	3.single_push_with_finger_short_short_600ms.mp4	2499.460648197022	2500.068960592774	0.608312395752364	n/a	n/a	n/a	n/a
270.5205078125	0.2	554026	189	42	2	0	0	1	62	stimuli\Videos_short_600ms\66.stroke_top_to_bottom_with_sponge_short_short_600ms.mp4	66.stroke_top_to_bottom_with_sponge_short_short_600ms.mp4	2500.2606227434917	2500.868942177086	0.6083194335942608	n/a	n/a	n/a	n/a
271.32080078125	0.2	555665	190	42	2	0	0	2	14	stimuli\Videos_short_600ms\22.single_touch_with_metal_chopstick_short_short_600ms.mp4	22.single_touch_with_metal_chopstick_short_short_600ms.mp4	2501.0606019818565	2501.6689225884247	0.6083206065682134	n/a	n/a	n/a	n/a
272.12060546875	0.2	557303	191	42	2	0	1	3	379	stimuli\Targets_short_600ms_vertflip\chopstick-silver-tap_short_horvertflip_short_600ms.mp4	chopstick-silver-tap_short_horvertflip_short_600ms.mp4	2501.860579167517	2502.468901826789	0.6083226592722895	n/a	n/a	n/a	n/a
272.92041015625	0.2	558941	192	42	2	0	0	4	256	stimuli\Videos_short_600ms_horvertflip\79.long_with_soft_brush_all_over_the_hand_short_horvertflip_short_600ms.mp4	79.long_with_soft_brush_all_over_the_hand_short_horvertflip_short_600ms.mp4	2502.66053523965	2503.2689030584115	0.6083678187615078	n/a	n/a	n/a	n/a
273.720703125	0.2	560580	193	42	2	0	0	5	359	stimuli\Videos_short_600ms_vertflip\90.repeated_touch_with_sponge_short_vertflip_short_600ms.mp4	90.repeated_touch_with_sponge_short_vertflip_short_600ms.mp4	2503.460540869924	2504.0688608900055	0.6083200200814645	n/a	n/a	n/a	n/a
274.5205078125	0.2	562218	194	42	2	0	0	6	178	stimuli\Videos_short_600ms_horflip\9.single_touch_with_hammer_short_horflip_short_600ms.mp4	9.single_touch_with_hammer_short_horflip_short_600ms.mp4	2504.260523333967	2504.868840714857	0.6083173808901847	n/a	n/a	n/a	n/a
275.3203125	0.2	563856	195	42	2	0	0	7	262	stimuli\Videos_short_600ms_horvertflip\84.single_touch_with_cotton_bud_short_horvertflip_short_600ms.mp4	84.single_touch_with_cotton_bud_short_horvertflip_short_600ms.mp4	2505.0605019858444	2505.668816141057	0.6083141552126108	n/a	n/a	n/a	n/a
276.12060546875	0.2	565495	196	42	2	0	0	8	16	stimuli\Videos_short_600ms\24.single_stroke_top_to_bottom_with_a_spoon_short_short_600ms.mp4	24.single_stroke_top_to_bottom_with_a_spoon_short_short_600ms.mp4	2505.8605196390995	2506.4687977253693	0.60827808626982	n/a	n/a	n/a	n/a
276.92041015625	0.2	567133	197	42	2	0	0	9	164	stimuli\Videos_short_600ms_horflip\77.tapping_with_all_fingers_short_horflip_short_600ms.mp4	77.tapping_with_all_fingers_short_horflip_short_600ms.mp4	2506.6604877342133	2507.2687766704903	0.6082889362769492	n/a	n/a	n/a	n/a
277.72021484375	0.2	568771	198	42	2	0	0	10	234	stimuli\Videos_short_600ms_horvertflip\59.single_push_with_long_side_pencil_short_horvertflip_short_600ms.mp4	59.single_push_with_long_side_pencil_short_horvertflip_short_600ms.mp4	2507.460434422557	2508.068757081829	0.6083226592722895	n/a	n/a	n/a	n/a
278.5205078125	0.2	570410	199	42	2	0	0	11	166	stimuli\Videos_short_600ms_horflip\79.long_with_soft_brush_all_over_the_hand_short_horflip_short_600ms.mp4	79.long_with_soft_brush_all_over_the_hand_short_horflip_short_600ms.mp4	2508.2604151271385	2508.868729282351	0.6083141552126108	n/a	n/a	n/a	n/a
279.3203125	0.2	572048	200	42	2	0	0	12	162	stimuli\Videos_short_600ms_horflip\75.(long)stroke_with_fingers_all_over_the_hand_short_horflip_short_600ms.mp4	75.(long)stroke_with_fingers_all_over_the_hand_short_horflip_short_600ms.mp4	2509.060396124964	2509.668715265315	0.6083191403508863	n/a	n/a	n/a	n/a
280.12060546875	0.2	573687	201	42	2	0	0	13	247	stimuli\Videos_short_600ms_horvertflip\70.(long)stroke_with_finger_all_over_the_hand_short_horvertflip_short_600ms.mp4	70.(long)stroke_with_finger_all_over_the_hand_short_horvertflip_short_600ms.mp4	2509.860430786338	2510.4686909847583	0.6082601984203393	n/a	n/a	n/a	n/a
280.92041015625	0.2	575325	202	42	2	0	0	14	100	stimuli\Videos_short_600ms_horflip\19.single_touch_with_rolling_pin_short_horflip_short_600ms.mp4	19.single_touch_with_rolling_pin_short_horflip_short_600ms.mp4	2510.660369850352	2511.2686441244573	0.6082742741054972	n/a	n/a	n/a	n/a
281.72021484375	0.2	576963	203	42	2	0	0	15	83	stimuli\Videos_short_600ms\85.touch_top_to_bottom_with_fabric_short_short_600ms.mp4	85.touch_top_to_bottom_with_fabric_short_short_600ms.mp4	2511.4603543670983	2512.068643596619	0.6082892295207785	n/a	n/a	n/a	n/a
282.5205078125	0.2	578602	204	42	2	0	0	16	205	stimuli\Videos_short_600ms_horvertflip\32.single_(long)pinch_with_fingers_short_horvertflip_short_600ms.mp4	32.single_(long)pinch_with_fingers_short_horvertflip_short_600ms.mp4	2512.2603078000407	2512.868629872826	0.6083220727855405	n/a	n/a	n/a	n/a
283.3203125	0.2	580240	205	42	2	0	0	17	203	stimuli\Videos_short_600ms_horvertflip\30.finger_pulling_back_another_finger_short_horvertflip_short_600ms.mp4	30.finger_pulling_back_another_finger_short_horvertflip_short_600ms.mp4	2513.0602999411167	2513.6686143895727	0.6083144484559853	n/a	n/a	n/a	n/a
284.1201171875	0.2	581878	206	42	2	0	1	18	363	stimuli\Targets_short_600ms\finger-tap_short_short_600ms.mp4	finger-tap_short_short_600ms.mp4	2513.860420229574	2514.468596853615	0.6081766240408797	n/a	n/a	n/a	n/a
284.92041015625	0.2	583517	207	42	2	0	0	19	299	stimuli\Videos_short_600ms_vertflip\36.single_slap_with_full_hand_short_vertflip_short_600ms.mp4	36.single_slap_with_full_hand_short_vertflip_short_600ms.mp4	2514.660292434085	2515.26856758792	0.6082751538356206	n/a	n/a	n/a	n/a
285.72021484375	0.2	585155	208	42	2	0	0	20	130	stimuli\Videos_short_600ms_horflip\46.scratching_top_to_bottom_with_finger_nails_short_horflip_short_600ms.mp4	46.scratching_top_to_bottom_with_finger_nails_short_horflip_short_600ms.mp4	2515.460226219717	2516.0685453600677	0.6083191403508863	n/a	n/a	n/a	n/a
286.52001953125	0.2	586793	209	42	2	0	0	21	20	stimuli\Videos_short_600ms\28.single_injection_with_sharp_needle_short_short_600ms.mp4	28.single_injection_with_sharp_needle_short_short_600ms.mp4	2516.260871413926	2516.8685251849192	0.6076537709932381	n/a	n/a	n/a	n/a
287.3203125	0.2	588432	210	42	2	0	0	22	79	stimuli\Videos_short_600ms\81.single_stroke_top_to_bottom_with_cotton_pad_short_short_600ms.mp4	81.single_stroke_top_to_bottom_with_cotton_pad_short_short_600ms.mp4	2517.060748896818	2517.668524657081	0.607775760262939	n/a	n/a	n/a	n/a
288.1201171875	0.2	590070	211	42	2	0	0	23	208	stimuli\Videos_short_600ms_horvertflip\35.single_punch_with_hand_short_horvertflip_short_600ms.mp4	35.single_punch_with_hand_short_horvertflip_short_600ms.mp4	2517.860141355066	2518.4684836616484	0.6083423065824718	n/a	n/a	n/a	n/a
288.919921875	0.2	591708	212	42	2	0	1	24	369	stimuli\Targets_short_600ms_horflip\finger-tap_short_horflip_short_600ms.mp4	finger-tap_short_horflip_short_600ms.mp4	2518.6602944867886	2519.2684602608224	0.6081657740337505	n/a	n/a	n/a	n/a
289.72021484375	0.2	593347	213	42	2	0	0	25	290	stimuli\Videos_short_600ms_vertflip\28.single_injection_with_sharp_needle_short_vertflip_short_600ms.mp4	28.single_injection_with_sharp_needle_short_vertflip_short_600ms.mp4	2519.4601426453373	2520.0684453640556	0.6083027187182779	n/a	n/a	n/a	n/a
290.52001953125	0.2	594985	214	42	2	0	0	26	317	stimuli\Videos_short_600ms_vertflip\52.touch_top_to_bottom_with_hammer_short_vertflip_short_600ms.mp4	52.touch_top_to_bottom_with_hammer_short_vertflip_short_600ms.mp4	2520.2608139382123	2520.8684199105255	0.6076059723131948	n/a	n/a	n/a	n/a
291.31982421875	0.2	596623	215	42	2	0	0	27	157	stimuli\Videos_short_600ms_horflip\70.(long)stroke_with_finger_all_over_the_hand_short_horflip_short_600ms.mp4	70.(long)stroke_with_finger_all_over_the_hand_short_horflip_short_600ms.mp4	2521.060172086978	2521.668398562403	0.6082264754249991	n/a	n/a	n/a	n/a
292.1201171875	0.2	598262	216	42	2	0	0	28	206	stimuli\Videos_short_600ms_horvertflip\33.scratch_top_to_bottom_with_scissors_short_horvertflip_short_600ms.mp4	33.scratch_top_to_bottom_with_scissors_short_horvertflip_short_600ms.mp4	2521.8600551414956	2522.468377214281	0.6083220727855405	n/a	n/a	n/a	n/a
292.919921875	0.2	599900	217	42	2	0	0	29	137	stimuli\Videos_short_600ms_horflip\52.touch_top_to_bottom_with_hammer_short_horflip_short_600ms.mp4	52.touch_top_to_bottom_with_hammer_short_horflip_short_600ms.mp4	2522.660035846078	2523.268355279672	0.6083194335942608	n/a	n/a	n/a	n/a
293.7197265625	0.2	601538	218	42	2	0	0	30	251	stimuli\Videos_short_600ms_horvertflip\74.fingers_walking_from_top_to_bottom_short_horvertflip_short_600ms.mp4	74.fingers_walking_from_top_to_bottom_short_horvertflip_short_600ms.mp4	2523.460116839915	2524.068309885588	0.6081930456730333	n/a	n/a	n/a	n/a
294.52001953125	0.2	603177	219	42	2	0	0	31	21	stimuli\Videos_short_600ms\29.single_pinch_with_tweezers_short_short_600ms.mp4	29.single_pinch_with_tweezers_short_short_600ms.mp4	2524.260098424227	2524.868293229361	0.6081948051337349	n/a	n/a	n/a	n/a
295.31982421875	0.2	604815	220	42	2	0	0	32	102	stimuli\Videos_short_600ms_horflip\20.single_touch_with_screwdriver_short_horflip_short_600ms.mp4	20.single_touch_with_screwdriver_short_horflip_short_600ms.mp4	2525.060012855792	2525.668264550153	0.6082516943606606	n/a	n/a	n/a	n/a
296.11962890625	0.2	606453	221	42	2	0	0	33	274	stimuli\Videos_short_600ms_vertflip\13.single_touch_with_pen_short_vertflip_short_600ms.mp4	13.single_touch_with_pen_short_vertflip_short_600ms.mp4	2525.8599536792667	2526.468244081761	0.6082904024942763	n/a	n/a	n/a	n/a
296.919921875	0.2	608092	222	42	2	0	0	34	108	stimuli\Videos_short_600ms_horflip\26.single_touch_with_a_blunt_syringe_short_horflip_short_600ms.mp4	26.single_touch_with_a_blunt_syringe_short_horflip_short_600ms.mp4	2526.659930864927	2527.268228305264	0.6082974403366279	n/a	n/a	n/a	n/a
297.7197265625	0.2	609730	223	42	2	0	0	35	106	stimuli\Videos_short_600ms_horflip\24.single_stroke_top_to_bottom_with_a_spoon_short_horflip_short_600ms.mp4	24.single_stroke_top_to_bottom_with_a_spoon_short_horflip_short_600ms.mp4	2527.4599030654495	2528.0682336422947	0.6083305768452192	n/a	n/a	n/a	n/a
298.52001953125	0.2	611369	224	42	2	0	0	36	275	stimuli\Videos_short_600ms_vertflip\14.repeated_touch_with_pencil_short_vertflip_short_600ms.mp4	14.repeated_touch_with_pencil_short_vertflip_short_600ms.mp4	2528.2598872889525	2528.8682225576927	0.6083352687401202	n/a	n/a	n/a	n/a
299.31982421875	0.2	613007	225	42	2	0	0	37	338	stimuli\Videos_short_600ms_vertflip\71.single_stroke_with_finger_top_to_bottom_short_vertflip_short_600ms.mp4	71.single_stroke_with_finger_top_to_bottom_short_vertflip_short_600ms.mp4	2529.0598659408306	2529.6681927055106	0.6083267646799868	n/a	n/a	n/a	n/a
300.11962890625	0.2	614645	226	42	2	0	0	38	182	stimuli\Videos_short_600ms_horvertflip\11.single_touch_with_lighter_short_horvertflip_short_600ms.mp4	11.single_touch_with_lighter_short_horvertflip_short_600ms.mp4	2529.85983960757	2530.468173703336	0.6083340957661676	n/a	n/a	n/a	n/a
300.919921875	0.2	616284	227	42	2	0	0	39	298	stimuli\Videos_short_600ms_vertflip\35.single_punch_with_hand_short_vertflip_short_600ms.mp4	35.single_punch_with_hand_short_vertflip_short_600ms.mp4	2530.659826470264	2531.2681532349443	0.6083267646804416	n/a	n/a	n/a	n/a
301.7197265625	0.2	617922	228	42	2	0	0	40	292	stimuli\Videos_short_600ms_vertflip\3.single_push_with_finger_short_vertflip_short_600ms.mp4	3.single_push_with_finger_short_vertflip_short_600ms.mp4	2531.4598051221415	2532.068124555736	0.6083194335947155	n/a	n/a	n/a	n/a
302.51953125	0.2	619560	229	42	2	0	0	41	129	stimuli\Videos_short_600ms_horflip\45.scratching_with_finger_nails_short_horflip_short_600ms.mp4	45.scratching_with_finger_nails_short_horflip_short_600ms.mp4	2532.259783187533	2532.8681040873444	0.6083208998115879	n/a	n/a	n/a	n/a
303.31982421875	0.2	621199	230	42	2	0	0	42	101	stimuli\Videos_short_600ms_horflip\2.single_touch_with_finger_short_horflip_short_600ms.mp4	2.single_touch_with_finger_short_horflip_short_600ms.mp4	2533.0597612529236	2533.668082739222	0.6083214862983368	n/a	n/a	n/a	n/a
304.11962890625	0.2	622837	231	42	2	0	0	43	327	stimuli\Videos_short_600ms_vertflip\61.single_hit_with_rolling_pin_short_vertflip_short_600ms.mp4	61.single_hit_with_rolling_pin_short_vertflip_short_600ms.mp4	2533.8597929818634	2534.4680616843434	0.608268702480018	n/a	n/a	n/a	n/a
304.91943359375	0.2	624475	232	42	2	0	0	44	15	stimuli\Videos_short_600ms\23.single_push_with_a_spoon_short_short_600ms.mp4	23.single_push_with_a_spoon_short_short_600ms.mp4	2534.6597651823854	2535.2680412159516	0.6082760335661987	n/a	n/a	n/a	n/a
305.7197265625	0.2	626114	233	42	2	0	1	45	365	stimuli\Targets_short_600ms\hand-stroke_short_short_600ms.mp4	hand-stroke_short_short_600ms.mp4	2535.459682546385	2536.068018401612	0.6083358552268692	n/a	n/a	n/a	n/a
306.51953125	0.2	627752	234	42	2	0	0	46	10	stimuli\Videos_short_600ms\19.single_touch_with_rolling_pin_short_short_600ms.mp4	19.single_touch_with_rolling_pin_short_short_600ms.mp4	2536.259713395594	2536.8679985197073	0.6082851241126264	n/a	n/a	n/a	n/a
307.3193359375	0.2	629390	235	42	2	0	0	47	55	stimuli\Videos_short_600ms\6.single_touch_with_flat_hand_short_short_600ms.mp4	6.single_touch_with_flat_hand_short_short_600ms.mp4	2537.0596820771957	2537.6679768783415	0.6082948011458029	n/a	n/a	n/a	n/a
308.11962890625	0.2	631029	236	42	2	0	0	48	306	stimuli\Videos_short_600ms_vertflip\42.single_slap_with_plastic_whisk_short_vertflip_short_600ms.mp4	42.single_slap_with_plastic_whisk_short_vertflip_short_600ms.mp4	2537.859627592565	2538.467955530219	0.6083279376539394	n/a	n/a	n/a	n/a
308.91943359375	0.2	632667	237	42	2	0	0	49	246	stimuli\Videos_short_600ms_horvertflip\7.repeated_touch_with_hairbrush_short_horvertflip_short_600ms.mp4	7.repeated_touch_with_hairbrush_short_horvertflip_short_600ms.mp4	2538.659614455259	2539.2679362348013	0.608321779542166	n/a	n/a	n/a	n/a
309.71923828125	0.2	634305	238	42	2	0	0	50	17	stimuli\Videos_short_600ms\25.single_touch_with_stanley_knife_short_short_600ms.mp4	25.single_touch_with_stanley_knife_short_short_600ms.mp4	2539.4595951598412	2540.0678943596386	0.6082991997973295	n/a	n/a	n/a	n/a
310.51953125	0.2	635944	239	42	2	0	0	51	150	stimuli\Videos_short_600ms_horflip\64.repeated_touch_with_screwdriver_short_horflip_short_600ms.mp4	64.repeated_touch_with_screwdriver_short_horflip_short_600ms.mp4	2540.2595814360484	2540.8678656804304	0.6082842443820482	n/a	n/a	n/a	n/a
311.3193359375	0.2	637582	240	42	2	0	0	52	356	stimuli\Videos_short_600ms_vertflip\88.repeated_stroke_with_plastic_brush_short_vertflip_short_600ms.mp4	88.repeated_stroke_with_plastic_brush_short_vertflip_short_600ms.mp4	2541.0595806149668	2541.6678680850264	0.6082874700596221	n/a	n/a	n/a	n/a
312.119140625	0.2	639220	241	42	2	0	0	53	249	stimuli\Videos_short_600ms_horvertflip\72.(short)stroke_with_finger_all_over_the_hand_short_horvertflip_short_600ms.mp4	72.(short)stroke_with_finger_all_over_the_hand_short_horvertflip_short_600ms.mp4	2541.8595789141546	2542.4678358868973	0.6082569727427654	n/a	n/a	n/a	n/a
312.91943359375	0.2	640859	242	42	2	0	0	54	255	stimuli\Videos_short_600ms_horvertflip\78.single_stroke_top_to_bottom_with_soft_brush_short_horvertflip_short_600ms.mp4	78.single_stroke_top_to_bottom_with_soft_brush_short_horvertflip_short_600ms.mp4	2542.659510940326	2543.2678201104004	0.6083091700743353	n/a	n/a	n/a	n/a
313.71923828125	0.2	642497	243	42	2	0	0	55	120	stimuli\Videos_short_600ms_horflip\37.single_stab_with_nail_file_short_horflip_short_600ms.mp4	37.single_stab_with_nail_file_short_horflip_short_600ms.mp4	2543.4595074800536	2544.067806679851	0.6082991997973295	n/a	n/a	n/a	n/a
314.51904296875	0.2	644135	244	42	2	0	0	56	294	stimuli\Videos_short_600ms_vertflip\31.hand_grabbing_wrist_short_vertflip_short_600ms.mp4	31.hand_grabbing_wrist_short_vertflip_short_600ms.mp4	2544.2595031400506	2544.86778973038	0.6082865903294987	n/a	n/a	n/a	n/a
315.3193359375	0.2	645774	245	42	2	0	0	57	279	stimuli\Videos_short_600ms_vertflip\18.single_stroke_from_top_to_bottom_with_rolling_pin_short_vertflip_short_600ms.mp4	18.single_stroke_from_top_to_bottom_with_rolling_pin_short_vertflip_short_600ms.mp4	2545.0595061311337	2545.66777366064	0.6082675295060653	n/a	n/a	n/a	n/a
316.119140625	0.2	647412	246	42	2	0	0	58	174	stimuli\Videos_short_600ms_horflip\86.touch_top_to_bottom_with_hair_brush_short_horflip_short_600ms.mp4	86.touch_top_to_bottom_with_hair_brush_short_horflip_short_600ms.mp4	2545.859437864062	2546.4677435152144	0.6083056511524774	n/a	n/a	n/a	n/a
316.9189453125	0.2	649050	247	42	2	0	0	59	139	stimuli\Videos_short_600ms_horflip\54.repeated_touch_with_knife_short_horflip_short_600ms.mp4	54.repeated_touch_with_knife_short_horflip_short_600ms.mp4	2546.6594036132283	2547.2677230468225	0.6083194335942608	n/a	n/a	n/a	n/a
317.71923828125	0.2	650689	248	42	2	0	0	60	93	stimuli\Videos_short_600ms_horflip\12.repeated_touch_with_nail_file_short_horflip_short_600ms.mp4	12.repeated_touch_with_nail_file_short_horflip_short_600ms.mp4	2547.4593825583497	2548.0677052176216	0.6083226592718347	n/a	n/a	n/a	n/a
318.51904296875	0.2	652327	249	42	2	0	0	61	107	stimuli\Videos_short_600ms_horflip\25.single_touch_with_stanley_knife_short_horflip_short_600ms.mp4	25.single_touch_with_stanley_knife_short_horflip_short_600ms.mp4	2548.2593914143013	2548.867681230309	0.6082898160075274	n/a	n/a	n/a	n/a
319.3193359375	0.2	653966	250	42	2	0	0	62	266	stimuli\Videos_short_600ms_horvertflip\88.repeated_stroke_with_plastic_brush_short_horvertflip_short_600ms.mp4	88.repeated_stroke_with_plastic_brush_short_horvertflip_short_600ms.mp4	2549.0593932324105	2549.6676680930027	0.6082748605922461	n/a	n/a	n/a	n/a
320.119140625	0.2	655604	251	42	2	0	0	63	214	stimuli\Videos_short_600ms_horvertflip\40.repeated_push_with_finger_short_horvertflip_short_600ms.mp4	40.repeated_push_with_finger_short_horvertflip_short_600ms.mp4	2549.859309423437	2550.467662286783	0.6083528633462265	n/a	n/a	n/a	n/a
320.9189453125	0.2	657242	252	42	2	0	0	64	220	stimuli\Videos_short_600ms_horvertflip\46.scratching_top_to_bottom_with_finger_nails_short_horvertflip_short_600ms.mp4	46.scratching_top_to_bottom_with_finger_nails_short_horvertflip_short_600ms.mp4	2550.6593399794024	2551.267616012968	0.608276033565744	n/a	n/a	n/a	n/a
321.71923828125	0.2	658881	253	42	2	0	0	65	99	stimuli\Videos_short_600ms_horflip\18.single_stroke_from_top_to_bottom_with_rolling_pin_short_horflip_short_600ms.mp4	18.single_stroke_from_top_to_bottom_with_rolling_pin_short_horflip_short_600ms.mp4	2551.459320390741	2552.0675975972804	0.6082772065392419	n/a	n/a	n/a	n/a
322.51904296875	0.2	660519	254	42	2	0	0	66	33	stimuli\Videos_short_600ms\4.repeated_tap_with_finger_slow_short_short_600ms.mp4	4.repeated_tap_with_finger_slow_short_short_600ms.mp4	2552.2595298252036	2552.867575955915	0.6080461307115002	n/a	n/a	n/a	n/a
323.31884765625	0.2	662157	255	42	2	0	0	67	336	stimuli\Videos_short_600ms_vertflip\7.repeated_touch_with_hairbrush_short_vertflip_short_600ms.mp4	7.repeated_touch_with_hairbrush_short_vertflip_short_600ms.mp4	2553.0592762282795	2553.667554021306	0.6082777930264456	n/a	n/a	n/a	n/a
324.119140625	0.2	663796	256	42	2	0	0	68	239	stimuli\Videos_short_600ms_horvertflip\63.stroke_top_to_bottom_with_screwdriver_short_horvertflip_short_600ms.mp4	63.stroke_top_to_bottom_with_screwdriver_short_horvertflip_short_600ms.mp4	2553.859222623379	2554.4675367785917	0.6083141552126108	n/a	n/a	n/a	n/a
324.9189453125	0.2	665434	257	42	2	0	0	69	92	stimuli\Videos_short_600ms_horflip\11.single_touch_with_lighter_short_horflip_short_600ms.mp4	11.single_touch_with_lighter_short_horflip_short_600ms.mp4	2554.659198049579	2555.267510445331	0.6083123957519092	n/a	n/a	n/a	n/a
325.71875	0.2	667072	258	42	2	0	0	70	3	stimuli\Videos_short_600ms\12.repeated_touch_with_nail_file_short_short_600ms.mp4	12.repeated_touch_with_nail_file_short_short_600ms.mp4	2555.459323909662	2556.067487924235	0.6081640145730489	n/a	n/a	n/a	n/a
326.51904296875	0.2	668711	259	42	2	0	0	71	312	stimuli\Videos_short_600ms_vertflip\48.single_slap_with_hand_short_vertflip_short_600ms.mp4	48.single_slap_with_hand_short_vertflip_short_600ms.mp4	2556.259167376316	2556.8674434098816	0.608276033565744	n/a	n/a	n/a	n/a
327.31884765625	0.2	670349	260	42	2	0	1	72	360	stimuli\Targets_short_600ms\brush-stroke_short_short_600ms.mp4	brush-stroke_short_short_600ms.mp4	2557.0593568702243	2557.6674311523057	0.6080742820813612	n/a	n/a	n/a	n/a
328.11865234375	0.2	671987	261	42	2	0	0	73	135	stimuli\Videos_short_600ms_horflip\50.single_(long)hard_push_with_thumb_short_horflip_short_600ms.mp4	50.single_(long)hard_push_with_thumb_short_horflip_short_600ms.mp4	2557.859130251697	2558.4674045258016	0.6082742741050424	n/a	n/a	n/a	n/a
328.9189453125	0.2	673626	262	42	2	0	0	74	18	stimuli\Videos_short_600ms\26.single_touch_with_a_blunt_syringe_short_short_600ms.mp4	26.single_touch_with_a_blunt_syringe_short_short_600ms.mp4	2558.6590880832905	2559.267415727701	0.608327644410565	n/a	n/a	n/a	n/a
329.71875	0.2	675264	263	42	2	0	1	75	362	stimuli\Targets_short_600ms\chopstickwood-tap_short_short_600ms.mp4	chopstickwood-tap_short_short_600ms.mp4	2559.459067908142	2560.0673905674143	0.6083226592722895	n/a	n/a	n/a	n/a
330.5185546875	0.2	676902	264	42	2	0	0	76	152	stimuli\Videos_short_600ms_horflip\66.stroke_top_to_bottom_with_sponge_short_horflip_short_600ms.mp4	66.stroke_top_to_bottom_with_sponge_short_horflip_short_600ms.mp4	2560.2590445073156	2560.867375377404	0.6083308700885937	n/a	n/a	n/a	n/a
331.31884765625	0.2	678541	265	42	2	0	0	77	163	stimuli\Videos_short_600ms_horflip\76.tickle_with_fingers_from_top_to_bottom_short_horflip_short_600ms.mp4	76.tickle_with_fingers_from_top_to_bottom_short_horflip_short_600ms.mp4	2561.0590228659503	2561.6673443522486	0.6083214862983368	n/a	n/a	n/a	n/a
332.11865234375	0.2	680179	266	42	2	0	0	78	267	stimuli\Videos_short_600ms_horvertflip\89.single_touch_with_plastic_brush_short_horvertflip_short_600ms.mp4	89.single_touch_with_plastic_brush_short_horvertflip_short_600ms.mp4	2561.85900679621	2562.4673224176395	0.6083156214294831	n/a	n/a	n/a	n/a
332.91845703125	0.2	681817	267	42	2	0	0	79	308	stimuli\Videos_short_600ms_vertflip\44.pushing_top_to_bottom_with_finger_short_vertflip_short_600ms.mp4	44.pushing_top_to_bottom_with_finger_short_vertflip_short_600ms.mp4	2562.6590215170304	2563.2673004830303	0.6082789659999435	n/a	n/a	n/a	n/a
333.71875	0.2	683456	268	42	2	0	0	80	28	stimuli\Videos_short_600ms\35.single_punch_with_hand_short_short_600ms.mp4	35.single_punch_with_hand_short_short_600ms.mp4	2563.458961167531	2564.0672800146385	0.6083188471075118	n/a	n/a	n/a	n/a
334.5185546875	0.2	685094	269	42	2	0	0	81	197	stimuli\Videos_short_600ms_horvertflip\25.single_touch_with_stanley_knife_short_horvertflip_short_600ms.mp4	25.single_touch_with_stanley_knife_short_horvertflip_short_600ms.mp4	2564.2590096113468	2564.867257786786	0.6082481754392575	n/a	n/a	n/a	n/a
335.318359375	0.2	686732	270	42	2	0	0	82	253	stimuli\Videos_short_600ms_horvertflip\76.tickle_with_fingers_from_top_to_bottom_short_horvertflip_short_600ms.mp4	76.tickle_with_fingers_from_top_to_bottom_short_horvertflip_short_600ms.mp4	2565.058991195659	2565.667258725165	0.6082675295060653	n/a	n/a	n/a	n/a
336.11865234375	0.2	688371	271	42	2	0	0	83	122	stimuli\Videos_short_600ms_horflip\39.single_stab_with_scissors_short_horflip_short_600ms.mp4	39.single_stab_with_scissors_short_horflip_short_600ms.mp4	2565.858880701532	2566.467240016234	0.6083593147018291	n/a	n/a	n/a	n/a
336.91845703125	0.2	690009	272	42	2	0	0	84	27	stimuli\Videos_short_600ms\34.repeated_punch_with_hand_short_short_600ms.mp4	34.repeated_punch_with_hand_short_short_600ms.mp4	2566.6588778277464	2567.267197847828	0.6083200200814645	n/a	n/a	n/a	n/a
337.71875	0.2	691648	273	42	2	0	0	85	151	stimuli\Videos_short_600ms_horflip\65.stroke_top_to_bottom_with_stanley_knife_short_horflip_short_600ms.mp4	65.stroke_top_to_bottom_with_stanley_knife_short_horflip_short_600ms.mp4	2567.4591180527696	2568.0671735672713	0.608055514501757	n/a	n/a	n/a	n/a
338.5185546875	0.2	693286	274	42	2	0	0	86	200	stimuli\Videos_short_600ms_horvertflip\28.single_injection_with_sharp_needle_short_horvertflip_short_600ms.mp4	28.single_injection_with_sharp_needle_short_horvertflip_short_600ms.mp4	2568.258873253149	2568.867155444827	0.6082821916779722	n/a	n/a	n/a	n/a
339.318359375	0.2	694924	275	42	2	0	0	87	96	stimuli\Videos_short_600ms_horflip\15.single_stroke_top_to_bottom_with_a_plastic_whisk_short_horflip_short_600ms.mp4	15.single_stroke_top_to_bottom_with_a_plastic_whisk_short_horflip_short_600ms.mp4	2569.0588181820312	2569.667132337244	0.6083141552126108	n/a	n/a	n/a	n/a
340.11865234375	0.2	696563	276	42	2	0	0	88	260	stimuli\Videos_short_600ms_horvertflip\82.repeated_touch_with_cotton_bud_short_horvertflip_short_600ms.mp4	82.repeated_touch_with_cotton_bud_short_horvertflip_short_600ms.mp4	2569.8588003528303	2570.4671121620954	0.6083118092651603	n/a	n/a	n/a	n/a
340.91845703125	0.2	698201	277	42	2	0	1	89	364	stimuli\Targets_short_600ms\hand-pinch_short_short_600ms.mp4	hand-pinch_short_short_600ms.mp4	2570.658780177682	2571.267071166663	0.6082909889810253	n/a	n/a	n/a	n/a
341.71826171875	0.2	699839	278	42	2	0	0	90	105	stimuli\Videos_short_600ms_horflip\23.single_push_with_a_spoon_short_horflip_short_600ms.mp4	23.single_push_with_a_spoon_short_horflip_short_600ms.mp4	2571.458764401185	2572.0670723982853	0.6083079971003826	n/a	n/a	n/a	n/a
342.5185546875	0.2	701478	279	42	2	0	0	91	337	stimuli\Videos_short_600ms_vertflip\70.(long)stroke_with_finger_all_over_the_hand_short_vertflip_short_600ms.mp4	70.(long)stroke_with_finger_all_over_the_hand_short_vertflip_short_600ms.mp4	2572.2587313233253	2572.867046944755	0.6083156214299379	n/a	n/a	n/a	n/a
343.318359375	0.2	703116	280	42	2	0	0	92	13	stimuli\Videos_short_600ms\21.repeated_touch_with_metal_chopstick_short_short_600ms.mp4	21.repeated_touch_with_metal_chopstick_short_short_600ms.mp4	2573.058708508986	2573.667023837173	0.6083153281865634	n/a	n/a	n/a	n/a
344.1181640625	0.2	704754	281	42	2	0	0	93	145	stimuli\Videos_short_600ms_horflip\6.single_touch_with_flat_hand_short_horflip_short_600ms.mp4	6.single_touch_with_flat_hand_short_horflip_short_600ms.mp4	2573.85868686762	2574.467013045814	0.6083261781936926	n/a	n/a	n/a	n/a
344.91845703125	0.2	706393	282	42	2	0	0	94	127	stimuli\Videos_short_600ms_horflip\43.touch_top_to_bottom_with_sharp_wooden_stick_short_horflip_short_600ms.mp4	43.touch_top_to_bottom_with_sharp_wooden_stick_short_horflip_short_600ms.mp4	2574.6586658127417	2575.2669937503956	0.6083279376539394	n/a	n/a	n/a	n/a
345.71826171875	0.2	708031	283	42	2	0	0	95	43	stimuli\Videos_short_600ms\49.repeated_slap_with_hand_short_short_600ms.mp4	49.repeated_slap_with_hand_short_short_600ms.mp4	2575.458644171376	2576.0669741617344	0.6083299903584702	n/a	n/a	n/a	n/a
346.51806640625	0.2	709669	284	42	2	0	0	96	141	stimuli\Videos_short_600ms_horflip\56.repeated_touch_with_nail_file_short_horflip_short_600ms.mp4	56.repeated_touch_with_nail_file_short_horflip_short_600ms.mp4	2576.258622823254	2576.8669407906314	0.6083179673773884	7.0	7.0	2.6193741246684112	1.0
382.92529296875	0.2	784231	285	42	3	0	0	0	126	stimuli\Videos_short_600ms_horflip\42.single_slap_with_plastic_whisk_short_horflip_short_600ms.mp4	42.single_slap_with_plastic_whisk_short_horflip_short_600ms.mp4	2612.66599455271	2613.2743163322516	0.6083217795417113	n/a	n/a	n/a	n/a
383.7255859375	0.2	785870	286	42	3	0	0	1	277	stimuli\Videos_short_600ms_vertflip\16.repeated_touch_with_plastic_brush_short_vertflip_short_600ms.mp4	16.repeated_touch_with_plastic_brush_short_vertflip_short_600ms.mp4	2613.465983468108	2614.0742917584516	0.6083082903437571	n/a	n/a	n/a	n/a
384.525390625	0.2	787508	287	42	3	0	0	2	161	stimuli\Videos_short_600ms_horflip\74.fingers_walking_from_top_to_bottom_short_horflip_short_600ms.mp4	74.fingers_walking_from_top_to_bottom_short_horflip_short_600ms.mp4	2614.265950097005	2614.8742736360073	0.6083235390024129	n/a	n/a	n/a	n/a
385.3251953125	0.2	789146	288	42	3	0	0	3	323	stimuli\Videos_short_600ms_vertflip\58.single_slap_with_pencil_short_vertflip_short_600ms.mp4	58.single_slap_with_pencil_short_vertflip_short_600ms.mp4	2615.0659278691523	2615.674250821668	0.6083229525156639	n/a	n/a	n/a	n/a
386.12548828125	0.2	790785	289	42	3	0	1	4	372	stimuli\Targets_short_600ms_horvertflip\brush-stroke_short_vertflip_short_600ms.mp4	brush-stroke_short_vertflip_short_600ms.mp4	2615.865908866978	2616.4742297667894	0.6083208998115879	n/a	n/a	n/a	n/a
386.92529296875	0.2	792423	290	42	3	0	0	5	285	stimuli\Videos_short_600ms_vertflip\23.single_push_with_a_spoon_short_vertflip_short_600ms.mp4	23.single_push_with_a_spoon_short_vertflip_short_600ms.mp4	2616.6658942634544	2617.274205779476	0.6083115160217858	n/a	n/a	n/a	n/a
387.72509765625	0.2	794061	291	42	3	0	0	6	302	stimuli\Videos_short_600ms_vertflip\39.single_stab_with_scissors_short_vertflip_short_600ms.mp4	39.single_stab_with_scissors_short_vertflip_short_600ms.mp4	2617.4658755545233	2618.074186484058	0.6083109295345821	n/a	n/a	n/a	n/a
388.525390625	0.2	795700	292	42	3	0	1	7	370	stimuli\Targets_short_600ms_horflip\hand-pinch_short_horflip_short_600ms.mp4	hand-pinch_short_horflip_short_600ms.mp4	2618.265887049666	2618.8741663089095	0.6082792592433179	n/a	n/a	n/a	n/a
389.3251953125	0.2	797338	293	42	3	0	0	8	346	stimuli\Videos_short_600ms_vertflip\79.long_with_soft_brush_all_over_the_hand_short_vertflip_short_600ms.mp4	79.long_with_soft_brush_all_over_the_hand_short_vertflip_short_600ms.mp4	2619.065824060976	2619.674147306735	0.6083232457590384	n/a	n/a	n/a	n/a
390.125	0.2	798976	294	42	3	0	0	9	71	stimuli\Videos_short_600ms\74.fingers_walking_from_top_to_bottom_short_short_600ms.mp4	74.fingers_walking_from_top_to_bottom_short_short_600ms.mp4	2619.86580241961	2620.4741271315866	0.6083247119763655	n/a	n/a	n/a	n/a
390.92529296875	0.2	800615	295	42	3	0	0	10	51	stimuli\Videos_short_600ms\56.repeated_touch_with_nail_file_short_short_600ms.mp4	56.repeated_touch_with_nail_file_short_short_600ms.mp4	2620.6657878160872	2621.274105490221	0.6083176741335592	n/a	n/a	n/a	n/a
391.72509765625	0.2	802253	296	42	3	0	1	11	376	stimuli\Targets_short_600ms_horvertflip\hand-pinch_short_vertflip_short_600ms.mp4	hand-pinch_short_vertflip_short_600ms.mp4	2621.4662591169385	2622.074054817755	0.6077957008164958	n/a	n/a	n/a	n/a
392.52490234375	0.2	803891	297	42	3	0	0	12	44	stimuli\Videos_short_600ms\5.repeated_tap_with_finger_moving_from_top_to_bottom_short_short_600ms.mp4	5.repeated_tap_with_finger_moving_from_top_to_bottom_short_short_600ms.mp4	2622.2657914523056	2622.8740686588453	0.6082772065396966	n/a	n/a	n/a	n/a
393.3251953125	0.2	805530	298	42	3	0	0	13	111	stimuli\Videos_short_600ms_horflip\29.single_pinch_with_tweezers_short_horflip_short_600ms.mp4	29.single_pinch_with_tweezers_short_horflip_short_600ms.mp4	2623.0657727433745	2623.6740411526107	0.6082684092361887	n/a	n/a	n/a	n/a
394.125	0.2	807168	299	42	3	0	0	14	226	stimuli\Videos_short_600ms_horvertflip\51.repeated_touch_with_hammer_short_horvertflip_short_600ms.mp4	51.repeated_touch_with_hammer_short_horvertflip_short_600ms.mp4	2623.865771922293	2624.4740145261067	0.6082426038137783	n/a	n/a	n/a	n/a
394.9248046875	0.2	808806	300	42	3	0	0	15	210	stimuli\Videos_short_600ms_horvertflip\37.single_stab_with_nail_file_short_horvertflip_short_600ms.mp4	37.single_stab_with_nail_file_short_horvertflip_short_600ms.mp4	2624.6656933917006	2625.2739946442016	0.6083012525009508	n/a	n/a	n/a	n/a
395.72509765625	0.2	810445	301	42	3	0	0	16	77	stimuli\Videos_short_600ms\8.single_touch_with_hairbrush_short_short_600ms.mp4	8.single_touch_with_hairbrush_short_short_600ms.mp4	2625.465653275998	2626.073973589323	0.6083203133248389	n/a	n/a	n/a	n/a
396.52490234375	0.2	812083	302	42	3	0	0	17	319	stimuli\Videos_short_600ms_vertflip\54.repeated_touch_with_knife_short_vertflip_short_600ms.mp4	54.repeated_touch_with_knife_short_vertflip_short_600ms.mp4	2626.2656319278763	2626.8739607452603	0.6083288173840629	n/a	n/a	n/a	n/a
397.32470703125	0.2	813721	303	42	3	0	0	18	179	stimuli\Videos_short_600ms_horflip\90.repeated_touch_with_sponge_short_horflip_short_600ms.mp4	90.repeated_touch_with_sponge_short_horflip_short_600ms.mp4	2627.065612045971	2627.6739443822767	0.608332336305466	n/a	n/a	n/a	n/a
398.125	0.2	815360	304	42	3	0	0	19	344	stimuli\Videos_short_600ms_vertflip\77.tapping_with_all_fingers_short_vertflip_short_600ms.mp4	77.tapping_with_all_fingers_short_vertflip_short_600ms.mp4	2627.8655915775794	2628.473917169286	0.6083255917064889	n/a	n/a	n/a	n/a
398.9248046875	0.2	816998	305	42	3	0	0	20	329	stimuli\Videos_short_600ms_vertflip\63.stroke_top_to_bottom_with_screwdriver_short_vertflip_short_600ms.mp4	63.stroke_top_to_bottom_with_screwdriver_short_vertflip_short_600ms.mp4	2628.665568176753	2629.27389464819	0.6083264714370671	n/a	n/a	n/a	n/a
399.724609375	0.2	818636	306	42	3	0	0	21	310	stimuli\Videos_short_600ms_vertflip\46.scratching_top_to_bottom_with_finger_nails_short_vertflip_short_600ms.mp4	46.scratching_top_to_bottom_with_finger_nails_short_vertflip_short_600ms.mp4	2629.465550347552	2630.073872127094	0.608321779542166	n/a	n/a	n/a	n/a
400.52490234375	0.2	820275	307	42	3	0	1	22	383	stimuli\Targets_short_600ms_vertflip\hand-stroke_short_horvertflip_short_600ms.mp4	hand-stroke_short_horvertflip_short_600ms.mp4	2630.2655287061866	2630.8738472600508	0.6083185538641374	n/a	n/a	n/a	n/a
401.32470703125	0.2	821913	308	42	3	0	0	23	288	stimuli\Videos_short_600ms_vertflip\26.single_touch_with_a_blunt_syringe_short_vertflip_short_600ms.mp4	26.single_touch_with_a_blunt_syringe_short_vertflip_short_600ms.mp4	2631.0655061850903	2631.673826498415	0.6083203133248389	n/a	n/a	n/a	n/a
402.125	0.2	823552	309	42	3	0	0	24	271	stimuli\Videos_short_600ms_vertflip\10.single_touch_with_knife_short_vertflip_short_600ms.mp4	10.single_touch_with_knife_short_vertflip_short_600ms.mp4	2631.8655367410565	2632.4738060300233	0.6082692889667669	n/a	n/a	n/a	n/a
402.9248046875	0.2	825190	310	42	3	0	0	25	35	stimuli\Videos_short_600ms\41.injection_with_blunt_syringe_short_short_600ms.mp4	41.injection_with_blunt_syringe_short_short_600ms.mp4	2632.6656579092446	2633.273785268388	0.6081273591435092	n/a	n/a	n/a	n/a
403.724609375	0.2	826828	311	42	3	0	0	26	73	stimuli\Videos_short_600ms\76.tickle_with_fingers_from_top_to_bottom_short_short_600ms.mp4	76.tickle_with_fingers_from_top_to_bottom_short_short_600ms.mp4	2633.4654180947623	2634.073762454049	0.6083443592865478	n/a	n/a	n/a	n/a
404.52490234375	0.2	828467	312	42	3	0	0	27	68	stimuli\Videos_short_600ms\71.single_stroke_with_finger_top_to_bottom_short_short_600ms.mp4	71.single_stroke_with_finger_top_to_bottom_short_short_600ms.mp4	2634.2654084763776	2634.873745504578	0.6083370282003671	n/a	n/a	n/a	n/a
405.32470703125	0.2	830105	313	42	3	0	0	28	195	stimuli\Videos_short_600ms_horvertflip\23.single_push_with_a_spoon_short_horvertflip_short_600ms.mp4	23.single_push_with_a_spoon_short_horvertflip_short_600ms.mp4	2635.0653774512216	2635.673718878074	0.6083414268523484	n/a	n/a	n/a	n/a
406.12451171875	0.2	831743	314	42	3	0	1	29	381	stimuli\Targets_short_600ms_vertflip\finger-tap_short_horvertflip_short_600ms.mp4	finger-tap_short_horvertflip_short_600ms.mp4	2635.865455219381	2636.473724508348	0.6082692889667669	n/a	n/a	n/a	n/a
406.9248046875	0.2	833382	315	42	3	0	0	30	70	stimuli\Videos_short_600ms\73.single_stroke_with_flat_hand_short_short_600ms.mp4	73.single_stroke_with_flat_hand_short_short_600ms.mp4	2636.6653605603997	2637.273692310219	0.6083317498191718	n/a	n/a	n/a	n/a
407.724609375	0.2	835020	316	42	3	0	0	31	153	stimuli\Videos_short_600ms_horflip\67.single_touch_with_sponge_short_horflip_short_600ms.mp4	67.single_touch_with_sponge_short_horflip_short_600ms.mp4	2637.465344197416	2638.0736574728985	0.6083132754824874	n/a	n/a	n/a	n/a
408.5244140625	0.2	836658	317	42	3	0	0	32	188	stimuli\Videos_short_600ms_horvertflip\17.repeated_touch_with_rolling_pin_short_horvertflip_short_600ms.mp4	17.repeated_touch_with_rolling_pin_short_horvertflip_short_600ms.mp4	2638.2653143452344	2638.8736416964016	0.6083273511671905	n/a	n/a	n/a	n/a
409.32470703125	0.2	838297	318	42	3	0	0	33	160	stimuli\Videos_short_600ms_horflip\73.single_stroke_with_flat_hand_short_horflip_short_600ms.mp4	73.single_stroke_with_flat_hand_short_horflip_short_600ms.mp4	2639.0653053133365	2639.6736168293583	0.6083115160217858	n/a	n/a	n/a	n/a
410.12451171875	0.2	839935	319	42	3	0	0	34	300	stimuli\Videos_short_600ms_vertflip\37.single_stab_with_nail_file_short_vertflip_short_600ms.mp4	37.single_stab_with_nail_file_short_vertflip_short_600ms.mp4	2639.8652713557462	2640.4735940150185	0.6083226592722895	n/a	n/a	n/a	n/a
410.92431640625	0.2	841573	320	42	3	0	0	35	52	stimuli\Videos_short_600ms\57.single_touch_with_nail_file_short_short_600ms.mp4	57.single_touch_with_nail_file_short_short_600ms.mp4	2640.665225668419	2641.273577065548	0.6083513971288994	n/a	n/a	n/a	n/a
411.724609375	0.2	843212	321	42	3	0	0	36	45	stimuli\Videos_short_600ms\50.single_(long)hard_push_with_thumb_short_short_600ms.mp4	50.single_(long)hard_push_with_thumb_short_short_600ms.mp4	2641.46523276491	2642.073556010669	0.6083232457590384	n/a	n/a	n/a	n/a
412.5244140625	0.2	844850	322	42	3	0	0	37	196	stimuli\Videos_short_600ms_horvertflip\24.single_stroke_top_to_bottom_with_a_spoon_short_horvertflip_short_600ms.mp4	24.single_stroke_top_to_bottom_with_a_spoon_short_horvertflip_short_600ms.mp4	2642.265353053368	2642.8735396476854	0.6081865943174307	n/a	n/a	n/a	n/a
413.32421875	0.2	846488	323	42	3	0	0	38	117	stimuli\Videos_short_600ms_horflip\34.repeated_punch_with_hand_short_horflip_short_600ms.mp4	34.repeated_punch_with_hand_short_horflip_short_600ms.mp4	2643.0651979862387	2643.673528563083	0.6083305768447644	n/a	n/a	n/a	n/a
414.12451171875	0.2	848127	324	42	3	0	1	39	377	stimuli\Targets_short_600ms_horvertflip\hand-stroke_short_vertflip_short_600ms.mp4	hand-stroke_short_vertflip_short_600ms.mp4	2643.865165788109	2644.473489327112	0.6083235390028676	n/a	n/a	n/a	n/a
414.92431640625	0.2	849765	325	42	3	0	0	40	36	stimuli\Videos_short_600ms\42.single_slap_with_plastic_whisk_short_short_600ms.mp4	42.single_slap_with_plastic_whisk_short_short_600ms.mp4	2644.6651438535	2645.2734676857463	0.6083238322462421	n/a	n/a	n/a	n/a
415.72412109375	0.2	851403	326	42	3	0	0	41	318	stimuli\Videos_short_600ms_vertflip\53.touch_top_to_bottom_with_knife_short_vertflip_short_600ms.mp4	53.touch_top_to_bottom_with_knife_short_vertflip_short_600ms.mp4	2645.465123385108	2646.0734451646504	0.608321779542166	n/a	n/a	n/a	n/a
416.5244140625	0.2	853042	327	42	3	0	0	42	316	stimuli\Videos_short_600ms_vertflip\51.repeated_touch_with_hammer_short_vertflip_short_600ms.mp4	51.repeated_touch_with_hammer_short_vertflip_short_600ms.mp4	2646.2651199248357	2646.8734235232846	0.6083035984488561	n/a	n/a	n/a	n/a
417.32421875	0.2	854680	328	42	3	0	0	43	216	stimuli\Videos_short_600ms_horvertflip\42.single_slap_with_plastic_whisk_short_horvertflip_short_600ms.mp4	42.single_slap_with_plastic_whisk_short_horvertflip_short_600ms.mp4	2647.065082155081	2647.6734036413795	0.6083214862983368	n/a	n/a	n/a	n/a
418.1240234375	0.2	856318	329	42	3	0	0	44	61	stimuli\Videos_short_600ms\65.stroke_top_to_bottom_with_stanley_knife_short_short_600ms.mp4	65.stroke_top_to_bottom_with_stanley_knife_short_short_600ms.mp4	2647.865068138045	2648.4733808270403	0.6083126889952837	n/a	n/a	n/a	n/a
418.92431640625	0.2	857957	330	42	3	0	0	45	354	stimuli\Videos_short_600ms_vertflip\86.touch_top_to_bottom_with_hair_brush_short_vertflip_short_600ms.mp4	86.touch_top_to_bottom_with_hair_brush_short_vertflip_short_600ms.mp4	2648.665102212932	2649.273358599188	0.6082563862555617	n/a	n/a	n/a	n/a
419.72412109375	0.2	859595	331	42	3	0	0	46	311	stimuli\Videos_short_600ms_vertflip\47.(long)scratching_with_finger_nails_short_vertflip_short_600ms.mp4	47.(long)scratching_with_finger_nails_short_vertflip_short_600ms.mp4	2649.4650541796573	2650.0733393037694	0.6082851241121716	n/a	n/a	n/a	n/a
420.5244140625	0.2	861234	332	42	3	0	0	47	4	stimuli\Videos_short_600ms\13.single_touch_with_pen_short_short_600ms.mp4	13.single_touch_with_pen_short_short_600ms.mp4	2650.264977701769	2650.873316196187	0.6083384944176942	n/a	n/a	n/a	n/a
421.32421875	0.2	862872	333	42	3	0	0	48	227	stimuli\Videos_short_600ms_horvertflip\52.touch_top_to_bottom_with_hammer_short_horvertflip_short_600ms.mp4	52.touch_top_to_bottom_with_hammer_short_horvertflip_short_600ms.mp4	2651.0649575266207	2651.673303645368	0.6083461187472494	n/a	n/a	n/a	n/a
422.1240234375	0.2	864510	334	42	3	0	0	49	265	stimuli\Videos_short_600ms_horvertflip\87.single_stroke_top_to_bottom_with_plastic_brush_short_horvertflip_short_600ms.mp4	87.single_stroke_top_to_bottom_with_plastic_brush_short_horvertflip_short_600ms.mp4	2651.864958171756	2652.4732688080476	0.6083106362916624	n/a	n/a	n/a	n/a
422.92431640625	0.2	866149	335	42	3	0	0	50	115	stimuli\Videos_short_600ms_horflip\32.single_(long)pinch_with_fingers_short_horflip_short_600ms.mp4	32.single_(long)pinch_with_fingers_short_horflip_short_600ms.mp4	2652.6649400493116	2653.2732333842405	0.6082933349289306	n/a	n/a	n/a	n/a
423.72412109375	0.2	867787	336	42	3	0	0	51	303	stimuli\Videos_short_600ms_vertflip\4.repeated_tap_with_finger_slow_short_vertflip_short_600ms.mp4	4.repeated_tap_with_finger_slow_short_vertflip_short_600ms.mp4	2653.4649195809197	2654.0732064644926	0.6082868835728732	n/a	n/a	n/a	n/a
424.52392578125	0.2	869425	337	42	3	0	0	52	339	stimuli\Videos_short_600ms_vertflip\72.(short)stroke_with_finger_all_over_the_hand_short_vertflip_short_600ms.mp4	72.(short)stroke_with_finger_all_over_the_hand_short_vertflip_short_600ms.mp4	2654.264891194955	2654.8731851163707	0.6082939214156795	n/a	n/a	n/a	n/a
425.32421875	0.2	871064	338	42	3	0	0	53	39	stimuli\Videos_short_600ms\45.scratching_with_finger_nails_short_short_600ms.mp4	45.scratching_with_finger_nails_short_short_600ms.mp4	2655.064867794129	2655.673179603394	0.6083118092651603	n/a	n/a	n/a	n/a
426.1240234375	0.2	872702	339	42	3	0	0	54	244	stimuli\Videos_short_600ms_horvertflip\68.stroke_top_to_bottom_with_shawl_short_horvertflip_short_600ms.mp4	68.stroke_top_to_bottom_with_shawl_short_horvertflip_short_600ms.mp4	2655.8649121325366	2656.4731776093386	0.6082654768019893	n/a	n/a	n/a	n/a
426.923828125	0.2	874340	340	42	3	0	0	55	109	stimuli\Videos_short_600ms_horflip\27.single_push_with_a_plastic_whisk_short_horflip_short_600ms.mp4	27.single_push_with_a_plastic_whisk_short_horflip_short_600ms.mp4	2656.6649552979707	2657.273152742295	0.6081974443245599	n/a	n/a	n/a	n/a
427.72412109375	0.2	875979	341	42	3	0	0	56	342	stimuli\Videos_short_600ms_vertflip\75.(long)stroke_with_fingers_all_over_the_hand_short_vertflip_short_600ms.mp4	75.(long)stroke_with_fingers_all_over_the_hand_short_vertflip_short_600ms.mp4	2657.464839818705	2658.073136086068	0.60829626736313	n/a	n/a	n/a	n/a
428.52392578125	0.2	877617	342	42	3	0	0	57	48	stimuli\Videos_short_600ms\53.touch_top_to_bottom_with_knife_short_short_600ms.mp4	53.touch_top_to_bottom_with_knife_short_short_600ms.mp4	2658.264842809788	2658.873103301452	0.6082604916637138	n/a	n/a	n/a	n/a
429.32373046875	0.2	879255	343	42	3	0	0	58	46	stimuli\Videos_short_600ms\51.repeated_touch_with_hammer_short_short_600ms.mp4	51.repeated_touch_with_hammer_short_short_600ms.mp4	2659.0647619332485	2659.6730819533295	0.6083200200810097	n/a	n/a	n/a	n/a
430.1240234375	0.2	880894	344	42	3	0	0	59	341	stimuli\Videos_short_600ms_vertflip\74.fingers_walking_from_top_to_bottom_short_vertflip_short_600ms.mp4	74.fingers_walking_from_top_to_bottom_short_vertflip_short_600ms.mp4	2659.864740585126	2660.473060311964	0.60831972683809	n/a	n/a	n/a	n/a
430.923828125	0.2	882532	345	42	3	0	0	60	119	stimuli\Videos_short_600ms_horflip\36.single_slap_with_full_hand_short_horflip_short_600ms.mp4	36.single_slap_with_full_hand_short_horflip_short_600ms.mp4	2660.664693724825	2661.273039843572	0.6083461187467947	n/a	n/a	n/a	n/a
431.7236328125	0.2	884170	346	42	3	0	0	61	156	stimuli\Videos_short_600ms_horflip\7.repeated_touch_with_hairbrush_short_horflip_short_600ms.mp4	7.repeated_touch_with_hairbrush_short_horflip_short_600ms.mp4	2661.4646975956384	2662.0730167359893	0.6083191403508863	n/a	n/a	n/a	n/a
432.52392578125	0.2	885809	347	42	3	0	1	62	375	stimuli\Targets_short_600ms_horvertflip\finger-tap_short_vertflip_short_600ms.mp4	finger-tap_short_vertflip_short_600ms.mp4	2662.2648671489933	2662.8729933351633	0.6081261861700114	n/a	n/a	n/a	n/a
433.32373046875	0.2	887447	348	42	3	0	0	63	353	stimuli\Videos_short_600ms_vertflip\85.touch_top_to_bottom_with_fabric_short_vertflip_short_600ms.mp4	85.touch_top_to_bottom_with_fabric_short_vertflip_short_600ms.mp4	2663.0646853967114	2663.6729755059623	0.6082901092509019	n/a	n/a	n/a	n/a
434.12353515625	0.2	889085	349	42	3	0	0	64	202	stimuli\Videos_short_600ms_horvertflip\3.single_push_with_finger_short_horvertflip_short_600ms.mp4	3.single_push_with_finger_short_horvertflip_short_600ms.mp4	2663.8651358772786	2664.472955330814	0.607819453535285	n/a	n/a	n/a	n/a
434.923828125	0.2	890724	350	42	3	0	0	65	26	stimuli\Videos_short_600ms\33.scratch_top_to_bottom_with_scissors_short_short_600ms.mp4	33.scratch_top_to_bottom_with_scissors_short_short_600ms.mp4	2664.6646512045268	2665.2729319299874	0.608280725460645	n/a	n/a	n/a	n/a
435.7236328125	0.2	892362	351	42	3	0	0	66	84	stimuli\Videos_short_600ms\86.touch_top_to_bottom_with_hair_brush_short_short_600ms.mp4	86.touch_top_to_bottom_with_hair_brush_short_short_600ms.mp4	2665.4645741401514	2666.072909702135	0.6083355619834947	n/a	n/a	n/a	n/a
436.5234375	0.2	894000	352	42	3	0	0	67	190	stimuli\Videos_short_600ms_horvertflip\19.single_touch_with_rolling_pin_short_horvertflip_short_600ms.mp4	19.single_touch_with_rolling_pin_short_horvertflip_short_600ms.mp4	2666.264563348793	2666.872890406717	0.608327057923816	n/a	n/a	n/a	n/a
437.32373046875	0.2	895639	353	42	3	0	0	68	42	stimuli\Videos_short_600ms\48.single_slap_with_hand_short_short_600ms.mp4	48.single_slap_with_hand_short_short_600ms.mp4	2667.0645299776897	2667.6728711112987	0.6083411336089739	n/a	n/a	n/a	n/a
438.12353515625	0.2	897277	354	42	3	0	1	69	371	stimuli\Targets_short_600ms_horflip\hand-stroke_short_horflip_short_600ms.mp4	hand-stroke_short_horflip_short_600ms.mp4	2667.8646590634507	2668.472826010458	0.6081669470072484	n/a	n/a	n/a	n/a
438.92333984375	0.2	898915	355	42	3	0	0	70	128	stimuli\Videos_short_600ms_horflip\44.pushing_top_to_bottom_with_finger_short_horflip_short_600ms.mp4	44.pushing_top_to_bottom_with_finger_short_horflip_short_600ms.mp4	2668.6645265760662	2669.272830761002	0.608304184935605	n/a	n/a	n/a	n/a
439.7236328125	0.2	900554	356	42	3	0	0	71	184	stimuli\Videos_short_600ms_horvertflip\13.single_touch_with_pen_short_horvertflip_short_600ms.mp4	13.single_touch_with_pen_short_horvertflip_short_600ms.mp4	2669.464486460364	2670.0727991493595	0.6083126889957384	n/a	n/a	n/a	n/a
440.5234375	0.2	902192	357	42	3	0	0	72	47	stimuli\Videos_short_600ms\52.touch_top_to_bottom_with_hammer_short_short_600ms.mp4	52.touch_top_to_bottom_with_hammer_short_short_600ms.mp4	2670.2644648189985	2670.872781613402	0.6083167944034358	n/a	n/a	n/a	n/a
441.32373046875	0.2	903831	358	42	3	0	0	73	140	stimuli\Videos_short_600ms_horflip\55.touch_top_to_bottom_with_nail_file_short_horflip_short_600ms.mp4	55.touch_top_to_bottom_with_nail_file_short_horflip_short_600ms.mp4	2671.0644780736015	2671.672766716635	0.6082886430335748	n/a	n/a	n/a	n/a
