onset	duration	onsetsample	eventnumber	subjectnr	sequencenumber	blocksequencenumber	istarget	presentationnumber	stimnumber	stim	stimname	time_stimon	time_stimoff	stimdur	cresp	resp	rt	correct
11.6650390625	0.2	23890	0	80	0	0	0	0	349	stimuli\Videos_short_600ms_vertflip\81.single_stroke_top_to_bottom_with_cotton_pad_short_vertflip_short_600ms.mp4	81.single_stroke_top_to_bottom_with_cotton_pad_short_vertflip_short_600ms.mp4	54.1062986988436	54.71439572308009	0.6080970242364856	n/a	n/a	n/a	n/a
12.46484375	0.2	25528	1	80	0	0	0	1	143	stimuli\Videos_short_600ms_horflip\58.single_slap_with_pencil_short_horflip_short_600ms.mp4	58.single_slap_with_pencil_short_horflip_short_600ms.mp4	54.90627213084008	55.51436622262554	0.6080940917854605	n/a	n/a	n/a	n/a
13.2646484375	0.2	27166	2	80	0	0	1	2	372	stimuli\Targets_short_600ms_horvertflip\brush-stroke_short_vertflip_short_600ms.mp4	brush-stroke_short_vertflip_short_600ms.mp4	55.70614527302314	56.31434229383012	0.6081970208069833	n/a	n/a	n/a	n/a
14.06494140625	0.2	28805	3	80	0	0	0	3	246	stimuli\Videos_short_600ms_horvertflip\7.repeated_touch_with_hairbrush_short_horvertflip_short_600ms.mp4	7.repeated_touch_with_hairbrush_short_horvertflip_short_600ms.mp4	56.50613571323265	57.11432364344364	0.6081879302109883	n/a	n/a	n/a	n/a
14.86474609375	0.2	30443	4	80	0	0	0	4	223	stimuli\Videos_short_600ms_horvertflip\49.repeated_slap_with_hand_short_horvertflip_short_600ms.mp4	49.repeated_slap_with_hand_short_horvertflip_short_600ms.mp4	57.30604257859886	57.91431027146609	0.6082676928672299	n/a	n/a	n/a	n/a
15.66455078125	0.2	32081	5	80	0	0	1	5	363	stimuli\Targets_short_600ms\finger-tap_short_short_600ms.mp4	finger-tap_short_short_600ms.mp4	58.10601571735242	58.71432798347087	0.6083122661184461	n/a	n/a	n/a	n/a
16.46484375	0.2	33720	6	80	0	0	0	6	267	stimuli\Videos_short_600ms_horvertflip\89.single_touch_with_plastic_brush_short_horvertflip_short_600ms.mp4	89.single_touch_with_plastic_brush_short_horvertflip_short_600ms.mp4	58.90599853319145	59.514302881692856	0.6083043485014059	n/a	n/a	n/a	n/a
17.2646484375	0.2	35358	7	80	0	0	0	7	155	stimuli\Videos_short_600ms_horflip\69.stroke_with_soft_sock_short_horflip_short_600ms.mp4	69.stroke_with_soft_sock_short_horflip_short_600ms.mp4	59.7059816422734	60.31431091660488	0.6083292743314814	n/a	n/a	n/a	n/a
18.064453125	0.2	36996	8	80	0	0	0	8	69	stimuli\Videos_short_600ms\72.(short)stroke_with_finger_all_over_the_hand_short_short_600ms.mp4	72.(short)stroke_with_finger_all_over_the_hand_short_short_600ms.mp4	60.50594305122286	61.11429109323944	0.608348042016587	n/a	n/a	n/a	n/a
18.86474609375	0.2	38635	9	80	0	0	0	9	273	stimuli\Videos_short_600ms_vertflip\12.repeated_touch_with_nail_file_short_vertflip_short_600ms.mp4	12.repeated_touch_with_nail_file_short_vertflip_short_600ms.mp4	61.30594874017697	61.914269803648494	0.6083210634715215	n/a	n/a	n/a	n/a
19.66455078125	0.2	40273	10	80	0	0	0	10	136	stimuli\Videos_short_600ms_horflip\51.repeated_touch_with_hammer_short_horflip_short_600ms.mp4	51.repeated_touch_with_hammer_short_horflip_short_600ms.mp4	62.10593272899496	62.714253205977	0.6083204769820441	n/a	n/a	n/a	n/a
20.46435546875	0.2	41911	11	80	0	0	0	11	11	stimuli\Videos_short_600ms\2.single_touch_with_finger_short_short_600ms.mp4	2.single_touch_with_finger_short_short_600ms.mp4	62.90591495834451	63.51423396910104	0.6083190107565315	n/a	n/a	n/a	n/a
21.2646484375	0.2	43550	12	80	0	0	0	12	7	stimuli\Videos_short_600ms\16.repeated_touch_with_plastic_brush_short_short_600ms.mp4	16.repeated_touch_with_plastic_brush_short_short_600ms.mp4	63.7058945484896	64.3142161984506	0.6083216499609989	n/a	n/a	n/a	n/a
22.064453125	0.2	45188	13	80	0	0	0	13	261	stimuli\Videos_short_600ms_horvertflip\83.single_stroke_top_to_bottom_with_cotton_bud_short_horvertflip_short_600ms.mp4	83.single_stroke_top_to_bottom_with_cotton_bud_short_horvertflip_short_600ms.mp4	64.5058580101504	65.11420194673701	0.608343936586607	n/a	n/a	n/a	n/a
22.8642578125	0.2	46826	14	80	0	0	0	14	137	stimuli\Videos_short_600ms_horflip\52.touch_top_to_bottom_with_hammer_short_horflip_short_600ms.mp4	52.touch_top_to_bottom_with_hammer_short_horflip_short_600ms.mp4	65.30583320161895	65.91418300310761	0.6083498014886572	n/a	n/a	n/a	n/a
23.66455078125	0.2	48465	15	80	0	0	0	15	125	stimuli\Videos_short_600ms_horflip\41.injection_with_blunt_syringe_short_horflip_short_600ms.mp4	41.injection_with_blunt_syringe_short_horflip_short_600ms.mp4	66.10580340792148	66.7141705108661	0.6083671029446123	n/a	n/a	n/a	n/a
24.46435546875	0.2	50103	16	80	0	0	0	16	131	stimuli\Videos_short_600ms_horflip\47.(long)scratching_with_finger_nails_short_horflip_short_600ms.mp4	47.(long)scratching_with_finger_nails_short_horflip_short_600ms.mp4	66.9058064576675	67.51415186047961	0.6083454028121196	n/a	n/a	n/a	n/a
25.26416015625	0.2	51741	17	80	0	0	0	17	286	stimuli\Videos_short_600ms_vertflip\24.single_stroke_top_to_bottom_with_a_spoon_short_vertflip_short_600ms.mp4	24.single_stroke_top_to_bottom_with_a_spoon_short_vertflip_short_600ms.mp4	67.7058411778853	68.31409332876501	0.6082521508797072	n/a	n/a	n/a	n/a
26.064453125	0.2	53380	18	80	0	0	0	18	207	stimuli\Videos_short_600ms_horvertflip\34.repeated_punch_with_hand_short_horvertflip_short_600ms.mp4	34.repeated_punch_with_hand_short_horvertflip_short_600ms.mp4	68.50634978213566	69.11411280023822	0.6077630181025597	n/a	n/a	n/a	n/a
26.8642578125	0.2	55018	19	80	0	0	0	19	211	stimuli\Videos_short_600ms_horvertflip\38.double_slap_with_pencil_short_horvertflip_short_600ms.mp4	38.double_slap_with_pencil_short_horvertflip_short_600ms.mp4	69.30582411102296	69.91408887143916	0.6082647604162048	n/a	n/a	n/a	n/a
27.66455078125	0.2	56657	20	80	0	0	0	20	275	stimuli\Videos_short_600ms_vertflip\14.repeated_touch_with_pencil_short_vertflip_short_600ms.mp4	14.repeated_touch_with_pencil_short_vertflip_short_600ms.mp4	70.10620016849862	70.7140590777417	0.6078589092430775	n/a	n/a	n/a	n/a
28.46435546875	0.2	58295	21	80	0	0	0	21	233	stimuli\Videos_short_600ms_horvertflip\58.single_slap_with_pencil_short_horvertflip_short_600ms.mp4	58.single_slap_with_pencil_short_horvertflip_short_600ms.mp4	70.90579502110995	71.51403192324506	0.6082369021351042	n/a	n/a	n/a	n/a
29.26416015625	0.2	59933	22	80	0	0	0	22	284	stimuli\Videos_short_600ms_vertflip\22.single_touch_with_metal_chopstick_short_vertflip_short_600ms.mp4	22.single_touch_with_metal_chopstick_short_vertflip_short_600ms.mp4	71.70570892435717	72.3140035957731	0.6082946714159334	n/a	n/a	n/a	n/a
30.064453125	0.2	61572	23	80	0	0	0	23	57	stimuli\Videos_short_600ms\61.single_hit_with_rolling_pin_short_short_600ms.mp4	61.single_hit_with_rolling_pin_short_short_600ms.mp4	72.50599788804902	73.11398641161213	0.6079885235631082	n/a	n/a	n/a	n/a
30.8642578125	0.2	63210	24	80	0	0	0	24	271	stimuli\Videos_short_600ms_vertflip\10.single_touch_with_knife_short_vertflip_short_600ms.mp4	10.single_touch_with_knife_short_vertflip_short_600ms.mp4	73.30567015735869	73.91399943169381	0.6083292743351194	n/a	n/a	n/a	n/a
31.6640625	0.2	64848	25	80	0	0	0	25	151	stimuli\Videos_short_600ms_horflip\65.stroke_top_to_bottom_with_stanley_knife_short_horflip_short_600ms.mp4	65.stroke_top_to_bottom_with_stanley_knife_short_horflip_short_600ms.mp4	74.10567936525331	74.71398019481785	0.6083008295645413	n/a	n/a	n/a	n/a
32.46435546875	0.2	66487	26	80	0	0	0	26	107	stimuli\Videos_short_600ms_horflip\25.single_touch_with_stanley_knife_short_horflip_short_600ms.mp4	25.single_touch_with_stanley_knife_short_horflip_short_600ms.mp4	74.90572552202866	75.51397972562336	0.6082542035946972	n/a	n/a	n/a	n/a
33.26416015625	0.2	68125	27	80	0	0	0	27	290	stimuli\Videos_short_600ms_vertflip\28.single_injection_with_sharp_needle_short_vertflip_short_600ms.mp4	28.single_injection_with_sharp_needle_short_vertflip_short_600ms.mp4	75.70635963516906	76.3139730982839	0.6076134631148307	n/a	n/a	n/a	n/a
34.06396484375	0.2	69763	28	80	0	0	1	28	361	stimuli\Targets_short_600ms\chopstick-silver-tap_short_short_600ms.mp4	chopstick-silver-tap_short_short_600ms.mp4	76.50626796676079	77.11395063571399	0.6076826689532027	n/a	n/a	n/a	n/a
34.8642578125	0.2	71402	29	80	0	0	0	29	35	stimuli\Videos_short_600ms\41.injection_with_blunt_syringe_short_short_600ms.mp4	41.injection_with_blunt_syringe_short_short_600ms.mp4	77.3056194259625	77.9139293461194	0.6083099201568984	n/a	n/a	n/a	n/a
35.6640625	0.2	73040	30	80	0	0	0	30	225	stimuli\Videos_short_600ms_horvertflip\50.single_(long)hard_push_with_thumb_short_horvertflip_short_600ms.mp4	50.single_(long)hard_push_with_thumb_short_horvertflip_short_600ms.mp4	78.10559021875451	78.71391245520499	0.6083222364504763	n/a	n/a	n/a	n/a
36.4638671875	0.2	74678	31	80	0	0	0	31	147	stimuli\Videos_short_600ms_horflip\61.single_hit_with_rolling_pin_short_horflip_short_600ms.mp4	61.single_hit_with_rolling_pin_short_horflip_short_600ms.mp4	78.90557244810407	79.51387621011236	0.6083037620082905	n/a	n/a	n/a	n/a
37.26416015625	0.2	76317	32	80	0	0	0	32	132	stimuli\Videos_short_600ms_horflip\48.single_slap_with_hand_short_horflip_short_600ms.mp4	48.single_slap_with_hand_short_horflip_short_600ms.mp4	79.70554060168797	80.3138804328446	0.608339831156627	n/a	n/a	n/a	n/a
38.06396484375	0.2	77955	33	80	0	0	0	33	301	stimuli\Videos_short_600ms_vertflip\38.double_slap_with_pencil_short_vertflip_short_600ms.mp4	38.double_slap_with_pencil_short_vertflip_short_600ms.mp4	80.5059870379846	81.11386324868363	0.6078762106990325	n/a	n/a	n/a	n/a
38.86376953125	0.2	79593	34	80	0	0	0	34	161	stimuli\Videos_short_600ms_horflip\74.fingers_walking_from_top_to_bottom_short_horflip_short_600ms.mp4	74.fingers_walking_from_top_to_bottom_short_horflip_short_600ms.mp4	81.30557338648578	81.91384665101214	0.6082732645263604	n/a	n/a	n/a	n/a
39.6640625	0.2	81232	35	80	0	0	0	35	323	stimuli\Videos_short_600ms_vertflip\58.single_slap_with_pencil_short_vertflip_short_600ms.mp4	58.single_slap_with_pencil_short_vertflip_short_600ms.mp4	82.1055142682817	82.7138277073791	0.608313439097401	n/a	n/a	n/a	n/a
40.4638671875	0.2	82870	36	80	0	0	0	36	167	stimuli\Videos_short_600ms_horflip\8.single_touch_with_hairbrush_short_horflip_short_600ms.mp4	8.single_touch_with_hairbrush_short_horflip_short_600ms.mp4	82.90587712973138	83.51381257593312	0.6079354462017363	n/a	n/a	n/a	n/a
41.263671875	0.2	84508	37	80	0	0	0	37	185	stimuli\Videos_short_600ms_horvertflip\14.repeated_touch_with_pencil_short_horvertflip_short_600ms.mp4	14.repeated_touch_with_pencil_short_horvertflip_short_600ms.mp4	83.70547432830062	84.31377633084412	0.6083020025434962	n/a	n/a	n/a	n/a
42.06396484375	0.2	86147	38	80	0	0	0	38	126	stimuli\Videos_short_600ms_horflip\42.single_slap_with_plastic_whisk_short_horflip_short_600ms.mp4	42.single_slap_with_plastic_whisk_short_horflip_short_600ms.mp4	84.5054594901012	85.11377850085773	0.6083190107565315	n/a	n/a	n/a	n/a
42.86376953125	0.2	87785	39	80	0	0	0	39	316	stimuli\Videos_short_600ms_vertflip\51.repeated_touch_with_hammer_short_vertflip_short_600ms.mp4	51.repeated_touch_with_hammer_short_vertflip_short_600ms.mp4	85.30542735044219	85.91376073020365	0.6083333797614614	n/a	n/a	n/a	n/a
43.66357421875	0.2	89423	40	80	0	0	0	40	74	stimuli\Videos_short_600ms\77.tapping_with_all_fingers_short_short_600ms.mp4	77.tapping_with_all_fingers_short_short_600ms.mp4	86.10542922720924	86.71370131875301	0.6082720915437676	n/a	n/a	n/a	n/a
44.4638671875	0.2	91062	41	80	0	0	0	41	78	stimuli\Videos_short_600ms\80.stroke_with_sharp_stick_all_over_the_hand_short_short_600ms.mp4	80.stroke_with_sharp_stick_all_over_the_hand_short_short_600ms.mp4	86.90542230662686	87.51369439817063	0.6082720915437676	n/a	n/a	n/a	n/a
45.263671875	0.2	92700	42	80	0	0	0	42	124	stimuli\Videos_short_600ms_horflip\40.repeated_push_with_finger_short_horflip_short_600ms.mp4	40.repeated_push_with_finger_short_horflip_short_600ms.mp4	87.70544236458954	88.31366695043107	0.6082245858415263	n/a	n/a	n/a	n/a
46.0634765625	0.2	94338	43	80	0	0	0	43	163	stimuli\Videos_short_600ms_horflip\76.tickle_with_fingers_from_top_to_bottom_short_horflip_short_600ms.mp4	76.tickle_with_fingers_from_top_to_bottom_short_horflip_short_600ms.mp4	88.50543749672215	89.11367703806172	0.6082395413395716	n/a	n/a	n/a	n/a
46.86376953125	0.2	95977	44	80	0	0	0	44	274	stimuli\Videos_short_600ms_vertflip\13.single_touch_with_pen_short_vertflip_short_600ms.mp4	13.single_touch_with_pen_short_vertflip_short_600ms.mp4	89.30535139996937	89.91368126079033	0.6083298608209589	n/a	n/a	n/a	n/a
47.66357421875	0.2	97615	45	80	0	0	1	45	370	stimuli\Targets_short_600ms_horflip\hand-pinch_short_horflip_short_600ms.mp4	hand-pinch_short_horflip_short_600ms.mp4	90.10531984679984	90.7136511738463	0.6083313270464714	n/a	n/a	n/a	n/a
48.4638671875	0.2	99254	46	80	0	0	0	46	276	stimuli\Videos_short_600ms_vertflip\15.single_stroke_top_to_bottom_with_a_plastic_whisk_short_vertflip_short_600ms.mp4	15.single_stroke_top_to_bottom_with_a_plastic_whisk_short_vertflip_short_600ms.mp4	90.90528389495375	91.51365950200852	0.6083756070547679	n/a	n/a	n/a	n/a
49.263671875	0.2	100892	47	80	0	0	0	47	198	stimuli\Videos_short_600ms_horvertflip\26.single_touch_with_a_blunt_syringe_short_horvertflip_short_600ms.mp4	26.single_touch_with_a_blunt_syringe_short_horvertflip_short_600ms.mp4	91.70530453940592	92.3136294150645	0.6083248756585817	n/a	n/a	n/a	n/a
50.0634765625	0.2	102530	48	80	0	0	0	48	127	stimuli\Videos_short_600ms_horflip\43.touch_top_to_bottom_with_sharp_wooden_stick_short_horflip_short_600ms.mp4	43.touch_top_to_bottom_with_sharp_wooden_stick_short_horflip_short_600ms.mp4	92.50529556610854	93.11357498877624	0.6082794226676924	n/a	n/a	n/a	n/a
50.86376953125	0.2	104169	49	80	0	0	0	49	48	stimuli\Videos_short_600ms\53.touch_top_to_bottom_with_knife_short_short_600ms.mp4	53.touch_top_to_bottom_with_knife_short_short_600ms.mp4	93.30535345268436	93.91359533998548	0.6082418873011193	n/a	n/a	n/a	n/a
51.66357421875	0.2	105807	50	80	0	0	0	50	16	stimuli\Videos_short_600ms\24.single_stroke_top_to_bottom_with_a_spoon_short_short_600ms.mp4	24.single_stroke_top_to_bottom_with_a_spoon_short_short_600ms.mp4	94.10531779408484	94.71357493012692	0.6082571360420843	n/a	n/a	n/a	n/a
52.46337890625	0.2	107445	51	80	0	0	0	51	44	stimuli\Videos_short_600ms\5.repeated_tap_with_finger_moving_from_top_to_bottom_short_short_600ms.mp4	5.repeated_tap_with_finger_moving_from_top_to_bottom_short_short_600ms.mp4	94.90564106744932	95.5135600919275	0.6079190244781785	n/a	n/a	n/a	n/a
53.263671875	0.2	109084	52	80	0	0	0	52	333	stimuli\Videos_short_600ms_vertflip\67.single_touch_with_sponge_short_vertflip_short_600ms.mp4	67.single_touch_with_sponge_short_vertflip_short_600ms.mp4	95.70545937280258	96.31354437399204	0.6080850011894654	n/a	n/a	n/a	n/a
54.0634765625	0.2	110722	53	80	0	0	1	53	377	stimuli\Targets_short_600ms_horvertflip\hand-stroke_short_vertflip_short_600ms.mp4	hand-stroke_short_vertflip_short_600ms.mp4	96.5052606699428	97.11352924254606	0.6082685726032651	n/a	n/a	n/a	n/a
54.86328125	0.2	112360	54	80	0	0	0	54	299	stimuli\Videos_short_600ms_vertflip\36.single_slap_with_full_hand_short_vertflip_short_600ms.mp4	36.single_slap_with_full_hand_short_vertflip_short_600ms.mp4	97.3056645857032	97.91351235163164	0.6078477659284545	n/a	n/a	n/a	n/a
55.66357421875	0.2	113999	55	80	0	0	0	55	27	stimuli\Videos_short_600ms\34.repeated_punch_with_hand_short_short_600ms.mp4	34.repeated_punch_with_hand_short_short_600ms.mp4	98.10517117154814	98.71349634044964	0.6083251689015015	n/a	n/a	n/a	n/a
56.46337890625	0.2	115637	56	80	0	0	0	56	221	stimuli\Videos_short_600ms_horvertflip\47.(long)scratching_with_finger_nails_short_horvertflip_short_600ms.mp4	47.(long)scratching_with_finger_nails_short_horvertflip_short_600ms.mp4	98.9051396183786	99.51347886304212	0.6083392446635116	n/a	n/a	n/a	n/a
57.26318359375	0.2	117275	57	80	0	0	0	57	295	stimuli\Videos_short_600ms_vertflip\32.single_(long)pinch_with_fingers_short_vertflip_short_600ms.mp4	32.single_(long)pinch_with_fingers_short_vertflip_short_600ms.mp4	99.70512184772817	100.31346167888114	0.6083398311529891	n/a	n/a	n/a	n/a
58.0634765625	0.2	118914	58	80	0	0	0	58	6	stimuli\Videos_short_600ms\15.single_stroke_top_to_bottom_with_a_plastic_whisk_short_short_600ms.mp4	15.single_stroke_top_to_bottom_with_a_plastic_whisk_short_short_600ms.mp4	100.50525187258972	101.11343687034967	0.6081849977599632	n/a	n/a	n/a	n/a
58.86328125	0.2	120552	59	80	0	0	0	59	340	stimuli\Videos_short_600ms_vertflip\73.single_stroke_with_flat_hand_short_vertflip_short_600ms.mp4	73.single_stroke_with_flat_hand_short_vertflip_short_600ms.mp4	101.30516841504505	101.91343493493332	0.6082665198882751	n/a	n/a	n/a	n/a
59.6630859375	0.2	122190	60	80	0	0	0	60	242	stimuli\Videos_short_600ms_horvertflip\66.stroke_top_to_bottom_with_sponge_short_horvertflip_short_600ms.mp4	66.stroke_top_to_bottom_with_sponge_short_horvertflip_short_600ms.mp4	102.10514272677756	102.71337493698957	0.6082322102120088	n/a	n/a	n/a	n/a
60.46337890625	0.2	123829	61	80	0	0	0	61	310	stimuli\Videos_short_600ms_vertflip\46.scratching_top_to_bottom_with_finger_nails_short_vertflip_short_600ms.mp4	46.scratching_top_to_bottom_with_finger_nails_short_vertflip_short_600ms.mp4	102.90507539770624	103.5133507149476	0.6082753172413504	n/a	n/a	n/a	n/a
61.26318359375	0.2	125467	62	80	0	0	0	62	98	stimuli\Videos_short_600ms_horflip\17.repeated_touch_with_rolling_pin_short_horflip_short_600ms.mp4	17.repeated_touch_with_rolling_pin_short_horflip_short_600ms.mp4	103.70505616083028	104.31335523092277	0.6082990700924711	n/a	n/a	n/a	n/a
62.06298828125	0.2	127105	63	80	0	0	0	63	146	stimuli\Videos_short_600ms_horflip\60.single_push_with_tip_of_pencil_short_horflip_short_600ms.mp4	60.single_push_with_tip_of_pencil_short_horflip_short_600ms.mp4	104.50504073614138	105.11334625762174	0.6083055214803608	n/a	n/a	n/a	n/a
62.86328125	0.2	128744	64	80	0	0	0	64	237	stimuli\Videos_short_600ms_horvertflip\61.single_hit_with_rolling_pin_short_horvertflip_short_600ms.mp4	61.single_hit_with_rolling_pin_short_horvertflip_short_600ms.mp4	105.3050220857549	105.91333259240128	0.6083105066463759	n/a	n/a	n/a	n/a
63.6630859375	0.2	130382	65	80	0	0	0	65	269	stimuli\Videos_short_600ms_horvertflip\90.repeated_touch_with_sponge_short_horvertflip_short_600ms.mp4	90.repeated_touch_with_sponge_short_horvertflip_short_600ms.mp4	106.1050095935134	106.71333857460196	0.6083289810885617	n/a	n/a	n/a	n/a
64.462890625	0.2	132020	66	80	0	0	0	66	3	stimuli\Videos_short_600ms\12.repeated_touch_with_nail_file_short_short_600ms.mp4	12.repeated_touch_with_nail_file_short_short_600ms.mp4	106.90497070921629	107.51331229984498	0.6083415906286973	n/a	n/a	n/a	n/a
65.26318359375	0.2	133659	67	80	0	0	0	67	76	stimuli\Videos_short_600ms\79.long_with_soft_brush_all_over_the_hand_short_short_600ms.mp4	79.long_with_soft_brush_all_over_the_hand_short_short_600ms.mp4	107.70500572268064	108.3133027400545	0.6082970173738431	n/a	n/a	n/a	n/a
66.06298828125	0.2	135297	68	80	0	0	0	68	23	stimuli\Videos_short_600ms\30.finger_pulling_back_another_finger_short_short_600ms.mp4	30.finger_pulling_back_another_finger_short_short_600ms.mp4	108.50495628156204	109.113277051787	0.6083207702249638	n/a	n/a	n/a	n/a
66.86279296875	0.2	136935	69	80	0	0	0	69	79	stimuli\Videos_short_600ms\81.single_stroke_top_to_bottom_with_cotton_pad_short_short_600ms.mp4	81.single_stroke_top_to_bottom_with_cotton_pad_short_short_600ms.mp4	109.30493704468245	109.91326133385157	0.6083242891691043	n/a	n/a	n/a	n/a
67.6630859375	0.2	138574	70	80	0	0	1	70	373	stimuli\Targets_short_600ms_horvertflip\chopstick-silver-tap_short_vertflip_short_600ms.mp4	chopstick-silver-tap_short_vertflip_short_600ms.mp4	110.1048984536319	110.71324884161004	0.6083503879781347	n/a	n/a	n/a	n/a
68.462890625	0.2	140212	71	80	0	0	0	71	128	stimuli\Videos_short_600ms_horflip\44.pushing_top_to_bottom_with_finger_short_horflip_short_600ms.mp4	44.pushing_top_to_bottom_with_finger_short_horflip_short_600ms.mp4	110.90489123980296	111.51322843175512	0.6083371919521596	n/a	n/a	n/a	n/a
69.26318359375	0.2	141851	72	80	0	0	0	72	12	stimuli\Videos_short_600ms\20.single_touch_with_screwdriver_short_short_600ms.mp4	20.single_touch_with_screwdriver_short_short_600ms.mp4	111.70489663551416	112.31321154083707	0.6083149053229135	n/a	n/a	n/a	n/a
70.06298828125	0.2	143489	73	80	0	0	0	73	5	stimuli\Videos_short_600ms\14.repeated_touch_with_pencil_short_short_600ms.mp4	14.repeated_touch_with_pencil_short_short_600ms.mp4	112.50482930644648	113.11319347694008	0.6083641704935872	n/a	n/a	n/a	n/a
70.86279296875	0.2	145127	74	80	0	0	0	74	63	stimuli\Videos_short_600ms\67.single_touch_with_sponge_short_short_600ms.mp4	67.single_touch_with_sponge_short_short_600ms.mp4	113.3048370481156	113.91317746576168	0.6083404176461045	n/a	n/a	n/a	n/a
71.6630859375	0.2	146766	75	80	0	0	0	75	331	stimuli\Videos_short_600ms_vertflip\65.stroke_top_to_bottom_with_stanley_knife_short_vertflip_short_600ms.mp4	65.stroke_top_to_bottom_with_stanley_knife_short_vertflip_short_600ms.mp4	114.10479816381849	114.7131573491497	0.60835918533121	n/a	n/a	n/a	n/a
72.462890625	0.2	148404	76	80	0	0	0	76	103	stimuli\Videos_short_600ms_horflip\21.repeated_touch_with_metal_chopstick_short_horflip_short_600ms.mp4	21.repeated_touch_with_metal_chopstick_short_horflip_short_600ms.mp4	114.90490854126256	115.51312667571256	0.6082181344499986	n/a	n/a	n/a	n/a
73.2626953125	0.2	150042	77	80	0	0	0	77	339	stimuli\Videos_short_600ms_vertflip\72.(short)stroke_with_finger_all_over_the_hand_short_vertflip_short_600ms.mp4	72.(short)stroke_with_finger_all_over_the_hand_short_vertflip_short_600ms.mp4	115.70488754491453	116.31312122135569	0.6082336764411593	n/a	n/a	n/a	n/a
74.06298828125	0.2	151681	78	80	0	0	0	78	293	stimuli\Videos_short_600ms_vertflip\30.finger_pulling_back_another_finger_short_vertflip_short_600ms.mp4	30.finger_pulling_back_another_finger_short_vertflip_short_600ms.mp4	116.50500114805618	117.1130662085816	0.608065060525405	n/a	n/a	n/a	n/a
74.86279296875	0.2	153319	79	80	0	0	0	79	144	stimuli\Videos_short_600ms_horflip\59.single_push_with_long_side_pencil_short_horflip_short_600ms.mp4	59.single_push_with_long_side_pencil_short_horflip_short_600ms.mp4	117.30482502506857	117.91306046097816	0.6082354359095916	n/a	n/a	n/a	n/a
75.66259765625	0.2	154957	80	80	0	0	0	80	53	stimuli\Videos_short_600ms\58.single_slap_with_pencil_short_short_600ms.mp4	58.single_slap_with_pencil_short_short_600ms.mp4	118.10498290821124	118.71303330648516	0.6080503982739174	n/a	n/a	n/a	n/a
76.462890625	0.2	156596	81	80	0	0	0	81	304	stimuli\Videos_short_600ms_vertflip\40.repeated_push_with_finger_short_vertflip_short_600ms.mp4	40.repeated_push_with_finger_short_vertflip_short_600ms.mp4	118.90473757938526	119.51303811570324	0.6083005363179836	n/a	n/a	n/a	n/a
77.2626953125	0.2	158234	82	80	0	0	0	82	32	stimuli\Videos_short_600ms\39.single_stab_with_scissors_short_short_600ms.mp4	39.single_stab_with_scissors_short_short_600ms.mp4	119.70479986464125	120.31302972889534	0.6082298642540991	n/a	n/a	n/a	n/a
78.0625	0.2	159872	83	80	0	0	0	83	60	stimuli\Videos_short_600ms\64.repeated_touch_with_screwdriver_short_short_600ms.mp4	64.repeated_touch_with_screwdriver_short_short_600ms.mp4	120.50469148126284	121.11301166499834	0.6083201837354864	n/a	n/a	n/a	n/a
78.86279296875	0.2	161511	84	80	0	0	1	84	369	stimuli\Targets_short_600ms_horflip\finger-tap_short_horflip_short_600ms.mp4	finger-tap_short_horflip_short_600ms.mp4	121.30468778637442	121.91302087289296	0.6083330865185417	n/a	n/a	n/a	n/a
79.66259765625	0.2	163149	85	80	0	0	0	85	55	stimuli\Videos_short_600ms\6.single_touch_with_flat_hand_short_short_600ms.mp4	6.single_touch_with_flat_hand_short_short_600ms.mp4	122.10468790367304	122.71299430488943	0.6083064012163959	n/a	n/a	n/a	n/a
80.46240234375	0.2	164787	86	80	0	0	0	86	281	stimuli\Videos_short_600ms_vertflip\2.single_touch_with_finger_short_vertflip_short_600ms.mp4	2.single_touch_with_finger_short_vertflip_short_600ms.mp4	122.9046537112954	123.5129803464224	0.608326635127014	n/a	n/a	n/a	n/a
81.2626953125	0.2	166426	87	80	0	0	0	87	234	stimuli\Videos_short_600ms_horvertflip\59.single_push_with_long_side_pencil_short_horvertflip_short_600ms.mp4	59.single_push_with_long_side_pencil_short_horvertflip_short_600ms.mp4	123.70463799335994	124.31296110954644	0.6083231161865115	n/a	n/a	n/a	n/a
82.0625	0.2	168064	88	80	0	0	1	88	376	stimuli\Targets_short_600ms_horvertflip\hand-pinch_short_vertflip_short_600ms.mp4	hand-pinch_short_vertflip_short_600ms.mp4	124.50462139568845	125.11294245915995	0.6083210634715215	n/a	n/a	n/a	n/a
82.8623046875	0.2	169702	89	80	0	0	0	89	30	stimuli\Videos_short_600ms\37.single_stab_with_nail_file_short_short_600ms.mp4	37.single_stab_with_nail_file_short_short_600ms.mp4	125.30459013576548	125.91292791420346	0.6083377784379991	n/a	n/a	n/a	n/a
83.66259765625	0.2	171341	90	80	0	0	0	90	40	stimuli\Videos_short_600ms\46.scratching_top_to_bottom_with_finger_nails_short_short_600ms.mp4	46.scratching_top_to_bottom_with_finger_nails_short_short_600ms.mp4	126.10461195320022	126.71291278276112	0.6083008295609034	n/a	n/a	n/a	n/a
84.46240234375	0.2	172979	91	80	0	0	0	91	330	stimuli\Videos_short_600ms_vertflip\64.repeated_touch_with_screwdriver_short_vertflip_short_600ms.mp4	64.repeated_touch_with_screwdriver_short_vertflip_short_600ms.mp4	126.90456515128608	127.51289413237464	0.6083289810885617	n/a	n/a	n/a	n/a
85.26220703125	0.2	174617	92	80	0	0	0	92	345	stimuli\Videos_short_600ms_vertflip\78.single_stroke_top_to_bottom_with_soft_brush_short_vertflip_short_600ms.mp4	78.single_stroke_top_to_bottom_with_soft_brush_short_vertflip_short_600ms.mp4	127.70451424394196	128.31287753470315	0.60836329076119	n/a	n/a	n/a	n/a
86.0625	0.2	176256	93	80	0	0	0	93	239	stimuli\Videos_short_600ms_horvertflip\63.stroke_top_to_bottom_with_screwdriver_short_horvertflip_short_600ms.mp4	63.stroke_top_to_bottom_with_screwdriver_short_horvertflip_short_600ms.mp4	128.50450966931749	129.11286123027458	0.6083515609570895	n/a	n/a	n/a	n/a
86.8623046875	0.2	177894	94	80	0	0	0	94	327	stimuli\Videos_short_600ms_vertflip\61.single_hit_with_rolling_pin_short_vertflip_short_600ms.mp4	61.single_hit_with_rolling_pin_short_vertflip_short_600ms.mp4	129.30448222157793	129.91284903127962	0.6083668097016925	n/a	n/a	n/a	n/a
87.662109375	0.2	179532	95	80	0	0	0	95	94	stimuli\Videos_short_600ms_horflip\13.single_touch_with_pen_short_horflip_short_600ms.mp4	13.single_touch_with_pen_short_horflip_short_600ms.mp4	130.1045069714637	130.71282891466765	0.6083219432039186	n/a	n/a	n/a	n/a
88.46240234375	0.2	181171	96	80	0	0	0	96	158	stimuli\Videos_short_600ms_horflip\71.single_stroke_with_finger_top_to_bottom_short_horflip_short_600ms.mp4	71.single_stroke_with_finger_top_to_bottom_short_horflip_short_600ms.mp4	130.90447600478365	131.51280645209772	0.6083304473140743	n/a	n/a	n/a	n/a
89.26220703125	0.2	182809	97	80	0	0	0	97	73	stimuli\Videos_short_600ms\76.tickle_with_fingers_from_top_to_bottom_short_short_600ms.mp4	76.tickle_with_fingers_from_top_to_bottom_short_short_600ms.mp4	131.70451365745248	132.31276140965565	0.6082477522031695	8.0	7.0	2.8934441252313263	0.0
123.81103515625	0.2	253565	98	80	1	0	1	0	379	stimuli\Targets_short_600ms_vertflip\chopstick-silver-tap_short_horvertflip_short_600ms.mp4	chopstick-silver-tap_short_horvertflip_short_600ms.mp4	166.25373410941756	166.86205751885063	0.6083234094330692	n/a	n/a	n/a	n/a
124.611328125	0.2	255204	99	80	1	0	0	1	106	stimuli\Videos_short_600ms_horflip\24.single_stroke_top_to_bottom_with_a_spoon_short_horflip_short_600ms.mp4	24.single_stroke_top_to_bottom_with_a_spoon_short_horflip_short_600ms.mp4	167.05376296473332	167.66206350104767	0.6083005363143457	n/a	n/a	n/a	n/a
125.4111328125	0.2	256842	100	80	1	0	0	2	292	stimuli\Videos_short_600ms_vertflip\3.single_push_with_finger_short_vertflip_short_600ms.mp4	3.single_push_with_finger_short_vertflip_short_600ms.mp4	167.85377539832552	168.46205394126082	0.6082785429352953	n/a	n/a	n/a	n/a
126.2109375	0.2	258480	101	80	1	0	0	3	258	stimuli\Videos_short_600ms_horvertflip\80.stroke_with_sharp_stick_all_over_the_hand_short_horvertflip_short_600ms.mp4	80.stroke_with_sharp_stick_all_over_the_hand_short_horvertflip_short_600ms.mp4	168.65368636912171	169.2620297192152	0.6083433500934916	n/a	n/a	n/a	n/a
127.01123046875	0.2	260119	102	80	1	0	0	4	272	stimuli\Videos_short_600ms_vertflip\11.single_touch_with_lighter_short_vertflip_short_600ms.mp4	11.single_touch_with_lighter_short_vertflip_short_600ms.mp4	169.45368267423328	170.06202279863282	0.6083401243995468	n/a	n/a	n/a	n/a
127.81103515625	0.2	261757	103	80	1	0	0	5	54	stimuli\Videos_short_600ms\59.single_push_with_long_side_pencil_short_short_600ms.mp4	59.single_push_with_long_side_pencil_short_short_600ms.mp4	170.25367428742177	170.8619976968548	0.6083234094330692	n/a	n/a	n/a	n/a
128.61083984375	0.2	263395	104	80	1	0	1	6	375	stimuli\Targets_short_600ms_horvertflip\finger-tap_short_vertflip_short_600ms.mp4	finger-tap_short_vertflip_short_600ms.mp4	171.05365593028182	171.66198051269384	0.608324582412024	n/a	n/a	n/a	n/a
129.4111328125	0.2	265034	105	80	1	0	0	7	315	stimuli\Videos_short_600ms_vertflip\50.single_(long)hard_push_with_thumb_short_vertflip_short_600ms.mp4	50.single_(long)hard_push_with_thumb_short_vertflip_short_600ms.mp4	171.8536399190998	172.46196332853287	0.6083234094330692	n/a	n/a	n/a	n/a
130.2109375	0.2	266672	106	80	1	0	0	8	336	stimuli\Videos_short_600ms_vertflip\7.repeated_touch_with_hairbrush_short_vertflip_short_600ms.mp4	7.repeated_touch_with_hairbrush_short_vertflip_short_600ms.mp4	172.6536919407772	173.26194526463587	0.608253323858662	n/a	n/a	n/a	n/a
131.0107421875	0.2	268310	107	80	1	0	0	9	226	stimuli\Videos_short_600ms_horvertflip\51.repeated_touch_with_hammer_short_horvertflip_short_600ms.mp4	51.repeated_touch_with_hammer_short_horvertflip_short_600ms.mp4	173.4535771060073	174.0619280804749	0.6083509744676121	n/a	n/a	n/a	n/a
131.81103515625	0.2	269949	108	80	1	0	0	10	217	stimuli\Videos_short_600ms_horvertflip\43.touch_top_to_bottom_with_sharp_wooden_stick_short_horvertflip_short_600ms.mp4	43.touch_top_to_bottom_with_sharp_wooden_stick_short_horvertflip_short_600ms.mp4	174.25355112449324	174.86191236253944	0.6083612380462	n/a	n/a	n/a	n/a
132.61083984375	0.2	271587	109	80	1	0	0	11	216	stimuli\Videos_short_600ms_horvertflip\42.single_slap_with_plastic_whisk_short_horvertflip_short_600ms.mp4	42.single_slap_with_plastic_whisk_short_horvertflip_short_600ms.mp4	175.05359992047306	175.6618960581145	0.608296137641446	n/a	n/a	n/a	n/a
133.41064453125	0.2	273225	110	80	1	0	0	12	168	stimuli\Videos_short_600ms_horflip\80.stroke_with_sharp_stick_all_over_the_hand_short_horflip_short_600ms.mp4	80.stroke_with_sharp_stick_all_over_the_hand_short_horflip_short_600ms.mp4	175.85353464412037	176.46188268613696	0.608348042016587	n/a	n/a	n/a	n/a
134.2109375	0.2	274864	111	80	1	0	0	13	140	stimuli\Videos_short_600ms_horflip\55.touch_top_to_bottom_with_nail_file_short_horflip_short_600ms.mp4	55.touch_top_to_bottom_with_nail_file_short_horflip_short_600ms.mp4	176.6535312424785	177.26186667495858	0.6083354324800894	n/a	n/a	n/a	n/a
135.0107421875	0.2	276502	112	80	1	0	0	14	67	stimuli\Videos_short_600ms\70.(long)stroke_with_finger_all_over_the_hand_short_short_600ms.mp4	70.(long)stroke_with_finger_all_over_the_hand_short_short_600ms.mp4	177.45351229884545	178.0618480245721	0.6083357257266471	n/a	n/a	n/a	n/a
135.810546875	0.2	278140	113	80	1	0	0	15	31	stimuli\Videos_short_600ms\38.double_slap_with_pencil_short_short_600ms.mp4	38.double_slap_with_pencil_short_short_600ms.mp4	178.25348338488402	178.86178714689595	0.6083037620119285	n/a	n/a	n/a	n/a
136.61083984375	0.2	279779	114	80	1	0	0	16	109	stimuli\Videos_short_600ms_horflip\27.single_push_with_a_plastic_whisk_short_horflip_short_600ms.mp4	27.single_push_with_a_plastic_whisk_short_horflip_short_600ms.mp4	179.05349054006365	179.66179195611403	0.6083014160503808	n/a	n/a	n/a	n/a
137.41064453125	0.2	281417	115	80	1	0	0	17	154	stimuli\Videos_short_600ms_horflip\68.stroke_top_to_bottom_with_shawl_short_horflip_short_600ms.mp4	68.stroke_top_to_bottom_with_shawl_short_horflip_short_600ms.mp4	179.85347540861767	180.46177154625548	0.608296137637808	n/a	n/a	n/a	n/a
138.2109375	0.2	283056	116	80	1	0	0	18	296	stimuli\Videos_short_600ms_vertflip\33.scratch_top_to_bottom_with_scissors_short_vertflip_short_600ms.mp4	33.scratch_top_to_bottom_with_scissors_short_vertflip_short_600ms.mp4	180.65345793121017	181.261757881035	0.6082999498248682	n/a	n/a	n/a	n/a
139.0107421875	0.2	284694	117	80	1	0	0	19	259	stimuli\Videos_short_600ms_horvertflip\81.single_stroke_top_to_bottom_with_cotton_pad_short_horvertflip_short_600ms.mp4	81.single_stroke_top_to_bottom_with_cotton_pad_short_horvertflip_short_600ms.mp4	181.45344133353865	182.0617515469421	0.6083102134034561	n/a	n/a	n/a	n/a
139.810546875	0.2	286332	118	80	1	0	0	20	45	stimuli\Videos_short_600ms\50.single_(long)hard_push_with_thumb_short_short_600ms.mp4	50.single_(long)hard_push_with_thumb_short_short_600ms.mp4	182.25340068977312	182.86173055059407	0.6083298608209589	n/a	n/a	n/a	n/a
140.61083984375	0.2	287971	119	80	1	0	0	21	101	stimuli\Videos_short_600ms_horflip\2.single_touch_with_finger_short_horflip_short_600ms.mp4	2.single_touch_with_finger_short_horflip_short_600ms.mp4	183.05342807886336	183.66174415716523	0.6083160783018684	n/a	n/a	n/a	n/a
141.41064453125	0.2	289609	120	80	1	0	0	22	159	stimuli\Videos_short_600ms_horflip\72.(short)stroke_with_finger_all_over_the_hand_short_horflip_short_600ms.mp4	72.(short)stroke_with_finger_all_over_the_hand_short_horflip_short_600ms.mp4	183.8533903675452	184.4617152432038	0.6083248756585817	n/a	n/a	n/a	n/a
142.21044921875	0.2	291247	121	80	1	0	0	23	52	stimuli\Videos_short_600ms\57.single_touch_with_nail_file_short_short_600ms.mp4	57.single_touch_with_nail_file_short_short_600ms.mp4	184.65337318338425	185.2617071496388	0.6083339662545768	n/a	n/a	n/a	n/a
143.0107421875	0.2	292886	122	80	1	0	0	24	229	stimuli\Videos_short_600ms_horvertflip\54.repeated_touch_with_knife_short_horvertflip_short_600ms.mp4	54.repeated_touch_with_knife_short_horvertflip_short_600ms.mp4	185.45334896134227	186.0616791154098	0.6083301540675166	n/a	n/a	n/a	n/a
143.810546875	0.2	294524	123	80	1	0	0	25	317	stimuli\Videos_short_600ms_vertflip\52.touch_top_to_bottom_with_hammer_short_vertflip_short_600ms.mp4	52.touch_top_to_bottom_with_hammer_short_vertflip_short_600ms.mp4	186.25337576394304	186.8616636907209	0.608287926777848	n/a	n/a	n/a	n/a
144.6103515625	0.2	296162	124	80	1	0	0	26	255	stimuli\Videos_short_600ms_horvertflip\78.single_stroke_top_to_bottom_with_soft_brush_short_horvertflip_short_600ms.mp4	78.single_stroke_top_to_bottom_with_soft_brush_short_horvertflip_short_600ms.mp4	187.05337177580805	187.66164885251783	0.6082770767097827	n/a	n/a	n/a	n/a
145.41064453125	0.2	297801	125	80	1	0	0	27	166	stimuli\Videos_short_600ms_horflip\79.long_with_soft_brush_all_over_the_hand_short_horflip_short_600ms.mp4	79.long_with_soft_brush_all_over_the_hand_short_horflip_short_600ms.mp4	187.8533108981319	188.46163284133945	0.6083219432075566	n/a	n/a	n/a	n/a
146.21044921875	0.2	299439	126	80	1	0	0	28	90	stimuli\Videos_short_600ms_horflip\1.repeated_touch_with_finger_fast_short_horflip_short_600ms.mp4	1.repeated_touch_with_finger_fast_short_horflip_short_600ms.mp4	188.6532928342349	189.2616138977064	0.6083210634715215	n/a	n/a	n/a	n/a
147.01025390625	0.2	301077	127	80	1	0	0	29	172	stimuli\Videos_short_600ms_horflip\84.single_touch_with_cotton_bud_short_horflip_short_600ms.mp4	84.single_touch_with_cotton_bud_short_horflip_short_600ms.mp4	189.45321406860967	190.0615978865244	0.6083838179147278	n/a	n/a	n/a	n/a
147.810546875	0.2	302716	128	80	1	0	0	30	24	stimuli\Videos_short_600ms\31.hand_grabbing_wrist_short_short_600ms.mp4	31.hand_grabbing_wrist_short_short_600ms.mp4	190.25321653186984	190.86158099561	0.6083644637401449	n/a	n/a	n/a	n/a
148.6103515625	0.2	304354	129	80	1	0	1	31	368	stimuli\Targets_short_600ms_horflip\chopstickwood-tap_short_horflip_short_600ms.mp4	chopstickwood-tap_short_horflip_short_600ms.mp4	191.05321870188345	191.66156469118505	0.608345989301597	n/a	n/a	n/a	n/a
149.41015625	0.2	305992	130	80	1	0	0	32	138	stimuli\Videos_short_600ms_horflip\53.touch_top_to_bottom_with_knife_short_horflip_short_600ms.mp4	53.touch_top_to_bottom_with_knife_short_horflip_short_600ms.mp4	191.8532789344208	192.461549852982	0.6082709185611748	n/a	n/a	n/a	n/a
150.21044921875	0.2	307631	131	80	1	0	0	33	2	stimuli\Videos_short_600ms\11.single_touch_with_lighter_short_short_600ms.mp4	11.single_touch_with_lighter_short_short_600ms.mp4	192.65324532853265	193.26152504445056	0.6082797159178881	n/a	n/a	n/a	n/a
151.01025390625	0.2	309269	132	80	1	0	0	34	186	stimuli\Videos_short_600ms_horvertflip\15.single_stroke_top_to_bottom_with_a_plastic_whisk_short_horvertflip_short_600ms.mp4	15.single_stroke_top_to_bottom_with_a_plastic_whisk_short_horvertflip_short_600ms.mp4	193.45338033856387	194.06151695088556	0.6081366123216867	n/a	n/a	n/a	n/a
151.81005859375	0.2	310907	133	80	1	0	0	35	355	stimuli\Videos_short_600ms_vertflip\87.single_stroke_top_to_bottom_with_plastic_brush_short_vertflip_short_600ms.mp4	87.single_stroke_top_to_bottom_with_plastic_brush_short_vertflip_short_600ms.mp4	194.25315465715903	194.86147513414107	0.6083204769820441	n/a	n/a	n/a	n/a
152.6103515625	0.2	312546	134	80	1	0	0	36	184	stimuli\Videos_short_600ms_horvertflip\13.single_touch_with_pen_short_horvertflip_short_600ms.mp4	13.single_touch_with_pen_short_horvertflip_short_600ms.mp4	195.05315682717264	195.66146792031213	0.6083110931394913	n/a	n/a	n/a	n/a
153.41015625	0.2	314184	135	80	1	0	0	37	251	stimuli\Videos_short_600ms_horvertflip\74.fingers_walking_from_top_to_bottom_short_horvertflip_short_600ms.mp4	74.fingers_walking_from_top_to_bottom_short_horvertflip_short_600ms.mp4	195.8531425754627	196.461421118398	0.6082785429352953	n/a	n/a	n/a	n/a
154.2099609375	0.2	315822	136	80	1	0	0	38	17	stimuli\Videos_short_600ms\25.single_touch_with_stanley_knife_short_short_600ms.mp4	25.single_touch_with_stanley_knife_short_short_600ms.mp4	196.65312509805517	197.26143413847967	0.6083090404245013	n/a	n/a	n/a	n/a
155.01025390625	0.2	317461	137	80	1	0	0	39	120	stimuli\Videos_short_600ms_horflip\37.single_stab_with_nail_file_short_horflip_short_600ms.mp4	37.single_stab_with_nail_file_short_horflip_short_600ms.mp4	197.45311553826468	198.0614122623956	0.6082967241309234	n/a	n/a	n/a	n/a
155.81005859375	0.2	319099	138	80	1	0	0	40	29	stimuli\Videos_short_600ms\36.single_slap_with_full_hand_short_short_600ms.mp4	36.single_slap_with_full_hand_short_short_600ms.mp4	198.2530919027122	198.86142059055783	0.608328687845642	n/a	n/a	n/a	n/a
156.60986328125	0.2	320737	139	80	1	0	0	41	236	stimuli\Videos_short_600ms_horvertflip\60.single_push_with_tip_of_pencil_short_horvertflip_short_600ms.mp4	60.single_push_with_tip_of_pencil_short_horvertflip_short_600ms.mp4	199.05308087669985	199.6614039928863	0.6083231161865115	n/a	n/a	n/a	n/a
157.41015625	0.2	322376	140	80	1	0	0	42	357	stimuli\Videos_short_600ms_vertflip\89.single_touch_with_plastic_brush_short_vertflip_short_600ms.mp4	89.single_touch_with_plastic_brush_short_vertflip_short_600ms.mp4	199.85305958710524	200.4613815303128	0.6083219432075566	n/a	n/a	n/a	n/a
158.2099609375	0.2	324014	141	80	1	0	0	43	96	stimuli\Videos_short_600ms_horflip\15.single_stroke_top_to_bottom_with_a_plastic_whisk_short_horflip_short_600ms.mp4	15.single_stroke_top_to_bottom_with_a_plastic_whisk_short_horflip_short_600ms.mp4	200.6530828707655	201.2613646393984	0.6082817686328781	n/a	n/a	n/a	n/a
159.01025390625	0.2	325653	142	80	1	0	0	44	346	stimuli\Videos_short_600ms_vertflip\79.long_with_soft_brush_all_over_the_hand_short_vertflip_short_600ms.mp4	79.long_with_soft_brush_all_over_the_hand_short_vertflip_short_600ms.mp4	201.4530263917659	202.06135068093135	0.6083242891654663	n/a	n/a	n/a	n/a
159.81005859375	0.2	327291	143	80	1	0	0	45	25	stimuli\Videos_short_600ms\32.single_(long)pinch_with_fingers_short_short_600ms.mp4	32.single_(long)pinch_with_fingers_short_short_600ms.mp4	202.25298721422223	202.86133173729831	0.6083445230760844	n/a	n/a	n/a	n/a
160.60986328125	0.2	328929	144	80	1	0	0	46	164	stimuli\Videos_short_600ms_horflip\77.tapping_with_all_fingers_short_horflip_short_600ms.mp4	77.tapping_with_all_fingers_short_horflip_short_600ms.mp4	203.05300903165696	203.66131601936289	0.6083069877058733	n/a	n/a	n/a	n/a
161.41015625	0.2	330568	145	80	1	0	0	47	231	stimuli\Videos_short_600ms_horvertflip\56.repeated_touch_with_nail_file_short_horvertflip_short_600ms.mp4	56.repeated_touch_with_nail_file_short_horvertflip_short_600ms.mp4	203.85298451636845	204.46130000818448	0.608315491816029	n/a	n/a	n/a	n/a
162.2099609375	0.2	332206	146	80	1	0	0	48	173	stimuli\Videos_short_600ms_horflip\85.touch_top_to_bottom_with_fabric_short_horflip_short_600ms.mp4	85.touch_top_to_bottom_with_fabric_short_horflip_short_600ms.mp4	204.65299372426307	205.2612828240235	0.6082890997604409	n/a	n/a	n/a	n/a
163.009765625	0.2	333844	147	80	1	0	0	49	43	stimuli\Videos_short_600ms\49.repeated_slap_with_hand_short_short_600ms.mp4	49.repeated_slap_with_hand_short_short_600ms.mp4	205.4529228762549	206.06126300065444	0.6083401243995468	n/a	n/a	n/a	n/a
163.81005859375	0.2	335483	148	80	1	0	0	50	38	stimuli\Videos_short_600ms\44.pushing_top_to_bottom_with_finger_short_short_600ms.mp4	44.pushing_top_to_bottom_with_finger_short_short_600ms.mp4	206.25294909236257	206.861248162455	0.6082990700924711	n/a	n/a	n/a	n/a
164.60986328125	0.2	337121	149	80	1	0	0	51	177	stimuli\Videos_short_600ms_horflip\89.single_touch_with_plastic_brush_short_horflip_short_600ms.mp4	89.single_touch_with_plastic_brush_short_horflip_short_600ms.mp4	207.0528823497843	207.66123391074507	0.6083515609607275	n/a	n/a	n/a	n/a
165.40966796875	0.2	338759	150	80	1	0	0	52	321	stimuli\Videos_short_600ms_vertflip\56.repeated_touch_with_nail_file_short_vertflip_short_600ms.mp4	56.repeated_touch_with_nail_file_short_vertflip_short_600ms.mp4	207.8531032806204	208.46120059810343	0.6080973174830433	n/a	n/a	n/a	n/a
166.2099609375	0.2	340398	151	80	1	0	0	53	308	stimuli\Videos_short_600ms_vertflip\44.pushing_top_to_bottom_with_finger_short_vertflip_short_600ms.mp4	44.pushing_top_to_bottom_with_finger_short_vertflip_short_600ms.mp4	208.6528825843816	209.26119573023607	0.6083131458544813	n/a	n/a	n/a	n/a
167.009765625	0.2	342036	152	80	1	0	0	54	10	stimuli\Videos_short_600ms\19.single_touch_with_rolling_pin_short_short_600ms.mp4	19.single_touch_with_rolling_pin_short_short_600ms.mp4	209.4528741975737	210.06118235826216	0.6083081606884662	n/a	n/a	n/a	n/a
167.8095703125	0.2	343674	153	80	1	0	0	55	61	stimuli\Videos_short_600ms\65.stroke_top_to_bottom_with_stanley_knife_short_short_600ms.mp4	65.stroke_top_to_bottom_with_stanley_knife_short_short_600ms.mp4	210.25284323089363	210.8611423009825	0.6082990700888331	n/a	n/a	n/a	n/a
168.60986328125	0.2	345313	154	80	1	0	0	56	228	stimuli\Videos_short_600ms_horvertflip\53.touch_top_to_bottom_with_knife_short_horvertflip_short_600ms.mp4	53.touch_top_to_bottom_with_knife_short_horvertflip_short_600ms.mp4	211.0532233938029	211.6611277560296	0.6079043622266909	n/a	n/a	n/a	n/a
169.40966796875	0.2	346951	155	80	1	0	0	57	104	stimuli\Videos_short_600ms_horflip\22.single_touch_with_metal_chopstick_short_horflip_short_600ms.mp4	22.single_touch_with_metal_chopstick_short_horflip_short_600ms.mp4	211.8528103287972	212.4611132110731	0.6083028822758934	n/a	n/a	n/a	n/a
170.20947265625	0.2	348589	156	80	1	0	0	58	9	stimuli\Videos_short_600ms\18.single_stroke_from_top_to_bottom_with_rolling_pin_short_short_600ms.mp4	18.single_stroke_from_top_to_bottom_with_rolling_pin_short_short_600ms.mp4	212.6527922649002	213.2611007188316	0.6083084539313859	n/a	n/a	n/a	n/a
171.009765625	0.2	350228	157	80	1	0	0	59	306	stimuli\Videos_short_600ms_vertflip\42.single_slap_with_plastic_whisk_short_vertflip_short_600ms.mp4	42.single_slap_with_plastic_whisk_short_vertflip_short_600ms.mp4	213.4527768402113	214.0610923320237	0.608315491812391	n/a	n/a	n/a	n/a
171.8095703125	0.2	351866	158	80	1	0	0	60	1	stimuli\Videos_short_600ms\10.single_touch_with_knife_short_short_600ms.mp4	10.single_touch_with_knife_short_short_600ms.mp4	214.25275965605033	214.8610959682628	0.6083363122124865	n/a	n/a	n/a	n/a
172.609375	0.2	353504	159	80	1	0	0	61	262	stimuli\Videos_short_600ms_horvertflip\84.single_touch_with_cotton_bud_short_horvertflip_short_600ms.mp4	84.single_touch_with_cotton_bud_short_horvertflip_short_600ms.mp4	215.05274335162176	215.66106705429775	0.6083237026759889	n/a	n/a	n/a	n/a
173.40966796875	0.2	355143	160	80	1	0	0	62	244	stimuli\Videos_short_600ms_horvertflip\68.stroke_top_to_bottom_with_shawl_short_horvertflip_short_600ms.mp4	68.stroke_top_to_bottom_with_shawl_short_horvertflip_short_600ms.mp4	215.85272499448183	216.4610504566299	0.6083254621480592	n/a	n/a	n/a	n/a
174.20947265625	0.2	356781	161	80	1	0	0	63	352	stimuli\Videos_short_600ms_vertflip\84.single_touch_with_cotton_bud_short_vertflip_short_600ms.mp4	84.single_touch_with_cotton_bud_short_vertflip_short_600ms.mp4	216.65270986303585	217.26103151299685	0.6083216499609989	n/a	n/a	n/a	n/a
175.00927734375	0.2	358419	162	80	1	0	0	64	303	stimuli\Videos_short_600ms_vertflip\4.repeated_tap_with_finger_slow_short_vertflip_short_600ms.mp4	4.repeated_tap_with_finger_slow_short_vertflip_short_600ms.mp4	217.4527964876288	218.06101491532536	0.6082184276965563	n/a	n/a	n/a	n/a
175.8095703125	0.2	360058	163	80	1	0	0	65	14	stimuli\Videos_short_600ms\22.single_touch_with_metal_chopstick_short_short_600ms.mp4	22.single_touch_with_metal_chopstick_short_short_600ms.mp4	218.2531622815295	218.8609986109004	0.6078363293709117	n/a	n/a	n/a	n/a
176.609375	0.2	361696	164	80	1	0	0	66	245	stimuli\Videos_short_600ms_horvertflip\69.stroke_with_soft_sock_short_horvertflip_short_600ms.mp4	69.stroke_with_soft_sock_short_horvertflip_short_600ms.mp4	219.05268558234457	219.66098435919048	0.6082987768459134	n/a	n/a	n/a	n/a
177.4091796875	0.2	363334	165	80	1	0	0	67	36	stimuli\Videos_short_600ms\42.single_slap_with_plastic_whisk_short_short_600ms.mp4	42.single_slap_with_plastic_whisk_short_short_600ms.mp4	219.85266253328157	220.4609665885364	0.6083040552548482	n/a	n/a	n/a	n/a
178.20947265625	0.2	364973	166	80	1	0	0	68	46	stimuli\Videos_short_600ms\51.repeated_touch_with_hammer_short_short_600ms.mp4	51.repeated_touch_with_hammer_short_short_600ms.mp4	220.65258611361423	221.26092917046844	0.6083430568542099	n/a	n/a	n/a	n/a
179.00927734375	0.2	366611	167	80	1	0	0	69	253	stimuli\Videos_short_600ms_horvertflip\76.tickle_with_fingers_from_top_to_bottom_short_horvertflip_short_600ms.mp4	76.tickle_with_fingers_from_top_to_bottom_short_horvertflip_short_600ms.mp4	221.4525448833592	222.06093691213755	0.6083920287783258	n/a	n/a	n/a	n/a
179.8095703125	0.2	368250	168	80	1	0	0	70	4	stimuli\Videos_short_600ms\13.single_touch_with_pen_short_short_600ms.mp4	13.single_touch_with_pen_short_short_600ms.mp4	222.2525517452923	222.860914449564	0.6083627042717126	n/a	n/a	n/a	n/a
180.609375	0.2	369888	169	80	1	0	0	71	277	stimuli\Videos_short_600ms_vertflip\16.repeated_touch_with_plastic_brush_short_vertflip_short_600ms.mp4	16.repeated_touch_with_plastic_brush_short_vertflip_short_600ms.mp4	223.05266241598292	223.66089726540304	0.6082348494201142	n/a	n/a	n/a	n/a
181.4091796875	0.2	371526	170	80	1	0	0	72	105	stimuli\Videos_short_600ms_horflip\23.single_push_with_a_spoon_short_horflip_short_600ms.mp4	23.single_push_with_a_spoon_short_horflip_short_600ms.mp4	223.8525942071792	224.4608577946165	0.60826358743725	n/a	n/a	n/a	n/a
182.20947265625	0.2	373165	171	80	1	0	0	73	268	stimuli\Videos_short_600ms_horvertflip\9.single_touch_with_hammer_short_horvertflip_short_600ms.mp4	9.single_touch_with_hammer_short_horvertflip_short_600ms.mp4	224.6526066407714	225.2608760931107	0.6082694523393002	n/a	n/a	n/a	n/a
183.00927734375	0.2	374803	172	80	1	0	1	74	381	stimuli\Targets_short_600ms_vertflip\finger-tap_short_horvertflip_short_600ms.mp4	finger-tap_short_horvertflip_short_600ms.mp4	225.45274956841968	226.06081609516696	0.6080665267472796	n/a	n/a	n/a	n/a
183.80908203125	0.2	376441	173	80	1	0	0	75	58	stimuli\Videos_short_600ms\62.touch_top_to_bottom_with_scissors_short_short_600ms.mp4	62.touch_top_to_bottom_with_scissors_short_short_600ms.mp4	226.25254529390077	226.86078894067396	0.6082436467731895	n/a	n/a	n/a	n/a
184.609375	0.2	378080	174	80	1	0	0	76	34	stimuli\Videos_short_600ms\40.repeated_push_with_finger_short_short_600ms.mp4	40.repeated_push_with_finger_short_short_600ms.mp4	227.0524723931776	227.6607955093641	0.6083231161865115	n/a	n/a	n/a	n/a
185.4091796875	0.2	379718	175	80	1	0	0	77	199	stimuli\Videos_short_600ms_horvertflip\27.single_push_with_a_plastic_whisk_short_horvertflip_short_600ms.mp4	27.single_push_with_a_plastic_whisk_short_horvertflip_short_600ms.mp4	227.85245462252715	228.46078331036915	0.608328687842004	n/a	n/a	n/a	n/a
186.208984375	0.2	381356	176	80	1	0	0	78	153	stimuli\Videos_short_600ms_horflip\67.single_touch_with_sponge_short_horflip_short_600ms.mp4	67.single_touch_with_sponge_short_horflip_short_600ms.mp4	228.6524632439323	229.2607898790593	0.608326635127014	n/a	n/a	n/a	n/a
187.00927734375	0.2	382995	177	80	1	0	0	79	248	stimuli\Videos_short_600ms_horvertflip\71.single_stroke_with_finger_top_to_bottom_short_horvertflip_short_600ms.mp4	71.single_stroke_with_finger_top_to_bottom_short_horvertflip_short_600ms.mp4	229.4531058611792	230.06077650708175	0.6076706459025445	n/a	n/a	n/a	n/a
187.80908203125	0.2	384633	178	80	1	0	0	80	335	stimuli\Videos_short_600ms_vertflip\69.stroke_with_soft_sock_short_vertflip_short_600ms.mp4	69.stroke_with_soft_sock_short_vertflip_short_600ms.mp4	230.2523869415636	230.86074935258875	0.6083624110251549	n/a	n/a	n/a	n/a
188.60888671875	0.2	386271	179	80	1	0	0	81	169	stimuli\Videos_short_600ms_horflip\81.single_stroke_top_to_bottom_with_cotton_pad_short_horflip_short_600ms.mp4	81.single_stroke_top_to_bottom_with_cotton_pad_short_horflip_short_600ms.mp4	231.05244218893495	231.66073422114275	0.608292032207828	n/a	n/a	n/a	n/a
189.4091796875	0.2	387910	180	80	1	0	0	82	201	stimuli\Videos_short_600ms_horvertflip\29.single_pinch_with_tweezers_short_horvertflip_short_600ms.mp4	29.single_pinch_with_tweezers_short_horvertflip_short_600ms.mp4	231.85239978569737	232.4607155707563	0.6083157850589487	n/a	n/a	n/a	n/a
190.208984375	0.2	389548	181	80	1	0	0	83	341	stimuli\Videos_short_600ms_vertflip\74.fingers_walking_from_top_to_bottom_short_vertflip_short_600ms.mp4	74.fingers_walking_from_top_to_bottom_short_vertflip_short_600ms.mp4	232.65237761637036	233.2607016122929	0.6083239959225466	n/a	n/a	n/a	n/a
191.0087890625	0.2	391186	182	80	1	0	0	84	142	stimuli\Videos_short_600ms_horflip\57.single_touch_with_nail_file_short_horflip_short_600ms.mp4	57.single_touch_with_nail_file_short_horflip_short_600ms.mp4	233.4523604322094	234.0606850146214	0.608324582412024	n/a	n/a	n/a	n/a
191.80908203125	0.2	392825	183	80	1	0	0	85	39	stimuli\Videos_short_600ms\45.scratching_with_finger_nails_short_short_600ms.mp4	45.scratching_with_finger_nails_short_short_600ms.mp4	234.2523300520188	234.86066783046044	0.6083377784416371	n/a	n/a	n/a	n/a
192.60888671875	0.2	394463	184	80	1	0	0	86	113	stimuli\Videos_short_600ms_horflip\30.finger_pulling_back_another_finger_short_horflip_short_600ms.mp4	30.finger_pulling_back_another_finger_short_horflip_short_600ms.mp4	235.0523014313003	235.66064419490797	0.6083427636076522	n/a	n/a	n/a	n/a
193.40869140625	0.2	396101	185	80	1	0	1	87	374	stimuli\Targets_short_600ms_horvertflip\chopstickwood-tap_short_vertflip_short_600ms.mp4	chopstickwood-tap_short_vertflip_short_600ms.mp4	235.8523129851565	236.46063522160696	0.6083222364504763	n/a	n/a	n/a	n/a
194.208984375	0.2	397740	186	80	1	0	0	88	68	stimuli\Videos_short_600ms\71.single_stroke_with_finger_top_to_bottom_short_short_600ms.mp4	71.single_stroke_with_finger_top_to_bottom_short_short_600ms.mp4	236.65234477292324	237.2606174509565	0.608272678033245	n/a	n/a	n/a	n/a
195.0087890625	0.2	399378	187	80	1	0	0	89	230	stimuli\Videos_short_600ms_horvertflip\55.touch_top_to_bottom_with_nail_file_short_horvertflip_short_600ms.mp4	55.touch_top_to_bottom_with_nail_file_short_horvertflip_short_600ms.mp4	237.4523258292902	238.06059909381656	0.6082732645263604	n/a	n/a	n/a	n/a
195.80859375	0.2	401016	188	80	1	0	0	90	133	stimuli\Videos_short_600ms_horflip\49.repeated_slap_with_hand_short_horflip_short_600ms.mp4	49.repeated_slap_with_hand_short_horflip_short_600ms.mp4	238.25226847055455	238.860582789388	0.6083143188334361	n/a	n/a	n/a	n/a
196.60888671875	0.2	402655	189	80	1	0	0	91	283	stimuli\Videos_short_600ms_vertflip\21.repeated_touch_with_metal_chopstick_short_vertflip_short_600ms.mp4	21.repeated_touch_with_metal_chopstick_short_vertflip_short_600ms.mp4	239.0522759189807	239.66056824443513	0.6082923254543857	n/a	n/a	n/a	n/a
197.40869140625	0.2	404293	190	80	1	0	0	92	194	stimuli\Videos_short_600ms_horvertflip\22.single_touch_with_metal_chopstick_short_horvertflip_short_600ms.mp4	22.single_touch_with_metal_chopstick_short_horvertflip_short_600ms.mp4	239.8522341022326	240.46051440464	0.6082803024073655	n/a	n/a	n/a	n/a
198.208984375	0.2	405932	191	80	1	0	0	93	49	stimuli\Videos_short_600ms\54.repeated_touch_with_knife_short_short_600ms.mp4	54.repeated_touch_with_knife_short_short_600ms.mp4	240.6522172113182	241.26048812987935	0.6082709185611748	n/a	n/a	n/a	n/a
199.0087890625	0.2	407570	192	80	1	0	0	94	72	stimuli\Videos_short_600ms\75.(long)stroke_with_fingers_all_over_the_hand_short_short_600ms.mp4	75.(long)stroke_with_fingers_all_over_the_hand_short_short_600ms.mp4	241.4521941622552	242.0604944053266	0.6083002430714259	5.0	5.0	2.1763385244557867	1.0
232.22412109375	0.2	475595	193	80	2	0	0	0	175	stimuli\Videos_short_600ms_horflip\87.single_stroke_top_to_bottom_with_plastic_brush_short_horflip_short_600ms.mp4	87.single_stroke_top_to_bottom_with_plastic_brush_short_horflip_short_600ms.mp4	274.66857676730797	275.2764696929771	0.6078929256691481	n/a	n/a	n/a	n/a
233.0244140625	0.2	477234	194	80	2	0	0	1	121	stimuli\Videos_short_600ms_horflip\38.double_slap_with_pencil_short_horflip_short_600ms.mp4	38.double_slap_with_pencil_short_horflip_short_600ms.mp4	275.46818598892787	276.0764827130588	0.6082967241309234	n/a	n/a	n/a	n/a
233.82421875	0.2	478872	195	80	2	0	0	2	238	stimuli\Videos_short_600ms_horvertflip\62.touch_top_to_bottom_with_scissors_short_horvertflip_short_600ms.mp4	62.touch_top_to_bottom_with_scissors_short_horvertflip_short_600ms.mp4	276.2681133814476	276.8764611302213	0.6083477487736673	n/a	n/a	n/a	n/a
234.6240234375	0.2	480510	196	80	2	0	0	3	174	stimuli\Videos_short_600ms_horflip\86.touch_top_to_bottom_with_hair_brush_short_horflip_short_600ms.mp4	86.touch_top_to_bottom_with_hair_brush_short_horflip_short_600ms.mp4	277.0685381176081	277.67644629202186	0.6079081744137511	n/a	n/a	n/a	n/a
235.42431640625	0.2	482149	197	80	2	0	0	4	350	stimuli\Videos_short_600ms_vertflip\82.repeated_touch_with_cotton_bud_short_vertflip_short_600ms.mp4	82.repeated_touch_with_cotton_bud_short_vertflip_short_600ms.mp4	277.8681062849173	278.47642177673333	0.608315491816029	n/a	n/a	n/a	n/a
236.22412109375	0.2	483787	198	80	2	0	0	5	92	stimuli\Videos_short_600ms_horflip\11.single_touch_with_lighter_short_horflip_short_600ms.mp4	11.single_touch_with_lighter_short_horflip_short_600ms.mp4	278.66806124247523	279.2764098709813	0.6083486285060644	n/a	n/a	n/a	n/a
237.02392578125	0.2	485425	199	80	2	0	0	6	19	stimuli\Videos_short_600ms\27.single_push_with_a_plastic_whisk_short_short_600ms.mp4	27.single_push_with_a_plastic_whisk_short_short_600ms.mp4	279.4680472840082	280.07638858139035	0.6083412973821396	n/a	n/a	n/a	n/a
237.82421875	0.2	487064	200	80	2	0	0	7	256	stimuli\Videos_short_600ms_horvertflip\79.long_with_soft_brush_all_over_the_hand_short_horvertflip_short_600ms.mp4	79.long_with_soft_brush_all_over_the_hand_short_horvertflip_short_600ms.mp4	280.2680324458088	280.8763713972294	0.6083389514205919	n/a	n/a	n/a	n/a
238.6240234375	0.2	488702	201	80	2	0	0	8	42	stimuli\Videos_short_600ms\48.single_slap_with_hand_short_short_600ms.mp4	48.single_slap_with_hand_short_short_600ms.mp4	281.0680234725114	281.67635861174494	0.6083351392335317	n/a	n/a	n/a	n/a
239.423828125	0.2	490340	202	80	2	0	0	9	208	stimuli\Videos_short_600ms_horvertflip\35.single_punch_with_hand_short_horvertflip_short_600ms.mp4	35.single_punch_with_hand_short_horvertflip_short_600ms.mp4	281.8679901598698	282.47629480161777	0.6083046417479636	n/a	n/a	n/a	n/a
240.22412109375	0.2	491979	203	80	2	0	0	10	77	stimuli\Videos_short_600ms\8.single_touch_with_hairbrush_short_short_600ms.mp4	8.single_touch_with_hairbrush_short_short_600ms.mp4	282.66812399691844	283.27627732421024	0.6081533272918023	n/a	n/a	n/a	n/a
241.02392578125	0.2	493617	204	80	2	0	0	11	28	stimuli\Videos_short_600ms\35.single_punch_with_hand_short_short_600ms.mp4	35.single_punch_with_hand_short_short_600ms.mp4	283.46826105966466	284.07630999171306	0.6080489320484048	n/a	n/a	n/a	n/a
241.82421875	0.2	495256	205	80	2	0	0	12	26	stimuli\Videos_short_600ms\33.scratch_top_to_bottom_with_scissors_short_short_600ms.mp4	33.scratch_top_to_bottom_with_scissors_short_short_600ms.mp4	284.26845501195567	284.87627667907145	0.6078216671157861	n/a	n/a	n/a	n/a
242.6240234375	0.2	496894	206	80	2	0	0	13	139	stimuli\Videos_short_600ms_horflip\54.repeated_touch_with_knife_short_horflip_short_600ms.mp4	54.repeated_touch_with_knife_short_horflip_short_600ms.mp4	285.06820997637624	285.67626330709754	0.6080533307213045	n/a	n/a	n/a	n/a
243.423828125	0.2	498532	207	80	2	0	0	14	219	stimuli\Videos_short_600ms_horvertflip\45.scratching_with_finger_nails_short_horvertflip_short_600ms.mp4	45.scratching_with_finger_nails_short_horvertflip_short_600ms.mp4	285.86792916489503	286.476244949954	0.6083157850589487	n/a	n/a	n/a	n/a
244.22412109375	0.2	500171	208	80	2	0	0	15	84	stimuli\Videos_short_600ms\86.touch_top_to_bottom_with_hair_brush_short_short_600ms.mp4	86.touch_top_to_bottom_with_hair_brush_short_short_600ms.mp4	286.66792077808714	287.27619462909934	0.6082738510121999	n/a	n/a	n/a	n/a
245.02392578125	0.2	501809	209	80	2	0	1	16	367	stimuli\Targets_short_600ms_horflip\chopstick-silver-tap_short_horflip_short_600ms.mp4	chopstick-silver-tap_short_horflip_short_600ms.mp4	287.46790212770065	288.0762358007087	0.6083336730080191	n/a	n/a	n/a	n/a
245.82373046875	0.2	503447	210	80	2	0	0	17	150	stimuli\Videos_short_600ms_horflip\64.repeated_touch_with_screwdriver_short_horflip_short_600ms.mp4	64.repeated_touch_with_screwdriver_short_horflip_short_600ms.mp4	288.26788201108866	288.87620512727517	0.6083231161865115	n/a	n/a	n/a	n/a
246.6240234375	0.2	505086	211	80	2	0	0	18	86	stimuli\Videos_short_600ms\88.repeated_stroke_with_plastic_brush_short_short_600ms.mp4	88.repeated_stroke_with_plastic_brush_short_short_600ms.mp4	289.0678698120937	289.6761894093397	0.6083195972460089	n/a	n/a	n/a	n/a
247.423828125	0.2	506724	212	80	2	0	0	19	114	stimuli\Videos_short_600ms_horflip\31.hand_grabbing_wrist_short_horflip_short_600ms.mp4	31.hand_grabbing_wrist_short_horflip_short_600ms.mp4	289.86787520780126	290.47616958597064	0.6082943781693757	n/a	n/a	n/a	n/a
248.2236328125	0.2	508362	213	80	2	0	0	20	108	stimuli\Videos_short_600ms_horflip\26.single_touch_with_a_blunt_syringe_short_horflip_short_600ms.mp4	26.single_touch_with_a_blunt_syringe_short_horflip_short_600ms.mp4	290.66788822788294	291.2761655978393	0.6082773699563404	n/a	n/a	n/a	n/a
249.02392578125	0.2	510001	214	80	2	0	0	21	358	stimuli\Videos_short_600ms_vertflip\9.single_touch_with_hammer_short_vertflip_short_600ms.mp4	9.single_touch_with_hammer_short_vertflip_short_600ms.mp4	291.46787368292644	292.07613756361025	0.6082638806838077	n/a	n/a	n/a	n/a
249.82373046875	0.2	511639	215	80	2	0	0	22	196	stimuli\Videos_short_600ms_horvertflip\24.single_stroke_top_to_bottom_with_a_spoon_short_horvertflip_short_600ms.mp4	24.single_stroke_top_to_bottom_with_a_spoon_short_horvertflip_short_600ms.mp4	292.2678230688289	292.87613005653475	0.6083069877058733	n/a	n/a	n/a	n/a
250.62353515625	0.2	513277	216	80	2	0	0	23	118	stimuli\Videos_short_600ms_horflip\35.single_punch_with_hand_short_horflip_short_600ms.mp4	35.single_punch_with_hand_short_horflip_short_600ms.mp4	293.0677487018802	293.6761037817778	0.6083550798975921	n/a	n/a	n/a	n/a
251.423828125	0.2	514916	217	80	2	0	0	24	129	stimuli\Videos_short_600ms_horflip\45.scratching_with_finger_nails_short_horflip_short_600ms.mp4	45.scratching_with_finger_nails_short_horflip_short_600ms.mp4	293.8678150925625	294.4760883570889	0.6082732645263604	n/a	n/a	n/a	n/a
252.2236328125	0.2	516554	218	80	2	0	0	25	176	stimuli\Videos_short_600ms_horflip\88.repeated_stroke_with_plastic_brush_short_horflip_short_600ms.mp4	88.repeated_stroke_with_plastic_brush_short_horflip_short_600ms.mp4	294.66820463931435	295.2760817297494	0.6078770904350677	n/a	n/a	n/a	n/a
253.0234375	0.2	518192	219	80	2	0	0	26	309	stimuli\Videos_short_600ms_vertflip\45.scratching_with_finger_nails_short_vertflip_short_600ms.mp4	45.scratching_with_finger_nails_short_vertflip_short_600ms.mp4	295.46822264456205	296.07605486849934	0.6078322239372937	n/a	n/a	n/a	n/a
253.82373046875	0.2	519831	220	80	2	0	1	27	380	stimuli\Targets_short_600ms_vertflip\chopstickwood-tap_short_horvertflip_short_600ms.mp4	chopstickwood-tap_short_horvertflip_short_600ms.mp4	296.26775826166704	296.8759919381082	0.6082336764411593	n/a	n/a	n/a	n/a
254.62353515625	0.2	521469	221	80	2	0	0	28	59	stimuli\Videos_short_600ms\63.stroke_top_to_bottom_with_screwdriver_short_short_600ms.mp4	63.stroke_top_to_bottom_with_screwdriver_short_short_600ms.mp4	297.06771585842944	297.6759979203089	0.6082820618794358	n/a	n/a	n/a	n/a
255.42333984375	0.2	523107	222	80	2	0	0	29	220	stimuli\Videos_short_600ms_horvertflip\46.scratching_top_to_bottom_with_finger_nails_short_horvertflip_short_600ms.mp4	46.scratching_top_to_bottom_with_finger_nails_short_horvertflip_short_600ms.mp4	297.8680130329849	298.4759801496548	0.6079671166698972	n/a	n/a	n/a	n/a
256.2236328125	0.2	524746	223	80	2	0	0	30	85	stimuli\Videos_short_600ms\87.single_stroke_top_to_bottom_with_plastic_brush_short_short_600ms.mp4	87.single_stroke_top_to_bottom_with_plastic_brush_short_short_600ms.mp4	298.6677207849498	299.2759538748978	0.6082330899480439	n/a	n/a	n/a	n/a
257.0234375	0.2	526384	224	80	2	0	0	31	307	stimuli\Videos_short_600ms_vertflip\43.touch_top_to_bottom_with_sharp_wooden_stick_short_vertflip_short_600ms.mp4	43.touch_top_to_bottom_with_sharp_wooden_stick_short_vertflip_short_600ms.mp4	299.4676569748226	300.07595340570697	0.6082964308843657	n/a	n/a	n/a	n/a
257.8232421875	0.2	528022	225	80	2	0	0	32	95	stimuli\Videos_short_600ms_horflip\14.repeated_touch_with_pencil_short_horflip_short_600ms.mp4	14.repeated_touch_with_pencil_short_horflip_short_600ms.mp4	300.26763861767904	300.875957335189	0.6083187175099738	n/a	n/a	n/a	n/a
258.62353515625	0.2	529661	226	80	2	0	0	33	337	stimuli\Videos_short_600ms_vertflip\70.(long)stroke_with_finger_all_over_the_hand_short_vertflip_short_600ms.mp4	70.(long)stroke_with_finger_all_over_the_hand_short_vertflip_short_600ms.mp4	301.067605598284	301.6759445497046	0.6083389514205919	n/a	n/a	n/a	n/a
259.42333984375	0.2	531299	227	80	2	0	0	34	313	stimuli\Videos_short_600ms_vertflip\49.repeated_slap_with_hand_short_vertflip_short_600ms.mp4	49.repeated_slap_with_hand_short_vertflip_short_600ms.mp4	301.86759281279956	302.4759335236886	0.6083407108890242	n/a	n/a	n/a	n/a
260.22314453125	0.2	532937	228	80	2	0	0	35	344	stimuli\Videos_short_600ms_vertflip\77.tapping_with_all_fingers_short_vertflip_short_600ms.mp4	77.tapping_with_all_fingers_short_vertflip_short_600ms.mp4	302.66764014255386	303.27591018138264	0.6082700388287776	n/a	n/a	n/a	n/a
261.0234375	0.2	534576	229	80	2	0	0	36	178	stimuli\Videos_short_600ms_horflip\9.single_touch_with_hammer_short_horflip_short_600ms.mp4	9.single_touch_with_hammer_short_horflip_short_600ms.mp4	303.46762530435444	304.0758888917917	0.60826358743725	n/a	n/a	n/a	n/a
261.8232421875	0.2	536214	230	80	2	0	0	37	141	stimuli\Videos_short_600ms_horflip\56.repeated_touch_with_nail_file_short_horflip_short_600ms.mp4	56.repeated_touch_with_nail_file_short_horflip_short_600ms.mp4	304.2678057673693	304.8758690684226	0.6080633010533347	n/a	n/a	n/a	n/a
262.62353515625	0.2	537853	231	80	2	0	0	38	319	stimuli\Videos_short_600ms_vertflip\54.repeated_touch_with_knife_short_vertflip_short_600ms.mp4	54.repeated_touch_with_knife_short_vertflip_short_600ms.mp4	305.06751909098966	305.67585950863577	0.6083404176461045	n/a	n/a	n/a	n/a
263.42333984375	0.2	539491	232	80	2	0	0	39	89	stimuli\Videos_short_600ms\90.repeated_touch_with_sponge_short_short_600ms.mp4	90.repeated_touch_with_sponge_short_short_600ms.mp4	305.8675189150417	306.47583587308327	0.6083169580415415	n/a	n/a	n/a	n/a
264.22314453125	0.2	541129	233	80	2	0	0	40	289	stimuli\Videos_short_600ms_vertflip\27.single_push_with_a_plastic_whisk_short_vertflip_short_600ms.mp4	27.single_push_with_a_plastic_whisk_short_vertflip_short_600ms.mp4	306.6675375067789	307.27582396733123	0.6082864605523355	n/a	n/a	n/a	n/a
265.0234375	0.2	542768	234	80	2	0	0	41	171	stimuli\Videos_short_600ms_horflip\83.single_stroke_top_to_bottom_with_cotton_bud_short_horflip_short_600ms.mp4	83.single_stroke_top_to_bottom_with_cotton_bud_short_horflip_short_600ms.mp4	307.4675868892482	308.0758029709832	0.6082160817350086	n/a	n/a	n/a	n/a
265.8232421875	0.2	544406	235	80	2	0	0	42	64	stimuli\Videos_short_600ms\68.stroke_top_to_bottom_with_shawl_short_short_600ms.mp4	68.stroke_top_to_bottom_with_shawl_short_short_600ms.mp4	308.2674503543458	308.87578666655827	0.6083363122124865	n/a	n/a	n/a	n/a
266.623046875	0.2	546044	236	80	2	0	1	43	383	stimuli\Targets_short_600ms_vertflip\hand-stroke_short_horvertflip_short_600ms.mp4	hand-stroke_short_horvertflip_short_600ms.mp4	309.0674229066062	309.6757730013378	0.608350094731577	n/a	n/a	n/a	n/a
267.42333984375	0.2	547683	237	80	2	0	0	44	162	stimuli\Videos_short_600ms_horflip\75.(long)stroke_with_fingers_all_over_the_hand_short_horflip_short_600ms.mp4	75.(long)stroke_with_fingers_all_over_the_hand_short_horflip_short_600ms.mp4	309.867453814637	310.4757569901594	0.6083031755224511	n/a	n/a	n/a	n/a
268.22314453125	0.2	549321	238	80	2	0	0	45	249	stimuli\Videos_short_600ms_horvertflip\72.(short)stroke_with_finger_all_over_the_hand_short_horvertflip_short_600ms.mp4	72.(short)stroke_with_finger_all_over_the_hand_short_horvertflip_short_600ms.mp4	310.66739674914425	311.2757395127519	0.6083427636076522	n/a	n/a	n/a	n/a
269.02294921875	0.2	550959	239	80	2	0	0	46	320	stimuli\Videos_short_600ms_vertflip\55.touch_top_to_bottom_with_nail_file_short_vertflip_short_600ms.mp4	55.touch_top_to_bottom_with_nail_file_short_vertflip_short_600ms.mp4	311.46739950564734	312.07571910289334	0.6083195972460089	n/a	n/a	n/a	n/a
269.8232421875	0.2	552598	240	80	2	0	0	47	148	stimuli\Videos_short_600ms_horflip\62.touch_top_to_bottom_with_scissors_short_horflip_short_600ms.mp4	62.touch_top_to_bottom_with_scissors_short_horflip_short_600ms.mp4	312.26736267406886	312.87567787263833	0.6083151985694712	n/a	n/a	n/a	n/a
270.623046875	0.2	554236	241	80	2	0	0	48	112	stimuli\Videos_short_600ms_horflip\3.single_push_with_finger_short_horflip_short_600ms.mp4	3.single_push_with_finger_short_horflip_short_600ms.mp4	313.0673369858014	313.6756416275457	0.6083046417443256	n/a	n/a	n/a	n/a
271.4228515625	0.2	555874	242	80	2	0	0	49	305	stimuli\Videos_short_600ms_vertflip\41.injection_with_blunt_syringe_short_vertflip_short_600ms.mp4	41.injection_with_blunt_syringe_short_vertflip_short_600ms.mp4	313.867461732254	314.4756449705419	0.6081832382878929	n/a	n/a	n/a	n/a
272.22314453125	0.2	557513	243	80	2	0	0	50	347	stimuli\Videos_short_600ms_vertflip\8.single_touch_with_hairbrush_short_vertflip_short_600ms.mp4	8.single_touch_with_hairbrush_short_vertflip_short_600ms.mp4	314.66736537192264	315.27563511750486	0.6082697455822199	n/a	n/a	n/a	n/a
273.02294921875	0.2	559151	244	80	2	0	0	51	116	stimuli\Videos_short_600ms_horflip\33.scratch_top_to_bottom_with_scissors_short_horflip_short_600ms.mp4	33.scratch_top_to_bottom_with_scissors_short_horflip_short_600ms.mp4	315.4673734068383	316.0756170536115	0.6082436467731895	n/a	n/a	n/a	n/a
273.82275390625	0.2	560789	245	80	2	0	0	52	300	stimuli\Videos_short_600ms_vertflip\37.single_stab_with_nail_file_short_vertflip_short_600ms.mp4	37.single_stab_with_nail_file_short_vertflip_short_600ms.mp4	316.2673101832006	316.8756250885235	0.6083149053229135	n/a	n/a	n/a	n/a
274.623046875	0.2	562428	246	80	2	0	1	53	365	stimuli\Targets_short_600ms\hand-stroke_short_short_600ms.mp4	hand-stroke_short_short_600ms.mp4	317.0673402114953	317.6756117165496	0.6082715050542902	n/a	n/a	n/a	n/a
275.4228515625	0.2	564066	247	80	2	0	0	54	91	stimuli\Videos_short_600ms_horflip\10.single_touch_with_knife_short_horflip_short_600ms.mp4	10.single_touch_with_knife_short_horflip_short_600ms.mp4	317.86726760401507	318.47558896073315	0.6083213567180792	n/a	n/a	n/a	n/a
276.22265625	0.2	565704	248	80	2	0	0	55	266	stimuli\Videos_short_600ms_horvertflip\88.repeated_stroke_with_plastic_brush_short_horvertflip_short_600ms.mp4	88.repeated_stroke_with_plastic_brush_short_horvertflip_short_600ms.mp4	318.66729088767534	319.2754914274228	0.6082005397474859	n/a	n/a	n/a	n/a
277.02294921875	0.2	567343	249	80	2	0	0	56	135	stimuli\Videos_short_600ms_horflip\50.single_(long)hard_push_with_thumb_short_horflip_short_600ms.mp4	50.single_(long)hard_push_with_thumb_short_horflip_short_600ms.mp4	319.4672162274801	320.07548831902386	0.6082720915437676	n/a	n/a	n/a	n/a
277.82275390625	0.2	568981	250	80	2	0	0	57	182	stimuli\Videos_short_600ms_horvertflip\11.single_touch_with_lighter_short_horvertflip_short_600ms.mp4	11.single_touch_with_lighter_short_horvertflip_short_600ms.mp4	320.2672116528556	320.8755344757992	0.6083228229435917	n/a	n/a	n/a	n/a
278.62255859375	0.2	570619	251	80	2	0	0	58	270	stimuli\Videos_short_600ms_vertflip\1.repeated_touch_with_finger_fast_short_vertflip_short_600ms.mp4	1.repeated_touch_with_finger_fast_short_vertflip_short_600ms.mp4	321.06726895294196	321.6755190511067	0.6082500981647172	n/a	n/a	n/a	n/a
279.4228515625	0.2	572258	252	80	2	0	0	59	180	stimuli\Videos_short_600ms_horvertflip\1.repeated_touch_with_finger_fast_short_horvertflip_short_600ms.mp4	1.repeated_touch_with_finger_fast_short_horvertflip_short_600ms.mp4	321.86722566997196	322.4755039196607	0.6082782496887376	n/a	n/a	n/a	n/a
280.22265625	0.2	573896	253	80	2	0	0	60	342	stimuli\Videos_short_600ms_vertflip\75.(long)stroke_with_fingers_all_over_the_hand_short_vertflip_short_600ms.mp4	75.(long)stroke_with_fingers_all_over_the_hand_short_vertflip_short_600ms.mp4	322.66716449904925	323.2754870287463	0.608322529697034	n/a	n/a	n/a	n/a
281.02294921875	0.2	575535	254	80	2	0	0	61	33	stimuli\Videos_short_600ms\4.repeated_tap_with_finger_slow_short_short_600ms.mp4	4.repeated_tap_with_finger_slow_short_short_600ms.mp4	323.4671537662798	324.0754683783598	0.6083146120799938	n/a	n/a	n/a	n/a
281.82275390625	0.2	577173	255	80	2	0	0	62	263	stimuli\Videos_short_600ms_horvertflip\85.touch_top_to_bottom_with_fabric_short_horvertflip_short_600ms.mp4	85.touch_top_to_bottom_with_fabric_short_horvertflip_short_600ms.mp4	324.267630700062	324.8754535401604	0.607822840098379	n/a	n/a	n/a	n/a
282.62255859375	0.2	578811	256	80	2	0	0	63	115	stimuli\Videos_short_600ms_horflip\32.single_(long)pinch_with_fingers_short_horflip_short_600ms.mp4	32.single_(long)pinch_with_fingers_short_horflip_short_600ms.mp4	325.067257809631	325.6754343032808	0.6081764936498075	n/a	n/a	n/a	n/a
283.4228515625	0.2	580450	257	80	2	0	0	64	240	stimuli\Videos_short_600ms_horvertflip\64.repeated_touch_with_screwdriver_short_horvertflip_short_600ms.mp4	64.repeated_touch_with_screwdriver_short_horvertflip_short_600ms.mp4	325.8670764082308	326.47541799885585	0.6083415906250593	n/a	n/a	n/a	n/a
284.22265625	0.2	582088	258	80	2	0	0	65	37	stimuli\Videos_short_600ms\43.touch_top_to_bottom_with_sharp_wooden_stick_short_short_600ms.mp4	43.touch_top_to_bottom_with_sharp_wooden_stick_short_short_600ms.mp4	326.6670680214229	327.2753744226393	0.6083064012163959	n/a	n/a	n/a	n/a
285.0224609375	0.2	583726	259	80	2	0	0	66	206	stimuli\Videos_short_600ms_horvertflip\33.scratch_top_to_bottom_with_scissors_short_horvertflip_short_600ms.mp4	33.scratch_top_to_bottom_with_scissors_short_horvertflip_short_600ms.mp4	327.4670605143474	328.0753613439083	0.6083008295609034	n/a	n/a	n/a	n/a
285.82275390625	0.2	585365	260	80	2	0	0	67	56	stimuli\Videos_short_600ms\60.single_push_with_tip_of_pencil_short_short_600ms.mp4	60.single_push_with_tip_of_pencil_short_short_600ms.mp4	328.2670277881989	328.8753215798788	0.6082937916798983	n/a	n/a	n/a	n/a
286.62255859375	0.2	587003	261	80	2	0	0	68	192	stimuli\Videos_short_600ms_horvertflip\20.single_touch_with_screwdriver_short_horvertflip_short_600ms.mp4	20.single_touch_with_screwdriver_short_horvertflip_short_600ms.mp4	329.0670842085492	329.6753035159818	0.6082193074325914	n/a	n/a	n/a	n/a
287.42236328125	0.2	588641	262	80	2	0	0	69	209	stimuli\Videos_short_600ms_horvertflip\36.single_slap_with_full_hand_short_horvertflip_short_600ms.mp4	36.single_slap_with_full_hand_short_horvertflip_short_600ms.mp4	329.8676857714854	330.4753092049359	0.6076234334504989	n/a	n/a	n/a	n/a
288.22265625	0.2	590280	263	80	2	0	0	70	252	stimuli\Videos_short_600ms_horvertflip\75.(long)stroke_with_fingers_all_over_the_hand_short_horvertflip_short_600ms.mp4	75.(long)stroke_with_fingers_all_over_the_hand_short_horvertflip_short_600ms.mp4	330.6672952863519	331.2753052168009	0.6080099304490432	n/a	n/a	n/a	n/a
289.0224609375	0.2	591918	264	80	2	0	0	71	214	stimuli\Videos_short_600ms_horvertflip\40.repeated_push_with_finger_short_horvertflip_short_600ms.mp4	40.repeated_push_with_finger_short_horvertflip_short_600ms.mp4	331.4670842671985	332.0753041611206	0.6082198939220689	n/a	n/a	n/a	n/a
289.822265625	0.2	593556	265	80	2	0	0	72	205	stimuli\Videos_short_600ms_horvertflip\32.single_(long)pinch_with_fingers_short_horvertflip_short_600ms.mp4	32.single_(long)pinch_with_fingers_short_horvertflip_short_600ms.mp4	332.2669667932241	332.87529078914304	0.6083239959189086	n/a	n/a	n/a	n/a
290.62255859375	0.2	595195	266	80	2	0	0	73	187	stimuli\Videos_short_600ms_horvertflip\16.repeated_touch_with_plastic_brush_short_horvertflip_short_600ms.mp4	16.repeated_touch_with_plastic_brush_short_horvertflip_short_600ms.mp4	333.06694609012266	333.67526861981605	0.6083225296933961	n/a	n/a	n/a	n/a
291.42236328125	0.2	596833	267	80	2	0	0	74	22	stimuli\Videos_short_600ms\3.single_push_with_finger_short_short_600ms.mp4	3.single_push_with_finger_short_short_600ms.mp4	333.86695383179176	334.4752514356551	0.6082976038633205	n/a	n/a	n/a	n/a
292.22216796875	0.2	598471	268	80	2	0	0	75	102	stimuli\Videos_short_600ms_horflip\20.single_touch_with_screwdriver_short_horflip_short_600ms.mp4	20.single_touch_with_screwdriver_short_horflip_short_600ms.mp4	334.6670744728144	335.2752374771917	0.6081630043772748	n/a	n/a	n/a	n/a
293.0224609375	0.2	600110	269	80	2	0	0	76	193	stimuli\Videos_short_600ms_horvertflip\21.repeated_touch_with_metal_chopstick_short_horvertflip_short_600ms.mp4	21.repeated_touch_with_metal_chopstick_short_horvertflip_short_600ms.mp4	335.4668602279635	336.0752147213716	0.6083544934081146	n/a	n/a	n/a	n/a
293.822265625	0.2	601748	270	80	2	0	0	77	117	stimuli\Videos_short_600ms_horflip\34.repeated_punch_with_hand_short_horflip_short_600ms.mp4	34.repeated_punch_with_hand_short_horflip_short_600ms.mp4	336.2669137158664	336.87519900343614	0.6082852875697426	n/a	n/a	n/a	n/a
294.6220703125	0.2	603386	271	80	2	0	0	78	285	stimuli\Videos_short_600ms_vertflip\23.single_push_with_a_spoon_short_vertflip_short_600ms.mp4	23.single_push_with_a_spoon_short_vertflip_short_600ms.mp4	337.0670498988766	337.6751821125217	0.608132213645149	n/a	n/a	n/a	n/a
295.42236328125	0.2	605025	272	80	2	0	0	79	280	stimuli\Videos_short_600ms_vertflip\19.single_touch_with_rolling_pin_short_vertflip_short_600ms.mp4	19.single_touch_with_rolling_pin_short_vertflip_short_600ms.mp4	337.866798411902	338.4751661013397	0.6083676894377277	n/a	n/a	n/a	n/a
296.22216796875	0.2	606663	273	80	2	0	0	80	160	stimuli\Videos_short_600ms_horflip\73.single_stroke_with_flat_hand_short_horflip_short_600ms.mp4	73.single_stroke_with_flat_hand_short_horflip_short_600ms.mp4	338.66678533317463	339.27514833068926	0.6083629975146323	n/a	n/a	n/a	n/a
297.02197265625	0.2	608301	274	80	2	0	0	81	278	stimuli\Videos_short_600ms_vertflip\17.repeated_touch_with_rolling_pin_short_vertflip_short_600ms.mp4	17.repeated_touch_with_rolling_pin_short_vertflip_short_600ms.mp4	339.46682445206534	340.0751293870562	0.6083049349908833	n/a	n/a	n/a	n/a
297.822265625	0.2	609940	275	80	2	0	0	82	47	stimuli\Videos_short_600ms\52.touch_top_to_bottom_with_hammer_short_short_600ms.mp4	52.touch_top_to_bottom_with_hammer_short_short_600ms.mp4	340.26684890870456	340.87511366912076	0.6082647604162048	n/a	n/a	n/a	n/a
298.6220703125	0.2	611578	276	80	2	0	0	83	70	stimuli\Videos_short_600ms\73.single_stroke_with_flat_hand_short_short_600ms.mp4	73.single_stroke_with_flat_hand_short_short_600ms.mp4	341.06678920400736	341.6751014701258	0.6083122661184461	n/a	n/a	n/a	n/a
299.421875	0.2	613216	277	80	2	0	0	84	235	stimuli\Videos_short_600ms_horvertflip\6.single_touch_with_flat_hand_short_horvertflip_short_600ms.mp4	6.single_touch_with_flat_hand_short_horvertflip_short_600ms.mp4	341.8669063260895	342.47507724808384	0.608170921994315	n/a	n/a	n/a	n/a
300.22216796875	0.2	614855	278	80	2	0	0	85	165	stimuli\Videos_short_600ms_horflip\78.single_stroke_top_to_bottom_with_soft_brush_short_horflip_short_600ms.mp4	78.single_stroke_top_to_bottom_with_soft_brush_short_horflip_short_600ms.mp4	342.66681113874074	343.2750486273653	0.6082374886245816	n/a	n/a	n/a	n/a
301.02197265625	0.2	616493	279	80	2	0	0	86	356	stimuli\Videos_short_600ms_vertflip\88.repeated_stroke_with_plastic_brush_short_vertflip_short_600ms.mp4	88.repeated_stroke_with_plastic_brush_short_vertflip_short_600ms.mp4	343.46672709470295	344.0750117957832	0.6082847010802652	n/a	n/a	n/a	n/a
301.822265625	0.2	618132	280	80	2	0	0	87	351	stimuli\Videos_short_600ms_vertflip\83.single_stroke_top_to_bottom_with_cotton_bud_short_vertflip_short_600ms.mp4	83.single_stroke_top_to_bottom_with_cotton_bud_short_vertflip_short_600ms.mp4	344.26685917228315	344.8750072211624	0.6081480488792295	n/a	n/a	n/a	n/a
302.6220703125	0.2	619770	281	80	2	0	0	88	257	stimuli\Videos_short_600ms_horvertflip\8.single_touch_with_hairbrush_short_horvertflip_short_600ms.mp4	8.single_touch_with_hairbrush_short_horvertflip_short_600ms.mp4	345.06669184664497	345.6749926762059	0.6083008295609034	n/a	n/a	n/a	n/a
303.421875	0.2	621408	282	80	2	0	0	89	189	stimuli\Videos_short_600ms_horvertflip\18.single_stroke_from_top_to_bottom_with_rolling_pin_short_horvertflip_short_600ms.mp4	18.single_stroke_from_top_to_bottom_with_rolling_pin_short_horvertflip_short_600ms.mp4	345.86670134778615	346.47497666502386	0.6082753172377124	n/a	n/a	n/a	n/a
304.22216796875	0.2	623047	283	80	2	0	0	90	311	stimuli\Videos_short_600ms_vertflip\47.(long)scratching_with_finger_nails_short_vertflip_short_600ms.mp4	47.(long)scratching_with_finger_nails_short_vertflip_short_600ms.mp4	346.6666601175275	347.274962120071	0.6083020025434962	n/a	n/a	n/a	n/a
305.02197265625	0.2	624685	284	80	2	0	0	91	260	stimuli\Videos_short_600ms_horvertflip\82.repeated_touch_with_cotton_bud_short_horvertflip_short_600ms.mp4	82.repeated_touch_with_cotton_bud_short_horvertflip_short_600ms.mp4	347.4667596449035	348.07497162120853	0.6082119763050287	n/a	n/a	n/a	n/a
305.82177734375	0.2	626323	285	80	2	0	0	92	298	stimuli\Videos_short_600ms_vertflip\35.single_punch_with_hand_short_vertflip_short_600ms.mp4	35.single_punch_with_hand_short_vertflip_short_600ms.mp4	348.2667459796867	348.87494534645157	0.6081993667648931	n/a	n/a	n/a	n/a
306.6220703125	0.2	627962	286	80	2	0	0	93	119	stimuli\Videos_short_600ms_horflip\36.single_slap_with_full_hand_short_horflip_short_600ms.mp4	36.single_slap_with_full_hand_short_horflip_short_600ms.mp4	349.0666496193553	349.67492698931164	0.6082773699563404	4.0	4.0	1.9846254541989763	1.0
340.41259765625	0.2	697165	287	80	3	0	0	0	282	stimuli\Videos_short_600ms_vertflip\20.single_touch_with_screwdriver_short_vertflip_short_600ms.mp4	20.single_touch_with_screwdriver_short_vertflip_short_600ms.mp4	382.8576506319296	383.46585879604754	0.6082081641179684	n/a	n/a	n/a	n/a
341.21240234375	0.2	698803	288	80	3	0	0	1	334	stimuli\Videos_short_600ms_vertflip\68.stroke_top_to_bottom_with_shawl_short_vertflip_short_600ms.mp4	68.stroke_top_to_bottom_with_shawl_short_vertflip_short_600ms.mp4	383.6575533918658	384.2658410253971	0.6082876335312903	n/a	n/a	n/a	n/a
342.0205078125	0.2	700458	289	80	3	0	0	2	99	stimuli\Videos_short_600ms_horflip\18.single_stroke_from_top_to_bottom_with_rolling_pin_short_horflip_short_600ms.mp4	18.single_stroke_from_top_to_bottom_with_rolling_pin_short_horflip_short_600ms.mp4	384.465824193132	385.0741783932935	0.608354200161557	n/a	n/a	n/a	n/a
342.82080078125	0.2	702097	290	80	3	0	0	3	15	stimuli\Videos_short_600ms\23.single_push_with_a_spoon_short_short_600ms.mp4	23.single_push_with_a_spoon_short_short_600ms.mp4	385.26581492658806	385.8741620888686	0.6083471622805519	n/a	n/a	n/a	n/a
343.62060546875	0.2	703735	291	80	3	0	0	4	66	stimuli\Videos_short_600ms\7.repeated_touch_with_hairbrush_short_short_600ms.mp4	7.repeated_touch_with_hairbrush_short_short_600ms.mp4	386.0657813206999	386.6741487168947	0.608367396194808	n/a	n/a	n/a	n/a
344.42041015625	0.2	705373	292	80	3	0	0	5	222	stimuli\Videos_short_600ms_horvertflip\48.single_slap_with_hand_short_horvertflip_short_600ms.mp4	48.single_slap_with_hand_short_horvertflip_short_600ms.mp4	386.86613215910256	387.4741259610746	0.607993801972043	n/a	n/a	n/a	n/a
345.220703125	0.2	707012	293	80	3	0	0	6	324	stimuli\Videos_short_600ms_vertflip\59.single_push_with_long_side_pencil_short_vertflip_short_600ms.mp4	59.single_push_with_long_side_pencil_short_vertflip_short_600ms.mp4	387.6658009094717	388.2740979268456	0.6082970173738431	n/a	n/a	n/a	n/a
346.0205078125	0.2	708650	294	80	3	0	0	7	122	stimuli\Videos_short_600ms_horflip\39.single_stab_with_scissors_short_horflip_short_600ms.mp4	39.single_stab_with_scissors_short_horflip_short_600ms.mp4	388.4658324039919	389.0740508316885	0.6082184276965563	n/a	n/a	n/a	n/a
346.8203125	0.2	710288	295	80	3	0	0	8	329	stimuli\Videos_short_600ms_vertflip\63.stroke_top_to_bottom_with_screwdriver_short_vertflip_short_600ms.mp4	63.stroke_top_to_bottom_with_screwdriver_short_vertflip_short_600ms.mp4	389.2657413220731	389.8740530017021	0.6083116796289687	n/a	n/a	n/a	n/a
347.62060546875	0.2	711927	296	80	3	0	0	9	111	stimuli\Videos_short_600ms_horflip\29.single_pinch_with_tweezers_short_horflip_short_600ms.mp4	29.single_pinch_with_tweezers_short_horflip_short_600ms.mp4	390.0657437853333	390.6740278999241	0.6082841145907878	n/a	n/a	n/a	n/a
348.42041015625	0.2	713565	297	80	3	0	0	10	232	stimuli\Videos_short_600ms_horvertflip\57.single_touch_with_nail_file_short_horvertflip_short_600ms.mp4	57.single_touch_with_nail_file_short_horvertflip_short_600ms.mp4	390.8657263079258	391.4740203928486	0.608294084922818	n/a	n/a	n/a	n/a
349.220703125	0.2	715204	298	80	3	0	0	11	110	stimuli\Videos_short_600ms_horflip\28.single_injection_with_sharp_needle_short_horflip_short_600ms.mp4	28.single_injection_with_sharp_needle_short_horflip_short_600ms.mp4	391.6657064845603	392.2740125925302	0.6083061079698382	n/a	n/a	n/a	n/a
350.0205078125	0.2	716842	299	80	3	0	1	12	366	stimuli\Targets_short_600ms_horflip\brush-stroke_short_horflip_short_600ms.mp4	brush-stroke_short_horflip_short_600ms.mp4	392.4657728752427	393.0740012732713	0.6082283980285865	n/a	n/a	n/a	n/a
350.8203125	0.2	718480	300	80	3	0	0	13	191	stimuli\Videos_short_600ms_horvertflip\2.single_touch_with_finger_short_horvertflip_short_600ms.mp4	2.single_touch_with_finger_short_horvertflip_short_600ms.mp4	393.2656762216684	393.8740054959999	0.6083292743314814	n/a	n/a	n/a	n/a
351.62060546875	0.2	720119	301	80	3	0	0	14	134	stimuli\Videos_short_600ms_horflip\5.repeated_tap_with_finger_moving_from_top_to_bottom_short_horflip_short_600ms.mp4	5.repeated_tap_with_finger_moving_from_top_to_bottom_short_horflip_short_600ms.mp4	394.0656587442609	394.67397687528137	0.6083181310204964	n/a	n/a	n/a	n/a
352.42041015625	0.2	721757	302	80	3	0	0	15	197	stimuli\Videos_short_600ms_horvertflip\25.single_touch_with_stanley_knife_short_horvertflip_short_600ms.mp4	25.single_touch_with_stanley_knife_short_horvertflip_short_600ms.mp4	394.8656236721508	395.4739696614524	0.608345989301597	n/a	n/a	n/a	n/a
353.22021484375	0.2	723395	303	80	3	0	0	16	83	stimuli\Videos_short_600ms\85.touch_top_to_bottom_with_fabric_short_short_600ms.mp4	85.touch_top_to_bottom_with_fabric_short_short_600ms.mp4	395.6657185076074	396.2739413339805	0.608222826373094	n/a	n/a	n/a	n/a
354.0205078125	0.2	725034	304	80	3	0	0	17	224	stimuli\Videos_short_600ms_horvertflip\5.repeated_tap_with_finger_moving_from_top_to_bottom_short_horvertflip_short_600ms.mp4	5.repeated_tap_with_finger_moving_from_top_to_bottom_short_horvertflip_short_600ms.mp4	396.46566760026326	397.0739264957774	0.6082588955141546	n/a	n/a	n/a	n/a
354.8203125	0.2	726672	305	80	3	0	0	18	51	stimuli\Videos_short_600ms\56.repeated_touch_with_nail_file_short_short_600ms.mp4	56.repeated_touch_with_nail_file_short_short_600ms.mp4	397.2656269564977	397.8739101913525	0.6082832348547527	n/a	n/a	n/a	n/a
355.6201171875	0.2	728310	306	80	3	0	0	19	314	stimuli\Videos_short_600ms_vertflip\5.repeated_tap_with_finger_moving_from_top_to_bottom_short_vertflip_short_600ms.mp4	5.repeated_tap_with_finger_moving_from_top_to_bottom_short_vertflip_short_600ms.mp4	398.0655810343196	398.67389183421255	0.6083107998929336	n/a	n/a	n/a	n/a
356.42041015625	0.2	729949	307	80	3	0	1	20	364	stimuli\Targets_short_600ms\hand-pinch_short_short_600ms.mp4	hand-pinch_short_short_600ms.mp4	398.8656339357294	399.47387582303054	0.6082418873011193	n/a	n/a	n/a	n/a
357.22021484375	0.2	731587	308	80	3	0	0	21	203	stimuli\Videos_short_600ms_horvertflip\30.finger_pulling_back_another_finger_short_horvertflip_short_600ms.mp4	30.finger_pulling_back_another_finger_short_horvertflip_short_600ms.mp4	399.66549652108733	400.2738615713206	0.6083650502332603	n/a	n/a	n/a	n/a
358.02001953125	0.2	733225	309	80	3	0	0	22	81	stimuli\Videos_short_600ms\83.single_stroke_top_to_bottom_with_cotton_bud_short_short_600ms.mp4	83.single_stroke_top_to_bottom_with_cotton_bud_short_short_600ms.mp4	400.4654781639474	401.0738435074236	0.60836534347618	n/a	n/a	n/a	n/a
358.8203125	0.2	734864	310	80	3	0	0	23	265	stimuli\Videos_short_600ms_horvertflip\87.single_stroke_top_to_bottom_with_plastic_brush_short_horvertflip_short_600ms.mp4	87.single_stroke_top_to_bottom_with_plastic_brush_short_horvertflip_short_600ms.mp4	401.26545892707145	401.8738228043221	0.6083638772506674	n/a	n/a	n/a	n/a
359.6201171875	0.2	736502	311	80	3	0	0	24	353	stimuli\Videos_short_600ms_vertflip\85.touch_top_to_bottom_with_fabric_short_vertflip_short_600ms.mp4	85.touch_top_to_bottom_with_fabric_short_vertflip_short_600ms.mp4	402.06554291245993	402.67380767287614	0.6082647604162048	n/a	n/a	n/a	n/a
360.419921875	0.2	738140	312	80	3	0	0	25	215	stimuli\Videos_short_600ms_horvertflip\41.injection_with_blunt_syringe_short_horvertflip_short_600ms.mp4	41.injection_with_blunt_syringe_short_horvertflip_short_600ms.mp4	402.8656359884444	403.4737855035491	0.608149515104742	n/a	n/a	n/a	n/a
361.22021484375	0.2	739779	313	80	3	0	1	26	382	stimuli\Targets_short_600ms_vertflip\hand-pinch_short_horvertflip_short_600ms.mp4	hand-pinch_short_horvertflip_short_600ms.mp4	403.66549446837234	404.27377242481816	0.6082779564458178	n/a	n/a	n/a	n/a
362.02001953125	0.2	741417	314	80	3	0	0	27	254	stimuli\Videos_short_600ms_horvertflip\77.tapping_with_all_fingers_short_horvertflip_short_600ms.mp4	77.tapping_with_all_fingers_short_horvertflip_short_600ms.mp4	404.4655520617053	405.07372093098456	0.608168869279325	n/a	n/a	n/a	n/a
362.81982421875	0.2	743055	315	80	3	0	0	28	183	stimuli\Videos_short_600ms_horvertflip\12.repeated_touch_with_nail_file_short_horvertflip_short_600ms.mp4	12.repeated_touch_with_nail_file_short_horvertflip_short_600ms.mp4	405.26545687435646	405.873693483245	0.6082366088885465	n/a	n/a	n/a	n/a
363.6201171875	0.2	744694	316	80	3	0	0	29	250	stimuli\Videos_short_600ms_horvertflip\73.single_stroke_with_flat_hand_short_horvertflip_short_600ms.mp4	73.single_stroke_with_flat_hand_short_horvertflip_short_600ms.mp4	406.06567252678	406.6736994654457	0.6080269386657164	n/a	n/a	n/a	n/a
364.419921875	0.2	746332	317	80	3	0	0	30	93	stimuli\Videos_short_600ms_horflip\12.repeated_touch_with_nail_file_short_horflip_short_600ms.mp4	12.repeated_touch_with_nail_file_short_horflip_short_600ms.mp4	406.865338637941	407.4736858002252	0.6083471622841898	n/a	n/a	n/a	n/a
365.2197265625	0.2	747970	318	80	3	0	0	31	322	stimuli\Videos_short_600ms_vertflip\57.single_touch_with_nail_file_short_vertflip_short_600ms.mp4	57.single_touch_with_nail_file_short_vertflip_short_600ms.mp4	407.6653683729928	408.27367008228975	0.6083017092969385	n/a	n/a	n/a	n/a
366.02001953125	0.2	749609	319	80	3	0	0	32	200	stimuli\Videos_short_600ms_horvertflip\28.single_injection_with_sharp_needle_short_horvertflip_short_600ms.mp4	28.single_injection_with_sharp_needle_short_horvertflip_short_600ms.mp4	408.46535265505736	409.0736825158783	0.6083298608209589	n/a	n/a	n/a	n/a
366.81982421875	0.2	751247	320	80	3	0	0	33	294	stimuli\Videos_short_600ms_vertflip\31.hand_grabbing_wrist_short_vertflip_short_600ms.mp4	31.hand_grabbing_wrist_short_vertflip_short_600ms.mp4	409.2653337114243	409.8736530154274	0.6083193040030892	n/a	n/a	n/a	n/a
367.61962890625	0.2	752885	321	80	3	0	0	34	348	stimuli\Videos_short_600ms_vertflip\80.stroke_with_sharp_stick_all_over_the_hand_short_vertflip_short_600ms.mp4	80.stroke_with_sharp_stick_all_over_the_hand_short_vertflip_short_600ms.mp4	410.0652971730888	410.6736419894114	0.6083448163226421	n/a	n/a	n/a	n/a
368.419921875	0.2	754524	322	80	3	0	0	35	288	stimuli\Videos_short_600ms_vertflip\26.single_touch_with_a_blunt_syringe_short_vertflip_short_600ms.mp4	26.single_touch_with_a_blunt_syringe_short_vertflip_short_600ms.mp4	410.8653008093279	411.4736183538589	0.6083175445310189	n/a	n/a	n/a	n/a
369.2197265625	0.2	756162	323	80	3	0	0	36	20	stimuli\Videos_short_600ms\28.single_injection_with_sharp_needle_short_short_600ms.mp4	28.single_injection_with_sharp_needle_short_short_600ms.mp4	411.6653232132521	412.2736023426769	0.6082791294247727	n/a	n/a	n/a	n/a
370.02001953125	0.2	757801	324	80	3	0	0	37	157	stimuli\Videos_short_600ms_horflip\70.(long)stroke_with_finger_all_over_the_hand_short_horflip_short_600ms.mp4	70.(long)stroke_with_finger_all_over_the_hand_short_horflip_short_600ms.mp4	412.46607286495055	413.0735833990475	0.6075105340969458	n/a	n/a	n/a	n/a
370.81982421875	0.2	759439	325	80	3	0	0	38	325	stimuli\Videos_short_600ms_vertflip\6.single_touch_with_flat_hand_short_vertflip_short_600ms.mp4	6.single_touch_with_flat_hand_short_vertflip_short_600ms.mp4	413.2652908976452	413.8735685608444	0.6082776631992601	n/a	n/a	n/a	n/a
371.61962890625	0.2	761077	326	80	3	0	0	39	318	stimuli\Videos_short_600ms_vertflip\53.touch_top_to_bottom_with_knife_short_vertflip_short_600ms.mp4	53.touch_top_to_bottom_with_knife_short_vertflip_short_600ms.mp4	414.0651895521478	414.67355313615553	0.6083635840077477	n/a	n/a	n/a	n/a
372.419921875	0.2	762716	327	80	3	0	0	40	190	stimuli\Videos_short_600ms_horvertflip\19.single_touch_with_rolling_pin_short_horvertflip_short_600ms.mp4	19.single_touch_with_rolling_pin_short_horvertflip_short_600ms.mp4	414.86520814388496	415.4735380047095	0.6083298608245968	n/a	n/a	n/a	n/a
373.2197265625	0.2	764354	328	80	3	0	1	41	378	stimuli\Targets_short_600ms_vertflip\brush-stroke_short_horvertflip_short_600ms.mp4	brush-stroke_short_horvertflip_short_600ms.mp4	415.6651862678046	416.27351495564653	0.608328687842004	n/a	n/a	n/a	n/a
374.01953125	0.2	765992	329	80	3	0	0	42	8	stimuli\Videos_short_600ms\17.repeated_touch_with_rolling_pin_short_short_600ms.mp4	17.repeated_touch_with_rolling_pin_short_short_600ms.mp4	416.46516145926944	417.0734977714856	0.6083363122161245	n/a	n/a	n/a	n/a
374.81982421875	0.2	767631	330	80	3	0	0	43	75	stimuli\Videos_short_600ms\78.single_stroke_top_to_bottom_with_soft_brush_short_short_600ms.mp4	78.single_stroke_top_to_bottom_with_soft_brush_short_short_600ms.mp4	417.2651583508741	417.8734826400396	0.6083242891654663	n/a	n/a	n/a	n/a
375.61962890625	0.2	769269	331	80	3	0	0	44	343	stimuli\Videos_short_600ms_vertflip\76.tickle_with_fingers_from_top_to_bottom_short_vertflip_short_600ms.mp4	76.tickle_with_fingers_from_top_to_bottom_short_vertflip_short_600ms.mp4	418.0651329558495	418.67346428289966	0.6083313270501094	n/a	n/a	n/a	n/a
376.41943359375	0.2	770907	332	80	3	0	0	45	179	stimuli\Videos_short_600ms_horflip\90.repeated_touch_with_sponge_short_horflip_short_600ms.mp4	90.repeated_touch_with_sponge_short_horflip_short_600ms.mp4	418.8651448029523	419.4734509109221	0.6083061079698382	n/a	n/a	n/a	n/a
377.2197265625	0.2	772546	333	80	3	0	0	46	212	stimuli\Videos_short_600ms_horvertflip\39.single_stab_with_scissors_short_horvertflip_short_600ms.mp4	39.single_stab_with_scissors_short_horvertflip_short_600ms.mp4	419.66532643894607	420.2733876872881	0.6080612483419827	n/a	n/a	n/a	n/a
378.01953125	0.2	774184	334	80	3	0	0	47	149	stimuli\Videos_short_600ms_horflip\63.stroke_top_to_bottom_with_screwdriver_short_horflip_short_600ms.mp4	63.stroke_top_to_bottom_with_screwdriver_short_horflip_short_600ms.mp4	420.4650978250902	421.0733702098805	0.6082723847903253	n/a	n/a	n/a	n/a
378.8193359375	0.2	775822	335	80	3	0	0	48	21	stimuli\Videos_short_600ms\29.single_pinch_with_tweezers_short_short_600ms.mp4	29.single_pinch_with_tweezers_short_short_600ms.mp4	421.26508152066526	421.8733744326091	0.6082929119438631	n/a	n/a	n/a	n/a
379.61962890625	0.2	777461	336	80	3	0	0	49	202	stimuli\Videos_short_600ms_horvertflip\3.single_push_with_finger_short_horvertflip_short_600ms.mp4	3.single_push_with_finger_short_horvertflip_short_600ms.mp4	422.0651382342621	422.673339653742	0.608201419479883	n/a	n/a	n/a	n/a
380.41943359375	0.2	779099	337	80	3	0	0	50	65	stimuli\Videos_short_600ms\69.stroke_with_soft_sock_short_short_600ms.mp4	69.stroke_with_soft_sock_short_short_600ms.mp4	422.8650799957904	423.4733532603168	0.6082732645263604	n/a	n/a	n/a	n/a
381.21923828125	0.2	780737	338	80	3	0	0	51	87	stimuli\Videos_short_600ms\89.single_touch_with_plastic_brush_short_short_600ms.mp4	89.single_touch_with_plastic_brush_short_short_600ms.mp4	423.66503700606336	424.27336217496486	0.6083251689015015	n/a	n/a	n/a	n/a
382.01953125	0.2	782376	339	80	3	0	1	52	362	stimuli\Targets_short_600ms\chopstickwood-tap_short_short_600ms.mp4	chopstickwood-tap_short_short_600ms.mp4	424.4650189421663	425.0733317947743	0.6083128526079236	n/a	n/a	n/a	n/a
382.8193359375	0.2	784014	340	80	3	0	0	53	279	stimuli\Videos_short_600ms_vertflip\18.single_stroke_from_top_to_bottom_with_rolling_pin_short_vertflip_short_600ms.mp4	18.single_stroke_from_top_to_bottom_with_rolling_pin_short_vertflip_short_600ms.mp4	425.2649539590602	425.8733163700854	0.6083624110251549	n/a	n/a	n/a	n/a
383.619140625	0.2	785652	341	80	3	0	0	54	18	stimuli\Videos_short_600ms\26.single_touch_with_a_blunt_syringe_short_short_600ms.mp4	26.single_touch_with_a_blunt_syringe_short_short_600ms.mp4	426.06495847503174	426.6732962534734	0.6083377784416371	n/a	n/a	n/a	n/a
384.41943359375	0.2	787291	342	80	3	0	0	55	88	stimuli\Videos_short_600ms\9.single_touch_with_hammer_short_short_600ms.mp4	9.single_touch_with_hammer_short_short_600ms.mp4	426.8649782397515	427.4732790693124	0.6083008295609034	n/a	n/a	n/a	n/a
385.21923828125	0.2	788929	343	80	3	0	0	56	243	stimuli\Videos_short_600ms_horvertflip\67.single_touch_with_sponge_short_horvertflip_short_600ms.mp4	67.single_touch_with_sponge_short_horvertflip_short_600ms.mp4	427.6649211742588	428.27326041892593	0.6083392446671496	n/a	n/a	n/a	n/a
386.01904296875	0.2	790567	344	80	3	0	0	57	287	stimuli\Videos_short_600ms_vertflip\25.single_touch_with_stanley_knife_short_vertflip_short_600ms.mp4	25.single_touch_with_stanley_knife_short_vertflip_short_600ms.mp4	428.4649397659996	429.0732452874799	0.6083055214803608	n/a	n/a	n/a	n/a
386.8193359375	0.2	792206	345	80	3	0	0	58	123	stimuli\Videos_short_600ms_horflip\4.repeated_tap_with_finger_slow_short_horflip_short_600ms.mp4	4.repeated_tap_with_finger_slow_short_horflip_short_600ms.mp4	429.2648991222304	429.873228103319	0.6083289810885617	n/a	n/a	n/a	n/a
387.619140625	0.2	793844	346	80	3	0	0	59	181	stimuli\Videos_short_600ms_horvertflip\10.single_touch_with_knife_short_horvertflip_short_600ms.mp4	10.single_touch_with_knife_short_horvertflip_short_600ms.mp4	430.06498398735494	430.67321121240457	0.6082272250496317	n/a	n/a	n/a	n/a
388.4189453125	0.2	795482	347	80	3	0	0	60	227	stimuli\Videos_short_600ms_horvertflip\52.touch_top_to_bottom_with_hammer_short_horvertflip_short_600ms.mp4	52.touch_top_to_bottom_with_hammer_short_horvertflip_short_600ms.mp4	430.8648917324572	431.4731960809586	0.6083043485014059	n/a	n/a	n/a	n/a
389.21923828125	0.2	797121	348	80	3	0	0	61	241	stimuli\Videos_short_600ms_horvertflip\65.stroke_top_to_bottom_with_stanley_knife_short_horvertflip_short_600ms.mp4	65.stroke_top_to_bottom_with_stanley_knife_short_horvertflip_short_600ms.mp4	431.6649619353266	432.2731762575895	0.6082143222629384	n/a	n/a	n/a	n/a
390.01904296875	0.2	798759	349	80	3	0	1	62	360	stimuli\Targets_short_600ms\brush-stroke_short_short_600ms.mp4	brush-stroke_short_short_600ms.mp4	432.4648016475694	433.0731570207135	0.6083553731441498	n/a	n/a	n/a	n/a
390.8193359375	0.2	800398	350	80	3	0	0	63	71	stimuli\Videos_short_600ms\74.fingers_walking_from_top_to_bottom_short_short_600ms.mp4	74.fingers_walking_from_top_to_bottom_short_short_600ms.mp4	433.264810855464	433.87314570145463	0.6083348459906119	n/a	n/a	n/a	n/a
391.619140625	0.2	802036	351	80	3	0	0	64	338	stimuli\Videos_short_600ms_vertflip\71.single_stroke_with_finger_top_to_bottom_short_vertflip_short_600ms.mp4	71.single_stroke_with_finger_top_to_bottom_short_vertflip_short_600ms.mp4	434.06480334839216	434.6731326227237	0.6083292743314814	n/a	n/a	n/a	n/a
392.4189453125	0.2	803674	352	80	3	0	0	65	130	stimuli\Videos_short_600ms_horflip\46.scratching_top_to_bottom_with_finger_nails_short_horflip_short_600ms.mp4	46.scratching_top_to_bottom_with_finger_nails_short_horflip_short_600ms.mp4	434.86481783469935	435.473064120677	0.608246285977657	n/a	n/a	n/a	n/a
393.21923828125	0.2	805313	353	80	3	0	0	66	210	stimuli\Videos_short_600ms_horvertflip\37.single_stab_with_nail_file_short_horvertflip_short_600ms.mp4	37.single_stab_with_nail_file_short_horvertflip_short_600ms.mp4	435.66477396523624	436.2730789002271	0.6083049349908833	n/a	n/a	n/a	n/a
394.01904296875	0.2	806951	354	80	3	0	1	67	371	stimuli\Targets_short_600ms_horflip\hand-stroke_short_horflip_short_600ms.mp4	hand-stroke_short_horflip_short_600ms.mp4	436.464720418684	437.07303239155954	0.6083119728755264	n/a	n/a	n/a	n/a
394.81884765625	0.2	808589	355	80	3	0	0	68	0	stimuli\Videos_short_600ms\1.repeated_touch_with_finger_fast_short_short_600ms.mp4	1.repeated_touch_with_finger_fast_short_short_600ms.mp4	437.2647378374422	437.8730471711097	0.608309333667421	n/a	n/a	n/a	n/a
395.619140625	0.2	810228	356	80	3	0	0	69	82	stimuli\Videos_short_600ms\84.single_touch_with_cotton_bud_short_short_600ms.mp4	84.single_touch_with_cotton_bud_short_short_600ms.mp4	438.0647221195068	438.6730223625782	0.6083002430714259	n/a	n/a	n/a	n/a
396.4189453125	0.2	811866	357	80	3	0	0	70	13	stimuli\Videos_short_600ms\21.repeated_touch_with_metal_chopstick_short_short_600ms.mp4	21.repeated_touch_with_metal_chopstick_short_short_600ms.mp4	438.8647034691203	439.4730353826599	0.6083319135395868	n/a	n/a	n/a	n/a
397.21875	0.2	813504	358	80	3	0	1	71	371	stimuli\Targets_short_600ms_horflip\hand-stroke_short_horflip_short_600ms.mp4	hand-stroke_short_horflip_short_600ms.mp4	439.66465520098063	440.27301028088186	0.6083550799012301	n/a	n/a	n/a	n/a
398.01904296875	0.2	815143	359	80	3	0	0	72	97	stimuli\Videos_short_600ms_horflip\16.repeated_touch_with_plastic_brush_short_horflip_short_600ms.mp4	16.repeated_touch_with_plastic_brush_short_horflip_short_600ms.mp4	440.46503770985146	441.0729925102278	0.6079548003763193	n/a	n/a	n/a	n/a
