onset	duration	onsetsample	eventnumber	subjectnr	sequencenumber	blocksequencenumber	istarget	presentationnumber	stimnumber	stim	stimname	time_stimon	time_stimoff	stimdur	cresp	resp	rt	correct
0.2138671875	0.2	438	0	63	0	0	0	0	277	stimuli\Videos_short_600ms_vertflip\16.repeated_touch_with_plastic_brush_short_vertflip_short_600ms.mp4	16.repeated_touch_with_plastic_brush_short_vertflip_short_600ms.mp4	58.5969302429512	59.2052504510857	0.6083202081345007				
1.01416015625	0.2	2077	1	63	0	0	0	1	175	stimuli\Videos_short_600ms_horflip\87.single_stroke_top_to_bottom_with_plastic_brush_short_horflip_short_600ms.mp4	87.single_stroke_top_to_bottom_with_plastic_brush_short_horflip_short_600ms.mp4	59.39691452496936	60.00523678582522	0.6083222608558572				
1.81396484375	0.2	3715	2	63	0	0	0	2	267	stimuli\Videos_short_600ms_horvertflip\89.single_touch_with_plastic_brush_short_horvertflip_short_600ms.mp4	89.single_touch_with_plastic_brush_short_horvertflip_short_600ms.mp4	60.19688033249395	60.80522429354869	0.608343961054743				
2.61376953125	0.2	5353	3	63	0	0	0	3	218	stimuli\Videos_short_600ms_horvertflip\44.pushing_top_to_bottom_with_finger_short_horvertflip_short_600ms.mp4	44.pushing_top_to_bottom_with_finger_short_horvertflip_short_600ms.mp4	60.99688690120274	61.60520974855035	0.6083228473476083				
3.4140625	0.2	6992	4	63	0	0	0	4	352	stimuli\Videos_short_600ms_vertflip\84.single_touch_with_cotton_bud_short_vertflip_short_600ms.mp4	84.single_touch_with_cotton_bud_short_vertflip_short_600ms.mp4	61.79686854400779	62.40519461706026	0.6083260730524671				
4.2138671875	0.2	8630	5	63	0	0	0	5	154	stimuli\Videos_short_600ms_horflip\68.stroke_top_to_bottom_with_shawl_short_horflip_short_600ms.mp4	68.stroke_top_to_bottom_with_shawl_short_horflip_short_600ms.mp4	62.59686162340358	63.20517977881627	0.6083181554126895				
5.013671875	0.2	10268	6	63	0	0	0	6	329	stimuli\Videos_short_600ms_vertflip\63.stroke_top_to_bottom_with_screwdriver_short_vertflip_short_600ms.mp4	63.stroke_top_to_bottom_with_screwdriver_short_vertflip_short_600ms.mp4	63.39681804705833	64.00516523381839	0.6083471867600565				
5.81396484375	0.2	11907	7	63	0	0	0	7	336	stimuli\Videos_short_600ms_vertflip\7.repeated_touch_with_hairbrush_short_vertflip_short_600ms.mp4	7.repeated_touch_with_hairbrush_short_vertflip_short_600ms.mp4	64.19692578561308	64.8051501023283	0.6082243167152228				
6.61376953125	0.2	13545	8	63	0	0	0	8	92	stimuli\Videos_short_600ms_horflip\11.single_touch_with_lighter_short_horflip_short_600ms.mp4	11.single_touch_with_lighter_short_horflip_short_600ms.mp4	64.99679687470234	65.60513526408431	0.60833838938197				
7.41357421875	0.2	15183	9	63	0	0	1	9	381	stimuli\Targets_short_600ms_vertflip\finger-tap_short_horvertflip_short_600ms.mp4	finger-tap_short_horvertflip_short_600ms.mp4	65.7968057893786	66.40512746374225	0.6083216743636513				
8.2138671875	0.2	16822	10	63	0	0	0	10	114	stimuli\Videos_short_600ms_horflip\31.hand_grabbing_wrist_short_horflip_short_600ms.mp4	31.hand_grabbing_wrist_short_horflip_short_600ms.mp4	66.59678625919969	67.20510822680944	0.6083219676097542				
9.013671875	0.2	18460	11	63	0	0	0	11	108	stimuli\Videos_short_600ms_horflip\26.single_touch_with_a_blunt_syringe_short_horflip_short_600ms.mp4	26.single_touch_with_a_blunt_syringe_short_horflip_short_600ms.mp4	67.39677611289017	68.00510189269744	0.6083257798072736				
9.8134765625	0.2	20098	12	63	0	0	0	12	199	stimuli\Videos_short_600ms_horvertflip\27.single_push_with_a_plastic_whisk_short_horvertflip_short_600ms.mp4	27.single_push_with_a_plastic_whisk_short_horvertflip_short_600ms.mp4	68.1967545299899	68.80507884356712	0.6083243135772136				
10.61376953125	0.2	21737	13	63	0	0	0	13	257	stimuli\Videos_short_600ms_horvertflip\8.single_touch_with_hairbrush_short_horvertflip_short_600ms.mp4	8.single_touch_with_hairbrush_short_horvertflip_short_600ms.mp4	68.99674321069688	69.60506077961782	0.6083175689209384				
11.41357421875	0.2	23375	14	63	0	0	0	14	203	stimuli\Videos_short_600ms_horvertflip\30.finger_pulling_back_another_finger_short_horvertflip_short_600ms.mp4	30.finger_pulling_back_another_finger_short_horvertflip_short_600ms.mp4	69.79672749271504	70.40505356576796	0.6083260730529219				
12.21337890625	0.2	25013	15	63	0	0	0	15	32	stimuli\Videos_short_600ms\39.single_stab_with_scissors_short_short_600ms.mp4	39.single_stab_with_scissors_short_short_600ms.mp4	70.59671236122495	71.20503550181866	0.6083231405937113				
13.013671875	0.2	26652	16	63	0	0	0	16	134	stimuli\Videos_short_600ms_horflip\5.repeated_tap_with_finger_moving_from_top_to_bottom_short_horflip_short_600ms.mp4	5.repeated_tap_with_finger_moving_from_top_to_bottom_short_horflip_short_600ms.mp4	71.39669605675135	72.00502740823094	0.6083313514795918				
13.8134765625	0.2	28290	17	63	0	0	0	17	50	stimuli\Videos_short_600ms\55.touch_top_to_bottom_with_nail_file_short_short_600ms.mp4	55.touch_top_to_bottom_with_nail_file_short_short_600ms.mp4	72.19670761064117	72.80500582533068	0.608298214689512				
14.61328125	0.2	29928	18	63	0	0	0	18	3	stimuli\Videos_short_600ms\12.repeated_touch_with_nail_file_short_short_600ms.mp4	12.repeated_touch_with_nail_file_short_short_600ms.mp4	72.99666696675513	73.60500271692354	0.6083357501684077				
15.41357421875	0.2	31567	19	63	0	0	0	19	229	stimuli\Videos_short_600ms_horvertflip\54.repeated_touch_with_knife_short_horvertflip_short_600ms.mp4	54.repeated_touch_with_knife_short_horvertflip_short_600ms.mp4	73.79665066228154	74.40497908130146	0.6083284190199265				
16.21337890625	0.2	33205	20	63	0	0	0	20	183	stimuli\Videos_short_600ms_horvertflip\12.repeated_touch_with_nail_file_short_horvertflip_short_600ms.mp4	12.repeated_touch_with_nail_file_short_horvertflip_short_600ms.mp4	74.59664139570987	75.20496482954923	0.6083234338393595				
17.013671875	0.2	34844	21	63	0	0	0	21	340	stimuli\Videos_short_600ms_vertflip\73.single_stroke_with_flat_hand_short_vertflip_short_600ms.mp4	73.single_stroke_with_flat_hand_short_vertflip_short_600ms.mp4	75.3966822741927	76.00494911156738	0.6082668373746856				
17.8134765625	0.2	36482	22	63	0	0	0	22	65	stimuli\Videos_short_600ms\69.stroke_with_soft_sock_short_short_600ms.mp4	69.stroke_with_soft_sock_short_short_600ms.mp4	76.19661875712427	76.80493984499617	0.6083210878719001				
18.61328125	0.2	38120	23	63	0	0	0	23	156	stimuli\Videos_short_600ms_horflip\7.repeated_touch_with_hairbrush_short_horflip_short_600ms.mp4	7.repeated_touch_with_hairbrush_short_horflip_short_600ms.mp4	76.99657283481156	77.60491855534156	0.6083457205299965				
19.41357421875	0.2	39759	24	63	0	0	1	24	382	stimuli\Targets_short_600ms_vertflip\hand-pinch_short_horvertflip_short_600ms.mp4	hand-pinch_short_horvertflip_short_600ms.mp4	77.79658380220917	78.40490606306503	0.6083222608558572				
20.21337890625	0.2	41397	25	63	0	0	0	25	292	stimuli\Videos_short_600ms_vertflip\3.single_push_with_finger_short_vertflip_short_600ms.mp4	3.single_push_with_finger_short_vertflip_short_600ms.mp4	78.59654667727455	79.20489005183708	0.6083433745625371				
21.01318359375	0.2	43035	26	63	0	0	0	26	41	stimuli\Videos_short_600ms\47.(long)scratching_with_finger_nails_short_short_600ms.mp4	47.(long)scratching_with_finger_nails_short_short_600ms.mp4	79.39656145686922	80.00487873254406	0.6083172756748354				
21.8134765625	0.2	44674	27	63	0	0	0	27	145	stimuli\Videos_short_600ms_horflip\6.single_touch_with_flat_hand_short_horflip_short_600ms.mp4	6.single_touch_with_flat_hand_short_horflip_short_600ms.mp4	80.19652081298318	80.80486477403792	0.608343961054743				
22.61328125	0.2	46312	28	63	0	0	0	28	356	stimuli\Videos_short_600ms_vertflip\88.repeated_stroke_with_plastic_brush_short_vertflip_short_600ms.mp4	88.repeated_stroke_with_plastic_brush_short_vertflip_short_600ms.mp4	80.99652591546237	81.60485081553179	0.6083249000694195				
23.4130859375	0.2	47950	29	63	0	0	0	29	180	stimuli\Videos_short_600ms_horvertflip\1.repeated_touch_with_finger_fast_short_horvertflip_short_600ms.mp4	1.repeated_touch_with_finger_fast_short_horvertflip_short_600ms.mp4	81.79649377570877	82.40483480430385	0.6083410285950777				
24.21337890625	0.2	49589	30	63	0	0	0	30	309	stimuli\Videos_short_600ms_vertflip\45.scratching_with_finger_nails_short_vertflip_short_600ms.mp4	45.scratching_with_finger_nails_short_vertflip_short_600ms.mp4	82.5965079688117	83.20482553773263	0.6083175689209384				
25.01318359375	0.2	51227	31	63	0	0	0	31	90	stimuli\Videos_short_600ms_horflip\1.repeated_touch_with_finger_fast_short_horflip_short_600ms.mp4	1.repeated_touch_with_finger_fast_short_horflip_short_600ms.mp4	83.39648462643572	84.00478049515777	0.6082958687220525				
25.81298828125	0.2	52865	32	63	0	0	0	32	271	stimuli\Videos_short_600ms_vertflip\10.single_touch_with_knife_short_vertflip_short_600ms.mp4	10.single_touch_with_knife_short_vertflip_short_600ms.mp4	84.19647829232326	84.80478647737436	0.6083081850511007				
26.61328125	0.2	54504	33	63	0	0	0	33	140	stimuli\Videos_short_600ms_horflip\55.touch_top_to_bottom_with_nail_file_short_horflip_short_600ms.mp4	55.touch_top_to_bottom_with_nail_file_short_horflip_short_600ms.mp4	84.99645084450458	85.60477838378665	0.6083275392820724				
27.4130859375	0.2	56142	34	63	0	0	0	34	77	stimuli\Videos_short_600ms\8.single_touch_with_hairbrush_short_short_600ms.mp4	8.single_touch_with_hairbrush_short_short_600ms.mp4	85.7964386454737	86.40476530501837	0.608326659544673				
28.212890625	0.2	57780	35	63	0	0	0	35	1	stimuli\Videos_short_600ms\10.single_touch_with_knife_short_short_600ms.mp4	10.single_touch_with_knife_short_short_600ms.mp4	86.59642292749186	87.20475603844716	0.6083331109553001				
29.01318359375	0.2	59419	36	63	0	0	0	36	184	stimuli\Videos_short_600ms_horvertflip\13.single_touch_with_pen_short_horvertflip_short_600ms.mp4	13.single_touch_with_pen_short_horvertflip_short_600ms.mp4	87.39638462957328	88.00473592177605	0.6083512922027694				
29.81298828125	0.2	61057	37	63	0	0	0	37	217	stimuli\Videos_short_600ms_horvertflip\43.touch_top_to_bottom_with_sharp_wooden_stick_short_horvertflip_short_600ms.mp4	43.touch_top_to_bottom_with_sharp_wooden_stick_short_horvertflip_short_600ms.mp4	88.19640058215191	88.80472049704031	0.6083199148883978				
30.61279296875	0.2	62695	38	63	0	0	0	38	173	stimuli\Videos_short_600ms_horflip\85.touch_top_to_bottom_with_fabric_short_horflip_short_600ms.mp4	85.touch_top_to_bottom_with_fabric_short_horflip_short_600ms.mp4	88.99637870600554	89.60470683177982	0.6083281257742783				
31.4130859375	0.2	64334	39	63	0	0	0	39	85	stimuli\Videos_short_600ms\87.single_stroke_top_to_bottom_with_plastic_brush_short_short_600ms.mp4	87.single_stroke_top_to_bottom_with_plastic_brush_short_short_600ms.mp4	89.79636445425331	90.40464683366235	0.6082823794090473				
32.212890625	0.2	65972	40	63	0	0	0	40	241	stimuli\Videos_short_600ms_horvertflip\65.stroke_top_to_bottom_with_stanley_knife_short_horvertflip_short_600ms.mp4	65.stroke_top_to_bottom_with_stanley_knife_short_horvertflip_short_600ms.mp4	90.59635196197678	91.20467510257004	0.6083231405932565				
33.0126953125	0.2	67610	41	63	0	0	0	41	301	stimuli\Videos_short_600ms_vertflip\38.double_slap_with_pencil_short_vertflip_short_600ms.mp4	38.double_slap_with_pencil_short_vertflip_short_600ms.mp4	91.39655236624549	92.00466378327746	0.6081114170319779				
33.81298828125	0.2	69249	42	63	0	0	0	42	195	stimuli\Videos_short_600ms_horvertflip\23.single_push_with_a_spoon_short_horvertflip_short_600ms.mp4	23.single_push_with_a_spoon_short_horvertflip_short_600ms.mp4	92.19641172549746	92.80464865178736	0.6082369262899192				
34.61279296875	0.2	70887	43	63	0	0	0	43	21	stimuli\Videos_short_600ms\29.single_pinch_with_tweezers_short_short_600ms.mp4	29.single_pinch_with_tweezers_short_short_600ms.mp4	92.9962948376692	93.60463352029728	0.608338682628073				
35.4130859375	0.2	72526	44	63	0	0	0	44	182	stimuli\Videos_short_600ms_horvertflip\11.single_touch_with_lighter_short_horvertflip_short_600ms.mp4	11.single_touch_with_lighter_short_horvertflip_short_600ms.mp4	93.79627354801504	94.4046198550368	0.6083463070217476				
36.212890625	0.2	74164	45	63	0	0	0	45	129	stimuli\Videos_short_600ms_horflip\45.scratching_with_finger_nails_short_horflip_short_600ms.mp4	45.scratching_with_finger_nails_short_horflip_short_600ms.mp4	94.59626046924632	95.20460765600636	0.6083471867600565				
37.0126953125	0.2	75802	46	63	0	0	0	46	103	stimuli\Videos_short_600ms_horflip\21.repeated_touch_with_metal_chopstick_short_horflip_short_600ms.mp4	21.repeated_touch_with_metal_chopstick_short_horflip_short_600ms.mp4	95.39626469198764	96.00459223127018	0.6083275392825271				
37.81298828125	0.2	77441	47	63	0	0	0	47	344	stimuli\Videos_short_600ms_vertflip\77.tapping_with_all_fingers_short_vertflip_short_600ms.mp4	77.tapping_with_all_fingers_short_vertflip_short_600ms.mp4	96.1963102624054	96.804581791715	0.6082715293096044				
38.61279296875	0.2	79079	48	63	0	0	0	48	273	stimuli\Videos_short_600ms_vertflip\12.repeated_touch_with_nail_file_short_vertflip_short_600ms.mp4	12.repeated_touch_with_nail_file_short_vertflip_short_600ms.mp4	96.99624557235302	97.60455932907688	0.6083137567238737				
39.41259765625	0.2	80717	49	63	0	0	0	49	258	stimuli\Videos_short_600ms_horvertflip\80.stroke_with_sharp_stick_all_over_the_hand_short_horvertflip_short_600ms.mp4	80.stroke_with_sharp_stick_all_over_the_hand_short_horvertflip_short_600ms.mp4	97.79626445739086	98.40452044466656	0.6082559872756974				
40.212890625	0.2	82356	50	63	0	0	0	50	242	stimuli\Videos_short_600ms_horvertflip\66.stroke_top_to_bottom_with_sponge_short_horvertflip_short_600ms.mp4	66.stroke_top_to_bottom_with_sponge_short_horvertflip_short_600ms.mp4	98.59620827147091	99.20451411055456	0.6083058390836413				
41.0126953125	0.2	83994	51	63	0	0	0	51	18	stimuli\Videos_short_600ms\26.single_touch_with_a_blunt_syringe_short_short_600ms.mp4	26.single_touch_with_a_blunt_syringe_short_short_600ms.mp4	99.39621102798264	100.00452009277114	0.6083090647885001				
41.8125	0.2	85632	52	63	0	0	1	52	367	stimuli\Targets_short_600ms_horflip\chopstick-silver-tap_short_horflip_short_600ms.mp4	chopstick-silver-tap_short_horflip_short_600ms.mp4	100.1961815274417	100.80450202882184	0.6083205013801489				
42.61279296875	0.2	87271	53	63	0	0	0	53	354	stimuli\Videos_short_600ms_vertflip\86.touch_top_to_bottom_with_hair_brush_short_vertflip_short_600ms.mp4	86.touch_top_to_bottom_with_hair_brush_short_vertflip_short_600ms.mp4	100.99616844867342	101.60449305549672	0.6083246068233166				
43.41259765625	0.2	88909	54	63	0	0	0	54	316	stimuli\Videos_short_600ms_vertflip\51.repeated_touch_with_hammer_short_vertflip_short_600ms.mp4	51.repeated_touch_with_hammer_short_vertflip_short_600ms.mp4	101.79611871416364	102.40450548912396	0.6083867749603087				
44.21240234375	0.2	90547	55	63	0	0	0	55	179	stimuli\Videos_short_600ms_horflip\90.repeated_touch_with_sponge_short_horflip_short_600ms.mp4	90.repeated_touch_with_sponge_short_horflip_short_600ms.mp4	102.59614141139856	103.20447100340245	0.6083295920038836				
45.0126953125	0.2	92186	56	63	0	0	0	56	132	stimuli\Videos_short_600ms_horflip\48.single_slap_with_hand_short_horflip_short_600ms.mp4	48.single_slap_with_hand_short_horflip_short_600ms.mp4	103.3961227609575	104.0044482475182	0.608325486560716				
45.8125	0.2	93824	57	63	0	0	0	57	207	stimuli\Videos_short_600ms_horvertflip\34.repeated_punch_with_hand_short_horvertflip_short_600ms.mp4	34.repeated_punch_with_hand_short_horvertflip_short_600ms.mp4	104.19610821595916	104.80443223629072	0.6083240203315654				
46.6123046875	0.2	95462	58	63	0	0	0	58	106	stimuli\Videos_short_600ms_horflip\24.single_stroke_top_to_bottom_with_a_spoon_short_horflip_short_600ms.mp4	24.single_stroke_top_to_bottom_with_a_spoon_short_horflip_short_600ms.mp4	104.996154079623	105.6044212102438	0.6082671306207885				
47.41259765625	0.2	97101	59	63	0	0	0	59	230	stimuli\Videos_short_600ms_horvertflip\55.touch_top_to_bottom_with_nail_file_short_horvertflip_short_600ms.mp4	55.touch_top_to_bottom_with_nail_file_short_horvertflip_short_600ms.mp4	105.79608293816	106.40440607875372	0.6083231405937113				
48.21240234375	0.2	98739	60	63	0	0	0	60	279	stimuli\Videos_short_600ms_vertflip\18.single_stroke_from_top_to_bottom_with_rolling_pin_short_vertflip_short_600ms.mp4	18.single_stroke_from_top_to_bottom_with_rolling_pin_short_vertflip_short_600ms.mp4	106.59606692693252	107.20439358647718	0.608326659544673				
49.01220703125	0.2	100377	61	63	0	0	0	61	9	stimuli\Videos_short_600ms\18.single_stroke_from_top_to_bottom_with_rolling_pin_short_short_600ms.mp4	18.single_stroke_from_top_to_bottom_with_rolling_pin_short_short_600ms.mp4	107.3960497427206	108.00436056698528	0.6083108242646631				
49.8125	0.2	102016	62	63	0	0	0	62	147	stimuli\Videos_short_600ms_horflip\61.single_hit_with_rolling_pin_short_horflip_short_600ms.mp4	61.single_hit_with_rolling_pin_short_horflip_short_600ms.mp4	108.19602493411504	108.80436244375916	0.6083375096441159				
50.6123046875	0.2	103654	63	63	0	0	0	63	121	stimuli\Videos_short_600ms_horflip\38.double_slap_with_pencil_short_horflip_short_600ms.mp4	38.double_slap_with_pencil_short_horflip_short_600ms.mp4	108.9960109756089	109.60434877849866	0.6083378028897641				
51.412109375	0.2	105292	64	63	0	0	1	64	376	stimuli\Targets_short_600ms_horvertflip\hand-pinch_short_vertflip_short_600ms.mp4	hand-pinch_short_vertflip_short_600ms.mp4	109.79602340923611	110.40433218077897	0.6083087715428519				
52.21240234375	0.2	106931	65	63	0	0	0	65	250	stimuli\Videos_short_600ms_horvertflip\73.single_stroke_with_flat_hand_short_horvertflip_short_600ms.mp4	73.single_stroke_with_flat_hand_short_horvertflip_short_600ms.mp4	110.59597338148068	111.2043208614864	0.6083474800057047				
53.01220703125	0.2	108569	66	63	0	0	0	66	228	stimuli\Videos_short_600ms_horvertflip\53.touch_top_to_bottom_with_knife_short_horvertflip_short_600ms.mp4	53.touch_top_to_bottom_with_knife_short_horvertflip_short_600ms.mp4	111.39600223688012	112.00431159491472	0.6083093580346031				
53.81201171875	0.2	110207	67	63	0	0	0	67	148	stimuli\Videos_short_600ms_horflip\62.touch_top_to_bottom_with_scissors_short_horflip_short_600ms.mp4	62.touch_top_to_bottom_with_scissors_short_horflip_short_600ms.mp4	112.1959692173882	112.80428678630916	0.6083175689209384				
54.6123046875	0.2	111846	68	63	0	0	0	68	127	stimuli\Videos_short_600ms_horflip\43.touch_top_to_bottom_with_sharp_wooden_stick_short_horflip_short_600ms.mp4	43.touch_top_to_bottom_with_sharp_wooden_stick_short_horflip_short_600ms.mp4	112.9959394236016	113.6042575790143	0.6083181554126895				
55.412109375	0.2	113484	69	63	0	0	0	69	104	stimuli\Videos_short_600ms_horflip\22.single_touch_with_metal_chopstick_short_horflip_short_600ms.mp4	22.single_touch_with_metal_chopstick_short_horflip_short_600ms.mp4	113.79593748817842	114.40423775558976	0.6083002674113231				
56.21240234375	0.2	115123	70	63	0	0	0	70	161	stimuli\Videos_short_600ms_horflip\74.fingers_walking_from_top_to_bottom_short_horflip_short_600ms.mp4	74.fingers_walking_from_top_to_bottom_short_horflip_short_600ms.mp4	114.59593056757468	115.20422438357537	0.6082938160006961				
57.01220703125	0.2	116761	71	63	0	0	0	71	133	stimuli\Videos_short_600ms_horflip\49.repeated_slap_with_hand_short_horflip_short_600ms.mp4	49.repeated_slap_with_hand_short_horflip_short_600ms.mp4	115.39590957116616	116.0042283130706	0.6083187419044407				
57.81201171875	0.2	118399	72	63	0	0	0	72	42	stimuli\Videos_short_600ms\48.single_slap_with_hand_short_short_600ms.mp4	48.single_slap_with_hand_short_short_600ms.mp4	116.19596716466684	116.8042246181717	0.608257453504848				
58.6123046875	0.2	120038	73	63	0	0	1	73	368	stimuli\Targets_short_600ms_horflip\chopstickwood-tap_short_horflip_short_600ms.mp4	chopstickwood-tap_short_horflip_short_600ms.mp4	116.99588341362914	117.60421505835438	0.60833164472524				
59.412109375	0.2	121676	74	63	0	0	0	74	75	stimuli\Videos_short_600ms\78.single_stroke_top_to_bottom_with_soft_brush_short_short_600ms.mp4	78.single_stroke_top_to_bottom_with_soft_brush_short_short_600ms.mp4	117.79584951439938	118.40420285932396	0.6083533449245806				
60.2119140625	0.2	123314	75	63	0	0	0	75	165	stimuli\Videos_short_600ms_horflip\78.single_stroke_top_to_bottom_with_soft_brush_short_horflip_short_600ms.mp4	78.single_stroke_top_to_bottom_with_soft_brush_short_horflip_short_600ms.mp4	118.59584845871404	119.204179516948	0.6083310582339436				
61.01220703125	0.2	124953	76	63	0	0	0	76	337	stimuli\Videos_short_600ms_vertflip\70.(long)stroke_with_finger_all_over_the_hand_short_vertflip_short_600ms.mp4	70.(long)stroke_with_finger_all_over_the_hand_short_vertflip_short_600ms.mp4	119.39584065837244	120.0041769950326	0.6083363366601588				
61.81201171875	0.2	126591	77	63	0	0	0	77	333	stimuli\Videos_short_600ms_vertflip\67.single_touch_with_sponge_short_vertflip_short_600ms.mp4	67.single_touch_with_sponge_short_vertflip_short_600ms.mp4	120.19582288766878	120.8041489607217	0.6083260730529219				
62.61181640625	0.2	128229	78	63	0	0	0	78	191	stimuli\Videos_short_600ms_horvertflip\2.single_touch_with_finger_short_horvertflip_short_600ms.mp4	2.single_touch_with_finger_short_horvertflip_short_600ms.mp4	120.99581215486796	121.60413470896948	0.6083225541015054				
63.412109375	0.2	129868	79	63	0	0	0	79	39	stimuli\Videos_short_600ms\45.scratching_with_finger_nails_short_short_600ms.mp4	45.scratching_with_finger_nails_short_short_600ms.mp4	121.79579262468906	122.40411840449588	0.6083257798068189				
64.2119140625	0.2	131506	80	63	0	0	0	80	12	stimuli\Videos_short_600ms\20.single_touch_with_screwdriver_short_short_600ms.mp4	20.single_touch_with_screwdriver_short_short_600ms.mp4	122.59598423158012	123.20410591221936	0.6081216806392149				
65.01171875	0.2	133144	81	63	0	0	1	81	373	stimuli\Targets_short_600ms_horvertflip\chopstick-silver-tap_short_vertflip_short_600ms.mp4	chopstick-silver-tap_short_vertflip_short_600ms.mp4	123.39574476695316	124.00409078072926	0.6083460137760994				
65.81201171875	0.2	134783	82	63	0	0	0	82	296	stimuli\Videos_short_600ms_vertflip\33.scratch_top_to_bottom_with_scissors_short_vertflip_short_600ms.mp4	33.scratch_top_to_bottom_with_scissors_short_vertflip_short_600ms.mp4	124.19578359271418	124.80407887494448	0.6082952822303014				
66.61181640625	0.2	136421	83	63	0	0	1	83	375	stimuli\Targets_short_600ms_horvertflip\finger-tap_short_vertflip_short_600ms.mp4	finger-tap_short_vertflip_short_600ms.mp4	124.9957452947956	125.60406491643836	0.6083196216427496				
67.41162109375	0.2	138059	84	63	0	0	0	84	63	stimuli\Videos_short_600ms\67.single_touch_with_sponge_short_short_600ms.mp4	67.single_touch_with_sponge_short_short_600ms.mp4	125.79577180422802	126.40404978494826	0.6082779807202314				
68.2119140625	0.2	139698	85	63	0	0	1	85	371	stimuli\Targets_short_600ms_horflip\hand-stroke_short_horflip_short_600ms.mp4	hand-stroke_short_horflip_short_600ms.mp4	126.59572676165315	127.2040340669664	0.6083073053132466				
69.01171875	0.2	141336	86	63	0	0	0	86	163	stimuli\Videos_short_600ms_horflip\76.tickle_with_fingers_from_top_to_bottom_short_horflip_short_600ms.mp4	76.tickle_with_fingers_from_top_to_bottom_short_horflip_short_600ms.mp4	127.39572599921348	128.0040227476734	0.6082967484599067				
69.8115234375	0.2	142974	87	63	0	0	0	87	231	stimuli\Videos_short_600ms_horvertflip\56.repeated_touch_with_nail_file_short_horvertflip_short_600ms.mp4	56.repeated_touch_with_nail_file_short_horvertflip_short_600ms.mp4	128.1956997243783	128.8040046837241	0.6083049593457872				
70.611328125	0.2	144612	88	63	0	0	0	88	287	stimuli\Videos_short_600ms_vertflip\25.single_touch_with_stanley_knife_short_vertflip_short_600ms.mp4	25.single_touch_with_stanley_knife_short_vertflip_short_600ms.mp4	128.99567755498583	129.6039869130209	0.6083093580350578				
71.41162109375	0.2	146251	89	63	0	0	0	89	112	stimuli\Videos_short_600ms_horflip\3.single_push_with_finger_short_horflip_short_600ms.mp4	3.single_push_with_finger_short_horflip_short_600ms.mp4	129.7958556725639	130.4039732477604	0.608117575196502				
72.21142578125	0.2	147889	90	63	0	0	0	90	30	stimuli\Videos_short_600ms\37.single_stab_with_nail_file_short_short_600ms.mp4	37.single_stab_with_nail_file_short_short_600ms.mp4	130.59569743706015	131.2039666204023	0.608269183342145				
73.01123046875	0.2	149527	91	63	0	0	0	91	164	stimuli\Videos_short_600ms_horflip\77.tapping_with_all_fingers_short_horflip_short_600ms.mp4	77.tapping_with_all_fingers_short_horflip_short_600ms.mp4	131.39562834831895	132.0039467969773	0.6083184486583377				
73.8115234375	0.2	151166	92	63	0	0	0	92	283	stimuli\Videos_short_600ms_vertflip\21.repeated_touch_with_metal_chopstick_short_vertflip_short_600ms.mp4	21.repeated_touch_with_metal_chopstick_short_vertflip_short_600ms.mp4	132.1956138033206	132.80393577093037	0.6083219676097542				
74.611328125	0.2	152804	93	63	0	0	0	93	247	stimuli\Videos_short_600ms_horvertflip\70.(long)stroke_with_finger_all_over_the_hand_short_horvertflip_short_600ms.mp4	70.(long)stroke_with_finger_all_over_the_hand_short_horvertflip_short_600ms.mp4	132.99562154501336	133.60392767734265	0.6083061323292895				
75.41162109375	0.2	154443	94	63	0	0	0	94	98	stimuli\Videos_short_600ms_horflip\17.repeated_touch_with_rolling_pin_short_horflip_short_600ms.mp4	17.repeated_touch_with_rolling_pin_short_horflip_short_600ms.mp4	133.79558999175106	134.4039090269016	0.6083190351505436				
76.21142578125	0.2	156081	95	63	0	0	0	95	101	stimuli\Videos_short_600ms_horflip\2.single_touch_with_finger_short_horflip_short_600ms.mp4	2.single_touch_with_finger_short_horflip_short_600ms.mp4	134.5955710480639	135.2039009333139	0.6083298852499865				
77.01123046875	0.2	157719	96	63	0	0	0	96	264	stimuli\Videos_short_600ms_horvertflip\86.touch_top_to_bottom_with_hair_brush_short_horvertflip_short_600ms.mp4	86.touch_top_to_bottom_with_hair_brush_short_horvertflip_short_600ms.mp4	135.39558700064254	136.00387847067577	0.6082914700332367				
77.8115234375	0.2	159358	97	63	0	0	0	97	55	stimuli\Videos_short_600ms\6.single_touch_with_flat_hand_short_short_600ms.mp4	6.single_touch_with_flat_hand_short_short_600ms.mp4	136.19551263347466	136.80386421892354	0.6083515854488724	8.0	8.0	2.84561657449467	1.0
106.2353515625	0.2	217570	98	63	1	0	0	0	351	stimuli\Videos_short_600ms_vertflip\83.single_stroke_top_to_bottom_with_cotton_bud_short_vertflip_short_600ms.mp4	83.single_stroke_top_to_bottom_with_cotton_bud_short_vertflip_short_600ms.mp4	172.61987116533282	173.22818550854845	0.6083143432156248				
107.03564453125	0.2	219209	99	63	1	0	0	1	274	stimuli\Videos_short_600ms_vertflip\13.single_touch_with_pen_short_vertflip_short_600ms.mp4	13.single_touch_with_pen_short_vertflip_short_600ms.mp4	173.41990324643805	174.02814984984343	0.608246603405405				
107.83544921875	0.2	220847	100	63	1	0	0	2	94	stimuli\Videos_short_600ms_horflip\13.single_touch_with_pen_short_horflip_short_600ms.mp4	13.single_touch_with_pen_short_horflip_short_600ms.mp4	174.2198699337	174.82818251743993	0.6083125837399166				
108.63525390625	0.2	222485	101	63	1	0	0	3	208	stimuli\Videos_short_600ms_horvertflip\35.single_punch_with_hand_short_horvertflip_short_600ms.mp4	35.single_punch_with_hand_short_horvertflip_short_600ms.mp4	175.01986008063705	175.62816679945809	0.6083067188210407				
109.435546875	0.2	224124	102	63	1	0	0	4	291	stimuli\Videos_short_600ms_vertflip\29.single_pinch_with_tweezers_short_vertflip_short_600ms.mp4	29.single_pinch_with_tweezers_short_vertflip_short_600ms.mp4	175.81983556527712	176.42815899911648	0.6083234338393595				
110.2353515625	0.2	225762	103	63	1	0	0	5	69	stimuli\Videos_short_600ms\72.(short)stroke_with_finger_all_over_the_hand_short_short_600ms.mp4	72.(short)stroke_with_finger_all_over_the_hand_short_short_600ms.mp4	176.62025179855073	177.22814122841328	0.6078894298625528				
111.03564453125	0.2	227401	104	63	1	0	0	6	28	stimuli\Videos_short_600ms\35.single_punch_with_hand_short_short_600ms.mp4	35.single_punch_with_hand_short_short_600ms.mp4	177.4198328674147	178.028114660332	0.6082817929172961				
111.83544921875	0.2	229039	105	63	1	0	0	7	305	stimuli\Videos_short_600ms_vertflip\41.injection_with_blunt_syringe_short_vertflip_short_600ms.mp4	41.injection_with_blunt_syringe_short_vertflip_short_600ms.mp4	178.2197895843151	178.82811595061412	0.6083263662990248				
112.63525390625	0.2	230677	106	63	1	0	0	8	67	stimuli\Videos_short_600ms\70.(long)stroke_with_finger_all_over_the_hand_short_short_600ms.mp4	70.(long)stroke_with_finger_all_over_the_hand_short_short_600ms.mp4	179.01977679879246	179.62810228535363	0.6083254865611707				
113.435546875	0.2	232316	107	63	1	0	0	9	137	stimuli\Videos_short_600ms_horflip\52.touch_top_to_bottom_with_hammer_short_horflip_short_600ms.mp4	52.touch_top_to_bottom_with_hammer_short_horflip_short_600ms.mp4	179.81976196054848	180.42809477825767	0.6083328177091971				
114.2353515625	0.2	233954	108	63	1	0	0	10	113	stimuli\Videos_short_600ms_horflip\30.finger_pulling_back_another_finger_short_horflip_short_600ms.mp4	30.finger_pulling_back_another_finger_short_horflip_short_600ms.mp4	180.6197518142394	181.2280714358817	0.6083196216422948				
115.03515625	0.2	235592	109	63	1	0	0	11	281	stimuli\Videos_short_600ms_vertflip\2.single_touch_with_finger_short_vertflip_short_600ms.mp4	2.single_touch_with_finger_short_vertflip_short_600ms.mp4	181.4197102906155	182.0280592368508	0.60834894623531				
115.83544921875	0.2	237231	110	63	1	0	0	12	24	stimuli\Videos_short_600ms\31.hand_grabbing_wrist_short_short_600ms.mp4	31.hand_grabbing_wrist_short_short_600ms.mp4	182.21969515912545	182.82804322562333	0.6083480664979106				
116.63525390625	0.2	238869	111	63	1	0	0	13	282	stimuli\Videos_short_600ms_vertflip\20.single_touch_with_screwdriver_short_vertflip_short_600ms.mp4	20.single_touch_with_screwdriver_short_vertflip_short_600ms.mp4	183.01970554003177	183.628028680625	0.6083231405932565				
117.43505859375	0.2	240507	112	63	1	0	0	14	174	stimuli\Videos_short_600ms_horflip\86.touch_top_to_bottom_with_hair_brush_short_horflip_short_600ms.mp4	86.touch_top_to_bottom_with_hair_brush_short_horflip_short_600ms.mp4	183.81969685995185	184.4280153086106	0.6083184486587925				
118.2353515625	0.2	242146	113	63	1	0	0	15	118	stimuli\Videos_short_600ms_horflip\35.single_punch_with_hand_short_horflip_short_600ms.mp4	35.single_punch_with_hand_short_horflip_short_600ms.mp4	184.61967820951077	185.22800222984233	0.6083240203315654				
119.03515625	0.2	243784	114	63	1	0	0	16	235	stimuli\Videos_short_600ms_horvertflip\6.single_touch_with_flat_hand_short_horvertflip_short_600ms.mp4	6.single_touch_with_flat_hand_short_horvertflip_short_600ms.mp4	185.41968155251425	186.02798827133577	0.6083067188214955				
119.8349609375	0.2	245422	115	63	1	0	0	17	119	stimuli\Videos_short_600ms_horflip\36.single_slap_with_full_hand_short_horflip_short_600ms.mp4	36.single_slap_with_full_hand_short_horflip_short_600ms.mp4	186.21968988069875	186.82797313984565	0.6082832591469014				
120.63525390625	0.2	247061	116	63	1	0	0	18	60	stimuli\Videos_short_600ms\64.repeated_touch_with_screwdriver_short_short_600ms.mp4	64.repeated_touch_with_screwdriver_short_short_600ms.mp4	187.01963398802445	187.62796064756913	0.608326659544673				
121.43505859375	0.2	248699	117	63	1	0	0	19	322	stimuli\Videos_short_600ms_vertflip\57.single_touch_with_nail_file_short_vertflip_short_600ms.mp4	57.single_touch_with_nail_file_short_vertflip_short_600ms.mp4	187.81962120250185	188.42794434309553	0.6083231405937113				
122.23486328125	0.2	250337	118	63	1	0	0	20	97	stimuli\Videos_short_600ms_horflip\16.repeated_touch_with_plastic_brush_short_horflip_short_600ms.mp4	16.repeated_touch_with_plastic_brush_short_horflip_short_600ms.mp4	188.61960988320925	189.2278893301591	0.6082794469498367				
123.03515625	0.2	251976	119	63	1	0	0	21	272	stimuli\Videos_short_600ms_vertflip\11.single_touch_with_lighter_short_vertflip_short_600ms.mp4	11.single_touch_with_lighter_short_vertflip_short_600ms.mp4	189.41957011906104	190.0278906204412	0.6083205013801489				
123.8349609375	0.2	253614	120	63	1	0	0	22	190	stimuli\Videos_short_600ms_horvertflip\19.single_touch_with_rolling_pin_short_horvertflip_short_600ms.mp4	19.single_touch_with_rolling_pin_short_horvertflip_short_600ms.mp4	190.21962565983995	190.82787666193465	0.6082510020946756				
124.634765625	0.2	255252	121	63	1	0	0	23	6	stimuli\Videos_short_600ms\15.single_stroke_top_to_bottom_with_a_plastic_whisk_short_short_600ms.mp4	15.single_stroke_top_to_bottom_with_a_plastic_whisk_short_short_600ms.mp4	191.01957006041175	191.62786035746103	0.6082902970492796				
125.43505859375	0.2	256891	122	63	1	0	0	24	286	stimuli\Videos_short_600ms_vertflip\24.single_stroke_top_to_bottom_with_a_spoon_short_vertflip_short_600ms.mp4	24.single_stroke_top_to_bottom_with_a_spoon_short_vertflip_short_600ms.mp4	191.81955053023285	192.42784669220055	0.6082961619677008				
126.23486328125	0.2	258529	123	63	1	0	0	25	86	stimuli\Videos_short_600ms\88.repeated_stroke_with_plastic_brush_short_short_600ms.mp4	88.repeated_stroke_with_plastic_brush_short_short_600ms.mp4	192.6195362784806	193.22783654589148	0.6083002674108684				
127.03466796875	0.2	260167	124	63	1	0	0	26	215	stimuli\Videos_short_600ms_horvertflip\41.injection_with_blunt_syringe_short_horvertflip_short_600ms.mp4	41.injection_with_blunt_syringe_short_horvertflip_short_600ms.mp4	193.41952759840115	194.0278536714536	0.6083260730524671				
127.8349609375	0.2	261806	125	63	1	0	0	27	189	stimuli\Videos_short_600ms_horvertflip\18.single_stroke_from_top_to_bottom_with_rolling_pin_short_horvertflip_short_600ms.mp4	18.single_stroke_from_top_to_bottom_with_rolling_pin_short_horvertflip_short_600ms.mp4	194.21951539937027	194.82783766022612	0.6083222608558572				
128.634765625	0.2	263444	126	63	1	0	1	28	361	stimuli\Targets_short_600ms\chopstick-silver-tap_short_short_600ms.mp4	chopstick-silver-tap_short_short_600ms.mp4	195.01949381646955	195.62782428821177	0.6083304717421925				
129.4345703125	0.2	265082	127	63	1	0	0	29	143	stimuli\Videos_short_600ms_horflip\58.single_slap_with_pencil_short_horflip_short_600ms.mp4	58.single_slap_with_pencil_short_horflip_short_600ms.mp4	195.8196299998799	196.42780123908145	0.6081712392015106				
130.23486328125	0.2	266721	128	63	1	0	1	30	377	stimuli\Targets_short_600ms_horvertflip\hand-stroke_short_vertflip_short_600ms.mp4	hand-stroke_short_vertflip_short_600ms.mp4	196.61943892083173	197.22778640083743	0.6083474800057047				
131.03466796875	0.2	268359	129	63	1	0	0	31	162	stimuli\Videos_short_600ms_horflip\75.(long)stroke_with_fingers_all_over_the_hand_short_horflip_short_600ms.mp4	75.(long)stroke_with_fingers_all_over_the_hand_short_horflip_short_600ms.mp4	197.4194493017376	198.02777420180655	0.6083249000689648				
131.8349609375	0.2	269998	130	63	1	0	0	32	216	stimuli\Videos_short_600ms_horvertflip\42.single_slap_with_plastic_whisk_short_horvertflip_short_600ms.mp4	42.single_slap_with_plastic_whisk_short_horvertflip_short_600ms.mp4	198.21943475673925	198.82775613785725	0.608321381118003				
132.634765625	0.2	271636	131	63	1	0	0	33	201	stimuli\Videos_short_600ms_horvertflip\29.single_pinch_with_tweezers_short_horvertflip_short_600ms.mp4	29.single_pinch_with_tweezers_short_horvertflip_short_600ms.mp4	199.01942226446272	199.62774481856425	0.6083225541015054				
133.4345703125	0.2	273274	132	63	1	0	0	34	311	stimuli\Videos_short_600ms_vertflip\47.(long)scratching_with_finger_nails_short_vertflip_short_600ms.mp4	47.(long)scratching_with_finger_nails_short_vertflip_short_600ms.mp4	199.81984201668777	200.4277311533042	0.6078891366164498				
134.23486328125	0.2	274913	133	63	1	0	0	35	54	stimuli\Videos_short_600ms\59.single_push_with_long_side_pencil_short_short_600ms.mp4	59.single_push_with_long_side_pencil_short_short_600ms.mp4	200.61940695702515	201.2277177812898	0.6083108242646631				
135.03466796875	0.2	276551	134	63	1	0	0	36	124	stimuli\Videos_short_600ms_horflip\40.repeated_push_with_finger_short_horflip_short_600ms.mp4	40.repeated_push_with_finger_short_horflip_short_600ms.mp4	201.41938420114093	202.02770323629147	0.6083190351505436				
135.83447265625	0.2	278189	135	63	1	0	0	37	323	stimuli\Videos_short_600ms_vertflip\58.single_slap_with_pencil_short_vertflip_short_600ms.mp4	58.single_slap_with_pencil_short_vertflip_short_600ms.mp4	202.21938930362012	202.82768722506353	0.608297921443409				
136.634765625	0.2	279828	136	63	1	0	0	38	232	stimuli\Videos_short_600ms_horvertflip\57.single_touch_with_nail_file_short_horvertflip_short_600ms.mp4	57.single_touch_with_nail_file_short_horvertflip_short_600ms.mp4	203.0193298919949	203.62767561252485	0.6083457205299965				
137.4345703125	0.2	281466	137	63	1	0	0	39	211	stimuli\Videos_short_600ms_horvertflip\38.double_slap_with_pencil_short_horvertflip_short_600ms.mp4	38.double_slap_with_pencil_short_horvertflip_short_600ms.mp4	203.8193499500162	204.42765872155903	0.6083087715428519				
138.234375	0.2	283104	138	63	1	0	0	40	261	stimuli\Videos_short_600ms_horvertflip\83.single_stroke_top_to_bottom_with_cotton_bud_short_horvertflip_short_600ms.mp4	83.single_stroke_top_to_bottom_with_cotton_bud_short_horvertflip_short_600ms.mp4	204.61930783990056	205.22764124410196	0.608333404201403				
139.03466796875	0.2	284743	139	63	1	0	0	41	109	stimuli\Videos_short_600ms_horflip\27.single_push_with_a_plastic_whisk_short_horflip_short_600ms.mp4	27.single_push_with_a_plastic_whisk_short_horflip_short_600ms.mp4	205.41934637241593	206.02763021805504	0.6082838456391073				
139.83447265625	0.2	286381	140	63	1	0	0	42	246	stimuli\Videos_short_600ms_horvertflip\7.repeated_touch_with_hairbrush_short_horvertflip_short_600ms.mp4	7.repeated_touch_with_hairbrush_short_horvertflip_short_600ms.mp4	206.21927699042865	206.82761186085963	0.6083348704310083				
140.63427734375	0.2	288019	141	63	1	0	0	43	212	stimuli\Videos_short_600ms_horvertflip\39.single_stab_with_scissors_short_horvertflip_short_600ms.mp4	39.single_stab_with_scissors_short_horvertflip_short_600ms.mp4	207.01927740097335	207.6275976091074	0.608320208134046				
141.4345703125	0.2	289658	142	63	1	0	0	44	45	stimuli\Videos_short_600ms\50.single_(long)hard_push_with_thumb_short_short_600ms.mp4	50.single_(long)hard_push_with_thumb_short_short_600ms.mp4	207.81926314922111	208.427587756044	0.6083246068228618				
142.234375	0.2	291296	143	63	1	0	0	45	130	stimuli\Videos_short_600ms_horflip\46.scratching_top_to_bottom_with_finger_nails_short_horflip_short_600ms.mp4	46.scratching_top_to_bottom_with_finger_nails_short_horflip_short_600ms.mp4	208.6192544691412	209.22757966245624	0.6083251933150677				
143.0341796875	0.2	292934	144	63	1	0	0	46	117	stimuli\Videos_short_600ms_horflip\34.repeated_punch_with_hand_short_horflip_short_600ms.mp4	34.repeated_punch_with_hand_short_horflip_short_600ms.mp4	209.4192352322084	210.02756130526132	0.6083260730529219				
143.83447265625	0.2	294573	145	63	1	0	0	47	52	stimuli\Videos_short_600ms\57.single_touch_with_nail_file_short_short_600ms.mp4	57.single_touch_with_nail_file_short_short_600ms.mp4	210.2192186344887	210.8275529184275	0.6083342839388024				
144.63427734375	0.2	296211	146	63	1	0	0	48	125	stimuli\Videos_short_600ms_horflip\41.injection_with_blunt_syringe_short_horflip_short_600ms.mp4	41.injection_with_blunt_syringe_short_horflip_short_600ms.mp4	211.01920555571996	211.62752869631368	0.6083231405937113				
145.43408203125	0.2	297849	147	63	1	0	0	49	105	stimuli\Videos_short_600ms_horflip\23.single_push_with_a_spoon_short_horflip_short_600ms.mp4	23.single_push_with_a_spoon_short_horflip_short_600ms.mp4	211.8191927701978	212.4275296933497	0.60833692315191				
146.234375	0.2	299488	148	63	1	0	0	50	331	stimuli\Videos_short_600ms_vertflip\65.stroke_top_to_bottom_with_stanley_knife_short_vertflip_short_600ms.mp4	65.stroke_top_to_bottom_with_stanley_knife_short_vertflip_short_600ms.mp4	212.6191541790331	213.227502245531	0.6083480664979106				
147.0341796875	0.2	301126	149	63	1	0	0	51	57	stimuli\Videos_short_600ms\61.single_hit_with_rolling_pin_short_short_600ms.mp4	61.single_hit_with_rolling_pin_short_short_600ms.mp4	213.4191654396768	214.02748652754872	0.6083210878719001				
147.833984375	0.2	302764	150	63	1	0	0	52	233	stimuli\Videos_short_600ms_horvertflip\58.single_slap_with_pencil_short_horvertflip_short_600ms.mp4	58.single_slap_with_pencil_short_horvertflip_short_600ms.mp4	214.2191491352032	214.82747374202657	0.6083246068233166				
148.63427734375	0.2	304403	151	63	1	0	0	53	49	stimuli\Videos_short_600ms\54.repeated_touch_with_knife_short_short_600ms.mp4	54.repeated_touch_with_knife_short_short_600ms.mp4	215.01914045512376	215.6274589037821	0.6083184486583377				
149.43408203125	0.2	306041	152	63	1	0	0	54	224	stimuli\Videos_short_600ms_horvertflip\5.repeated_tap_with_finger_moving_from_top_to_bottom_short_horvertflip_short_600ms.mp4	5.repeated_tap_with_finger_moving_from_top_to_bottom_short_horvertflip_short_600ms.mp4	215.81909893149987	216.4274443587842	0.6083454272843483				
150.234375	0.2	307680	153	63	1	0	0	55	188	stimuli\Videos_short_600ms_horvertflip\17.repeated_touch_with_rolling_pin_short_horvertflip_short_600ms.mp4	17.repeated_touch_with_rolling_pin_short_horvertflip_short_600ms.mp4	216.619083213518	217.22743128001548	0.6083480664974559				
151.0341796875	0.2	309318	154	63	1	0	0	56	88	stimuli\Videos_short_600ms\9.single_touch_with_hammer_short_short_600ms.mp4	9.single_touch_with_hammer_short_short_600ms.mp4	217.4190751199303	218.02741556203364	0.6083404421033265				
151.833984375	0.2	310956	155	63	1	0	0	57	17	stimuli\Videos_short_600ms\25.single_touch_with_stanley_knife_short_short_600ms.mp4	25.single_touch_with_stanley_knife_short_short_600ms.mp4	218.21905764247276	218.8273972048387	0.6083395623659271				
152.63427734375	0.2	312595	156	63	1	0	0	58	193	stimuli\Videos_short_600ms_horvertflip\21.repeated_touch_with_metal_chopstick_short_horvertflip_short_600ms.mp4	21.repeated_touch_with_metal_chopstick_short_horvertflip_short_600ms.mp4	219.0196037836936	219.62738705852917	0.6077832748355831				
153.43408203125	0.2	314233	157	63	1	0	0	59	7	stimuli\Videos_short_600ms\16.repeated_touch_with_plastic_brush_short_short_600ms.mp4	16.repeated_touch_with_plastic_brush_short_short_600ms.mp4	219.81905171890503	220.4273754459905	0.6083237270854625				
154.23388671875	0.2	315871	158	63	1	0	0	60	330	stimuli\Videos_short_600ms_vertflip\64.repeated_touch_with_screwdriver_short_vertflip_short_600ms.mp4	64.repeated_touch_with_screwdriver_short_vertflip_short_600ms.mp4	220.6190418658416	221.22733978728547	0.6082979214438637				
155.0341796875	0.2	317510	159	63	1	0	0	61	308	stimuli\Videos_short_600ms_vertflip\44.pushing_top_to_bottom_with_finger_short_vertflip_short_600ms.mp4	44.pushing_top_to_bottom_with_finger_short_vertflip_short_600ms.mp4	221.4190355317296	222.02732553553324	0.6082900038036314				
155.833984375	0.2	319148	160	63	1	0	0	62	307	stimuli\Videos_short_600ms_vertflip\43.touch_top_to_bottom_with_sharp_wooden_stick_short_vertflip_short_600ms.mp4	43.touch_top_to_bottom_with_sharp_wooden_stick_short_vertflip_short_600ms.mp4	222.2190060311891	222.8273256528314	0.6083196216422948				
156.6337890625	0.2	320786	161	63	1	0	0	63	111	stimuli\Videos_short_600ms_horflip\29.single_pinch_with_tweezers_short_horflip_short_600ms.mp4	29.single_pinch_with_tweezers_short_horflip_short_600ms.mp4	223.01900321602807	223.62731110783352	0.6083078918054525				
157.43408203125	0.2	322425	162	63	1	0	0	64	8	stimuli\Videos_short_600ms\17.repeated_touch_with_rolling_pin_short_short_600ms.mp4	17.repeated_touch_with_rolling_pin_short_short_600ms.mp4	223.81897928716035	224.42729861555657	0.6083193283961918				
158.23388671875	0.2	324063	163	63	1	0	0	65	294	stimuli\Videos_short_600ms_vertflip\31.hand_grabbing_wrist_short_vertflip_short_600ms.mp4	31.hand_grabbing_wrist_short_vertflip_short_600ms.mp4	224.6189703138348	225.22731016944635	0.6083398556115753				
159.03369140625	0.2	325701	164	63	1	0	0	66	16	stimuli\Videos_short_600ms\24.single_stroke_top_to_bottom_with_a_spoon_short_short_600ms.mp4	24.single_stroke_top_to_bottom_with_a_spoon_short_short_600ms.mp4	225.41895166339373	226.0272765634627	0.6083249000689648				
159.833984375	0.2	327340	165	63	1	0	0	67	74	stimuli\Videos_short_600ms\77.tapping_with_all_fingers_short_short_600ms.mp4	77.tapping_with_all_fingers_short_short_600ms.mp4	226.21893447918228	226.8272705225968	0.6083360434145106				
160.6337890625	0.2	328978	166	63	1	0	0	68	357	stimuli\Videos_short_600ms_vertflip\89.single_touch_with_plastic_brush_short_vertflip_short_600ms.mp4	89.single_touch_with_plastic_brush_short_vertflip_short_600ms.mp4	227.0189208139218	227.6272550978606	0.6083342839388024				
161.43359375	0.2	330616	167	63	1	0	0	69	187	stimuli\Videos_short_600ms_horvertflip\16.repeated_touch_with_plastic_brush_short_horvertflip_short_600ms.mp4	16.repeated_touch_with_plastic_brush_short_horvertflip_short_600ms.mp4	227.81890920138312	228.42722765004143	0.6083184486583377				
162.23388671875	0.2	332255	168	63	1	0	1	70	362	stimuli\Targets_short_600ms\chopstickwood-tap_short_short_600ms.mp4	chopstickwood-tap_short_short_600ms.mp4	228.61889172392557	229.22721633074843	0.6083246068228618				
163.03369140625	0.2	333893	169	63	1	0	0	71	160	stimuli\Videos_short_600ms_horflip\73.single_stroke_with_flat_hand_short_horflip_short_600ms.mp4	73.single_stroke_with_flat_hand_short_horflip_short_600ms.mp4	229.4188595841715	230.0272026654884	0.6083430813168889				
163.83349609375	0.2	335531	170	63	1	0	0	72	359	stimuli\Videos_short_600ms_vertflip\90.repeated_touch_with_sponge_short_vertflip_short_600ms.mp4	90.repeated_touch_with_sponge_short_vertflip_short_600ms.mp4	230.218862927175	230.8271878272444	0.6083249000694195				
164.6337890625	0.2	337170	171	63	1	0	1	73	369	stimuli\Targets_short_600ms_horflip\finger-tap_short_horflip_short_600ms.mp4	finger-tap_short_horflip_short_600ms.mp4	231.0188568863091	231.62717122952472	0.6083143432156248				
165.43359375	0.2	338808	172	63	1	0	0	74	314	stimuli\Videos_short_600ms_vertflip\5.repeated_tap_with_finger_moving_from_top_to_bottom_short_vertflip_short_600ms.mp4	5.repeated_tap_with_finger_moving_from_top_to_bottom_short_vertflip_short_600ms.mp4	231.81881917488224	232.427158150756	0.6083389758737212				
166.2333984375	0.2	340446	173	63	1	0	0	75	342	stimuli\Videos_short_600ms_vertflip\75.(long)stroke_with_fingers_all_over_the_hand_short_vertflip_short_600ms.mp4	75.(long)stroke_with_fingers_all_over_the_hand_short_vertflip_short_600ms.mp4	232.6187970054898	233.2271436057581	0.6083466002683053				
167.03369140625	0.2	342085	174	63	1	0	0	76	136	stimuli\Videos_short_600ms_horflip\51.repeated_touch_with_hammer_short_horflip_short_600ms.mp4	51.repeated_touch_with_hammer_short_horflip_short_600ms.mp4	233.4188082661335	234.02712906075976	0.6083207946262519				
167.83349609375	0.2	343723	175	63	1	0	0	77	151	stimuli\Videos_short_600ms_horflip\65.stroke_top_to_bottom_with_stanley_knife_short_horflip_short_600ms.mp4	65.stroke_top_to_bottom_with_stanley_knife_short_horflip_short_600ms.mp4	234.21876996821535	234.82711539549928	0.6083454272838935				
168.6337890625	0.2	345362	176	63	1	0	0	78	358	stimuli\Videos_short_600ms_vertflip\9.single_touch_with_hammer_short_vertflip_short_600ms.mp4	9.single_touch_with_hammer_short_vertflip_short_600ms.mp4	235.01878298833435	235.6271034897145	0.6083205013801489				
169.43359375	0.2	347000	177	63	1	0	0	79	186	stimuli\Videos_short_600ms_horvertflip\15.single_stroke_top_to_bottom_with_a_plastic_whisk_short_horvertflip_short_600ms.mp4	15.single_stroke_top_to_bottom_with_a_plastic_whisk_short_horvertflip_short_600ms.mp4	235.8187646311394	236.4270868919948	0.6083222608554024				
170.2333984375	0.2	348638	178	63	1	0	0	80	19	stimuli\Videos_short_600ms\27.single_push_with_a_plastic_whisk_short_short_600ms.mp4	27.single_push_with_a_plastic_whisk_short_short_600ms.mp4	236.61873425086105	237.227076159194	0.6083419083329318				
171.03369140625	0.2	350277	179	63	1	0	0	81	300	stimuli\Videos_short_600ms_vertflip\37.single_stab_with_nail_file_short_vertflip_short_600ms.mp4	37.single_stab_with_nail_file_short_vertflip_short_600ms.mp4	237.41878392672152	238.02705750875293	0.6082735820314156				
171.83349609375	0.2	351915	180	63	1	0	0	82	285	stimuli\Videos_short_600ms_vertflip\23.single_push_with_a_spoon_short_vertflip_short_600ms.mp4	23.single_push_with_a_spoon_short_vertflip_short_600ms.mp4	238.21872422185015	238.82704061778713	0.6083163959369813				
172.63330078125	0.2	353553	181	63	1	0	1	83	372	stimuli\Targets_short_600ms_horvertflip\brush-stroke_short_vertflip_short_600ms.mp4	brush-stroke_short_vertflip_short_600ms.mp4	239.01879002623673	239.6270298849863	0.6082398587495845				
173.43359375	0.2	355192	182	63	1	0	0	84	269	stimuli\Videos_short_600ms_horvertflip\90.repeated_touch_with_sponge_short_horvertflip_short_600ms.mp4	90.repeated_touch_with_sponge_short_horvertflip_short_600ms.mp4	239.81869073316463	240.42701563323408	0.6083249000694195				
174.2333984375	0.2	356830	183	63	1	0	0	85	64	stimuli\Videos_short_600ms\68.stroke_top_to_bottom_with_shawl_short_short_600ms.mp4	68.stroke_top_to_bottom_with_shawl_short_short_600ms.mp4	240.6186852787905	241.227000501744	0.608315222953479				
175.033203125	0.2	358468	184	63	1	0	0	86	14	stimuli\Videos_short_600ms\22.single_touch_with_metal_chopstick_short_short_600ms.mp4	22.single_touch_with_metal_chopstick_short_short_600ms.mp4	241.41866926756256	242.02699270140192	0.6083234338393595				
175.83349609375	0.2	360107	185	63	1	0	0	87	237	stimuli\Videos_short_600ms_horvertflip\61.single_hit_with_rolling_pin_short_horvertflip_short_600ms.mp4	61.single_hit_with_rolling_pin_short_horvertflip_short_600ms.mp4	242.2186470981701	242.82697346446912	0.6083263662990248				
176.63330078125	0.2	361745	186	63	1	0	0	88	59	stimuli\Videos_short_600ms\63.stroke_top_to_bottom_with_screwdriver_short_short_600ms.mp4	63.stroke_top_to_bottom_with_screwdriver_short_short_600ms.mp4	243.0186337261557	243.62696918307847	0.6083354569227595				
177.43310546875	0.2	363383	187	63	1	0	0	89	221	stimuli\Videos_short_600ms_horvertflip\47.(long)scratching_with_finger_nails_short_horvertflip_short_600ms.mp4	47.(long)scratching_with_finger_nails_short_horvertflip_short_600ms.mp4	243.81861742168212	244.42694232175108	0.6083249000689648				
178.2333984375	0.2	365022	188	63	1	0	0	90	303	stimuli\Videos_short_600ms_vertflip\4.repeated_tap_with_finger_slow_short_vertflip_short_600ms.mp4	4.repeated_tap_with_finger_slow_short_vertflip_short_600ms.mp4	244.61892339448605	245.2269277767532	0.6080043822671541				
179.033203125	0.2	366660	189	63	1	0	0	91	22	stimuli\Videos_short_600ms\3.single_push_with_finger_short_short_600ms.mp4	3.single_push_with_finger_short_short_600ms.mp4	245.41862322795168	246.02691704395193	0.6082938160002413				
179.8330078125	0.2	368298	190	63	1	0	0	92	141	stimuli\Videos_short_600ms_horflip\56.repeated_touch_with_nail_file_short_horflip_short_600ms.mp4	56.repeated_touch_with_nail_file_short_horflip_short_600ms.mp4	246.2185717339662	246.82690073947833	0.6083290055121324				
180.63330078125	0.2	369937	191	63	1	0	0	93	348	stimuli\Videos_short_600ms_vertflip\80.stroke_with_sharp_stick_all_over_the_hand_short_vertflip_short_600ms.mp4	80.stroke_with_sharp_stick_all_over_the_hand_short_vertflip_short_600ms.mp4	247.01854164693395	247.62688707421785	0.6083454272838935				
181.43310546875	0.2	371575	192	63	1	0	0	94	89	stimuli\Videos_short_600ms\90.repeated_touch_with_sponge_short_short_600ms.mp4	90.repeated_touch_with_sponge_short_short_600ms.mp4	247.81855466705292	248.42687106299036	0.608316395937436	5.0	5.0	10.4055086834519	1.0
223.8486328125	0.2	458442	193	63	2	0	0	0	327	stimuli\Videos_short_600ms_vertflip\61.single_hit_with_rolling_pin_short_vertflip_short_600ms.mp4	61.single_hit_with_rolling_pin_short_vertflip_short_600ms.mp4	290.2344281279152	290.84278939047954	0.6083612625643582				
224.6484375	0.2	460080	194	63	2	0	0	1	200	stimuli\Videos_short_600ms_horvertflip\28.single_injection_with_sharp_needle_short_horvertflip_short_600ms.mp4	28.single_injection_with_sharp_needle_short_horvertflip_short_600ms.mp4	291.03443850882104	291.6427607696769	0.6083222608558572				
225.4482421875	0.2	461718	195	63	2	0	0	2	35	stimuli\Videos_short_600ms\41.injection_with_blunt_syringe_short_short_600ms.mp4	41.injection_with_blunt_syringe_short_short_600ms.mp4	291.8344295354955	292.4427224717583	0.608292936262842				
226.24853515625	0.2	463357	196	63	2	0	0	3	172	stimuli\Videos_short_600ms_horflip\84.single_touch_with_cotton_bud_short_horflip_short_600ms.mp4	84.single_touch_with_cotton_bud_short_horflip_short_600ms.mp4	292.634420855416	293.24271496466235	0.6082941092463443				
227.04833984375	0.2	464995	197	63	2	0	0	4	355	stimuli\Videos_short_600ms_vertflip\87.single_stroke_top_to_bottom_with_plastic_brush_short_vertflip_short_600ms.mp4	87.single_stroke_top_to_bottom_with_plastic_brush_short_vertflip_short_600ms.mp4	293.4343969265483	294.04269279527034	0.6082958687220525				
227.84814453125	0.2	466633	198	63	2	0	0	5	341	stimuli\Videos_short_600ms_vertflip\74.fingers_walking_from_top_to_bottom_short_vertflip_short_600ms.mp4	74.fingers_walking_from_top_to_bottom_short_vertflip_short_600ms.mp4	294.2343832612878	294.842678250272	0.6082949889841984				
228.6484375	0.2	468272	199	63	2	0	0	6	44	stimuli\Videos_short_600ms\5.repeated_tap_with_finger_moving_from_top_to_bottom_short_short_600ms.mp4	5.repeated_tap_with_finger_moving_from_top_to_bottom_short_short_600ms.mp4	295.03436754330596	295.6426631187819	0.6082955754759496				
229.4482421875	0.2	469910	200	63	2	0	0	7	275	stimuli\Videos_short_600ms_vertflip\14.repeated_touch_with_pencil_short_vertflip_short_600ms.mp4	14.repeated_touch_with_pencil_short_vertflip_short_600ms.mp4	295.83435094558627	296.44267760513094	0.608326659544673				
230.248046875	0.2	471548	201	63	2	0	0	8	170	stimuli\Videos_short_600ms_horflip\82.repeated_touch_with_cotton_bud_short_horflip_short_600ms.mp4	82.repeated_touch_with_cotton_bud_short_horflip_short_600ms.mp4	296.6343349343583	297.24266540610006	0.6083304717417377				
231.04833984375	0.2	473187	202	63	2	0	0	9	26	stimuli\Videos_short_600ms\33.scratch_top_to_bottom_with_scissors_short_short_600ms.mp4	33.scratch_top_to_bottom_with_scissors_short_short_600ms.mp4	297.434333878673	298.04265936523416	0.6083254865611707				
231.84814453125	0.2	474825	203	63	2	0	1	10	374	stimuli\Targets_short_600ms_horvertflip\chopstickwood-tap_short_vertflip_short_600ms.mp4	chopstickwood-tap_short_vertflip_short_600ms.mp4	298.2343073105917	298.8426322106611	0.6083249000694195				
232.64794921875	0.2	476463	204	63	2	0	0	11	62	stimuli\Videos_short_600ms\66.stroke_top_to_bottom_with_sponge_short_short_600ms.mp4	66.stroke_top_to_bottom_with_sponge_short_short_600ms.mp4	299.03429159260986	299.6426296887457	0.6083380961358671				
233.4482421875	0.2	478102	205	63	2	0	0	12	176	stimuli\Videos_short_600ms_horflip\88.repeated_stroke_with_plastic_brush_short_horflip_short_600ms.mp4	88.repeated_stroke_with_plastic_brush_short_horflip_short_600ms.mp4	299.8342506554782	300.44260370715665	0.6083530516784776				
234.248046875	0.2	479740	206	63	2	0	0	13	268	stimuli\Videos_short_600ms_horvertflip\9.single_touch_with_hammer_short_horvertflip_short_600ms.mp4	9.single_touch_with_hammer_short_horvertflip_short_600ms.mp4	300.6342677810403	301.24258710943695	0.6083193283966466				
235.0478515625	0.2	481378	207	63	2	0	0	14	185	stimuli\Videos_short_600ms_horvertflip\14.repeated_touch_with_pencil_short_horvertflip_short_600ms.mp4	14.repeated_touch_with_pencil_short_horvertflip_short_600ms.mp4	301.4342286033839	302.04257197794686	0.6083433745629918				
235.84814453125	0.2	483017	208	63	2	0	1	15	366	stimuli\Targets_short_600ms_horflip\brush-stroke_short_horflip_short_600ms.mp4	brush-stroke_short_horflip_short_600ms.mp4	302.234234878847	302.84255948567034	0.6083246068233166				
236.64794921875	0.2	484655	209	63	2	0	0	16	78	stimuli\Videos_short_600ms\80.stroke_with_sharp_stick_all_over_the_hand_short_short_600ms.mp4	80.stroke_with_sharp_stick_all_over_the_hand_short_short_600ms.mp4	303.0342106567332	303.64254582040985	0.6083351636766565				
237.44775390625	0.2	486293	210	63	2	0	0	17	194	stimuli\Videos_short_600ms_horvertflip\22.single_touch_with_metal_chopstick_short_horvertflip_short_600ms.mp4	22.single_touch_with_metal_chopstick_short_horvertflip_short_600ms.mp4	303.83419171304604	304.4425298091819	0.6083380961358671				
238.248046875	0.2	487932	211	63	2	0	0	18	84	stimuli\Videos_short_600ms\86.touch_top_to_bottom_with_hair_brush_short_short_600ms.mp4	86.touch_top_to_bottom_with_hair_brush_short_short_600ms.mp4	304.63416807742396	305.2425146776918	0.6083466002678506				
239.0478515625	0.2	489570	212	63	2	0	0	19	204	stimuli\Videos_short_600ms_horvertflip\31.hand_grabbing_wrist_short_horvertflip_short_600ms.mp4	31.hand_grabbing_wrist_short_horvertflip_short_600ms.mp4	305.4341898949215	306.0425021854153	0.6083122904938136				
239.84814453125	0.2	491209	213	63	2	0	0	20	222	stimuli\Videos_short_600ms_horvertflip\48.single_slap_with_hand_short_horvertflip_short_600ms.mp4	48.single_slap_with_hand_short_horvertflip_short_600ms.mp4	306.23416186061013	306.84248822690915	0.6083263662990248				
240.64794921875	0.2	492847	214	63	2	0	0	21	4	stimuli\Videos_short_600ms\13.single_touch_with_pen_short_short_600ms.mp4	13.single_touch_with_pen_short_short_600ms.mp4	307.034152887285	307.6424695764681	0.6083166891830842				
241.44775390625	0.2	494485	215	63	2	0	0	22	318	stimuli\Videos_short_600ms_vertflip\53.touch_top_to_bottom_with_knife_short_vertflip_short_600ms.mp4	53.touch_top_to_bottom_with_knife_short_vertflip_short_600ms.mp4	307.83428437876	308.4424573774372	0.6081729986772189				
242.248046875	0.2	496124	216	63	2	0	0	23	115	stimuli\Videos_short_600ms_horflip\32.single_(long)pinch_with_fingers_short_horflip_short_600ms.mp4	32.single_(long)pinch_with_fingers_short_horflip_short_600ms.mp4	308.63412848922326	309.24244517840634	0.6083166891830842				
243.0478515625	0.2	497762	217	63	2	0	0	24	128	stimuli\Videos_short_600ms_horflip\44.pushing_top_to_bottom_with_finger_short_horflip_short_600ms.mp4	44.pushing_top_to_bottom_with_finger_short_horflip_short_600ms.mp4	309.43413828363737	310.04242858068665	0.6082902970492796				
243.84765625	0.2	499400	218	63	2	0	0	25	332	stimuli\Videos_short_600ms_vertflip\66.stroke_top_to_bottom_with_sponge_short_vertflip_short_600ms.mp4	66.stroke_top_to_bottom_with_sponge_short_vertflip_short_600ms.mp4	310.2340885491276	310.8424163816562	0.6083278325286301				
244.64794921875	0.2	501039	219	63	2	0	0	26	167	stimuli\Videos_short_600ms_horflip\8.single_touch_with_hairbrush_short_horflip_short_600ms.mp4	8.single_touch_with_hairbrush_short_horflip_short_600ms.mp4	311.0340766433428	311.642402129904	0.6083254865611707				
245.44775390625	0.2	502677	220	63	2	0	0	27	236	stimuli\Videos_short_600ms_horvertflip\60.single_push_with_tip_of_pencil_short_horvertflip_short_600ms.mp4	60.single_push_with_tip_of_pencil_short_horvertflip_short_600ms.mp4	311.8341216272688	312.442394622808	0.6082729955392097				
246.24755859375	0.2	504315	221	63	2	0	0	28	139	stimuli\Videos_short_600ms_horflip\54.repeated_touch_with_knife_short_horflip_short_600ms.mp4	54.repeated_touch_with_knife_short_horflip_short_600ms.mp4	312.6340226274424	313.2423806643019	0.6083580368594994				
247.0478515625	0.2	505954	222	63	2	0	0	29	239	stimuli\Videos_short_600ms_horvertflip\63.stroke_top_to_bottom_with_screwdriver_short_horvertflip_short_600ms.mp4	63.stroke_top_to_bottom_with_screwdriver_short_horvertflip_short_600ms.mp4	313.4340063229688	314.0423567354337	0.6083504124649153				
247.84765625	0.2	507592	223	63	2	0	0	30	320	stimuli\Videos_short_600ms_vertflip\55.touch_top_to_bottom_with_nail_file_short_vertflip_short_600ms.mp4	55.touch_top_to_bottom_with_nail_file_short_vertflip_short_600ms.mp4	314.2340213958096	314.84235010807606	0.6083287122664842				
248.6474609375	0.2	509230	224	63	2	0	0	31	0	stimuli\Videos_short_600ms\1.repeated_touch_with_finger_fast_short_short_600ms.mp4	1.repeated_touch_with_finger_fast_short_short_600ms.mp4	315.0340021588768	315.64232588596224	0.6083237270854625				
249.44775390625	0.2	510869	225	63	2	0	0	32	205	stimuli\Videos_short_600ms_horvertflip\32.single_(long)pinch_with_fingers_short_horvertflip_short_600ms.mp4	32.single_(long)pinch_with_fingers_short_horvertflip_short_600ms.mp4	315.83398761387843	316.4423125139474	0.6083249000689648				
250.24755859375	0.2	512507	226	63	2	0	0	33	202	stimuli\Videos_short_600ms_horvertflip\3.single_push_with_finger_short_horvertflip_short_600ms.mp4	3.single_push_with_finger_short_horvertflip_short_600ms.mp4	316.63394814297635	317.242299141933	0.6083509989566664				
251.04736328125	0.2	514145	227	63	2	0	0	34	302	stimuli\Videos_short_600ms_vertflip\39.single_stab_with_scissors_short_vertflip_short_600ms.mp4	39.single_stab_with_scissors_short_vertflip_short_600ms.mp4	317.4339596968657	318.0422834239512	0.6083237270854625				
251.84765625	0.2	515784	228	63	2	0	0	35	168	stimuli\Videos_short_600ms_horflip\80.stroke_with_sharp_stick_all_over_the_hand_short_horflip_short_600ms.mp4	80.stroke_with_sharp_stick_all_over_the_hand_short_horflip_short_600ms.mp4	318.23392315842284	318.84226946544504	0.6083463070222024				
252.6474609375	0.2	517422	229	63	2	0	0	36	251	stimuli\Videos_short_600ms_horvertflip\74.fingers_walking_from_top_to_bottom_short_horvertflip_short_600ms.mp4	74.fingers_walking_from_top_to_bottom_short_horvertflip_short_600ms.mp4	319.0339089066706	319.6422555069389	0.6083466002683053				
253.447265625	0.2	519060	230	63	2	0	0	37	79	stimuli\Videos_short_600ms\81.single_stroke_top_to_bottom_with_cotton_pad_short_short_600ms.mp4	81.single_stroke_top_to_bottom_with_cotton_pad_short_short_600ms.mp4	319.83389377518097	320.44223920246486	0.6083454272838935				
254.24755859375	0.2	520699	231	63	2	0	0	38	219	stimuli\Videos_short_600ms_horvertflip\45.scratching_with_finger_nails_short_horvertflip_short_600ms.mp4	45.scratching_with_finger_nails_short_horvertflip_short_600ms.mp4	320.6340232139346	321.24222407097477	0.608200857040174				
255.04736328125	0.2	522337	232	63	2	0	0	39	304	stimuli\Videos_short_600ms_vertflip\40.repeated_push_with_finger_short_vertflip_short_600ms.mp4	40.repeated_push_with_finger_short_vertflip_short_600ms.mp4	321.43387025685706	322.0422109922065	0.6083407353494295				
255.84716796875	0.2	523975	233	63	2	0	0	40	126	stimuli\Videos_short_600ms_horflip\42.single_slap_with_plastic_whisk_short_horflip_short_600ms.mp4	42.single_slap_with_plastic_whisk_short_horflip_short_600ms.mp4	322.23388562294394	322.8421946877329	0.6083090647889549				
256.6474609375	0.2	525614	234	63	2	0	0	41	220	stimuli\Videos_short_600ms_horvertflip\46.scratching_top_to_bottom_with_finger_nails_short_horvertflip_short_600ms.mp4	46.scratching_top_to_bottom_with_finger_nails_short_horvertflip_short_600ms.mp4	323.03430156297145	323.6421792629967	0.6078777000252558				
257.447265625	0.2	527252	235	63	2	0	0	42	169	stimuli\Videos_short_600ms_horflip\81.single_stroke_top_to_bottom_with_cotton_pad_short_horflip_short_600ms.mp4	81.single_stroke_top_to_bottom_with_cotton_pad_short_horflip_short_600ms.mp4	323.8338647438336	324.44217615459	0.6083114107564143				
258.2470703125	0.2	528890	236	63	2	0	0	43	51	stimuli\Videos_short_600ms\56.repeated_touch_with_nail_file_short_short_600ms.mp4	56.repeated_touch_with_nail_file_short_short_600ms.mp4	324.63382937837423	325.2421610230999	0.6083316447256948				
259.04736328125	0.2	530529	237	63	2	0	0	44	91	stimuli\Videos_short_600ms_horflip\10.single_touch_with_knife_short_horflip_short_600ms.mp4	10.single_touch_with_knife_short_horflip_short_600ms.mp4	325.43378844124254	326.04211568727897	0.6083272460364242				
259.84716796875	0.2	532167	238	63	2	0	0	45	46	stimuli\Videos_short_600ms\51.repeated_touch_with_hammer_short_short_600ms.mp4	51.repeated_touch_with_hammer_short_short_600ms.mp4	326.23380263434547	326.8421231357256	0.6083205013801489				
260.6474609375	0.2	533806	239	63	2	0	0	46	70	stimuli\Videos_short_600ms\73.single_stroke_with_flat_hand_short_short_600ms.mp4	73.single_stroke_with_flat_hand_short_short_600ms.mp4	327.033786623118	327.64211592187576	0.6083292987577806				
261.447265625	0.2	535444	240	63	2	0	0	47	107	stimuli\Videos_short_600ms_horflip\25.single_touch_with_stanley_knife_short_horflip_short_600ms.mp4	25.single_touch_with_stanley_knife_short_horflip_short_600ms.mp4	327.8337726646114	328.4421002038939	0.6083275392825271				
262.2470703125	0.2	537082	241	63	2	0	0	48	259	stimuli\Videos_short_600ms_horvertflip\81.single_stroke_top_to_bottom_with_cotton_pad_short_horvertflip_short_600ms.mp4	81.single_stroke_top_to_bottom_with_cotton_pad_short_horvertflip_short_600ms.mp4	328.6337575331213	329.242080673715	0.6083231405937113				
263.04736328125	0.2	538721	242	63	2	0	0	49	116	stimuli\Videos_short_600ms_horflip\33.scratch_top_to_bottom_with_scissors_short_horflip_short_600ms.mp4	33.scratch_top_to_bottom_with_scissors_short_horflip_short_600ms.mp4	329.43374064215595	330.04206612871667	0.608325486560716				
263.84716796875	0.2	540359	243	63	2	0	0	50	2	stimuli\Videos_short_600ms\11.single_touch_with_lighter_short_short_600ms.mp4	11.single_touch_with_lighter_short_short_600ms.mp4	330.2337290296168	330.84205070398093	0.608321674364106				
264.64697265625	0.2	541997	244	63	2	0	0	51	339	stimuli\Videos_short_600ms_vertflip\72.(short)stroke_with_finger_all_over_the_hand_short_vertflip_short_600ms.mp4	72.(short)stroke_with_finger_all_over_the_hand_short_vertflip_short_600ms.mp4	331.03371272514323	331.64203733196655	0.6083246068233166				
265.447265625	0.2	543636	245	63	2	0	0	52	29	stimuli\Videos_short_600ms\36.single_slap_with_full_hand_short_short_600ms.mp4	36.single_slap_with_full_hand_short_short_600ms.mp4	331.8336735474868	332.4420230802143	0.6083495327275159				
266.2470703125	0.2	545274	246	63	2	0	0	53	321	stimuli\Videos_short_600ms_vertflip\56.repeated_touch_with_nail_file_short_vertflip_short_600ms.mp4	56.repeated_touch_with_nail_file_short_vertflip_short_600ms.mp4	332.6336833419009	333.2420082419703	0.6083249000694195				
267.046875	0.2	546912	247	63	2	0	0	54	152	stimuli\Videos_short_600ms_horflip\66.stroke_top_to_bottom_with_sponge_short_horflip_short_600ms.mp4	66.stroke_top_to_bottom_with_sponge_short_horflip_short_600ms.mp4	333.4336512021473	334.0419919374963	0.6083407353489747				
267.84716796875	0.2	548551	248	63	2	0	1	55	365	stimuli\Targets_short_600ms\hand-stroke_short_short_600ms.mp4	hand-stroke_short_short_600ms.mp4	334.2336920806297	334.84197827223625	0.6082861916065667				
268.64697265625	0.2	550189	249	63	2	0	0	56	5	stimuli\Videos_short_600ms\14.repeated_touch_with_pencil_short_short_600ms.mp4	14.repeated_touch_with_pencil_short_short_600ms.mp4	335.0336165404783	335.64196343399226	0.6083468935139535				
269.44677734375	0.2	551827	250	63	2	0	0	57	76	stimuli\Videos_short_600ms\79.long_with_soft_brush_all_over_the_hand_short_short_600ms.mp4	79.long_with_soft_brush_all_over_the_hand_short_short_600ms.mp4	335.83376474697116	336.4419509417153	0.6081861947441212				
270.2470703125	0.2	553466	251	63	2	0	0	58	227	stimuli\Videos_short_600ms_horvertflip\52.touch_top_to_bottom_with_hammer_short_horvertflip_short_600ms.mp4	52.touch_top_to_bottom_with_hammer_short_horvertflip_short_600ms.mp4	336.63361032366447	337.2419358102252	0.608325486560716				
271.046875	0.2	555104	252	63	2	0	0	59	346	stimuli\Videos_short_600ms_vertflip\79.long_with_soft_brush_all_over_the_hand_short_vertflip_short_600ms.mp4	79.long_with_soft_brush_all_over_the_hand_short_vertflip_short_600ms.mp4	337.43359929761755	338.04192038548945	0.6083210878719001				
271.8466796875	0.2	556742	253	63	2	0	0	60	138	stimuli\Videos_short_600ms_horflip\53.touch_top_to_bottom_with_knife_short_horflip_short_600ms.mp4	53.touch_top_to_bottom_with_knife_short_horflip_short_600ms.mp4	338.23387829179546	338.8418817943252	0.6080035025297548				
272.64697265625	0.2	558381	254	63	2	0	0	61	225	stimuli\Videos_short_600ms_horvertflip\50.single_(long)hard_push_with_thumb_short_horvertflip_short_600ms.mp4	50.single_(long)hard_push_with_thumb_short_horvertflip_short_600ms.mp4	339.0336326690044	339.64189012250927	0.608257453504848				
273.44677734375	0.2	560019	255	63	2	0	0	62	96	stimuli\Videos_short_600ms_horflip\15.single_stroke_top_to_bottom_with_a_plastic_whisk_short_horflip_short_600ms.mp4	15.single_stroke_top_to_bottom_with_a_plastic_whisk_short_horflip_short_600ms.mp4	339.83367178801154	340.441877043741	0.6082052557294446				
274.24658203125	0.2	561657	256	63	2	0	0	63	135	stimuli\Videos_short_600ms_horflip\50.single_(long)hard_push_with_thumb_short_horflip_short_600ms.mp4	50.single_(long)hard_push_with_thumb_short_horflip_short_600ms.mp4	340.633540824379	341.24183610660884	0.6082952822298466				
275.046875	0.2	563296	257	63	2	0	0	64	61	stimuli\Videos_short_600ms\65.stroke_top_to_bottom_with_stanley_knife_short_short_600ms.mp4	65.stroke_top_to_bottom_with_stanley_knife_short_short_600ms.mp4	341.4335227604297	342.0418470740069	0.6083243135772136				
275.8466796875	0.2	564934	258	63	2	0	0	65	131	stimuli\Videos_short_600ms_horflip\47.(long)scratching_with_finger_nails_short_horflip_short_600ms.mp4	47.(long)scratching_with_finger_nails_short_horflip_short_600ms.mp4	342.23350850867746	342.84183634120564	0.6083278325281753				
276.646484375	0.2	566572	259	63	2	0	0	66	317	stimuli\Videos_short_600ms_vertflip\52.touch_top_to_bottom_with_hammer_short_vertflip_short_600ms.mp4	52.touch_top_to_bottom_with_hammer_short_vertflip_short_600ms.mp4	343.0334687445293	343.6418206232238	0.6083518786945206				
277.44677734375	0.2	568211	260	63	2	0	0	67	338	stimuli\Videos_short_600ms_vertflip\71.single_stroke_with_finger_top_to_bottom_short_vertflip_short_600ms.mp4	71.single_stroke_with_finger_top_to_bottom_short_vertflip_short_600ms.mp4	343.8334782456973	344.4418104769147	0.608332231217446				
278.24658203125	0.2	569849	261	63	2	0	0	68	43	stimuli\Videos_short_600ms\49.repeated_slap_with_hand_short_short_600ms.mp4	49.repeated_slap_with_hand_short_short_600ms.mp4	344.6334683926343	345.2417894805062	0.6083210878719001				
279.046875	0.2	571488	262	63	2	0	0	69	81	stimuli\Videos_short_600ms\83.single_stroke_top_to_bottom_with_cotton_bud_short_short_600ms.mp4	83.single_stroke_top_to_bottom_with_cotton_bud_short_short_600ms.mp4	345.433450328685	346.0417778679671	0.6083275392820724				
279.8466796875	0.2	573126	263	63	2	0	0	70	310	stimuli\Videos_short_600ms_vertflip\46.scratching_top_to_bottom_with_finger_nails_short_vertflip_short_600ms.mp4	46.scratching_top_to_bottom_with_finger_nails_short_vertflip_short_600ms.mp4	346.2334387161459	346.84176537569056	0.608326659544673				
280.646484375	0.2	574764	264	63	2	0	0	71	100	stimuli\Videos_short_600ms_horflip\19.single_touch_with_rolling_pin_short_horflip_short_600ms.mp4	19.single_touch_with_rolling_pin_short_horflip_short_600ms.mp4	347.0336397069068	347.641747898233	0.6081081913262096				
281.44677734375	0.2	576403	265	63	2	0	0	72	47	stimuli\Videos_short_600ms\52.touch_top_to_bottom_with_hammer_short_short_600ms.mp4	52.touch_top_to_bottom_with_hammer_short_short_600ms.mp4	347.83344012372663	348.4417374586783	0.6082973349516578				
282.24658203125	0.2	578041	266	63	2	0	0	73	142	stimuli\Videos_short_600ms_horflip\57.single_touch_with_nail_file_short_horflip_short_600ms.mp4	57.single_touch_with_nail_file_short_horflip_short_600ms.mp4	348.63339126895426	349.2417205677125	0.6083292987582354				
283.04638671875	0.2	579679	267	63	2	0	0	74	306	stimuli\Videos_short_600ms_vertflip\42.single_slap_with_plastic_whisk_short_vertflip_short_600ms.mp4	42.single_slap_with_plastic_whisk_short_vertflip_short_600ms.mp4	349.433377017202	350.041706902452	0.6083298852499865				
283.8466796875	0.2	581318	268	63	2	0	0	75	68	stimuli\Videos_short_600ms\71.single_stroke_with_finger_top_to_bottom_short_short_600ms.mp4	71.single_stroke_with_finger_top_to_bottom_short_short_600ms.mp4	350.23334927613723	350.8416938236837	0.6083445475464941				
284.646484375	0.2	582956	269	63	2	0	0	76	298	stimuli\Videos_short_600ms_vertflip\35.single_punch_with_hand_short_vertflip_short_600ms.mp4	35.single_punch_with_hand_short_vertflip_short_600ms.mp4	351.0333493934354	351.6416766394723	0.6083272460368789				
285.4462890625	0.2	584594	270	63	2	0	0	77	328	stimuli\Videos_short_600ms_vertflip\62.touch_top_to_bottom_with_scissors_short_vertflip_short_600ms.mp4	62.touch_top_to_bottom_with_scissors_short_vertflip_short_600ms.mp4	351.83331461446824	352.44166707965496	0.6083524651867265				
286.24658203125	0.2	586233	271	63	2	0	0	78	256	stimuli\Videos_short_600ms_horvertflip\79.long_with_soft_brush_all_over_the_hand_short_horvertflip_short_600ms.mp4	79.long_with_soft_brush_all_over_the_hand_short_horvertflip_short_600ms.mp4	352.6334050515129	353.2416449102625	0.6082398587495845				
287.04638671875	0.2	587871	272	63	2	0	0	79	252	stimuli\Videos_short_600ms_horvertflip\75.(long)stroke_with_fingers_all_over_the_hand_short_horvertflip_short_600ms.mp4	75.(long)stroke_with_fingers_all_over_the_hand_short_horvertflip_short_600ms.mp4	353.4333336168047	354.04163095175636	0.6082973349516578				
287.84619140625	0.2	589509	273	63	2	0	0	80	66	stimuli\Videos_short_600ms\7.repeated_touch_with_hairbrush_short_short_600ms.mp4	7.repeated_touch_with_hairbrush_short_short_600ms.mp4	354.2333269894466	354.8416205122012	0.6082935227545931				
288.646484375	0.2	591148	274	63	2	0	0	81	157	stimuli\Videos_short_600ms_horflip\70.(long)stroke_with_finger_all_over_the_hand_short_horflip_short_600ms.mp4	70.(long)stroke_with_finger_all_over_the_hand_short_horflip_short_600ms.mp4	355.0333397163199	355.64160772667856	0.6082680103586426				
289.4462890625	0.2	592786	275	63	2	0	0	82	25	stimuli\Videos_short_600ms\32.single_(long)pinch_with_fingers_short_short_600ms.mp4	32.single_(long)pinch_with_fingers_short_short_600ms.mp4	355.8332723870544	356.44158761000745	0.6083152229530242				
290.24609375	0.2	594424	276	63	2	0	0	83	10	stimuli\Videos_short_600ms\19.single_touch_with_rolling_pin_short_short_600ms.mp4	19.single_touch_with_rolling_pin_short_short_600ms.mp4	356.6332443527431	357.24154784585926	0.6083034931161819				
291.04638671875	0.2	596063	277	63	2	0	0	84	99	stimuli\Videos_short_600ms_horflip\18.single_stroke_from_top_to_bottom_with_rolling_pin_short_horflip_short_600ms.mp4	18.single_stroke_from_top_to_bottom_with_rolling_pin_short_horflip_short_600ms.mp4	357.4332315672209	358.0415643849301	0.6083328177091971				
291.84619140625	0.2	597701	278	63	2	0	0	85	254	stimuli\Videos_short_600ms_horvertflip\77.tapping_with_all_fingers_short_horvertflip_short_600ms.mp4	77.tapping_with_all_fingers_short_horvertflip_short_600ms.mp4	358.2332190749439	358.8415428020294	0.6083237270854625				
292.64599609375	0.2	599339	279	63	2	0	0	86	253	stimuli\Videos_short_600ms_horvertflip\76.tickle_with_fingers_from_top_to_bottom_short_horvertflip_short_600ms.mp4	76.tickle_with_fingers_from_top_to_bottom_short_horvertflip_short_600ms.mp4	359.033178724304	359.6415352949334	0.6083565706294394				
293.4462890625	0.2	600978	280	63	2	0	0	87	93	stimuli\Videos_short_600ms_horflip\12.repeated_touch_with_nail_file_short_horflip_short_600ms.mp4	12.repeated_touch_with_nail_file_short_horflip_short_600ms.mp4	359.8332392502639	360.4415131255414	0.6082738752775185				
294.24609375	0.2	602616	281	63	2	0	0	88	20	stimuli\Videos_short_600ms\28.single_injection_with_sharp_needle_short_short_600ms.mp4	28.single_injection_with_sharp_needle_short_short_600ms.mp4	360.6331751467037	361.2414883169354	0.6083131702316678				
295.0458984375	0.2	604254	282	63	2	0	0	89	353	stimuli\Videos_short_600ms_vertflip\85.touch_top_to_bottom_with_fabric_short_vertflip_short_600ms.mp4	85.touch_top_to_bottom_with_fabric_short_vertflip_short_600ms.mp4	361.4331482853763	362.0414849152826	0.6083366299062618				
295.84619140625	0.2	605893	283	63	2	0	0	90	80	stimuli\Videos_short_600ms\82.repeated_touch_with_cotton_bud_short_short_600ms.mp4	82.repeated_touch_with_cotton_bud_short_short_600ms.mp4	362.2331440039857	362.8414647986119	0.6083207946262519				
296.64599609375	0.2	607531	284	63	2	0	0	91	280	stimuli\Videos_short_600ms_vertflip\19.single_touch_with_rolling_pin_short_vertflip_short_600ms.mp4	19.single_touch_with_rolling_pin_short_vertflip_short_600ms.mp4	363.0331306319713	363.6414569982703	0.6083263662990248				
297.44580078125	0.2	609169	285	63	2	0	0	92	120	stimuli\Videos_short_600ms_horflip\37.single_stab_with_nail_file_short_horflip_short_600ms.mp4	37.single_stab_with_nail_file_short_horflip_short_600ms.mp4	363.8330923340531	364.4414406937967	0.6083483597435588	3.0	3.0	2.2538973117266323	1.0
334.41162109375	0.2	684875	286	63	3	0	0	0	87	stimuli\Videos_short_600ms\89.single_touch_with_plastic_brush_short_short_600ms.mp4	89.single_touch_with_plastic_brush_short_short_600ms.mp4	400.7991083564243	401.4074273915744	0.6083190351500889				
335.21142578125	0.2	686513	287	63	3	0	0	1	192	stimuli\Videos_short_600ms_horvertflip\20.single_touch_with_screwdriver_short_horvertflip_short_600ms.mp4	20.single_touch_with_screwdriver_short_horvertflip_short_600ms.mp4	401.5990885329993	402.20741401956	0.608325486560716				
336.01123046875	0.2	688151	288	63	3	0	0	2	122	stimuli\Videos_short_600ms_horflip\39.single_stab_with_scissors_short_horflip_short_600ms.mp4	39.single_stab_with_scissors_short_horflip_short_600ms.mp4	402.3990783866898	403.00740240702135	0.6083240203315654				
336.8115234375	0.2	689790	289	63	3	0	0	3	249	stimuli\Videos_short_600ms_horvertflip\72.(short)stroke_with_finger_all_over_the_hand_short_horvertflip_short_600ms.mp4	72.(short)stroke_with_finger_all_over_the_hand_short_horvertflip_short_600ms.mp4	403.1990535780842	403.8073828768424	0.6083292987582354				
337.611328125	0.2	691428	290	63	3	0	0	4	11	stimuli\Videos_short_600ms\2.single_touch_with_finger_short_short_600ms.mp4	2.single_touch_with_finger_short_short_600ms.mp4	403.9990237842976	404.60736891833585	0.6083451340382453				
338.4111328125	0.2	693066	291	63	3	0	0	5	15	stimuli\Videos_short_600ms\23.single_push_with_a_spoon_short_short_600ms.mp4	23.single_push_with_a_spoon_short_short_600ms.mp4	404.7990344584496	405.4073555463214	0.6083210878719001				
339.21142578125	0.2	694705	292	63	3	0	0	6	350	stimuli\Videos_short_600ms_vertflip\82.repeated_touch_with_cotton_bud_short_vertflip_short_600ms.mp4	82.repeated_touch_with_cotton_bud_short_vertflip_short_600ms.mp4	405.599001145712	406.2073380688644	0.6083369231523648				
340.01123046875	0.2	696343	293	63	3	0	0	7	159	stimuli\Videos_short_600ms_horflip\72.(short)stroke_with_finger_all_over_the_hand_short_horflip_short_600ms.mp4	72.(short)stroke_with_finger_all_over_the_hand_short_horflip_short_600ms.mp4	406.3989992102888	407.0073249900957	0.6083257798068189				
340.8115234375	0.2	697982	294	63	3	0	0	8	178	stimuli\Videos_short_600ms_horflip\9.single_touch_with_hammer_short_horflip_short_600ms.mp4	9.single_touch_with_hammer_short_horflip_short_600ms.mp4	407.1989682435187	407.80731044509776	0.6083422015790347				
341.611328125	0.2	699620	295	63	3	0	0	9	265	stimuli\Videos_short_600ms_horvertflip\87.single_stroke_top_to_bottom_with_plastic_brush_short_horvertflip_short_600ms.mp4	87.single_stroke_top_to_bottom_with_plastic_brush_short_horvertflip_short_600ms.mp4	407.99895487150434	408.6072451685536	0.6082902970492796				
342.4111328125	0.2	701258	296	63	3	0	0	10	38	stimuli\Videos_short_600ms\44.pushing_top_to_bottom_with_finger_short_short_600ms.mp4	44.pushing_top_to_bottom_with_finger_short_short_600ms.mp4	408.7989652524102	409.4072801821176	0.608314929707376				
343.21142578125	0.2	702897	297	63	3	0	0	11	181	stimuli\Videos_short_600ms_horvertflip\10.single_touch_with_knife_short_horvertflip_short_600ms.mp4	10.single_touch_with_knife_short_horvertflip_short_600ms.mp4	409.5989466019687	410.2072462828878	0.6082996809191172				
344.01123046875	0.2	704535	298	63	3	0	0	12	262	stimuli\Videos_short_600ms_horvertflip\84.single_touch_with_cotton_bud_short_horvertflip_short_600ms.mp4	84.single_touch_with_cotton_bud_short_horvertflip_short_600ms.mp4	410.39893498943	411.0072276324467	0.608292643016739				
344.81103515625	0.2	706173	299	63	3	0	0	13	158	stimuli\Videos_short_600ms_horflip\71.single_stroke_with_finger_top_to_bottom_short_horflip_short_600ms.mp4	71.single_stroke_with_finger_top_to_bottom_short_horflip_short_600ms.mp4	411.1989104740701	411.8072497431899	0.6083392691198242				
345.611328125	0.2	707812	300	63	3	0	0	14	36	stimuli\Videos_short_600ms\42.single_slap_with_plastic_whisk_short_short_600ms.mp4	42.single_slap_with_plastic_whisk_short_short_600ms.mp4	411.9988883046781	412.60721906966546	0.6083307649873859				
346.4111328125	0.2	709450	301	63	3	0	0	15	155	stimuli\Videos_short_600ms_horflip\69.stroke_with_soft_sock_short_horflip_short_600ms.mp4	69.stroke_with_soft_sock_short_horflip_short_600ms.mp4	412.7990171569399	413.40720657738893	0.60818942044898				
347.2109375	0.2	711088	302	63	3	0	0	16	263	stimuli\Videos_short_600ms_horvertflip\85.touch_top_to_bottom_with_fabric_short_horvertflip_short_600ms.mp4	85.touch_top_to_bottom_with_fabric_short_horvertflip_short_600ms.mp4	413.5988759296997	414.20720053652303	0.6083246068233166				
348.01123046875	0.2	712727	303	63	3	0	0	17	347	stimuli\Videos_short_600ms_vertflip\8.single_touch_with_hairbrush_short_vertflip_short_600ms.mp4	8.single_touch_with_hairbrush_short_vertflip_short_600ms.mp4	414.398936162414	415.0071792468684	0.6082430844544433				
348.81103515625	0.2	714365	304	63	3	0	0	18	40	stimuli\Videos_short_600ms\46.scratching_top_to_bottom_with_finger_nails_short_short_600ms.mp4	46.scratching_top_to_bottom_with_finger_nails_short_short_600ms.mp4	415.19884068153897	415.8071740857399	0.6083334042009483				
349.61083984375	0.2	716003	305	63	3	0	0	19	295	stimuli\Videos_short_600ms_vertflip\32.single_(long)pinch_with_fingers_short_vertflip_short_600ms.mp4	32.single_(long)pinch_with_fingers_short_vertflip_short_600ms.mp4	415.9988141134577	416.6071516231018	0.6083375096441159				
350.4111328125	0.2	717642	306	63	3	0	0	20	266	stimuli\Videos_short_600ms_horvertflip\88.repeated_stroke_with_plastic_brush_short_horvertflip_short_600ms.mp4	88.repeated_stroke_with_plastic_brush_short_horvertflip_short_600ms.mp4	416.79880953882093	417.40714587548155	0.6083363366606136				
351.2109375	0.2	719280	307	63	3	0	0	21	270	stimuli\Videos_short_600ms_vertflip\1.repeated_touch_with_finger_fast_short_vertflip_short_600ms.mp4	1.repeated_touch_with_finger_fast_short_vertflip_short_600ms.mp4	417.5987938208391	418.2071184276624	0.6083246068233166				
352.0107421875	0.2	720918	308	63	3	0	0	22	206	stimuli\Videos_short_600ms_horvertflip\33.scratch_top_to_bottom_with_scissors_short_horvertflip_short_600ms.mp4	33.scratch_top_to_bottom_with_scissors_short_horvertflip_short_600ms.mp4	418.3987807420708	419.0071044691558	0.6083237270850077				
352.81103515625	0.2	722557	309	63	3	0	0	23	83	stimuli\Videos_short_600ms\85.touch_top_to_bottom_with_fabric_short_short_600ms.mp4	85.touch_top_to_bottom_with_fabric_short_short_600ms.mp4	419.1987670768103	419.80709285661715	0.6083257798068189				
353.61083984375	0.2	724195	310	63	3	0	0	24	345	stimuli\Videos_short_600ms_vertflip\78.single_stroke_top_to_bottom_with_soft_brush_short_vertflip_short_600ms.mp4	78.single_stroke_top_to_bottom_with_soft_brush_short_vertflip_short_600ms.mp4	419.9987091314142	420.60707508591395	0.6083659544997317				
354.41064453125	0.2	725833	311	63	3	0	0	25	197	stimuli\Videos_short_600ms_horvertflip\25.single_touch_with_stanley_knife_short_horvertflip_short_600ms.mp4	25.single_touch_with_stanley_knife_short_horvertflip_short_600ms.mp4	420.7987236177632	421.40705995442386	0.6083363366606136				
355.2109375	0.2	727472	312	63	3	0	0	26	27	stimuli\Videos_short_600ms\34.repeated_punch_with_hand_short_short_600ms.mp4	34.repeated_punch_with_hand_short_short_600ms.mp4	421.59870232810863	422.2070465824095	0.6083442543008459				
356.0107421875	0.2	729110	313	63	3	0	0	27	210	stimuli\Videos_short_600ms_horvertflip\37.single_stab_with_nail_file_short_horvertflip_short_600ms.mp4	37.single_stab_with_nail_file_short_horvertflip_short_600ms.mp4	422.3987807420708	423.00703966180527	0.6082589197344532				
356.810546875	0.2	730748	314	63	3	0	1	28	379	stimuli\Targets_short_600ms_vertflip\chopstick-silver-tap_short_horvertflip_short_600ms.mp4	chopstick-silver-tap_short_horvertflip_short_600ms.mp4	423.1987629713672	423.80701573293754	0.6082527615703839				
357.61083984375	0.2	732387	315	63	3	0	0	29	276	stimuli\Videos_short_600ms_vertflip\15.single_stroke_top_to_bottom_with_a_plastic_whisk_short_vertflip_short_600ms.mp4	15.single_stroke_top_to_bottom_with_a_plastic_whisk_short_vertflip_short_600ms.mp4	423.99869212315025	424.6070011879392	0.6083090647889549				
358.41064453125	0.2	734025	316	63	3	0	0	30	34	stimuli\Videos_short_600ms\40.repeated_push_with_finger_short_short_600ms.mp4	40.repeated_push_with_finger_short_short_600ms.mp4	424.7986737659553	425.40699104163014	0.6083172756748354				
359.2109375	0.2	735664	317	63	3	0	0	31	37	stimuli\Videos_short_600ms\43.touch_top_to_bottom_with_sharp_wooden_stick_short_short_600ms.mp4	43.touch_top_to_bottom_with_sharp_wooden_stick_short_short_600ms.mp4	425.5988014452332	426.2069542099411	0.6081527647079383				
360.0107421875	0.2	737302	318	63	3	0	0	32	209	stimuli\Videos_short_600ms_horvertflip\36.single_slap_with_full_hand_short_horvertflip_short_600ms.mp4	36.single_slap_with_full_hand_short_horvertflip_short_600ms.mp4	426.3986352920893	427.00693145405694	0.6082961619677008				
360.810546875	0.2	738940	319	63	3	0	0	33	13	stimuli\Videos_short_600ms\21.repeated_touch_with_metal_chopstick_short_short_600ms.mp4	21.repeated_touch_with_metal_chopstick_short_short_600ms.mp4	427.198735699496	427.8069177887969	0.6081820893009535				
361.61083984375	0.2	740579	320	63	3	0	0	34	278	stimuli\Videos_short_600ms_vertflip\17.repeated_touch_with_rolling_pin_short_vertflip_short_600ms.mp4	17.repeated_touch_with_rolling_pin_short_vertflip_short_600ms.mp4	427.99858890058294	428.6069240642596	0.6083351636766565				
362.41064453125	0.2	742217	321	63	3	0	0	35	223	stimuli\Videos_short_600ms_horvertflip\49.repeated_slap_with_hand_short_horvertflip_short_600ms.mp4	49.repeated_slap_with_hand_short_horvertflip_short_600ms.mp4	428.7985907773568	429.4069130382127	0.6083222608558572				
363.21044921875	0.2	743855	322	63	3	0	0	36	153	stimuli\Videos_short_600ms_horflip\67.single_touch_with_sponge_short_horflip_short_600ms.mp4	67.single_touch_with_sponge_short_horflip_short_600ms.mp4	429.59857476612933	430.20690377164146	0.6083290055121324				
364.0107421875	0.2	745494	323	63	3	0	0	37	102	stimuli\Videos_short_600ms_horflip\20.single_touch_with_screwdriver_short_horflip_short_600ms.mp4	20.single_touch_with_screwdriver_short_horflip_short_600ms.mp4	430.398560221131	431.0068924523485	0.608332231217446				
364.810546875	0.2	747132	324	63	3	0	0	38	177	stimuli\Videos_short_600ms_horflip\89.single_touch_with_plastic_brush_short_horflip_short_600ms.mp4	89.single_touch_with_plastic_brush_short_horflip_short_600ms.mp4	431.19854303691955	431.80686852348026	0.608325486560716				
365.6103515625	0.2	748770	325	63	3	0	0	39	297	stimuli\Videos_short_600ms_vertflip\34.repeated_punch_with_hand_short_vertflip_short_600ms.mp4	34.repeated_punch_with_hand_short_vertflip_short_600ms.mp4	431.9985715990729	432.606863948844	0.6082923497710908				
366.41064453125	0.2	750409	326	63	3	0	0	40	226	stimuli\Videos_short_600ms_horvertflip\51.repeated_touch_with_hammer_short_horvertflip_short_600ms.mp4	51.repeated_touch_with_hammer_short_horvertflip_short_600ms.mp4	432.7984901940026	433.406840606468	0.60835041246537				
367.21044921875	0.2	752047	327	63	3	0	0	41	299	stimuli\Videos_short_600ms_vertflip\36.single_slap_with_full_hand_short_vertflip_short_600ms.mp4	36.single_slap_with_full_hand_short_vertflip_short_600ms.mp4	433.5985008681546	434.2068251817318	0.6083243135772136				
368.01025390625	0.2	753685	328	63	3	0	0	42	149	stimuli\Videos_short_600ms_horflip\63.stroke_top_to_bottom_with_screwdriver_short_horflip_short_600ms.mp4	63.stroke_top_to_bottom_with_screwdriver_short_horflip_short_600ms.mp4	434.3985954106424	435.0068094637499	0.6082140531075311				
368.810546875	0.2	755324	329	63	3	0	0	43	343	stimuli\Videos_short_600ms_vertflip\76.tickle_with_fingers_from_top_to_bottom_short_vertflip_short_600ms.mp4	76.tickle_with_fingers_from_top_to_bottom_short_vertflip_short_600ms.mp4	435.19849787704607	435.8067943322598	0.6082964552138037				
369.6103515625	0.2	756962	330	63	3	0	0	44	171	stimuli\Videos_short_600ms_horflip\83.single_stroke_top_to_bottom_with_cotton_bud_short_horflip_short_600ms.mp4	83.single_stroke_top_to_bottom_with_cotton_bud_short_horflip_short_600ms.mp4	435.9984314275184	436.60678037375374	0.60834894623531				
370.41015625	0.2	758600	331	63	3	0	0	45	123	stimuli\Videos_short_600ms_horflip\4.repeated_tap_with_finger_slow_short_horflip_short_600ms.mp4	4.repeated_tap_with_finger_slow_short_horflip_short_600ms.mp4	436.79841922848755	437.4067731599039	0.6083539314163318				
371.21044921875	0.2	760239	332	63	3	0	1	46	378	stimuli\Targets_short_600ms_vertflip\brush-stroke_short_horvertflip_short_600ms.mp4	brush-stroke_short_horvertflip_short_600ms.mp4	437.59856890121046	438.20674923103616	0.6081803298257				
372.01025390625	0.2	761877	333	63	3	0	0	47	319	stimuli\Videos_short_600ms_vertflip\54.repeated_touch_with_knife_short_vertflip_short_600ms.mp4	54.repeated_touch_with_knife_short_vertflip_short_600ms.mp4	438.3984927745669	439.0067349792839	0.6082422047170439				
372.81005859375	0.2	763515	334	63	3	0	0	48	240	stimuli\Videos_short_600ms_horvertflip\64.repeated_touch_with_screwdriver_short_horvertflip_short_600ms.mp4	64.repeated_touch_with_screwdriver_short_horvertflip_short_600ms.mp4	439.1984066775617	439.8067207275317	0.6083140499699766				
373.6103515625	0.2	765154	335	63	3	0	0	49	315	stimuli\Videos_short_600ms_vertflip\50.single_(long)hard_push_with_thumb_short_vertflip_short_600ms.mp4	50.single_(long)hard_push_with_thumb_short_vertflip_short_600ms.mp4	439.9983616349869	440.60670911499255	0.6083474800057047				
374.41015625	0.2	766792	336	63	3	0	0	50	234	stimuli\Videos_short_600ms_horvertflip\59.single_push_with_long_side_pencil_short_horvertflip_short_600ms.mp4	59.single_push_with_long_side_pencil_short_horvertflip_short_600ms.mp4	440.79843711648937	441.4066737495336	0.608236633044271				
375.2099609375	0.2	768430	337	63	3	0	0	51	335	stimuli\Videos_short_600ms_vertflip\69.stroke_with_soft_sock_short_vertflip_short_600ms.mp4	69.stroke_with_soft_sock_short_vertflip_short_600ms.mp4	441.59835219246816	442.2066759195531	0.6083237270850077				
376.01025390625	0.2	770069	338	63	3	0	0	52	33	stimuli\Videos_short_600ms\4.repeated_tap_with_finger_slow_short_short_600ms.mp4	4.repeated_tap_with_finger_slow_short_short_600ms.mp4	442.39834087317513	443.0066575623582	0.6083166891830842				
376.81005859375	0.2	771707	339	63	3	0	0	53	260	stimuli\Videos_short_600ms_horvertflip\82.repeated_touch_with_cotton_bud_short_horvertflip_short_600ms.mp4	82.repeated_touch_with_cotton_bud_short_horvertflip_short_600ms.mp4	443.1983289673903	443.8066221968989	0.6082932295084902				
377.60986328125	0.2	773345	340	63	3	0	0	54	53	stimuli\Videos_short_600ms\58.single_slap_with_pencil_short_short_600ms.mp4	58.single_slap_with_pencil_short_short_600ms.mp4	443.9983067979979	444.6066378562314	0.6083310582334889				
378.41015625	0.2	774984	341	63	3	0	0	55	293	stimuli\Videos_short_600ms_vertflip\30.finger_pulling_back_another_finger_short_vertflip_short_600ms.mp4	30.finger_pulling_back_another_finger_short_vertflip_short_600ms.mp4	444.7983635117607	445.4066192057903	0.6082556940295945				
379.2099609375	0.2	776622	342	63	3	0	0	56	289	stimuli\Videos_short_600ms_vertflip\27.single_push_with_a_plastic_whisk_short_vertflip_short_600ms.mp4	27.single_push_with_a_plastic_whisk_short_vertflip_short_600ms.mp4	445.59842579719634	446.206614631154	0.6081888339576835				
380.01025390625	0.2	778261	343	63	3	0	0	57	290	stimuli\Videos_short_600ms_vertflip\28.single_injection_with_sharp_needle_short_vertflip_short_600ms.mp4	28.single_injection_with_sharp_needle_short_vertflip_short_600ms.mp4	446.3982637494955	447.00658747658053	0.6083237270850077				
380.81005859375	0.2	779899	344	63	3	0	0	58	312	stimuli\Videos_short_600ms_vertflip\48.single_slap_with_hand_short_vertflip_short_600ms.mp4	48.single_slap_with_hand_short_vertflip_short_600ms.mp4	447.1982477382676	447.806578796501	0.6083310582334889				
381.60986328125	0.2	781537	345	63	3	0	0	59	58	stimuli\Videos_short_600ms\62.touch_top_to_bottom_with_scissors_short_short_600ms.mp4	62.touch_top_to_bottom_with_scissors_short_short_600ms.mp4	447.99823495274495	448.6065589730765	0.6083240203315654				
382.41015625	0.2	783176	346	63	3	0	0	60	150	stimuli\Videos_short_600ms_horflip\64.repeated_touch_with_screwdriver_short_horflip_short_600ms.mp4	64.repeated_touch_with_screwdriver_short_horflip_short_600ms.mp4	448.79821864827136	449.4065438415864	0.6083251933150677				
383.2099609375	0.2	784814	347	63	3	0	0	61	31	stimuli\Videos_short_600ms\38.double_slap_with_pencil_short_short_600ms.mp4	38.double_slap_with_pencil_short_short_600ms.mp4	449.59820381002737	450.206529003342	0.608325193314613				
384.009765625	0.2	786452	348	63	3	0	0	62	326	stimuli\Videos_short_600ms_vertflip\60.single_push_with_tip_of_pencil_short_vertflip_short_600ms.mp4	60.single_push_with_tip_of_pencil_short_vertflip_short_600ms.mp4	450.3981916109965	451.0065200300169	0.6083284190203813				
384.81005859375	0.2	788091	349	63	3	0	0	63	56	stimuli\Videos_short_600ms\60.single_push_with_tip_of_pencil_short_short_600ms.mp4	60.single_push_with_tip_of_pencil_short_short_600ms.mp4	451.1981515536022	451.8064996201001	0.6083480664979106				
385.60986328125	0.2	789729	350	63	3	0	0	64	243	stimuli\Videos_short_600ms_horvertflip\67.single_touch_with_sponge_short_horvertflip_short_600ms.mp4	67.single_touch_with_sponge_short_horvertflip_short_600ms.mp4	451.9981355423747	452.60648360887217	0.6083480664974559				
386.40966796875	0.2	791367	351	63	3	0	0	65	198	stimuli\Videos_short_600ms_horvertflip\26.single_touch_with_a_blunt_syringe_short_horvertflip_short_600ms.mp4	26.single_touch_with_a_blunt_syringe_short_horvertflip_short_600ms.mp4	452.7981218771142	453.4064699436117	0.6083480664974559				
387.2099609375	0.2	793006	352	63	3	0	0	66	288	stimuli\Videos_short_600ms_vertflip\26.single_touch_with_a_blunt_syringe_short_vertflip_short_600ms.mp4	26.single_touch_with_a_blunt_syringe_short_vertflip_short_600ms.mp4	453.5981079186081	454.2064559851055	0.6083480664974559				
388.009765625	0.2	794644	353	63	3	0	0	67	238	stimuli\Videos_short_600ms_horvertflip\62.touch_top_to_bottom_with_scissors_short_horvertflip_short_600ms.mp4	62.touch_top_to_bottom_with_scissors_short_horvertflip_short_600ms.mp4	454.3981323753187	455.00643762791015	0.6083052525914354				
388.8095703125	0.2	796282	354	63	3	0	0	68	196	stimuli\Videos_short_600ms_horvertflip\24.single_stroke_top_to_bottom_with_a_spoon_short_horvertflip_short_600ms.mp4	24.single_stroke_top_to_bottom_with_a_spoon_short_horvertflip_short_600ms.mp4	455.198102288286	455.8064251356336	0.6083228473476083				
389.60986328125	0.2	797921	355	63	3	0	0	69	334	stimuli\Videos_short_600ms_vertflip\68.stroke_top_to_bottom_with_shawl_short_vertflip_short_600ms.mp4	68.stroke_top_to_bottom_with_shawl_short_vertflip_short_600ms.mp4	455.99812850447233	456.60640150001154	0.6082729955392097				
390.40966796875	0.2	799559	356	63	3	0	0	70	324	stimuli\Videos_short_600ms_vertflip\59.single_push_with_long_side_pencil_short_vertflip_short_600ms.mp4	59.single_push_with_long_side_pencil_short_vertflip_short_600ms.mp4	456.79807231855193	457.40639985783446	0.6083275392825271				
391.20947265625	0.2	801197	357	63	3	0	0	71	213	stimuli\Videos_short_600ms_horvertflip\4.repeated_tap_with_finger_slow_short_horvertflip_short_600ms.mp4	4.repeated_tap_with_finger_slow_short_horvertflip_short_600ms.mp4	457.5980554275866	458.2063559882431	0.6083005606565166				
392.009765625	0.2	802836	358	63	3	0	0	72	244	stimuli\Videos_short_600ms_horvertflip\68.stroke_top_to_bottom_with_shawl_short_horvertflip_short_600ms.mp4	68.stroke_top_to_bottom_with_shawl_short_horvertflip_short_600ms.mp4	458.39812504417023	459.0063393905234	0.6082143463531793				
392.8095703125	0.2	804474	359	63	3	0	0	73	284	stimuli\Videos_short_600ms_vertflip\22.single_touch_with_metal_chopstick_short_vertflip_short_600ms.mp4	22.single_touch_with_metal_chopstick_short_vertflip_short_600ms.mp4	459.1980336687384	459.806351530905	0.6083178621665866				
393.609375	0.2	806112	360	63	3	0	0	74	71	stimuli\Videos_short_600ms\74.fingers_walking_from_top_to_bottom_short_short_600ms.mp4	74.fingers_walking_from_top_to_bottom_short_short_600ms.mp4	459.99817249136186	460.6063440238094	0.6081715324476136				
394.40966796875	0.2	807751	361	63	3	0	0	75	144	stimuli\Videos_short_600ms_horflip\59.single_push_with_long_side_pencil_short_horflip_short_600ms.mp4	59.single_push_with_long_side_pencil_short_horflip_short_600ms.mp4	460.7979972475937	461.4063297720572	0.6083325244635489				
395.20947265625	0.2	809389	362	63	3	0	0	76	245	stimuli\Videos_short_600ms_horvertflip\69.stroke_with_soft_sock_short_horvertflip_short_600ms.mp4	69.stroke_with_soft_sock_short_horvertflip_short_600ms.mp4	461.5980384193226	462.20630437695945	0.6082659576368314				
396.00927734375	0.2	811027	363	63	3	0	1	77	360	stimuli\Targets_short_600ms\brush-stroke_short_short_600ms.mp4	brush-stroke_short_short_600ms.mp4	462.39799982815794	463.00629569688	0.6082958687220525				
396.8095703125	0.2	812666	364	63	3	0	0	78	313	stimuli\Videos_short_600ms_vertflip\49.repeated_slap_with_hand_short_vertflip_short_600ms.mp4	49.repeated_slap_with_hand_short_vertflip_short_600ms.mp4	463.1979248744983	463.8062752869632	0.6083504124649153				
397.609375	0.2	814304	365	63	3	0	0	79	48	stimuli\Videos_short_600ms\53.touch_top_to_bottom_with_knife_short_short_600ms.mp4	53.touch_top_to_bottom_with_knife_short_short_600ms.mp4	463.9979079835325	464.60626015547314	0.6083521719406235				
398.4091796875	0.2	815942	366	63	3	0	0	80	72	stimuli\Videos_short_600ms\75.(long)stroke_with_fingers_all_over_the_hand_short_short_600ms.mp4	75.(long)stroke_with_fingers_all_over_the_hand_short_short_600ms.mp4	464.7979523809663	465.406246196967	0.6082938160006961				
399.20947265625	0.2	817581	367	63	3	0	0	81	95	stimuli\Videos_short_600ms_horflip\14.repeated_touch_with_pencil_short_horflip_short_600ms.mp4	14.repeated_touch_with_pencil_short_horflip_short_600ms.mp4	465.5978868111765	466.2062304789851	0.60834366780864				
400.00927734375	0.2	819219	368	63	3	0	0	82	325	stimuli\Videos_short_600ms_vertflip\6.single_touch_with_flat_hand_short_vertflip_short_600ms.mp4	6.single_touch_with_flat_hand_short_vertflip_short_600ms.mp4	466.39787490539175	467.0062174002164	0.6083424948246829				
400.8095703125	0.2	820858	369	63	3	0	0	83	110	stimuli\Videos_short_600ms_horflip\28.single_injection_with_sharp_needle_short_horflip_short_600ms.mp4	28.single_injection_with_sharp_needle_short_horflip_short_600ms.mp4	467.19788587278936	467.8062019754807	0.6083161026913331				
401.609375	0.2	822496	370	63	3	0	0	84	248	stimuli\Videos_short_600ms_horvertflip\71.single_stroke_with_finger_top_to_bottom_short_horvertflip_short_600ms.mp4	71.single_stroke_with_finger_top_to_bottom_short_horvertflip_short_600ms.mp4	467.9978422964441	468.6061900696959	0.6083477732518077				
402.4091796875	0.2	824134	371	63	3	0	0	85	214	stimuli\Videos_short_600ms_horvertflip\40.repeated_push_with_finger_short_horvertflip_short_600ms.mp4	40.repeated_push_with_finger_short_horvertflip_short_600ms.mp4	468.7978289244297	469.40616790030344	0.6083389758737212				
403.20947265625	0.2	825773	372	63	3	0	0	86	73	stimuli\Videos_short_600ms\76.tickle_with_fingers_from_top_to_bottom_short_short_600ms.mp4	76.tickle_with_fingers_from_top_to_bottom_short_short_600ms.mp4	469.5978425310409	470.2061577539944	0.608315222953479				
404.00927734375	0.2	827411	373	63	3	0	1	87	363	stimuli\Targets_short_600ms\finger-tap_short_short_600ms.mp4	finger-tap_short_short_600ms.mp4	470.397801007417	471.00614203601253	0.6083410285955324				
404.80908203125	0.2	829049	374	63	3	0	0	88	23	stimuli\Videos_short_600ms\30.finger_pulling_back_another_finger_short_short_600ms.mp4	30.finger_pulling_back_another_finger_short_short_600ms.mp4	471.1978110950772	471.80615036419704	0.6083392691198242				
