onset	duration	onsetsample	eventnumber	subjectnr	sequencenumber	blocksequencenumber	istarget	presentationnumber	stimnumber	stim	stimname	time_stimon	time_stimoff	stimdur	cresp	resp	rt	correct
10.876953125	0.2	22276	0	44	0	0	0	0	217	stimuli\Videos_short_600ms_horvertflip\43.touch_top_to_bottom_with_sharp_wooden_stick_short_horvertflip_short_600ms.mp4	43.touch_top_to_bottom_with_sharp_wooden_stick_short_horvertflip_short_600ms.mp4	125.84555014814669	126.45383849793689	0.6082883497902003				
11.6767578125	0.2	23914	1	44	0	0	0	1	228	stimuli\Videos_short_600ms_horvertflip\53.touch_top_to_bottom_with_knife_short_horvertflip_short_600ms.mp4	53.touch_top_to_bottom_with_knife_short_horvertflip_short_600ms.mp4	126.6454757229626	127.25382008224916	0.6083443592865478				
12.47705078125	0.2	25553	2	44	0	0	0	2	128	stimuli\Videos_short_600ms_horflip\44.pushing_top_to_bottom_with_finger_short_horflip_short_600ms.mp4	44.pushing_top_to_bottom_with_finger_short_horflip_short_600ms.mp4	127.44548545864473	128.0538242463058	0.6083387876610686				
13.27685546875	0.2	27191	3	44	0	0	0	3	61	stimuli\Videos_short_600ms\65.stroke_top_to_bottom_with_stanley_knife_short_short_600ms.mp4	65.stroke_top_to_bottom_with_stanley_knife_short_short_600ms.mp4	128.2454781862075	128.85378618330788	0.6083079971003826				
14.07666015625	0.2	28829	4	44	0	0	0	4	111	stimuli\Videos_short_600ms_horflip\29.single_pinch_with_tweezers_short_horflip_short_600ms.mp4	29.single_pinch_with_tweezers_short_horflip_short_600ms.mp4	129.04546240971058	129.65378565546962	0.6083232457590384				
14.876953125	0.2	30468	5	44	0	0	0	5	213	stimuli\Videos_short_600ms_horvertflip\4.repeated_tap_with_finger_slow_short_horvertflip_short_600ms.mp4	4.repeated_tap_with_finger_slow_short_horvertflip_short_600ms.mp4	129.8454346102326	130.45375433707068	0.60831972683809				
15.6767578125	0.2	32106	6	44	0	0	0	6	99	stimuli\Videos_short_600ms_horflip\18.single_stroke_from_top_to_bottom_with_rolling_pin_short_horflip_short_600ms.mp4	18.single_stroke_from_top_to_bottom_with_rolling_pin_short_horflip_short_600ms.mp4	130.64541531481473	131.25374706463344	0.6083317498187171				
16.4765625	0.2	33744	7	44	0	0	0	7	112	stimuli\Videos_short_600ms_horflip\3.single_push_with_finger_short_horflip_short_600ms.mp4	3.single_push_with_finger_short_horflip_short_600ms.mp4	131.4453930869622	132.05371457326055	0.6083214862983368				
17.27685546875	0.2	35383	8	44	0	0	0	8	5	stimuli\Videos_short_600ms\14.repeated_touch_with_pencil_short_short_600ms.mp4	14.repeated_touch_with_pencil_short_short_600ms.mp4	132.24537144559645	132.8536914656779	0.6083200200814645				
18.07666015625	0.2	37021	9	44	0	0	0	9	204	stimuli\Videos_short_600ms_horvertflip\31.hand_grabbing_wrist_short_horvertflip_short_600ms.mp4	31.hand_grabbing_wrist_short_horvertflip_short_600ms.mp4	133.04535039071743	133.65366953106877	0.608319140351341				
18.87646484375	0.2	38659	10	44	0	0	0	10	179	stimuli\Videos_short_600ms_horflip\90.repeated_touch_with_sponge_short_horflip_short_600ms.mp4	90.repeated_touch_with_sponge_short_horflip_short_600ms.mp4	133.84534693044498	134.45364700997288	0.6083000795279077				
19.6767578125	0.2	40298	11	44	0	0	0	11	261	stimuli\Videos_short_600ms_horvertflip\83.single_stroke_top_to_bottom_with_cotton_bud_short_horvertflip_short_600ms.mp4	83.single_stroke_top_to_bottom_with_cotton_bud_short_horvertflip_short_600ms.mp4	134.64527778364254	135.25362771455457	0.608349930912027				
20.4765625	0.2	41936	12	44	0	0	0	12	82	stimuli\Videos_short_600ms\84.single_touch_with_cotton_bud_short_short_600ms.mp4	84.single_touch_with_cotton_bud_short_short_600ms.mp4	135.44524558551348	136.0536060731888	0.608360487675327				
21.2763671875	0.2	43574	13	44	0	0	1	13	371	stimuli\Targets_short_600ms_horflip\hand-stroke_short_horflip_short_600ms.mp4	hand-stroke_short_horflip_short_600ms.mp4	136.24525414822165	136.85358531155362	0.6083311633319681				
22.07666015625	0.2	45213	14	44	0	0	0	14	312	stimuli\Videos_short_600ms_vertflip\48.single_slap_with_hand_short_vertflip_short_600ms.mp4	48.single_slap_with_hand_short_vertflip_short_600ms.mp4	137.0452257622569	137.65356630937913	0.608340547122225				
22.87646484375	0.2	46851	15	44	0	0	0	15	40	stimuli\Videos_short_600ms\46.scratching_top_to_bottom_with_finger_nails_short_short_600ms.mp4	46.scratching_top_to_bottom_with_finger_nails_short_short_600ms.mp4	137.8452187830635	138.45354290855266	0.6083241254891618				
23.67626953125	0.2	48489	16	44	0	0	0	16	290	stimuli\Videos_short_600ms_vertflip\28.single_injection_with_sharp_needle_short_vertflip_short_600ms.mp4	28.single_injection_with_sharp_needle_short_vertflip_short_600ms.mp4	138.64519010385538	139.2535212671869	0.6083311633315134				
24.4765625	0.2	50128	17	44	0	0	0	17	176	stimuli\Videos_short_600ms_horflip\88.repeated_stroke_with_plastic_brush_short_horflip_short_600ms.mp4	88.repeated_stroke_with_plastic_brush_short_horflip_short_600ms.mp4	139.4451916287212	140.05346619606962	0.6082745673484169				
25.2763671875	0.2	51766	18	44	0	0	0	18	143	stimuli\Videos_short_600ms_horflip\58.single_slap_with_pencil_short_horflip_short_600ms.mp4	58.single_slap_with_pencil_short_horflip_short_600ms.mp4	140.24516969411206	140.85343546415743	0.6082657700453638				
26.07666015625	0.2	53405	19	44	0	0	0	19	351	stimuli\Videos_short_600ms_vertflip\83.single_stroke_top_to_bottom_with_cotton_bud_short_vertflip_short_600ms.mp4	83.single_stroke_top_to_bottom_with_cotton_bud_short_vertflip_short_600ms.mp4	141.04514130814732	141.65343786875383	0.6082965606065045				
26.87646484375	0.2	55043	20	44	0	0	0	20	140	stimuli\Videos_short_600ms_horflip\55.touch_top_to_bottom_with_nail_file_short_horflip_short_600ms.mp4	55.touch_top_to_bottom_with_nail_file_short_horflip_short_600ms.mp4	141.84512230597284	142.45340361792023	0.608281311947394				
27.67626953125	0.2	56681	21	44	0	0	0	21	125	stimuli\Videos_short_600ms_horflip\41.injection_with_blunt_syringe_short_horflip_short_600ms.mp4	41.injection_with_blunt_syringe_short_horflip_short_600ms.mp4	142.64509890514637	143.25340221035185	0.6083033052054816				
28.4765625	0.2	58320	22	44	0	0	0	22	113	stimuli\Videos_short_600ms_horflip\30.finger_pulling_back_another_finger_short_horflip_short_600ms.mp4	30.finger_pulling_back_another_finger_short_horflip_short_600ms.mp4	143.44507814351118	144.05339787034882	0.6083197268376352				
29.2763671875	0.2	59958	23	44	0	0	0	23	180	stimuli\Videos_short_600ms_horvertflip\1.repeated_touch_with_finger_fast_short_horvertflip_short_600ms.mp4	1.repeated_touch_with_finger_fast_short_horvertflip_short_600ms.mp4	144.24505796836274	144.85338180060853	0.6083238322457873				
30.076171875	0.2	61596	24	44	0	0	0	24	242	stimuli\Videos_short_600ms_horvertflip\66.stroke_top_to_bottom_with_sponge_short_horvertflip_short_600ms.mp4	66.stroke_top_to_bottom_with_sponge_short_horvertflip_short_600ms.mp4	145.04503662024035	145.65335488086112	0.6083182606207629				
30.87646484375	0.2	63235	25	44	0	0	0	25	332	stimuli\Videos_short_600ms_vertflip\66.stroke_top_to_bottom_with_sponge_short_vertflip_short_600ms.mp4	66.stroke_top_to_bottom_with_sponge_short_vertflip_short_600ms.mp4	145.8450138059011	146.45333939760758	0.6083255917064889				
31.67626953125	0.2	64873	26	44	0	0	0	26	334	stimuli\Videos_short_600ms_vertflip\68.stroke_top_to_bottom_with_shawl_short_vertflip_short_600ms.mp4	68.stroke_top_to_bottom_with_shawl_short_vertflip_short_600ms.mp4	146.64499040507462	147.25331071839946	0.6083203133248389				
32.47607421875	0.2	66511	27	44	0	0	0	27	118	stimuli\Videos_short_600ms_horflip\35.single_punch_with_hand_short_horflip_short_600ms.mp4	35.single_punch_with_hand_short_horflip_short_600ms.mp4	147.4449558609981	148.05328995676427	0.6083340957661676				
33.2763671875	0.2	68150	28	44	0	0	0	28	169	stimuli\Videos_short_600ms_horflip\81.single_stroke_top_to_bottom_with_cotton_pad_short_horflip_short_600ms.mp4	81.single_stroke_top_to_bottom_with_cotton_pad_short_horflip_short_600ms.mp4	148.24494917504762	148.8532691951291	0.6083200200814645				
34.076171875	0.2	69788	29	44	0	0	0	29	205	stimuli\Videos_short_600ms_horvertflip\32.single_(long)pinch_with_fingers_short_horvertflip_short_600ms.mp4	32.single_(long)pinch_with_fingers_short_horvertflip_short_600ms.mp4	149.04493163909	149.65324696727657	0.6083153281865634				
34.8759765625	0.2	71426	30	44	0	0	0	30	28	stimuli\Videos_short_600ms\35.single_punch_with_hand_short_short_600ms.mp4	35.single_punch_with_hand_short_short_600ms.mp4	149.84491498286295	150.4532308975363	0.6083159146733124				
35.67626953125	0.2	73065	31	44	0	0	1	31	382	stimuli\Targets_short_600ms_vertflip\hand-pinch_short_horvertflip_short_600ms.mp4	hand-pinch_short_horvertflip_short_600ms.mp4	150.64484554281717	151.25320573724912	0.6083601944319526				
36.47607421875	0.2	74703	32	44	0	0	0	32	170	stimuli\Videos_short_600ms_horflip\82.repeated_touch_with_cotton_bud_short_horflip_short_600ms.mp4	82.repeated_touch_with_cotton_bud_short_horflip_short_600ms.mp4	151.44484736092636	152.05318497561393	0.6083376146875707				
37.27587890625	0.2	76341	33	44	0	0	0	33	313	stimuli\Videos_short_600ms_vertflip\49.repeated_slap_with_hand_short_vertflip_short_600ms.mp4	49.repeated_slap_with_hand_short_vertflip_short_600ms.mp4	152.2448227871264	152.8531630410048	0.6083402538783957				
38.076171875	0.2	77980	34	44	0	0	0	34	138	stimuli\Videos_short_600ms_horflip\53.touch_top_to_bottom_with_knife_short_horflip_short_600ms.mp4	53.touch_top_to_bottom_with_knife_short_horflip_short_600ms.mp4	153.04481580793254	153.65314667802113	0.6083308700885937				
38.8759765625	0.2	79618	35	44	0	0	0	35	47	stimuli\Videos_short_600ms\52.touch_top_to_bottom_with_hammer_short_short_600ms.mp4	52.touch_top_to_bottom_with_hammer_short_short_600ms.mp4	153.8447827300729	154.45311682583906	0.6083340957661676				
39.67578125	0.2	81256	36	44	0	0	0	36	345	stimuli\Videos_short_600ms_vertflip\78.single_stroke_top_to_bottom_with_soft_brush_short_vertflip_short_600ms.mp4	78.single_stroke_top_to_bottom_with_soft_brush_short_vertflip_short_600ms.mp4	154.64478777386012	155.2530987033947	0.6083109295345821				
40.47607421875	0.2	82895	37	44	0	0	0	37	45	stimuli\Videos_short_600ms\50.single_(long)hard_push_with_thumb_short_short_600ms.mp4	50.single_(long)hard_push_with_thumb_short_short_600ms.mp4	155.44477258384995	156.05306152012736	0.608288936277404				
41.27587890625	0.2	84533	38	44	0	0	0	38	60	stimuli\Videos_short_600ms\64.repeated_touch_with_screwdriver_short_short_600ms.mp4	64.repeated_touch_with_screwdriver_short_short_600ms.mp4	156.2447415586944	156.85303753281414	0.6082959741197556				
42.07568359375	0.2	86171	39	44	0	0	0	39	86	stimuli\Videos_short_600ms\88.repeated_stroke_with_plastic_brush_short_short_600ms.mp4	88.repeated_stroke_with_plastic_brush_short_short_600ms.mp4	157.0447207970592	157.65301178604022	0.6082909889810253				
42.8759765625	0.2	87810	40	44	0	0	0	40	89	stimuli\Videos_short_600ms\90.repeated_touch_with_sponge_short_short_600ms.mp4	90.repeated_touch_with_sponge_short_short_600ms.mp4	157.8447012083975	158.4530027541423	0.60830154574478				
43.67578125	0.2	89448	41	44	0	0	0	41	246	stimuli\Videos_short_600ms_horvertflip\7.repeated_touch_with_hairbrush_short_horvertflip_short_600ms.mp4	7.repeated_touch_with_hairbrush_short_horvertflip_short_600ms.mp4	158.64467692784092	159.25297818034232	0.6083012525014055				
44.47607421875	0.2	91087	42	44	0	0	0	42	39	stimuli\Videos_short_600ms\45.scratching_with_finger_nails_short_short_600ms.mp4	45.scratching_with_finger_nails_short_short_600ms.mp4	159.44465792566643	160.05298175791222	0.6083238322457873				
45.27587890625	0.2	92725	43	44	0	0	0	43	339	stimuli\Videos_short_600ms_vertflip\72.(short)stroke_with_finger_all_over_the_hand_short_vertflip_short_600ms.mp4	72.(short)stroke_with_finger_all_over_the_hand_short_vertflip_short_600ms.mp4	160.2446359910573	160.85296040979028	0.608324418732991				
46.07568359375	0.2	94363	44	44	0	0	0	44	310	stimuli\Videos_short_600ms_vertflip\46.scratching_top_to_bottom_with_finger_nails_short_vertflip_short_600ms.mp4	46.scratching_top_to_bottom_with_finger_nails_short_vertflip_short_600ms.mp4	161.0446152294221	161.65293378328624	0.6083185538641374				
46.8759765625	0.2	96002	45	44	0	0	0	45	59	stimuli\Videos_short_600ms\63.stroke_top_to_bottom_with_screwdriver_short_short_600ms.mp4	63.stroke_top_to_bottom_with_screwdriver_short_short_600ms.mp4	161.84480472333098	162.4529136081378	0.6081088848068248				
47.67578125	0.2	97640	46	44	0	0	0	46	219	stimuli\Videos_short_600ms_horvertflip\45.scratching_with_finger_nails_short_horvertflip_short_600ms.mp4	45.scratching_with_finger_nails_short_horvertflip_short_600ms.mp4	162.64457575885535	163.25289108704192	0.6083153281865634				
48.4755859375	0.2	99278	47	44	0	0	0	47	77	stimuli\Videos_short_600ms\8.single_touch_with_hairbrush_short_short_600ms.mp4	8.single_touch_with_hairbrush_short_short_600ms.mp4	163.44455529046354	164.05286797945882	0.6083126889952837				
49.27587890625	0.2	100917	48	44	0	0	0	48	327	stimuli\Videos_short_600ms_vertflip\61.single_hit_with_rolling_pin_short_vertflip_short_600ms.mp4	61.single_hit_with_rolling_pin_short_vertflip_short_600ms.mp4	164.24453247612428	164.8528492705277	0.6083167944034358				
50.07568359375	0.2	102555	49	44	0	0	0	49	164	stimuli\Videos_short_600ms_horflip\77.tapping_with_all_fingers_short_horflip_short_600ms.mp4	77.tapping_with_all_fingers_short_horflip_short_600ms.mp4	165.0444709536514	165.65282645618845	0.6083555025370515				
50.87548828125	0.2	104193	50	44	0	0	0	50	165	stimuli\Videos_short_600ms_horflip\78.single_stroke_top_to_bottom_with_soft_brush_short_horflip_short_600ms.mp4	78.single_stroke_top_to_bottom_with_soft_brush_short_horflip_short_600ms.mp4	165.84446778662186	166.45280628104	0.6083384944181489				
51.67578125	0.2	105832	51	44	0	0	0	51	32	stimuli\Videos_short_600ms\39.single_stab_with_scissors_short_short_600ms.mp4	39.single_stab_with_scissors_short_short_600ms.mp4	166.6444455587698	167.25278346670075	0.6083379079309452				
52.4755859375	0.2	107470	52	44	0	0	0	52	123	stimuli\Videos_short_600ms_horflip\4.repeated_tap_with_finger_slow_short_horflip_short_600ms.mp4	4.repeated_tap_with_finger_slow_short_horflip_short_600ms.mp4	167.44442538362136	168.0527688631773	0.6083434795559697				
53.275390625	0.2	109108	53	44	0	0	0	53	10	stimuli\Videos_short_600ms\19.single_touch_with_rolling_pin_short_short_600ms.mp4	19.single_touch_with_rolling_pin_short_short_600ms.mp4	168.2444084341505	168.85274487586412	0.6083364417136181				
54.07568359375	0.2	110747	54	44	0	0	0	54	137	stimuli\Videos_short_600ms_horflip\52.touch_top_to_bottom_with_hammer_short_horflip_short_600ms.mp4	52.touch_top_to_bottom_with_hammer_short_horflip_short_600ms.mp4	169.0443908981929	169.65271414395193	0.6083232457590384				
54.87548828125	0.2	112385	55	44	0	0	0	55	36	stimuli\Videos_short_600ms\42.single_slap_with_plastic_whisk_short_short_600ms.mp4	42.single_slap_with_plastic_whisk_short_short_600ms.mp4	169.84437776088726	170.45267520122388	0.6082974403366279				
55.67529296875	0.2	114023	56	44	0	0	0	56	142	stimuli\Videos_short_600ms_horflip\57.single_touch_with_nail_file_short_horflip_short_600ms.mp4	57.single_touch_with_nail_file_short_horflip_short_600ms.mp4	170.64437342088422	171.25263508552143	0.6082616646372117				
56.4755859375	0.2	115662	57	44	0	0	0	57	316	stimuli\Videos_short_600ms_vertflip\51.repeated_touch_with_hammer_short_vertflip_short_600ms.mp4	51.repeated_touch_with_hammer_short_vertflip_short_600ms.mp4	171.44434415518936	172.05261520361637	0.6082710484270137				
57.275390625	0.2	117300	58	44	0	0	0	58	154	stimuli\Videos_short_600ms_horflip\68.stroke_top_to_bottom_with_shawl_short_horflip_short_600ms.mp4	68.stroke_top_to_bottom_with_shawl_short_horflip_short_600ms.mp4	172.24433219085677	172.85259356225106	0.6082613713942919				
58.0751953125	0.2	118938	59	44	0	0	0	59	126	stimuli\Videos_short_600ms_horflip\42.single_slap_with_plastic_whisk_short_horflip_short_600ms.mp4	42.single_slap_with_plastic_whisk_short_horflip_short_600ms.mp4	173.0443017521884	173.65260271144598	0.6083009592575763				
58.87548828125	0.2	120577	60	44	0	0	0	60	311	stimuli\Videos_short_600ms_vertflip\47.(long)scratching_with_finger_nails_short_vertflip_short_600ms.mp4	47.(long)scratching_with_finger_nails_short_vertflip_short_600ms.mp4	173.84428362974404	174.45258136332404	0.6082977335800024				
59.67529296875	0.2	122215	61	44	0	0	0	61	253	stimuli\Videos_short_600ms_horvertflip\76.tickle_with_fingers_from_top_to_bottom_short_horvertflip_short_600ms.mp4	76.tickle_with_fingers_from_top_to_bottom_short_horvertflip_short_600ms.mp4	174.64425934918745	175.25258230170311	0.6083229525156639				
60.47509765625	0.2	123853	62	44	0	0	0	62	95	stimuli\Videos_short_600ms_horflip\14.repeated_touch_with_pencil_short_horflip_short_600ms.mp4	14.repeated_touch_with_pencil_short_horflip_short_600ms.mp4	175.44423888079564	176.05256447250213	0.6083255917064889				
61.275390625	0.2	125492	63	44	0	0	0	63	90	stimuli\Videos_short_600ms_horflip\1.repeated_touch_with_finger_fast_short_horflip_short_600ms.mp4	1.repeated_touch_with_finger_fast_short_horflip_short_600ms.mp4	176.24421782591662	176.85253344734656	0.6083156214299379				
62.0751953125	0.2	127130	64	44	0	0	0	64	348	stimuli\Videos_short_600ms_vertflip\80.stroke_with_sharp_stick_all_over_the_hand_short_vertflip_short_600ms.mp4	80.stroke_with_sharp_stick_all_over_the_hand_short_vertflip_short_600ms.mp4	177.04419794401156	177.6525106330073	0.6083126889957384				
62.875	0.2	128768	65	44	0	0	0	65	297	stimuli\Videos_short_600ms_vertflip\34.repeated_punch_with_hand_short_vertflip_short_600ms.mp4	34.repeated_punch_with_hand_short_vertflip_short_600ms.mp4	177.84417424994217	178.4524922173191	0.6083179673769337				
63.67529296875	0.2	130407	66	44	0	0	0	66	52	stimuli\Videos_short_600ms\57.single_touch_with_nail_file_short_short_600ms.mp4	57.single_touch_with_nail_file_short_short_600ms.mp4	178.6441543680371	179.25246969622322	0.6083153281861087				
64.47509765625	0.2	132045	67	44	0	0	0	67	163	stimuli\Videos_short_600ms_horflip\76.tickle_with_fingers_from_top_to_bottom_short_horflip_short_600ms.mp4	76.tickle_with_fingers_from_top_to_bottom_short_horflip_short_600ms.mp4	179.44413712532287	180.05245040080536	0.6083132754824874				
65.275390625	0.2	133684	68	44	0	0	0	68	98	stimuli\Videos_short_600ms_horflip\17.repeated_touch_with_rolling_pin_short_horflip_short_600ms.mp4	17.repeated_touch_with_rolling_pin_short_horflip_short_600ms.mp4	180.24411665693103	180.85242817295284	0.6083115160217858				
66.0751953125	0.2	135322	69	44	0	0	0	69	208	stimuli\Videos_short_600ms_horvertflip\35.single_punch_with_hand_short_horvertflip_short_600ms.mp4	35.single_punch_with_hand_short_horvertflip_short_600ms.mp4	181.04410615881625	181.65240770456103	0.60830154574478				
66.875	0.2	136960	70	44	0	0	0	70	197	stimuli\Videos_short_600ms_horvertflip\25.single_touch_with_stanley_knife_short_horvertflip_short_600ms.mp4	25.single_touch_with_stanley_knife_short_horvertflip_short_600ms.mp4	181.8440264552501	182.4523869429254	0.608360487675327				
67.67529296875	0.2	138599	71	44	0	0	0	71	145	stimuli\Videos_short_600ms_horflip\6.single_touch_with_flat_hand_short_horflip_short_600ms.mp4	6.single_touch_with_flat_hand_short_horflip_short_600ms.mp4	182.64402651389855	183.2523644218295	0.6083379079309452				
68.47509765625	0.2	140237	72	44	0	0	0	72	319	stimuli\Videos_short_600ms_vertflip\54.repeated_touch_with_knife_short_vertflip_short_600ms.mp4	54.repeated_touch_with_knife_short_vertflip_short_600ms.mp4	183.4440060455067	184.052345419655	0.6083393741482723				
69.27490234375	0.2	141875	73	44	0	0	0	73	323	stimuli\Videos_short_600ms_vertflip\58.single_slap_with_pencil_short_vertflip_short_600ms.mp4	58.single_slap_with_pencil_short_vertflip_short_600ms.mp4	184.24398968252308	184.8523214323418	0.6083317498187171				
70.0751953125	0.2	143514	74	44	0	0	0	74	281	stimuli\Videos_short_600ms_vertflip\2.single_touch_with_finger_short_vertflip_short_600ms.mp4	2.single_touch_with_finger_short_vertflip_short_600ms.mp4	185.0439680411573	185.65231533287852	0.608347291721202				
70.875	0.2	145152	75	44	0	0	0	75	167	stimuli\Videos_short_600ms_horflip\8.single_touch_with_hairbrush_short_horflip_short_600ms.mp4	8.single_touch_with_hairbrush_short_horflip_short_600ms.mp4	185.84397924305676	186.45226436716897	0.6082851241121716				
71.6748046875	0.2	146790	76	44	0	0	0	76	131	stimuli\Videos_short_600ms_horflip\47.(long)scratching_with_finger_nails_short_horflip_short_600ms.mp4	47.(long)scratching_with_finger_nails_short_horflip_short_600ms.mp4	186.64396493277673	187.2522154541639	0.6082505213871627				
72.47509765625	0.2	148429	77	44	0	0	0	77	298	stimuli\Videos_short_600ms_vertflip\35.single_punch_with_hand_short_vertflip_short_600ms.mp4	35.single_punch_with_hand_short_vertflip_short_600ms.mp4	187.4439268697788	188.05219439928487	0.6082675295060653				
73.27490234375	0.2	150067	78	44	0	0	0	78	49	stimuli\Videos_short_600ms\54.repeated_touch_with_knife_short_short_600ms.mp4	54.repeated_touch_with_knife_short_short_600ms.mp4	188.24391343922937	188.85220061604605	0.6082871768167024				
74.07470703125	0.2	151705	79	44	0	0	0	79	202	stimuli\Videos_short_600ms_horvertflip\3.single_push_with_finger_short_horvertflip_short_600ms.mp4	3.single_push_with_finger_short_horvertflip_short_600ms.mp4	189.04388358704773	189.65218425306193	0.6083006660142019				
74.875	0.2	153344	80	44	0	0	0	80	74	stimuli\Videos_short_600ms\77.tapping_with_all_fingers_short_short_600ms.mp4	77.tapping_with_all_fingers_short_short_600ms.mp4	189.84386106595184	190.45216847656505	0.608307410613179				
75.6748046875	0.2	154982	81	44	0	0	0	81	285	stimuli\Videos_short_600ms_vertflip\23.single_push_with_a_spoon_short_vertflip_short_600ms.mp4	23.single_push_with_a_spoon_short_vertflip_short_600ms.mp4	190.6438391313427	191.25215856493696	0.6083194335942608				
76.474609375	0.2	156620	82	44	0	0	0	82	343	stimuli\Videos_short_600ms_vertflip\76.tickle_with_fingers_from_top_to_bottom_short_vertflip_short_600ms.mp4	76.tickle_with_fingers_from_top_to_bottom_short_vertflip_short_600ms.mp4	191.4438213021417	192.0521336978936	0.6083123957519092				
77.27490234375	0.2	158259	83	44	0	0	0	83	162	stimuli\Videos_short_600ms_horflip\75.(long)stroke_with_fingers_all_over_the_hand_short_horflip_short_600ms.mp4	75.(long)stroke_with_fingers_all_over_the_hand_short_horflip_short_600ms.mp4	192.24377854724844	192.85211762815337	0.6083390809048979				
78.07470703125	0.2	159897	84	44	0	0	0	84	299	stimuli\Videos_short_600ms_vertflip\36.single_slap_with_full_hand_short_vertflip_short_600ms.mp4	36.single_slap_with_full_hand_short_vertflip_short_600ms.mp4	193.0437786058974	193.65209246786665	0.6083138619692363				
78.87451171875	0.2	161535	85	44	0	0	0	85	41	stimuli\Videos_short_600ms\47.(long)scratching_with_finger_nails_short_short_600ms.mp4	47.(long)scratching_with_finger_nails_short_short_600ms.mp4	193.84375755101837	194.45207258596156	0.608315034943189				
79.6748046875	0.2	163174	86	44	0	0	0	86	229	stimuli\Videos_short_600ms_horvertflip\54.repeated_touch_with_knife_short_horvertflip_short_600ms.mp4	54.repeated_touch_with_knife_short_horvertflip_short_600ms.mp4	194.6437429474954	195.25205006486567	0.6083071173702592				
80.474609375	0.2	164812	87	44	0	0	0	87	321	stimuli\Videos_short_600ms_vertflip\56.repeated_touch_with_nail_file_short_vertflip_short_600ms.mp4	56.repeated_touch_with_nail_file_short_vertflip_short_600ms.mp4	195.44372189261685	196.05203164917748	0.6083097565606295				
81.2744140625	0.2	166450	88	44	0	0	0	88	247	stimuli\Videos_short_600ms_horvertflip\70.(long)stroke_with_finger_all_over_the_hand_short_horvertflip_short_600ms.mp4	70.(long)stroke_with_finger_all_over_the_hand_short_horvertflip_short_600ms.mp4	196.24364864040624	196.85200883483824	0.6083601944319526				
82.07470703125	0.2	168089	89	44	0	0	0	89	109	stimuli\Videos_short_600ms_horflip\27.single_push_with_a_plastic_whisk_short_horflip_short_600ms.mp4	27.single_push_with_a_plastic_whisk_short_horflip_short_600ms.mp4	197.04362993147515	197.6520086002438	0.608378668768637				
82.87451171875	0.2	169727	90	44	0	0	0	90	101	stimuli\Videos_short_600ms_horflip\2.single_touch_with_finger_short_horflip_short_600ms.mp4	2.single_touch_with_finger_short_horflip_short_600ms.mp4	197.84360711713543	198.45196907102857	0.6083619538931089				
83.6748046875	0.2	171366	91	44	0	0	0	91	329	stimuli\Videos_short_600ms_vertflip\63.stroke_top_to_bottom_with_screwdriver_short_vertflip_short_600ms.mp4	63.stroke_top_to_bottom_with_screwdriver_short_vertflip_short_600ms.mp4	198.6436127474094	199.25194625668885	0.6083335092794186	2.0	2.0	1.758951842390161	1.0
118.62353515625	0.2	242941	92	44	1	0	0	0	70	stimuli\Videos_short_600ms\73.single_stroke_with_flat_hand_short_short_600ms.mp4	73.single_stroke_with_flat_hand_short_short_600ms.mp4	233.5927206422266	234.2010072325561	0.6082865903294987				
119.42333984375	0.2	244579	93	44	1	0	0	1	48	stimuli\Videos_short_600ms\53.touch_top_to_bottom_with_knife_short_short_600ms.mp4	53.touch_top_to_bottom_with_knife_short_short_600ms.mp4	234.3926946022093	235.00098793713823	0.6082933349289306				
120.22314453125	0.2	246217	94	44	1	0	0	2	336	stimuli\Videos_short_600ms_vertflip\7.repeated_touch_with_hairbrush_short_vertflip_short_600ms.mp4	7.repeated_touch_with_hairbrush_short_vertflip_short_600ms.mp4	235.19267853246905	235.80097098766737	0.6082924551983524				
121.0234375	0.2	247856	95	44	1	0	0	3	136	stimuli\Videos_short_600ms_horflip\51.repeated_touch_with_hammer_short_horflip_short_600ms.mp4	51.repeated_touch_with_hammer_short_horflip_short_600ms.mp4	235.9926533721823	236.6009499327888	0.6082965606065045				
121.8232421875	0.2	249494	96	44	1	0	1	4	378	stimuli\Targets_short_600ms_vertflip\brush-stroke_short_horvertflip_short_600ms.mp4	brush-stroke_short_horvertflip_short_600ms.mp4	236.79263055784304	237.4009535103587	0.6083229525156639				
122.62353515625	0.2	251133	97	44	1	0	0	5	190	stimuli\Videos_short_600ms_horvertflip\19.single_touch_with_rolling_pin_short_horvertflip_short_600ms.mp4	19.single_touch_with_rolling_pin_short_horvertflip_short_600ms.mp4	237.59261302188543	238.20092541763736	0.6083123957519092				
123.42333984375	0.2	252771	98	44	1	0	0	6	283	stimuli\Videos_short_600ms_vertflip\21.repeated_touch_with_metal_chopstick_short_vertflip_short_600ms.mp4	21.repeated_touch_with_metal_chopstick_short_vertflip_short_600ms.mp4	238.3925913805197	239.00090788167972	0.6083165011600613				
124.22314453125	0.2	254409	99	44	1	0	0	7	192	stimuli\Videos_short_600ms_horvertflip\20.single_touch_with_screwdriver_short_horvertflip_short_600ms.mp4	20.single_touch_with_screwdriver_short_horvertflip_short_600ms.mp4	239.1925673932069	239.80088536058383	0.6083179673769337				
125.0234375	0.2	256048	100	44	1	0	1	8	360	stimuli\Targets_short_600ms\brush-stroke_short_short_600ms.mp4	brush-stroke_short_short_600ms.mp4	239.9925524964401	240.60086459894865	0.6083121025085347				
125.8232421875	0.2	257686	101	44	1	0	0	9	265	stimuli\Videos_short_600ms_horvertflip\87.single_stroke_top_to_bottom_with_plastic_brush_short_horvertflip_short_600ms.mp4	87.single_stroke_top_to_bottom_with_plastic_brush_short_horvertflip_short_600ms.mp4	240.7925273361534	241.4008473562344	0.6083200200810097				
126.623046875	0.2	259324	102	44	1	0	0	10	225	stimuli\Videos_short_600ms_horvertflip\50.single_(long)hard_push_with_thumb_short_horvertflip_short_600ms.mp4	50.single_(long)hard_push_with_thumb_short_horvertflip_short_600ms.mp4	241.59248751369432	242.200820436487	0.6083329227926697				
127.42333984375	0.2	260963	103	44	1	0	1	11	383	stimuli\Targets_short_600ms_vertflip\hand-stroke_short_horvertflip_short_600ms.mp4	hand-stroke_short_horvertflip_short_600ms.mp4	242.392482587205	243.0008008478253	0.6083182606203081				
128.22314453125	0.2	262601	104	44	1	0	0	12	272	stimuli\Videos_short_600ms_vertflip\11.single_touch_with_lighter_short_vertflip_short_600ms.mp4	11.single_touch_with_lighter_short_vertflip_short_600ms.mp4	243.19245537421375	243.80078331186817	0.6083279376543942				
129.02294921875	0.2	264239	105	44	1	0	0	13	110	stimuli\Videos_short_600ms_horflip\28.single_injection_with_sharp_needle_short_horflip_short_600ms.mp4	28.single_injection_with_sharp_needle_short_horflip_short_600ms.mp4	243.9924193639199	244.6007596177983	0.6083402538783957				
129.8232421875	0.2	265878	106	44	1	0	1	14	365	stimuli\Targets_short_600ms\hand-stroke_short_short_600ms.mp4	hand-stroke_short_short_600ms.mp4	244.7924000685016	245.40073885616312	0.6083387876615234				
130.623046875	0.2	267516	107	44	1	0	0	15	168	stimuli\Videos_short_600ms_horflip\80.stroke_with_sharp_stick_all_over_the_hand_short_horflip_short_600ms.mp4	80.stroke_with_sharp_stick_all_over_the_hand_short_horflip_short_600ms.mp4	245.59238135957048	246.20071809452747	0.6083367349569926				
131.4228515625	0.2	269154	108	44	1	0	0	16	216	stimuli\Videos_short_600ms_horvertflip\42.single_slap_with_plastic_whisk_short_horvertflip_short_600ms.mp4	42.single_slap_with_plastic_whisk_short_horvertflip_short_600ms.mp4	246.39237584659395	247.00070055857032	0.6083247119763655				
132.22314453125	0.2	270793	109	44	1	0	0	17	256	stimuli\Videos_short_600ms_horvertflip\79.long_with_soft_brush_all_over_the_hand_short_horvertflip_short_600ms.mp4	79.long_with_soft_brush_all_over_the_hand_short_horvertflip_short_600ms.mp4	247.1923577241496	247.800642261775	0.6082845376254227				
133.02294921875	0.2	272431	110	44	1	0	0	18	184	stimuli\Videos_short_600ms_horvertflip\13.single_touch_with_pen_short_horvertflip_short_600ms.mp4	13.single_touch_with_pen_short_horvertflip_short_600ms.mp4	247.99235074495573	248.600657862326	0.6083071173702592				
133.82275390625	0.2	274069	111	44	1	0	0	19	292	stimuli\Videos_short_600ms_vertflip\3.single_push_with_finger_short_vertflip_short_600ms.mp4	3.single_push_with_finger_short_vertflip_short_600ms.mp4	248.79231825358283	249.400620092571	0.6083018389881545				
134.623046875	0.2	275708	112	44	1	0	0	20	221	stimuli\Videos_short_600ms_horvertflip\47.(long)scratching_with_finger_nails_short_horvertflip_short_600ms.mp4	47.(long)scratching_with_finger_nails_short_horvertflip_short_600ms.mp4	249.59230863519815	250.20056854037512	0.6082599051769648				
135.4228515625	0.2	277346	113	44	1	0	0	21	193	stimuli\Videos_short_600ms_horvertflip\21.repeated_touch_with_metal_chopstick_short_horvertflip_short_600ms.mp4	21.repeated_touch_with_metal_chopstick_short_horvertflip_short_600ms.mp4	250.3922740911212	251.0005785693006	0.6083044781794342				
136.22265625	0.2	278984	114	44	1	0	0	22	175	stimuli\Videos_short_600ms_horflip\87.single_stroke_top_to_bottom_with_plastic_brush_short_horflip_short_600ms.mp4	87.single_stroke_top_to_bottom_with_plastic_brush_short_horflip_short_600ms.mp4	251.19225420921657	251.800554288744	0.6083000795274529				
137.02294921875	0.2	280623	115	44	1	0	0	23	149	stimuli\Videos_short_600ms_horflip\63.stroke_top_to_bottom_with_screwdriver_short_horflip_short_600ms.mp4	63.stroke_top_to_bottom_with_screwdriver_short_horflip_short_600ms.mp4	251.9922337408243	252.60056021226137	0.6083264714370671				
137.82275390625	0.2	282261	116	44	1	0	0	24	305	stimuli\Videos_short_600ms_vertflip\41.injection_with_blunt_syringe_short_vertflip_short_600ms.mp4	41.injection_with_blunt_syringe_short_vertflip_short_600ms.mp4	252.7922150318932	253.4006558682704	0.6084408363772127				
138.62255859375	0.2	283899	117	44	1	0	0	25	326	stimuli\Videos_short_600ms_vertflip\60.single_push_with_tip_of_pencil_short_vertflip_short_600ms.mp4	60.single_push_with_tip_of_pencil_short_vertflip_short_600ms.mp4	253.59219104458	254.2005093052007	0.6083182606207629				
139.4228515625	0.2	285538	118	44	1	0	0	26	103	stimuli\Videos_short_600ms_horflip\21.repeated_touch_with_metal_chopstick_short_horflip_short_600ms.mp4	21.repeated_touch_with_metal_chopstick_short_horflip_short_600ms.mp4	254.39217174916212	255.00048766383495	0.6083159146728576				
140.22265625	0.2	287176	119	44	1	0	0	27	76	stimuli\Videos_short_600ms\79.long_with_soft_brush_all_over_the_hand_short_short_600ms.mp4	79.long_with_soft_brush_all_over_the_hand_short_short_600ms.mp4	255.19212782129537	255.80046807517377	0.6083402538783957				
141.02294921875	0.2	288815	120	44	1	0	0	28	320	stimuli\Videos_short_600ms_vertflip\55.touch_top_to_bottom_with_nail_file_short_vertflip_short_600ms.mp4	55.touch_top_to_bottom_with_nail_file_short_vertflip_short_600ms.mp4	255.99213051913463	256.6004435013738	0.6083129822391129				
141.82275390625	0.2	290453	121	44	1	0	0	29	78	stimuli\Videos_short_600ms\80.stroke_with_sharp_stick_all_over_the_hand_short_short_600ms.mp4	80.stroke_with_sharp_stick_all_over_the_hand_short_short_600ms.mp4	256.7921138629076	257.4004256721728	0.6083118092651603				
142.62255859375	0.2	292091	122	44	1	0	0	30	278	stimuli\Videos_short_600ms_vertflip\17.repeated_touch_with_rolling_pin_short_vertflip_short_600ms.mp4	17.repeated_touch_with_rolling_pin_short_vertflip_short_600ms.mp4	257.5921227188592	258.20040373756365	0.6082810187044743				
143.4228515625	0.2	293730	123	44	1	0	0	31	220	stimuli\Videos_short_600ms_horvertflip\46.scratching_top_to_bottom_with_finger_nails_short_horvertflip_short_600ms.mp4	46.scratching_top_to_bottom_with_finger_nails_short_horvertflip_short_600ms.mp4	258.39202923285166	259.0003826826851	0.6083534498334302				
144.22265625	0.2	295368	124	44	1	0	0	32	31	stimuli\Videos_short_600ms\38.double_slap_with_pencil_short_short_600ms.mp4	38.double_slap_with_pencil_short_short_600ms.mp4	259.1925128499274	259.8003657332142	0.607852883286796				
145.0224609375	0.2	297006	125	44	1	0	0	33	2	stimuli\Videos_short_600ms\11.single_touch_with_lighter_short_short_600ms.mp4	11.single_touch_with_lighter_short_short_600ms.mp4	259.9919997325619	260.6003399864403	0.6083402538783957				
145.82275390625	0.2	298645	126	44	1	0	0	34	195	stimuli\Videos_short_600ms_horvertflip\23.single_push_with_a_spoon_short_horvertflip_short_600ms.mp4	23.single_push_with_a_spoon_short_horvertflip_short_600ms.mp4	260.79200448310576	261.4003195180485	0.6083150349427342				
146.62255859375	0.2	300283	127	44	1	0	0	35	16	stimuli\Videos_short_600ms\24.single_stroke_top_to_bottom_with_a_spoon_short_short_600ms.mp4	24.single_stroke_top_to_bottom_with_a_spoon_short_short_600ms.mp4	261.5919634876732	262.20030315506483	0.6083396673916468				
147.42236328125	0.2	301921	128	44	1	0	0	36	275	stimuli\Videos_short_600ms_vertflip\14.repeated_touch_with_pencil_short_vertflip_short_600ms.mp4	14.repeated_touch_with_pencil_short_vertflip_short_600ms.mp4	262.3919465382028	263.00027418261334	0.608327644410565				
148.22265625	0.2	303560	129	44	1	0	0	37	341	stimuli\Videos_short_600ms_vertflip\74.fingers_walking_from_top_to_bottom_short_vertflip_short_600ms.mp4	74.fingers_walking_from_top_to_bottom_short_vertflip_short_600ms.mp4	263.19194835631197	263.80025459395165	0.6083062376396811				
149.0224609375	0.2	305198	130	44	1	0	0	38	37	stimuli\Videos_short_600ms\43.touch_top_to_bottom_with_sharp_wooden_stick_short_short_600ms.mp4	43.touch_top_to_bottom_with_sharp_wooden_stick_short_short_600ms.mp4	263.9919208500778	264.60021271878895	0.6082918687111487				
149.822265625	0.2	306836	131	44	1	0	0	39	178	stimuli\Videos_short_600ms_horflip\9.single_touch_with_hammer_short_horflip_short_600ms.mp4	9.single_touch_with_hammer_short_horflip_short_600ms.mp4	264.7919044870937	265.40019195715377	0.6082874700600769				
150.62255859375	0.2	308475	132	44	1	0	1	40	372	stimuli\Targets_short_600ms_horvertflip\brush-stroke_short_vertflip_short_600ms.mp4	brush-stroke_short_vertflip_short_600ms.mp4	265.591878153833	266.2001750076829	0.608296853849879				
151.42236328125	0.2	310113	133	44	1	0	0	41	13	stimuli\Videos_short_600ms\21.repeated_touch_with_metal_chopstick_short_short_600ms.mp4	21.repeated_touch_with_metal_chopstick_short_short_600ms.mp4	266.39185563273713	267.0001627501074	0.6083071173702592				
152.22216796875	0.2	311751	134	44	1	0	0	42	210	stimuli\Videos_short_600ms_horvertflip\37.single_stab_with_nail_file_short_horvertflip_short_600ms.mp4	37.single_stab_with_nail_file_short_horvertflip_short_600ms.mp4	267.1918372170494	267.8001484398278	0.6083112227784113				
153.0224609375	0.2	313390	135	44	1	0	0	43	237	stimuli\Videos_short_600ms_horvertflip\61.single_hit_with_rolling_pin_short_horvertflip_short_600ms.mp4	61.single_hit_with_rolling_pin_short_horvertflip_short_600ms.mp4	267.99181704190096	268.6001391146865	0.6083220727855405				
153.822265625	0.2	315028	136	44	1	0	0	44	130	stimuli\Videos_short_600ms_horflip\46.scratching_top_to_bottom_with_finger_nails_short_horflip_short_600ms.mp4	46.scratching_top_to_bottom_with_finger_nails_short_horflip_short_600ms.mp4	268.7917921748576	269.40011454088653	0.608322366028915				
154.6220703125	0.2	316666	137	44	1	0	0	45	286	stimuli\Videos_short_600ms_vertflip\24.single_stroke_top_to_bottom_with_a_spoon_short_vertflip_short_600ms.mp4	24.single_stroke_top_to_bottom_with_a_spoon_short_vertflip_short_600ms.mp4	269.59177258619593	270.2000999373631	0.6083273511671905				
155.42236328125	0.2	318305	138	44	1	0	1	46	362	stimuli\Targets_short_600ms\chopstickwood-tap_short_short_600ms.mp4	chopstickwood-tap_short_short_600ms.mp4	270.3917573961862	271.000071258155	0.6083138619687816				
156.22216796875	0.2	319943	139	44	1	0	0	47	14	stimuli\Videos_short_600ms\22.single_touch_with_metal_chopstick_short_short_600ms.mp4	22.single_touch_with_metal_chopstick_short_short_600ms.mp4	271.1917295967082	271.80004815057237	0.6083185538641374				
157.02197265625	0.2	321581	140	44	1	0	1	48	364	stimuli\Targets_short_600ms\hand-pinch_short_short_600ms.mp4	hand-pinch_short_short_600ms.mp4	271.99170707561234	272.6000291483979	0.6083220727855405				
157.822265625	0.2	323220	141	44	1	0	0	49	188	stimuli\Videos_short_600ms_horvertflip\17.repeated_touch_with_rolling_pin_short_horvertflip_short_600ms.mp4	17.repeated_touch_with_rolling_pin_short_horvertflip_short_600ms.mp4	272.7916848477598	273.4000075070321	0.6083226592722895				
158.6220703125	0.2	324858	142	44	1	0	0	50	254	stimuli\Videos_short_600ms_horvertflip\77.tapping_with_all_fingers_short_horvertflip_short_600ms.mp4	77.tapping_with_all_fingers_short_horvertflip_short_600ms.mp4	273.5916629131507	274.199985572423	0.6083226592722895				
159.42236328125	0.2	326497	143	44	1	0	0	51	18	stimuli\Videos_short_600ms\26.single_touch_with_a_blunt_syringe_short_short_600ms.mp4	26.single_touch_with_a_blunt_syringe_short_short_600ms.mp4	274.39162660961347	274.9999659837613	0.6083393741478176				
160.22216796875	0.2	328135	144	44	1	0	0	52	29	stimuli\Videos_short_600ms\36.single_slap_with_full_hand_short_short_600ms.mp4	36.single_slap_with_full_hand_short_short_600ms.mp4	275.1915826817467	275.7999449288827	0.6083622471360286				
161.02197265625	0.2	329773	145	44	1	0	0	53	97	stimuli\Videos_short_600ms_horflip\16.repeated_touch_with_plastic_brush_short_horflip_short_600ms.mp4	16.repeated_touch_with_plastic_brush_short_horflip_short_600ms.mp4	275.9915824471518	276.599926513195	0.6083440660431734				
161.822265625	0.2	331412	146	44	1	0	0	54	83	stimuli\Videos_short_600ms\85.touch_top_to_bottom_with_fabric_short_short_600ms.mp4	85.touch_top_to_bottom_with_fabric_short_short_600ms.mp4	276.791568723359	277.39990105966444	0.608332336305466				
162.6220703125	0.2	333050	147	44	1	0	0	55	64	stimuli\Videos_short_600ms\68.stroke_top_to_bottom_with_shawl_short_short_600ms.mp4	68.stroke_top_to_bottom_with_shawl_short_short_600ms.mp4	277.59154180361156	278.19988586965474	0.6083440660431734				
163.421875	0.2	334688	148	44	1	0	0	56	69	stimuli\Videos_short_600ms\72.(short)stroke_with_finger_all_over_the_hand_short_short_600ms.mp4	72.(short)stroke_with_finger_all_over_the_hand_short_short_600ms.mp4	278.39155300551056	278.9998489796303	0.6082959741197556				
164.22216796875	0.2	336327	149	44	1	0	0	57	9	stimuli\Videos_short_600ms\18.single_stroke_from_top_to_bottom_with_rolling_pin_short_short_600ms.mp4	18.single_stroke_from_top_to_bottom_with_rolling_pin_short_short_600ms.mp4	279.1915281384672	279.79981414230997	0.6082860038427498				
165.02197265625	0.2	337965	150	44	1	0	0	58	11	stimuli\Videos_short_600ms\2.single_touch_with_finger_short_short_600ms.mp4	2.single_touch_with_finger_short_short_600ms.mp4	279.99150268493713	280.5998089225768	0.6083062376396811				
165.82177734375	0.2	339603	151	44	1	0	0	59	172	stimuli\Videos_short_600ms_horflip\84.single_touch_with_cotton_bud_short_horflip_short_600ms.mp4	84.single_touch_with_cotton_bud_short_horflip_short_600ms.mp4	280.79144526787195	281.3997946122972	0.6083493444252781				
166.6220703125	0.2	341242	152	44	1	0	0	60	158	stimuli\Videos_short_600ms_horflip\71.single_stroke_with_finger_top_to_bottom_short_horflip_short_600ms.mp4	71.single_stroke_with_finger_top_to_bottom_short_horflip_short_600ms.mp4	281.5914591089622	282.1997562560555	0.6082971470932534				
167.421875	0.2	342880	153	44	1	0	0	61	157	stimuli\Videos_short_600ms_horflip\70.(long)stroke_with_finger_all_over_the_hand_short_horflip_short_600ms.mp4	70.(long)stroke_with_finger_all_over_the_hand_short_horflip_short_600ms.mp4	282.39143805408366	282.99974253226264	0.6083044781789795				
168.2216796875	0.2	344518	154	44	1	0	0	62	134	stimuli\Videos_short_600ms_horflip\5.repeated_tap_with_finger_moving_from_top_to_bottom_short_horflip_short_600ms.mp4	5.repeated_tap_with_finger_moving_from_top_to_bottom_short_horflip_short_600ms.mp4	283.1914275559684	283.7997408314509	0.6083132754824874				
169.02197265625	0.2	346157	155	44	1	0	0	63	338	stimuli\Videos_short_600ms_vertflip\71.single_stroke_with_finger_top_to_bottom_short_vertflip_short_600ms.mp4	71.single_stroke_with_finger_top_to_bottom_short_vertflip_short_600ms.mp4	283.99140767406334	284.59971361845965	0.6083059443963066				
169.82177734375	0.2	347795	156	44	1	0	0	64	6	stimuli\Videos_short_600ms\15.single_stroke_top_to_bottom_with_a_plastic_whisk_short_short_600ms.mp4	15.single_stroke_top_to_bottom_with_a_plastic_whisk_short_short_600ms.mp4	284.7913763556644	285.39969315006783	0.6083167944034358				
170.62158203125	0.2	349433	157	44	1	0	0	65	309	stimuli\Videos_short_600ms_vertflip\45.scratching_with_finger_nails_short_vertflip_short_600ms.mp4	45.scratching_with_finger_nails_short_vertflip_short_600ms.mp4	285.59135354132513	286.19967121545915	0.6083176741340139				
171.421875	0.2	351072	158	44	1	0	0	66	80	stimuli\Videos_short_600ms\82.repeated_touch_with_cotton_bud_short_short_600ms.mp4	82.repeated_touch_with_cotton_bud_short_short_600ms.mp4	286.39134685537465	286.99965338625816	0.6083065308835103				
172.2216796875	0.2	352710	159	44	1	0	0	67	222	stimuli\Videos_short_600ms_horvertflip\48.single_slap_with_hand_short_horvertflip_short_600ms.mp4	48.single_slap_with_hand_short_horvertflip_short_600ms.mp4	287.1913111383242	287.79962939894494	0.6083182606207629				
173.021484375	0.2	354348	160	44	1	0	0	68	258	stimuli\Videos_short_600ms_horvertflip\80.stroke_with_sharp_stick_all_over_the_hand_short_horvertflip_short_600ms.mp4	80.stroke_with_sharp_stick_all_over_the_hand_short_horvertflip_short_600ms.mp4	287.99124551044315	288.59960863730976	0.6083631268666068				
173.82177734375	0.2	355987	161	44	1	0	0	69	235	stimuli\Videos_short_600ms_horvertflip\6.single_touch_with_flat_hand_short_horvertflip_short_600ms.mp4	6.single_touch_with_flat_hand_short_horvertflip_short_600ms.mp4	288.79126932181	289.39958758243074	0.6083182606207629				
174.62158203125	0.2	357625	162	44	1	0	0	70	230	stimuli\Videos_short_600ms_horvertflip\55.touch_top_to_bottom_with_nail_file_short_horvertflip_short_600ms.mp4	55.touch_top_to_bottom_with_nail_file_short_horvertflip_short_600ms.mp4	289.591264688564	290.19956506133485	0.6083003727708274				
175.42138671875	0.2	359263	163	44	1	0	0	71	282	stimuli\Videos_short_600ms_vertflip\20.single_touch_with_screwdriver_short_vertflip_short_600ms.mp4	20.single_touch_with_screwdriver_short_vertflip_short_600ms.mp4	290.39120580528197	290.99954752537724	0.6083417200952681				
176.2216796875	0.2	360902	164	44	1	0	1	72	374	stimuli\Targets_short_600ms_horvertflip\chopstickwood-tap_short_vertflip_short_600ms.mp4	chopstickwood-tap_short_vertflip_short_600ms.mp4	291.19118475040295	291.7995241245512	0.6083393741482723				
177.021484375	0.2	362540	165	44	1	0	0	73	151	stimuli\Videos_short_600ms_horflip\65.stroke_top_to_bottom_with_stanley_knife_short_horflip_short_600ms.mp4	65.stroke_top_to_bottom_with_stanley_knife_short_horflip_short_600ms.mp4	291.9911695603928	292.59950160345534	0.6083320430625463				
177.8212890625	0.2	364178	166	44	1	0	0	74	335	stimuli\Videos_short_600ms_vertflip\69.stroke_with_soft_sock_short_vertflip_short_600ms.mp4	69.stroke_with_soft_sock_short_vertflip_short_600ms.mp4	292.7911452798362	293.3994875864191	0.6083423065829265				
178.62158203125	0.2	365817	167	44	1	0	0	75	51	stimuli\Videos_short_600ms\56.repeated_touch_with_nail_file_short_short_600ms.mp4	56.repeated_touch_with_nail_file_short_short_600ms.mp4	293.5911506168668	294.1994609599151	0.6083103430482879				
179.42138671875	0.2	367455	168	44	1	0	0	76	105	stimuli\Videos_short_600ms_horflip\23.single_push_with_a_spoon_short_horflip_short_600ms.mp4	23.single_push_with_a_spoon_short_horflip_short_600ms.mp4	294.3911316146923	294.999421137456	0.6082895227636982				
180.2216796875	0.2	369094	169	44	1	0	0	77	333	stimuli\Videos_short_600ms_vertflip\67.single_touch_with_sponge_short_vertflip_short_600ms.mp4	67.single_touch_with_sponge_short_vertflip_short_600ms.mp4	295.1911026422408	295.79937398391166	0.608271341670843				
181.021484375	0.2	370732	170	44	1	0	0	78	295	stimuli\Videos_short_600ms_vertflip\32.single_(long)pinch_with_fingers_short_vertflip_short_600ms.mp4	32.single_(long)pinch_with_fingers_short_vertflip_short_600ms.mp4	295.99109273061276	296.59939339662697	0.6083006660142019				
181.8212890625	0.2	372370	171	44	1	0	0	79	129	stimuli\Videos_short_600ms_horflip\45.scratching_with_finger_nails_short_horflip_short_600ms.mp4	45.scratching_with_finger_nails_short_horflip_short_600ms.mp4	296.79106023923987	297.39936178498465	0.60830154574478				
182.62158203125	0.2	374009	172	44	1	0	0	80	273	stimuli\Videos_short_600ms_vertflip\12.repeated_touch_with_nail_file_short_vertflip_short_600ms.mp4	12.repeated_touch_with_nail_file_short_vertflip_short_600ms.mp4	297.5910385978741	298.1993448355138	0.6083062376396811				
183.42138671875	0.2	375647	173	44	1	0	0	81	114	stimuli\Videos_short_600ms_horflip\31.hand_grabbing_wrist_short_horflip_short_600ms.mp4	31.hand_grabbing_wrist_short_horflip_short_600ms.mp4	298.39102194164707	298.9993287657735	0.60830682412643				
184.22119140625	0.2	377285	174	44	1	0	0	82	25	stimuli\Videos_short_600ms\32.single_(long)pinch_with_fingers_short_short_600ms.mp4	32.single_(long)pinch_with_fingers_short_short_600ms.mp4	299.1909982475772	299.79932413252754	0.6083258849503181				
185.021484375	0.2	378924	175	44	1	0	0	83	132	stimuli\Videos_short_600ms_horflip\48.single_slap_with_hand_short_horflip_short_600ms.mp4	48.single_slap_with_hand_short_horflip_short_600ms.mp4	299.99097455350784	300.59928988169395	0.6083153281861087				
185.8212890625	0.2	380562	176	44	1	0	0	84	232	stimuli\Videos_short_600ms_horvertflip\57.single_touch_with_nail_file_short_horvertflip_short_600ms.mp4	57.single_touch_with_nail_file_short_horvertflip_short_600ms.mp4	300.79095672430685	301.39927087951946	0.6083141552126108				
186.62109375	0.2	382200	177	44	1	0	0	85	293	stimuli\Videos_short_600ms_vertflip\30.finger_pulling_back_another_finger_short_vertflip_short_600ms.mp4	30.finger_pulling_back_another_finger_short_vertflip_short_600ms.mp4	301.59093566942784	302.1992521705879	0.6083165011600613				
187.42138671875	0.2	383839	178	44	1	0	0	86	55	stimuli\Videos_short_600ms\6.single_touch_with_flat_hand_short_short_600ms.mp4	6.single_touch_with_flat_hand_short_short_600ms.mp4	302.39092517131303	302.9992287697619	0.6083035984488561				
188.22119140625	0.2	385477	179	44	1	0	0	87	236	stimuli\Videos_short_600ms_horvertflip\60.single_push_with_tip_of_pencil_short_horvertflip_short_600ms.mp4	60.single_push_with_tip_of_pencil_short_horvertflip_short_600ms.mp4	303.1908915069662	303.79920654190937	0.608315034943189				
189.02099609375	0.2	387115	180	44	1	0	0	88	262	stimuli\Videos_short_600ms_horvertflip\84.single_touch_with_cotton_bud_short_horvertflip_short_600ms.mp4	84.single_touch_with_cotton_bud_short_horvertflip_short_600ms.mp4	303.99087367776565	304.599188419465	0.6083147416993597				
189.8212890625	0.2	388754	181	44	1	0	0	89	58	stimuli\Videos_short_600ms\62.touch_top_to_bottom_with_scissors_short_short_600ms.mp4	62.touch_top_to_bottom_with_scissors_short_short_600ms.mp4	304.7908279904382	305.39916765782937	0.608339667391192				
190.62109375	0.2	390392	182	44	1	0	0	90	127	stimuli\Videos_short_600ms_horflip\43.touch_top_to_bottom_with_sharp_wooden_stick_short_horflip_short_600ms.mp4	43.touch_top_to_bottom_with_sharp_wooden_stick_short_horflip_short_600ms.mp4	305.5908098679938	306.1991448434901	0.608334975496291				
191.4208984375	0.2	392030	183	44	1	0	0	91	354	stimuli\Videos_short_600ms_vertflip\86.touch_top_to_bottom_with_hair_brush_short_vertflip_short_600ms.mp4	86.touch_top_to_bottom_with_hair_brush_short_vertflip_short_600ms.mp4	306.390762714449	306.99912642780237	0.6083637133533557				
192.22119140625	0.2	393669	184	44	1	0	0	92	62	stimuli\Videos_short_600ms\66.stroke_top_to_bottom_with_sponge_short_short_600ms.mp4	66.stroke_top_to_bottom_with_sponge_short_short_600ms.mp4	307.19076570553216	307.7991065458973	0.6083408403651447				
193.02099609375	0.2	395307	185	44	1	0	0	93	289	stimuli\Videos_short_600ms_vertflip\27.single_push_with_a_plastic_whisk_short_vertflip_short_600ms.mp4	27.single_push_with_a_plastic_whisk_short_vertflip_short_600ms.mp4	307.99075550066027	308.5990796261499	0.6083241254896166				
193.82080078125	0.2	396945	186	44	1	0	0	94	71	stimuli\Videos_short_600ms\74.fingers_walking_from_top_to_bottom_short_short_600ms.mp4	74.fingers_walking_from_top_to_bottom_short_short_600ms.mp4	308.79086845803204	309.39906121046215	0.6081927524301136				
194.62109375	0.2	398584	187	44	1	0	0	95	177	stimuli\Videos_short_600ms_horflip\89.single_touch_with_plastic_brush_short_horflip_short_600ms.mp4	89.single_touch_with_plastic_brush_short_horflip_short_600ms.mp4	309.59072922604855	310.1989949960939	0.6082657700453638				
195.4208984375	0.2	400222	188	44	1	0	0	96	93	stimuli\Videos_short_600ms_horflip\12.repeated_touch_with_nail_file_short_horflip_short_600ms.mp4	12.repeated_touch_with_nail_file_short_horflip_short_600ms.mp4	310.3907046522486	310.9989748209455	0.6082701686968903				
196.220703125	0.2	401860	189	44	1	0	0	97	166	stimuli\Videos_short_600ms_horflip\79.long_with_soft_brush_all_over_the_hand_short_horflip_short_600ms.mp4	79.long_with_soft_brush_all_over_the_hand_short_horflip_short_600ms.mp4	311.1906859433175	311.79895435255366	0.6082684092361887	8.0	8.0	1.6581605543005935	1.0
229.419921875	0.2	469852	190	44	2	0	0	0	296	stimuli\Videos_short_600ms_vertflip\33.scratch_top_to_bottom_with_scissors_short_vertflip_short_600ms.mp4	33.scratch_top_to_bottom_with_scissors_short_vertflip_short_600ms.mp4	344.38978973272606	344.9981203095713	0.6083305768452192				
230.2197265625	0.2	471490	191	44	2	0	0	1	260	stimuli\Videos_short_600ms_horvertflip\82.repeated_touch_with_cotton_bud_short_horvertflip_short_600ms.mp4	82.repeated_touch_with_cotton_bud_short_horvertflip_short_600ms.mp4	345.1897900846184	345.79810336010087	0.6083132754824874				
231.02001953125	0.2	473129	192	44	2	0	0	2	181	stimuli\Videos_short_600ms_horvertflip\10.single_touch_with_knife_short_horvertflip_short_600ms.mp4	10.single_touch_with_knife_short_horvertflip_short_600ms.mp4	345.98976873649644	346.59810723091414	0.6083384944176942				
231.81982421875	0.2	474767	193	44	2	0	0	3	4	stimuli\Videos_short_600ms\13.single_touch_with_pen_short_short_600ms.mp4	13.single_touch_with_pen_short_short_600ms.mp4	346.7897447491832	347.3980870557657	0.6083423065824718				
232.61962890625	0.2	476405	194	44	2	0	1	4	376	stimuli\Targets_short_600ms_horvertflip\hand-pinch_short_vertflip_short_600ms.mp4	hand-pinch_short_vertflip_short_600ms.mp4	347.5897283861991	348.19804576708975	0.6083173808906395				
233.419921875	0.2	478044	195	44	2	0	0	5	291	stimuli\Videos_short_600ms_vertflip\29.single_pinch_with_tweezers_short_vertflip_short_600ms.mp4	29.single_pinch_with_tweezers_short_vertflip_short_600ms.mp4	348.3897070380772	348.99802441896736	0.6083173808901847				
234.2197265625	0.2	479682	196	44	2	0	0	6	304	stimuli\Videos_short_600ms_vertflip\40.repeated_push_with_finger_short_vertflip_short_600ms.mp4	40.repeated_push_with_finger_short_vertflip_short_600ms.mp4	349.1896836372507	349.7980033640888	0.60831972683809				
235.01953125	0.2	481320	197	44	2	0	0	7	288	stimuli\Videos_short_600ms_vertflip\26.single_touch_with_a_blunt_syringe_short_vertflip_short_600ms.mp4	26.single_touch_with_a_blunt_syringe_short_vertflip_short_600ms.mp4	349.9896423485752	350.59798172272303	0.6083393741478176				
235.81982421875	0.2	482959	198	44	2	0	0	8	26	stimuli\Videos_short_600ms\33.scratch_top_to_bottom_with_scissors_short_short_600ms.mp4	33.scratch_top_to_bottom_with_scissors_short_short_600ms.mp4	350.78959490178704	351.3979597881139	0.6083648863268536				
236.61962890625	0.2	484597	199	44	2	0	1	9	381	stimuli\Targets_short_600ms_vertflip\finger-tap_short_horvertflip_short_600ms.mp4	finger-tap_short_horvertflip_short_600ms.mp4	351.5895726739345	352.19794019945266	0.6083675255181333				
237.41943359375	0.2	486235	200	44	2	0	0	10	344	stimuli\Videos_short_600ms_vertflip\77.tapping_with_all_fingers_short_vertflip_short_600ms.mp4	77.tapping_with_all_fingers_short_vertflip_short_600ms.mp4	352.38955455149016	352.99791738511294	0.6083628336227775				
238.2197265625	0.2	487874	201	44	2	0	0	11	12	stimuli\Videos_short_600ms\20.single_touch_with_screwdriver_short_short_600ms.mp4	20.single_touch_with_screwdriver_short_short_600ms.mp4	353.1895414141841	353.79789750320833	0.6083560890242552				
239.01953125	0.2	489512	202	44	2	0	0	12	116	stimuli\Videos_short_600ms_horflip\33.scratch_top_to_bottom_with_scissors_short_horflip_short_600ms.mp4	33.scratch_top_to_bottom_with_scissors_short_horflip_short_600ms.mp4	353.9895391268851	354.59787586184257	0.6083367349574473				
239.8193359375	0.2	491150	203	44	2	0	1	13	380	stimuli\Targets_short_600ms_vertflip\chopstickwood-tap_short_horvertflip_short_600ms.mp4	chopstickwood-tap_short_horvertflip_short_600ms.mp4	354.7895321476917	355.3980336854602	0.6085015377684613				
240.61962890625	0.2	492789	204	44	2	0	0	14	212	stimuli\Videos_short_600ms_horvertflip\39.single_stab_with_scissors_short_horvertflip_short_600ms.mp4	39.single_stab_with_scissors_short_horvertflip_short_600ms.mp4	355.58952722120193	356.1978366845192	0.608309463317255				
241.41943359375	0.2	494427	205	44	2	0	0	15	108	stimuli\Videos_short_600ms_horflip\26.single_touch_with_a_blunt_syringe_short_horflip_short_600ms.mp4	26.single_touch_with_a_blunt_syringe_short_horflip_short_600ms.mp4	356.3894997149673	356.99776284582185	0.6082631308545388				
242.21923828125	0.2	496065	206	44	2	0	0	16	72	stimuli\Videos_short_600ms\75.(long)stroke_with_fingers_all_over_the_hand_short_short_600ms.mp4	75.(long)stroke_with_fingers_all_over_the_hand_short_short_600ms.mp4	357.1894707425158	357.79772800850196	0.6082572659861398				
243.01953125	0.2	497704	207	44	2	0	0	17	226	stimuli\Videos_short_600ms_horvertflip\51.repeated_touch_with_hammer_short_horvertflip_short_600ms.mp4	51.repeated_touch_with_hammer_short_horvertflip_short_600ms.mp4	357.98945086061076	358.59772689417696	0.6082760335661987				
243.8193359375	0.2	499342	208	44	2	0	0	18	30	stimuli\Videos_short_600ms\37.single_stab_with_nail_file_short_short_600ms.mp4	37.single_stab_with_nail_file_short_short_600ms.mp4	358.7894277530281	359.39770114740304	0.608273394374919				
244.619140625	0.2	500980	209	44	2	0	0	19	152	stimuli\Videos_short_600ms_horflip\66.stroke_top_to_bottom_with_sponge_short_horflip_short_600ms.mp4	66.stroke_top_to_bottom_with_sponge_short_horflip_short_600ms.mp4	359.58940611166236	360.1976909425316	0.6082848308692519				
245.41943359375	0.2	502619	210	44	2	0	0	20	315	stimuli\Videos_short_600ms_vertflip\50.single_(long)hard_push_with_thumb_short_vertflip_short_600ms.mp4	50.single_(long)hard_push_with_thumb_short_vertflip_short_600ms.mp4	360.38938447029705	360.9976569849414	0.6082725146443408				
246.21923828125	0.2	504257	211	44	2	0	0	21	340	stimuli\Videos_short_600ms_vertflip\73.single_stroke_with_flat_hand_short_vertflip_short_600ms.mp4	73.single_stroke_with_flat_hand_short_vertflip_short_600ms.mp4	361.18936488163536	361.7976362233062	0.608271341670843				
247.01904296875	0.2	505895	212	44	2	0	0	22	150	stimuli\Videos_short_600ms_horflip\64.repeated_touch_with_screwdriver_short_horflip_short_600ms.mp4	64.repeated_touch_with_screwdriver_short_horflip_short_600ms.mp4	361.9893426537829	362.5975964008476	0.6082537470647367				
247.8193359375	0.2	507534	213	44	2	0	0	23	38	stimuli\Videos_short_600ms\44.pushing_top_to_bottom_with_finger_short_short_600ms.mp4	44.pushing_top_to_bottom_with_finger_short_short_600ms.mp4	362.7893280502599	363.3975683081262	0.6082402578663277				
248.619140625	0.2	509172	214	44	2	0	1	24	367	stimuli\Targets_short_600ms_horflip\chopstick-silver-tap_short_horflip_short_600ms.mp4	chopstick-silver-tap_short_horflip_short_600ms.mp4	363.589301130512	364.19755018568185	0.6082490551698356				
249.41943359375	0.2	510811	215	44	2	0	0	25	46	stimuli\Videos_short_600ms\51.repeated_touch_with_hammer_short_short_600ms.mp4	51.repeated_touch_with_hammer_short_short_600ms.mp4	364.3892847675283	364.9975270780992	0.6082423105708585				
250.21923828125	0.2	512449	216	44	2	0	0	26	0	stimuli\Videos_short_600ms\1.repeated_touch_with_finger_fast_short_short_600ms.mp4	1.repeated_touch_with_finger_fast_short_short_600ms.mp4	365.1892508099386	365.7975236178263	0.6082728078877153				
251.01904296875	0.2	514087	217	44	2	0	0	27	174	stimuli\Videos_short_600ms_horflip\86.touch_top_to_bottom_with_hair_brush_short_horflip_short_600ms.mp4	86.touch_top_to_bottom_with_hair_brush_short_horflip_short_600ms.mp4	365.9892341537111	366.5975049088952	0.608270755184094				
251.8193359375	0.2	515726	218	44	2	0	0	28	244	stimuli\Videos_short_600ms_horvertflip\68.stroke_top_to_bottom_with_shawl_short_horvertflip_short_600ms.mp4	68.stroke_top_to_bottom_with_shawl_short_horvertflip_short_600ms.mp4	366.78919462449585	367.3975897148971	0.6083950904012454				
252.619140625	0.2	517364	219	44	2	0	0	29	241	stimuli\Videos_short_600ms_horvertflip\65.stroke_top_to_bottom_with_stanley_knife_short_horvertflip_short_600ms.mp4	65.stroke_top_to_bottom_with_stanley_knife_short_horvertflip_short_600ms.mp4	367.5891671182617	368.1974616261641	0.6082945079024284				
253.4189453125	0.2	519002	220	44	2	0	0	30	24	stimuli\Videos_short_600ms\31.hand_grabbing_wrist_short_short_600ms.mp4	31.hand_grabbing_wrist_short_short_600ms.mp4	368.3891296417505	368.99743998479835	0.6083103430478332				
254.21923828125	0.2	520641	221	44	2	0	0	31	353	stimuli\Videos_short_600ms_vertflip\85.touch_top_to_bottom_with_fabric_short_vertflip_short_600ms.mp4	85.touch_top_to_bottom_with_fabric_short_vertflip_short_600ms.mp4	369.1891382044587	369.7974171704591	0.6082789660003982				
255.01904296875	0.2	522279	222	44	2	0	0	32	352	stimuli\Videos_short_600ms_vertflip\84.single_touch_with_cotton_bud_short_vertflip_short_600ms.mp4	84.single_touch_with_cotton_bud_short_vertflip_short_600ms.mp4	369.9891359171602	370.59739699531065	0.6082610781504627				
255.81884765625	0.2	523917	223	44	2	0	0	33	21	stimuli\Videos_short_600ms\29.single_pinch_with_tweezers_short_short_600ms.mp4	29.single_pinch_with_tweezers_short_short_600ms.mp4	370.7890782068516	371.3973624512337	0.6082842443820482				
256.619140625	0.2	525556	224	44	2	0	0	34	186	stimuli\Videos_short_600ms_horvertflip\15.single_stroke_top_to_bottom_with_a_plastic_whisk_short_horvertflip_short_600ms.mp4	15.single_stroke_top_to_bottom_with_a_plastic_whisk_short_horvertflip_short_600ms.mp4	371.5891052438965	372.19734579500664	0.608240551110157				
257.4189453125	0.2	527194	225	44	2	0	0	35	185	stimuli\Videos_short_600ms_horvertflip\14.repeated_touch_with_pencil_short_horvertflip_short_600ms.mp4	14.repeated_touch_with_pencil_short_horvertflip_short_600ms.mp4	372.3890706998195	372.9973147698511	0.6082440700315601				
258.21875	0.2	528832	226	44	2	0	0	36	303	stimuli\Videos_short_600ms_vertflip\4.repeated_tap_with_finger_slow_short_vertflip_short_600ms.mp4	4.repeated_tap_with_finger_slow_short_vertflip_short_600ms.mp4	373.18905140440165	373.79731512174294	0.6082637173412877				
259.01904296875	0.2	530471	227	44	2	0	0	37	231	stimuli\Videos_short_600ms_horvertflip\56.repeated_touch_with_nail_file_short_horvertflip_short_600ms.mp4	56.repeated_touch_with_nail_file_short_horvertflip_short_600ms.mp4	373.9890259508711	374.59729905200265	0.6082731011315445				
259.81884765625	0.2	532109	228	44	2	0	0	38	148	stimuli\Videos_short_600ms_horflip\62.touch_top_to_bottom_with_scissors_short_horflip_short_600ms.mp4	62.touch_top_to_bottom_with_scissors_short_horflip_short_600ms.mp4	374.7890060689661	375.39727682415014	0.608270755184094				
260.61865234375	0.2	533747	229	44	2	0	0	39	251	stimuli\Videos_short_600ms_horvertflip\74.fingers_walking_from_top_to_bottom_short_horvertflip_short_600ms.mp4	74.fingers_walking_from_top_to_bottom_short_horvertflip_short_600ms.mp4	375.58916271961016	376.19725137062005	0.6080886510098935				
261.4189453125	0.2	535386	230	44	2	0	0	40	117	stimuli\Videos_short_600ms_horflip\34.repeated_punch_with_hand_short_horflip_short_600ms.mp4	34.repeated_punch_with_hand_short_horflip_short_600ms.mp4	376.38893903351664	376.99723090222824	0.6082918687116035				
262.21875	0.2	537024	231	44	2	0	0	41	268	stimuli\Videos_short_600ms_horvertflip\9.single_touch_with_hammer_short_horvertflip_short_600ms.mp4	9.single_touch_with_hammer_short_horvertflip_short_600ms.mp4	377.1889431975733	377.7972063284278	0.6082631308545388				
263.0185546875	0.2	538662	232	44	2	0	0	42	75	stimuli\Videos_short_600ms\78.single_stroke_top_to_bottom_with_soft_brush_short_short_600ms.mp4	78.single_stroke_top_to_bottom_with_soft_brush_short_short_600ms.mp4	377.9888737575275	378.5971849803059	0.6083112227784113				
263.81884765625	0.2	540301	233	44	2	0	0	43	182	stimuli\Videos_short_600ms_horvertflip\11.single_touch_with_lighter_short_horvertflip_short_600ms.mp4	11.single_touch_with_lighter_short_horvertflip_short_600ms.mp4	378.7889010878157	379.39716451191407	0.608263424098368				
264.61865234375	0.2	541939	234	44	2	0	0	44	144	stimuli\Videos_short_600ms_horflip\59.single_push_with_long_side_pencil_short_horflip_short_600ms.mp4	59.single_push_with_long_side_pencil_short_horflip_short_600ms.mp4	379.58887798023306	380.1971428705483	0.6082648903152403				
265.41845703125	0.2	543577	235	44	2	0	1	45	368	stimuli\Targets_short_600ms_horflip\chopstickwood-tap_short_horflip_short_600ms.mp4	chopstickwood-tap_short_horflip_short_600ms.mp4	380.38885457940705	380.99712122918254	0.6082666497754872				
266.21875	0.2	545216	236	44	2	0	0	46	250	stimuli\Videos_short_600ms_horvertflip\73.single_stroke_with_flat_hand_short_horvertflip_short_600ms.mp4	73.single_stroke_with_flat_hand_short_horvertflip_short_600ms.mp4	381.18881768938263	381.79710046754735	0.6082827781647211				
267.0185546875	0.2	546854	237	44	2	0	0	47	50	stimuli\Videos_short_600ms\55.touch_top_to_bottom_with_nail_file_short_short_600ms.mp4	55.touch_top_to_bottom_with_nail_file_short_short_600ms.mp4	381.9887913561219	382.5970849842938	0.6082936281718503				
267.81884765625	0.2	548493	238	44	2	0	0	48	294	stimuli\Videos_short_600ms_vertflip\31.hand_grabbing_wrist_short_vertflip_short_600ms.mp4	31.hand_grabbing_wrist_short_vertflip_short_600ms.mp4	382.78876912826945	383.3970583577898	0.6082892295203237				
268.61865234375	0.2	550131	239	44	2	0	0	49	347	stimuli\Videos_short_600ms_vertflip\8.single_touch_with_hairbrush_short_vertflip_short_600ms.mp4	8.single_touch_with_hairbrush_short_vertflip_short_600ms.mp4	383.58876068285826	384.1970384758847	0.6082777930264456				
269.41845703125	0.2	551769	240	44	2	0	0	50	67	stimuli\Videos_short_600ms\70.(long)stroke_with_finger_all_over_the_hand_short_short_600ms.mp4	70.(long)stroke_with_finger_all_over_the_hand_short_short_600ms.mp4	384.3887299509465	384.9970218196577	0.6082918687111487				
270.21875	0.2	553408	241	44	2	0	0	51	87	stimuli\Videos_short_600ms\89.single_touch_with_plastic_brush_short_short_600ms.mp4	89.single_touch_with_plastic_brush_short_short_600ms.mp4	385.18871769337056	385.7970010580225	0.6082833646519248				
271.0185546875	0.2	555046	242	44	2	0	0	52	17	stimuli\Videos_short_600ms\25.single_touch_with_stanley_knife_short_short_600ms.mp4	25.single_touch_with_stanley_knife_short_short_600ms.mp4	385.9887060222818	386.5969659274588	0.6082599051769648				
271.818359375	0.2	556684	243	44	2	0	0	53	20	stimuli\Videos_short_600ms\28.single_injection_with_sharp_needle_short_short_600ms.mp4	28.single_injection_with_sharp_needle_short_short_600ms.mp4	386.7886975768711	387.3969783023317	0.608280725460645				
272.61865234375	0.2	558323	244	44	2	0	0	54	23	stimuli\Videos_short_600ms\30.finger_pulling_back_another_finger_short_short_600ms.mp4	30.finger_pulling_back_another_finger_short_short_600ms.mp4	387.5886650854982	388.19696780421646	0.6083027187182779				
273.41845703125	0.2	559961	245	44	2	0	0	55	7	stimuli\Videos_short_600ms\16.repeated_touch_with_plastic_brush_short_short_600ms.mp4	16.repeated_touch_with_plastic_brush_short_short_600ms.mp4	388.3886490157579	388.9969573061017	0.6083082903437571				
274.21826171875	0.2	561599	246	44	2	0	0	56	196	stimuli\Videos_short_600ms_horvertflip\24.single_stroke_top_to_bottom_with_a_spoon_short_horvertflip_short_600ms.mp4	24.single_stroke_top_to_bottom_with_a_spoon_short_horvertflip_short_600ms.mp4	389.18862356222735	389.7969233485119	0.6082997862845332				
275.0185546875	0.2	563238	247	44	2	0	0	57	161	stimuli\Videos_short_600ms_horflip\74.fingers_walking_from_top_to_bottom_short_horflip_short_600ms.mp4	74.fingers_walking_from_top_to_bottom_short_horflip_short_600ms.mp4	389.9886022141054	390.59692252743025	0.6083203133248389				
275.818359375	0.2	564876	248	44	2	0	0	58	120	stimuli\Videos_short_600ms_horflip\37.single_stab_with_nail_file_short_horflip_short_600ms.mp4	37.single_stab_with_nail_file_short_horflip_short_600ms.mp4	390.7885817457136	391.3968915022747	0.6083097565610842				
276.6181640625	0.2	566514	249	44	2	0	0	59	63	stimuli\Videos_short_600ms\67.single_touch_with_sponge_short_short_600ms.mp4	67.single_touch_with_sponge_short_short_600ms.mp4	391.5885624502953	392.1968862825415	0.6083238322462421				
277.41845703125	0.2	568153	250	44	2	0	0	60	119	stimuli\Videos_short_600ms_horflip\36.single_slap_with_full_hand_short_horflip_short_600ms.mp4	36.single_slap_with_full_hand_short_horflip_short_600ms.mp4	392.3885390494693	392.9968526181947	0.6083135687254071				
278.21826171875	0.2	569791	251	44	2	0	0	61	266	stimuli\Videos_short_600ms_horvertflip\88.repeated_stroke_with_plastic_brush_short_horvertflip_short_600ms.mp4	88.repeated_stroke_with_plastic_brush_short_horvertflip_short_600ms.mp4	393.1885177013469	393.79683420250694	0.6083165011600613				
279.01806640625	0.2	571429	252	44	2	0	0	62	211	stimuli\Videos_short_600ms_horvertflip\38.double_slap_with_pencil_short_horvertflip_short_600ms.mp4	38.double_slap_with_pencil_short_horvertflip_short_600ms.mp4	393.9884995789025	394.59681285438455	0.6083132754820326				
279.818359375	0.2	573068	253	44	2	0	0	63	271	stimuli\Videos_short_600ms_vertflip\10.single_touch_with_knife_short_vertflip_short_600ms.mp4	10.single_touch_with_knife_short_vertflip_short_600ms.mp4	394.7884799902408	395.3967932657233	0.6083132754824874				
280.6181640625	0.2	574706	254	44	2	0	0	64	306	stimuli\Videos_short_600ms_vertflip\42.single_slap_with_plastic_whisk_short_vertflip_short_600ms.mp4	42.single_slap_with_plastic_whisk_short_vertflip_short_600ms.mp4	395.5884384083215	396.19676839868	0.6083299903584702				
281.41796875	0.2	576344	255	44	2	0	0	65	318	stimuli\Videos_short_600ms_vertflip\53.touch_top_to_bottom_with_knife_short_vertflip_short_600ms.mp4	53.touch_top_to_bottom_with_knife_short_vertflip_short_600ms.mp4	396.38842204533785	396.9967458775836	0.6083238322457873				
282.21826171875	0.2	577983	256	44	2	0	0	66	346	stimuli\Videos_short_600ms_vertflip\79.long_with_soft_brush_all_over_the_hand_short_vertflip_short_600ms.mp4	79.long_with_soft_brush_all_over_the_hand_short_vertflip_short_600ms.mp4	397.1883675607073	397.7967333267647	0.6083657660574318				
283.01806640625	0.2	579621	257	44	2	0	0	67	206	stimuli\Videos_short_600ms_horvertflip\33.scratch_top_to_bottom_with_scissors_short_horvertflip_short_600ms.mp4	33.scratch_top_to_bottom_with_scissors_short_horvertflip_short_600ms.mp4	397.9883664463823	398.5967069935041	0.6083405471217702				
283.81787109375	0.2	581259	258	44	2	0	0	68	325	stimuli\Videos_short_600ms_vertflip\6.single_touch_with_flat_hand_short_vertflip_short_600ms.mp4	6.single_touch_with_flat_hand_short_vertflip_short_600ms.mp4	398.788373836117	399.3966841791648	0.6083103430478332				
284.6181640625	0.2	582898	259	44	2	0	0	69	156	stimuli\Videos_short_600ms_horflip\7.repeated_touch_with_hairbrush_short_horflip_short_600ms.mp4	7.repeated_touch_with_hairbrush_short_horflip_short_600ms.mp4	399.5883255095987	400.1966622445557	0.6083367349569926				
285.41796875	0.2	584536	260	44	2	0	1	70	370	stimuli\Targets_short_600ms_horflip\hand-pinch_short_horflip_short_600ms.mp4	hand-pinch_short_horflip_short_600ms.mp4	400.3883091466146	400.9966400167032	0.6083308700885937				
286.2177734375	0.2	586174	261	44	2	0	0	71	249	stimuli\Videos_short_600ms_horvertflip\72.(short)stroke_with_finger_all_over_the_hand_short_horvertflip_short_600ms.mp4	72.(short)stroke_with_finger_all_over_the_hand_short_horvertflip_short_600ms.mp4	401.1882886782227	401.7965793739604	0.6082906957376508				
287.01806640625	0.2	587813	262	44	2	0	0	72	147	stimuli\Videos_short_600ms_horflip\61.single_hit_with_rolling_pin_short_horflip_short_600ms.mp4	61.single_hit_with_rolling_pin_short_horflip_short_600ms.mp4	401.9882919625493	402.5965770866619	0.6082851241126264				
287.81787109375	0.2	589451	263	44	2	0	0	73	141	stimuli\Videos_short_600ms_horflip\56.repeated_touch_with_nail_file_short_horflip_short_600ms.mp4	56.repeated_touch_with_nail_file_short_horflip_short_600ms.mp4	402.7882618171243	403.3966419521098	0.6083801349855094				
288.6181640625	0.2	591090	264	44	2	0	0	74	269	stimuli\Videos_short_600ms_horvertflip\90.repeated_touch_with_sponge_short_horvertflip_short_600ms.mp4	90.repeated_touch_with_sponge_short_horvertflip_short_600ms.mp4	403.5882451608968	404.1965343904171	0.6082892295203237				
289.41796875	0.2	592728	265	44	2	0	0	75	146	stimuli\Videos_short_600ms_horflip\60.single_push_with_tip_of_pencil_short_horflip_short_600ms.mp4	60.single_push_with_tip_of_pencil_short_horflip_short_600ms.mp4	404.3882205870968	404.9965212531115	0.6083006660146566				
290.2177734375	0.2	594366	266	44	2	0	0	76	331	stimuli\Videos_short_600ms_vertflip\65.stroke_top_to_bottom_with_stanley_knife_short_vertflip_short_600ms.mp4	65.stroke_top_to_bottom_with_stanley_knife_short_vertflip_short_600ms.mp4	405.1881989457311	405.7964955063376	0.6082965606065045				
291.01806640625	0.2	596005	267	44	2	0	0	77	173	stimuli\Videos_short_600ms_horflip\85.touch_top_to_bottom_with_fabric_short_horflip_short_600ms.mp4	85.touch_top_to_bottom_with_fabric_short_horflip_short_600ms.mp4	405.988183462478	406.596497910934	0.6083144484559853				
291.81787109375	0.2	597643	268	44	2	0	0	78	201	stimuli\Videos_short_600ms_horvertflip\29.single_pinch_with_tweezers_short_horvertflip_short_600ms.mp4	29.single_pinch_with_tweezers_short_horvertflip_short_600ms.mp4	406.78815800894745	407.3964809614631	0.6083229525156639				
292.61767578125	0.2	599281	269	44	2	0	0	79	203	stimuli\Videos_short_600ms_horvertflip\30.finger_pulling_back_another_finger_short_horvertflip_short_600ms.mp4	30.finger_pulling_back_another_finger_short_horvertflip_short_600ms.mp4	407.5881354878515	408.1964514025249	0.6083159146733124				
293.41796875	0.2	600920	270	44	2	0	0	80	191	stimuli\Videos_short_600ms_horvertflip\2.single_touch_with_finger_short_horvertflip_short_600ms.mp4	2.single_touch_with_finger_short_horvertflip_short_600ms.mp4	408.3881164856771	408.9964291746723	0.6083126889952837				
294.2177734375	0.2	602558	271	44	2	0	0	81	330	stimuli\Videos_short_600ms_vertflip\64.repeated_touch_with_screwdriver_short_vertflip_short_600ms.mp4	64.repeated_touch_with_screwdriver_short_vertflip_short_600ms.mp4	409.1880968970154	409.79640782655	0.6083109295345821				
295.017578125	0.2	604196	272	44	2	0	0	82	1	stimuli\Videos_short_600ms\10.single_touch_with_knife_short_short_600ms.mp4	10.single_touch_with_knife_short_short_600ms.mp4	409.98807115024147	410.5963870649148	0.6083159146733124				
295.81787109375	0.2	605835	273	44	2	0	0	83	8	stimuli\Videos_short_600ms\17.repeated_touch_with_rolling_pin_short_short_600ms.mp4	17.repeated_touch_with_rolling_pin_short_short_600ms.mp4	410.788052148067	411.39636688976634	0.6083147416993597				
296.61767578125	0.2	607473	274	44	2	0	0	84	56	stimuli\Videos_short_600ms\60.single_push_with_tip_of_pencil_short_short_600ms.mp4	60.single_push_with_tip_of_pencil_short_short_600ms.mp4	411.5880067539829	412.19635082002605	0.6083440660431734				
297.41748046875	0.2	609111	275	44	2	0	0	85	207	stimuli\Videos_short_600ms_horvertflip\34.repeated_punch_with_hand_short_horvertflip_short_600ms.mp4	34.repeated_punch_with_hand_short_horvertflip_short_600ms.mp4	412.3880203018298	412.99632653946946	0.6083062376396811				
298.2177734375	0.2	610750	276	44	2	0	0	86	94	stimuli\Videos_short_600ms_horflip\13.single_touch_with_pen_short_horflip_short_600ms.mp4	13.single_touch_with_pen_short_horflip_short_600ms.mp4	413.1882159538504	413.7963022589129	0.608086305062443				
299.017578125	0.2	612388	277	44	2	0	0	87	349	stimuli\Videos_short_600ms_vertflip\81.single_stroke_top_to_bottom_with_cotton_pad_short_vertflip_short_600ms.mp4	81.single_stroke_top_to_bottom_with_cotton_pad_short_vertflip_short_600ms.mp4	413.9879547325973	414.5962820837645	0.6083273511671905				
299.8173828125	0.2	614026	278	44	2	0	0	88	198	stimuli\Videos_short_600ms_horvertflip\26.single_touch_with_a_blunt_syringe_short_horvertflip_short_600ms.mp4	26.single_touch_with_a_blunt_syringe_short_horvertflip_short_600ms.mp4	414.7879213614942	415.3964023722224	0.6084810107281555				
300.61767578125	0.2	615665	279	44	2	0	0	89	102	stimuli\Videos_short_600ms_horflip\20.single_touch_with_screwdriver_short_horflip_short_600ms.mp4	20.single_touch_with_screwdriver_short_horflip_short_600ms.mp4	415.5879123295963	416.19623850779	0.6083261781936926				
301.41748046875	0.2	617303	280	44	2	0	0	90	218	stimuli\Videos_short_600ms_horvertflip\44.pushing_top_to_bottom_with_finger_short_horvertflip_short_600ms.mp4	44.pushing_top_to_bottom_with_finger_short_horvertflip_short_600ms.mp4	416.38788570309225	416.9962051366865	0.6083194335942608				
302.21728515625	0.2	618941	281	44	2	0	0	91	308	stimuli\Videos_short_600ms_vertflip\44.pushing_top_to_bottom_with_finger_short_vertflip_short_600ms.mp4	44.pushing_top_to_bottom_with_finger_short_vertflip_short_600ms.mp4	417.1878889874188	417.7961826155906	0.6082936281718503				
303.017578125	0.2	620580	282	44	2	0	0	92	223	stimuli\Videos_short_600ms_horvertflip\49.repeated_slap_with_hand_short_horvertflip_short_600ms.mp4	49.repeated_slap_with_hand_short_horvertflip_short_600ms.mp4	417.987867346053	418.59615334989576	0.6082860038427498				
303.8173828125	0.2	622218	283	44	2	0	0	93	214	stimuli\Videos_short_600ms_horvertflip\40.repeated_push_with_finger_short_horvertflip_short_600ms.mp4	40.repeated_push_with_finger_short_horvertflip_short_600ms.mp4	418.7878398398189	419.39613170853	0.6082918687111487				
304.6171875	0.2	623856	284	44	2	0	0	94	73	stimuli\Videos_short_600ms\76.tickle_with_fingers_from_top_to_bottom_short_short_600ms.mp4	76.tickle_with_fingers_from_top_to_bottom_short_short_600ms.mp4	419.5878170254796	420.1961355793437	0.6083185538641374				
305.41748046875	0.2	625495	285	44	2	0	0	95	300	stimuli\Videos_short_600ms_vertflip\37.single_stab_with_nail_file_short_vertflip_short_600ms.mp4	37.single_stab_with_nail_file_short_vertflip_short_600ms.mp4	420.3877956773572	420.9960931176938	0.6082974403366279	6.0	6.0	1.4912290888105415	1.0
338.32470703125	0.2	692889	286	44	3	0	0	0	279	stimuli\Videos_short_600ms_vertflip\18.single_stroke_from_top_to_bottom_with_rolling_pin_short_vertflip_short_600ms.mp4	18.single_stroke_from_top_to_bottom_with_rolling_pin_short_vertflip_short_600ms.mp4	453.2952606582262	453.90352672151494	0.6082660632887382				
339.12451171875	0.2	694527	287	44	3	0	0	1	233	stimuli\Videos_short_600ms_horvertflip\58.single_slap_with_pencil_short_horvertflip_short_600ms.mp4	58.single_slap_with_pencil_short_horvertflip_short_600ms.mp4	454.0952305128007	454.7035047869058	0.6082742741050424				
339.9248046875	0.2	696166	288	44	3	0	0	2	358	stimuli\Videos_short_600ms_vertflip\9.single_touch_with_hammer_short_vertflip_short_600ms.mp4	9.single_touch_with_hammer_short_vertflip_short_600ms.mp4	454.8952217741462	455.5034840252706	0.6082622511244153				
340.724609375	0.2	697804	289	44	3	0	0	3	227	stimuli\Videos_short_600ms_horvertflip\52.touch_top_to_bottom_with_hammer_short_horvertflip_short_600ms.mp4	52.touch_top_to_bottom_with_hammer_short_horvertflip_short_600ms.mp4	455.6951919219646	456.3034893623012	0.6082974403366279				
341.5244140625	0.2	699442	290	44	3	0	0	4	35	stimuli\Videos_short_600ms\41.injection_with_blunt_syringe_short_short_600ms.mp4	41.injection_with_blunt_syringe_short_short_600ms.mp4	456.49516822789474	457.1034712398568	0.6083030119621071				
342.32470703125	0.2	701081	291	44	3	0	0	5	328	stimuli\Videos_short_600ms_vertflip\62.touch_top_to_bottom_with_scissors_short_vertflip_short_600ms.mp4	62.touch_top_to_bottom_with_scissors_short_vertflip_short_600ms.mp4	457.2951457067989	457.90346983228847	0.6083241254896166				
343.12451171875	0.2	702719	292	44	3	0	0	6	121	stimuli\Videos_short_600ms_horflip\38.double_slap_with_pencil_short_horflip_short_600ms.mp4	38.double_slap_with_pencil_short_horflip_short_600ms.mp4	458.0951261181371	458.70345522876505	0.6083291106278921				
343.92431640625	0.2	704357	293	44	3	0	0	7	276	stimuli\Videos_short_600ms_vertflip\15.single_stroke_top_to_bottom_with_a_plastic_whisk_short_vertflip_short_600ms.mp4	15.single_stroke_top_to_bottom_with_a_plastic_whisk_short_vertflip_short_600ms.mp4	458.89508512270504	459.5034212711753	0.6083361484702436				
344.724609375	0.2	705996	294	44	3	0	0	8	199	stimuli\Videos_short_600ms_horvertflip\27.single_push_with_a_plastic_whisk_short_horvertflip_short_600ms.mp4	27.single_push_with_a_plastic_whisk_short_horvertflip_short_600ms.mp4	459.6950813691888	460.3033990433228	0.6083176741340139				
345.5244140625	0.2	707634	295	44	3	0	1	9	373	stimuli\Targets_short_600ms_horvertflip\chopstick-silver-tap_short_vertflip_short_600ms.mp4	chopstick-silver-tap_short_vertflip_short_600ms.mp4	460.49506353998777	461.103377401957	0.6083138619692363				
346.32421875	0.2	709272	296	44	3	0	0	10	91	stimuli\Videos_short_600ms_horflip\10.single_touch_with_knife_short_horflip_short_600ms.mp4	10.single_touch_with_knife_short_horflip_short_600ms.mp4	461.29504131213525	461.9033566403218	0.6083153281865634				
347.12451171875	0.2	710911	297	44	3	0	0	11	85	stimuli\Videos_short_600ms\87.single_stroke_top_to_bottom_with_plastic_brush_short_short_600ms.mp4	87.single_stroke_top_to_bottom_with_plastic_brush_short_short_600ms.mp4	462.09502348293427	462.70333587868663	0.608312395752364				
347.92431640625	0.2	712549	298	44	3	0	0	12	106	stimuli\Videos_short_600ms_horflip\24.single_stroke_top_to_bottom_with_a_spoon_short_horflip_short_600ms.mp4	24.single_stroke_top_to_bottom_with_a_spoon_short_horflip_short_600ms.mp4	462.8949948037266	463.50331453056424	0.6083197268376352				
348.72412109375	0.2	714187	299	44	3	0	0	13	287	stimuli\Videos_short_600ms_vertflip\25.single_touch_with_stanley_knife_short_vertflip_short_600ms.mp4	25.single_touch_with_stanley_knife_short_vertflip_short_600ms.mp4	463.6949626055971	464.3032914229816	0.6083288173845176				
349.5244140625	0.2	715826	300	44	3	0	0	14	22	stimuli\Videos_short_600ms\3.single_push_with_finger_short_short_600ms.mp4	3.single_push_with_finger_short_short_600ms.mp4	464.49493070071094	465.1032712478331	0.608340547122225				
350.32421875	0.2	717464	301	44	3	0	0	15	79	stimuli\Videos_short_600ms\81.single_stroke_top_to_bottom_with_cotton_pad_short_short_600ms.mp4	81.single_stroke_top_to_bottom_with_cotton_pad_short_short_600ms.mp4	465.2949204958395	465.9032496064674	0.6083291106278921				
351.1240234375	0.2	719102	302	44	3	0	0	16	104	stimuli\Videos_short_600ms_horflip\22.single_touch_with_metal_chopstick_short_horflip_short_600ms.mp4	22.single_touch_with_metal_chopstick_short_horflip_short_600ms.mp4	466.0948777409467	466.703228258345	0.6083505173983212				
351.92431640625	0.2	720741	303	44	3	0	0	17	15	stimuli\Videos_short_600ms\23.single_push_with_a_spoon_short_short_600ms.mp4	23.single_push_with_a_spoon_short_short_600ms.mp4	466.8948728144569	467.5032121886047	0.6083393741478176				
352.72412109375	0.2	722379	304	44	3	0	0	18	337	stimuli\Videos_short_600ms_vertflip\70.(long)stroke_with_finger_all_over_the_hand_short_vertflip_short_600ms.mp4	70.(long)stroke_with_finger_all_over_the_hand_short_vertflip_short_600ms.mp4	467.694850293361	468.30318292290985	0.6083326295488405				
353.52392578125	0.2	724017	305	44	3	0	0	19	355	stimuli\Videos_short_600ms_vertflip\87.single_stroke_top_to_bottom_with_plastic_brush_short_vertflip_short_600ms.mp4	87.single_stroke_top_to_bottom_with_plastic_brush_short_vertflip_short_600ms.mp4	468.4948556303912	469.1031680261435	0.608312395752364				
354.32421875	0.2	725656	306	44	3	0	0	20	3	stimuli\Videos_short_600ms\12.repeated_touch_with_nail_file_short_short_600ms.mp4	12.repeated_touch_with_nail_file_short_short_600ms.mp4	469.2948290038871	469.9031196996248	0.6082906957376508				
355.1240234375	0.2	727294	307	44	3	0	0	21	65	stimuli\Videos_short_600ms\69.stroke_with_soft_sock_short_short_600ms.mp4	69.stroke_with_soft_sock_short_short_600ms.mp4	470.0947689476315	470.70309981772016	0.6083308700885937				
355.92431640625	0.2	728933	308	44	3	0	0	22	245	stimuli\Videos_short_600ms_horvertflip\69.stroke_with_soft_sock_short_horvertflip_short_600ms.mp4	69.stroke_with_soft_sock_short_horvertflip_short_600ms.mp4	470.89478454818254	471.50308521419674	0.6083006660142019				
356.72412109375	0.2	730571	309	44	3	0	0	23	259	stimuli\Videos_short_600ms_horvertflip\81.single_stroke_top_to_bottom_with_cotton_pad_short_horvertflip_short_600ms.mp4	81.single_stroke_top_to_bottom_with_cotton_pad_short_horvertflip_short_600ms.mp4	471.6947637865469	472.3030603471534	0.6082965606065045				
357.52392578125	0.2	732209	310	44	3	0	0	24	19	stimuli\Videos_short_600ms\27.single_push_with_a_plastic_whisk_short_short_600ms.mp4	27.single_push_with_a_plastic_whisk_short_short_600ms.mp4	472.4947400924775	473.1030457436305	0.6083056511529321				
358.32421875	0.2	733848	311	44	3	0	0	25	43	stimuli\Videos_short_600ms\49.repeated_slap_with_hand_short_short_600ms.mp4	49.repeated_slap_with_hand_short_short_600ms.mp4	473.2947225565199	473.903047854983	0.6083252984631144				
359.1240234375	0.2	735486	312	44	3	0	0	26	209	stimuli\Videos_short_600ms_horvertflip\36.single_slap_with_full_hand_short_horvertflip_short_600ms.mp4	36.single_slap_with_full_hand_short_horvertflip_short_600ms.mp4	474.09469798271994	474.7030136041494	0.6083156214294831				
359.923828125	0.2	737124	313	44	3	0	0	27	215	stimuli\Videos_short_600ms_horvertflip\41.injection_with_blunt_syringe_short_horvertflip_short_600ms.mp4	41.injection_with_blunt_syringe_short_horvertflip_short_600ms.mp4	474.8946819129797	475.50299284251423	0.6083109295345821				
360.72412109375	0.2	738763	314	44	3	0	1	28	369	stimuli\Targets_short_600ms_horflip\finger-tap_short_horflip_short_600ms.mp4	finger-tap_short_horflip_short_600ms.mp4	475.69465499323223	476.3029747200698	0.6083197268376352				
361.52392578125	0.2	740401	315	44	3	0	0	29	240	stimuli\Videos_short_600ms_horvertflip\64.repeated_touch_with_screwdriver_short_horvertflip_short_600ms.mp4	64.repeated_touch_with_screwdriver_short_horvertflip_short_600ms.mp4	476.494636577544	477.1029504395133	0.6083138619692363				
362.32373046875	0.2	742039	316	44	3	0	0	30	342	stimuli\Videos_short_600ms_vertflip\75.(long)stroke_with_fingers_all_over_the_hand_short_vertflip_short_600ms.mp4	75.(long)stroke_with_fingers_all_over_the_hand_short_vertflip_short_600ms.mp4	477.2946169888828	477.9029296778781	0.6083126889952837				
363.1240234375	0.2	743678	317	44	3	0	0	31	270	stimuli\Videos_short_600ms_vertflip\1.repeated_touch_with_finger_fast_short_vertflip_short_600ms.mp4	1.repeated_touch_with_finger_fast_short_vertflip_short_600ms.mp4	478.09458860291807	478.7029083297557	0.6083197268376352				
363.923828125	0.2	745316	318	44	3	0	0	32	248	stimuli\Videos_short_600ms_horvertflip\71.single_stroke_with_finger_top_to_bottom_short_horvertflip_short_600ms.mp4	71.single_stroke_with_finger_top_to_bottom_short_horvertflip_short_600ms.mp4	478.894526493958	479.5028861019032	0.6083596079452036				
364.7236328125	0.2	746954	319	44	3	0	0	33	107	stimuli\Videos_short_600ms_horflip\25.single_touch_with_stanley_knife_short_horflip_short_600ms.mp4	25.single_touch_with_stanley_knife_short_horflip_short_600ms.mp4	479.6945148228692	480.3028662199981	0.6083513971288994				
365.52392578125	0.2	748593	320	44	3	0	0	34	171	stimuli\Videos_short_600ms_horflip\83.single_stroke_top_to_bottom_with_cotton_bud_short_horflip_short_600ms.mp4	83.single_stroke_top_to_bottom_with_cotton_bud_short_horflip_short_600ms.mp4	480.4944867301483	481.10284399214606	0.6083572619977531				
366.32373046875	0.2	750231	321	44	3	0	0	35	252	stimuli\Videos_short_600ms_horvertflip\75.(long)stroke_with_fingers_all_over_the_hand_short_horvertflip_short_600ms.mp4	75.(long)stroke_with_fingers_all_over_the_hand_short_horvertflip_short_600ms.mp4	481.294466261756	481.9028232305104	0.6083569687543786				
367.12353515625	0.2	751869	322	44	3	0	0	36	322	stimuli\Videos_short_600ms_vertflip\57.single_touch_with_nail_file_short_vertflip_short_600ms.mp4	57.single_touch_with_nail_file_short_vertflip_short_600ms.mp4	482.0944774636555	482.70280598779664	0.6083285241411431				
367.923828125	0.2	753508	323	44	3	0	0	37	243	stimuli\Videos_short_600ms_horvertflip\67.single_touch_with_sponge_short_horvertflip_short_600ms.mp4	67.single_touch_with_sponge_short_horvertflip_short_600ms.mp4	482.8951024240678	483.5027204193616	0.6076179952938219				
368.7236328125	0.2	755146	324	44	3	0	0	38	160	stimuli\Videos_short_600ms_horflip\73.single_stroke_with_flat_hand_short_horflip_short_600ms.mp4	73.single_stroke_with_flat_hand_short_horflip_short_600ms.mp4	483.69453564315336	484.3027744348028	0.6082387916494554				
369.5234375	0.2	756784	325	44	3	0	0	39	88	stimuli\Videos_short_600ms\9.single_touch_with_hammer_short_short_600ms.mp4	9.single_touch_with_hammer_short_short_600ms.mp4	484.4944184044275	485.10271232584273	0.6082939214152248				
370.32373046875	0.2	758423	326	44	3	0	0	40	357	stimuli\Videos_short_600ms_vertflip\89.single_touch_with_plastic_brush_short_vertflip_short_600ms.mp4	89.single_touch_with_plastic_brush_short_vertflip_short_600ms.mp4	485.2943988157658	485.9026921506943	0.6082933349284758				
371.12353515625	0.2	760061	327	44	3	0	0	41	274	stimuli\Videos_short_600ms_vertflip\13.single_touch_with_pen_short_vertflip_short_600ms.mp4	13.single_touch_with_pen_short_vertflip_short_600ms.mp4	486.094378347374	486.70268839717846	0.6083100498044587				
371.92333984375	0.2	761699	328	44	3	0	0	42	238	stimuli\Videos_short_600ms_horvertflip\62.touch_top_to_bottom_with_scissors_short_horvertflip_short_600ms.mp4	62.touch_top_to_bottom_with_scissors_short_horvertflip_short_600ms.mp4	486.89435641276486	487.50265942472697	0.6083030119621071				
372.7236328125	0.2	763338	329	44	3	0	0	43	133	stimuli\Videos_short_600ms_horflip\49.repeated_slap_with_hand_short_horflip_short_600ms.mp4	49.repeated_slap_with_hand_short_horflip_short_600ms.mp4	487.694339463294	488.3026606563494	0.6083211930554171				
373.5234375	0.2	764976	330	44	3	0	0	44	277	stimuli\Videos_short_600ms_vertflip\16.repeated_touch_with_plastic_brush_short_vertflip_short_600ms.mp4	16.repeated_touch_with_plastic_brush_short_vertflip_short_600ms.mp4	488.49431518273786	489.10264370687855	0.6083285241406884				
374.3232421875	0.2	766614	331	44	3	0	0	45	139	stimuli\Videos_short_600ms_horflip\54.repeated_touch_with_knife_short_horflip_short_600ms.mp4	54.repeated_touch_with_knife_short_horflip_short_600ms.mp4	489.2942926616415	489.9026094560454	0.6083167944038905				
375.12353515625	0.2	768253	332	44	3	0	0	46	189	stimuli\Videos_short_600ms_horvertflip\18.single_stroke_from_top_to_bottom_with_rolling_pin_short_horvertflip_short_600ms.mp4	18.single_stroke_from_top_to_bottom_with_rolling_pin_short_horvertflip_short_600ms.mp4	490.0942695540589	490.7025992511735	0.608329697114641				
375.92333984375	0.2	769891	333	44	3	0	0	47	53	stimuli\Videos_short_600ms\58.single_slap_with_pencil_short_short_600ms.mp4	58.single_slap_with_pencil_short_short_600ms.mp4	490.8942499653972	491.5025667598011	0.6083167944038905				
376.7236328125	0.2	771530	334	44	3	0	0	48	81	stimuli\Videos_short_600ms\83.single_stroke_top_to_bottom_with_cotton_bud_short_short_600ms.mp4	83.single_stroke_top_to_bottom_with_cotton_bud_short_short_600ms.mp4	491.6942265645712	492.3025433589746	0.6083167944034358				
377.5234375	0.2	773168	335	44	3	0	0	49	159	stimuli\Videos_short_600ms_horflip\72.(short)stroke_with_finger_all_over_the_hand_short_horflip_short_600ms.mp4	72.(short)stroke_with_finger_all_over_the_hand_short_horflip_short_600ms.mp4	492.4942066826661	493.1025234770695	0.6083167944034358				
378.3232421875	0.2	774806	336	44	3	0	0	50	27	stimuli\Videos_short_600ms\34.repeated_punch_with_hand_short_short_600ms.mp4	34.repeated_punch_with_hand_short_short_600ms.mp4	493.2941882669784	493.9025047681384	0.6083165011600613				
379.12353515625	0.2	776445	337	44	3	0	0	51	317	stimuli\Videos_short_600ms_vertflip\52.touch_top_to_bottom_with_hammer_short_vertflip_short_600ms.mp4	52.touch_top_to_bottom_with_hammer_short_vertflip_short_600ms.mp4	494.0941334891045	494.7024796078513	0.6083461187467947				
379.92333984375	0.2	778083	338	44	3	0	0	52	224	stimuli\Videos_short_600ms_horvertflip\5.repeated_tap_with_finger_moving_from_top_to_bottom_short_horvertflip_short_600ms.mp4	5.repeated_tap_with_finger_moving_from_top_to_bottom_short_horvertflip_short_600ms.mp4	494.8941150734163	495.50245972594666	0.6083446525303771				
380.72314453125	0.2	779721	339	44	3	0	0	53	44	stimuli\Videos_short_600ms\5.repeated_tap_with_finger_moving_from_top_to_bottom_short_short_600ms.mp4	5.repeated_tap_with_finger_moving_from_top_to_bottom_short_short_600ms.mp4	495.69410134962345	496.3024410170151	0.6083396673916468				
381.5234375	0.2	781360	340	44	3	0	0	54	54	stimuli\Videos_short_600ms\59.single_push_with_long_side_pencil_short_short_600ms.mp4	59.single_push_with_long_side_pencil_short_short_600ms.mp4	496.4940764825801	497.1024167364585	0.6083402538783957				
382.3232421875	0.2	782998	341	44	3	0	0	55	183	stimuli\Videos_short_600ms_horvertflip\12.repeated_touch_with_nail_file_short_horvertflip_short_600ms.mp4	12.repeated_touch_with_nail_file_short_horvertflip_short_600ms.mp4	497.2940642250046	497.9023948018498	0.6083305768452192				
383.123046875	0.2	784636	342	44	3	0	0	56	68	stimuli\Videos_short_600ms\71.single_stroke_with_finger_top_to_bottom_short_short_600ms.mp4	71.single_stroke_with_finger_top_to_bottom_short_short_600ms.mp4	498.09404727553374	498.70237345372743	0.6083261781936926				
383.92333984375	0.2	786275	343	44	3	0	0	57	280	stimuli\Videos_short_600ms_vertflip\19.single_touch_with_rolling_pin_short_vertflip_short_600ms.mp4	19.single_touch_with_rolling_pin_short_vertflip_short_600ms.mp4	498.8940438152613	499.5023057731423	0.6082619578810409				
384.72314453125	0.2	787913	344	44	3	0	0	58	155	stimuli\Videos_short_600ms_horflip\69.stroke_with_soft_sock_short_horflip_short_600ms.mp4	69.stroke_with_soft_sock_short_horflip_short_600ms.mp4	499.694021000922	500.3023061250342	0.6082851241121716				
385.52294921875	0.2	789551	345	44	3	0	0	59	124	stimuli\Videos_short_600ms_horflip\40.repeated_push_with_finger_short_horflip_short_600ms.mp4	40.repeated_push_with_finger_short_horflip_short_600ms.mp4	500.4939937879312	501.10226454311487	0.6082707551836393				
386.3232421875	0.2	791190	346	44	3	0	0	60	33	stimuli\Videos_short_600ms\4.repeated_tap_with_finger_slow_short_short_600ms.mp4	4.repeated_tap_with_finger_slow_short_short_600ms.mp4	501.2939718533221	501.90226724095464	0.6082953876325519				
387.123046875	0.2	792828	347	44	3	0	0	61	115	stimuli\Videos_short_600ms_horflip\32.single_(long)pinch_with_fingers_short_horflip_short_600ms.mp4	32.single_(long)pinch_with_fingers_short_horflip_short_600ms.mp4	502.0939502119563	502.7022467725628	0.6082965606065045				
387.9228515625	0.2	794466	348	44	3	0	0	62	263	stimuli\Videos_short_600ms_horvertflip\85.touch_top_to_bottom_with_fabric_short_horvertflip_short_600ms.mp4	85.touch_top_to_bottom_with_fabric_short_horvertflip_short_600ms.mp4	502.89392739761706	503.50223158255267	0.608304184935605				
388.72314453125	0.2	796105	349	44	3	0	0	63	267	stimuli\Videos_short_600ms_horvertflip\89.single_touch_with_plastic_brush_short_horvertflip_short_600ms.mp4	89.single_touch_with_plastic_brush_short_horvertflip_short_600ms.mp4	503.6939069292253	504.30223252093174	0.6083255917064889				
389.52294921875	0.2	797743	350	44	3	0	1	64	375	stimuli\Targets_short_600ms_horvertflip\finger-tap_short_vertflip_short_600ms.mp4	finger-tap_short_vertflip_short_600ms.mp4	504.49388470137274	505.10220178901955	0.6083170876468103				
390.32275390625	0.2	799381	351	44	3	0	0	65	314	stimuli\Videos_short_600ms_vertflip\5.repeated_tap_with_finger_moving_from_top_to_bottom_short_vertflip_short_600ms.mp4	5.repeated_tap_with_finger_moving_from_top_to_bottom_short_vertflip_short_600ms.mp4	505.2938680451457	505.90218747874	0.6083194335942608				
391.123046875	0.2	801020	352	44	3	0	0	66	92	stimuli\Videos_short_600ms_horflip\11.single_touch_with_lighter_short_horflip_short_600ms.mp4	11.single_touch_with_lighter_short_horflip_short_600ms.mp4	506.0938420051284	506.702159679262	0.6083176741335592				
391.9228515625	0.2	802658	353	44	3	0	0	67	34	stimuli\Videos_short_600ms\40.repeated_push_with_finger_short_short_600ms.mp4	40.repeated_push_with_finger_short_short_600ms.mp4	506.8938238826841	507.5021386243834	0.6083147416993597				
392.72265625	0.2	804296	354	44	3	0	0	68	324	stimuli\Videos_short_600ms_vertflip\59.single_push_with_long_side_pencil_short_vertflip_short_600ms.mp4	59.single_push_with_long_side_pencil_short_vertflip_short_600ms.mp4	507.6938004818576	508.30211874247834	0.6083182606207629				
393.52294921875	0.2	805935	355	44	3	0	0	69	234	stimuli\Videos_short_600ms_horvertflip\59.single_push_with_long_side_pencil_short_horvertflip_short_600ms.mp4	59.single_push_with_long_side_pencil_short_horvertflip_short_600ms.mp4	508.49377561481424	509.1020965146258	0.6083208998115879				
394.32275390625	0.2	807573	356	44	3	0	0	70	255	stimuli\Videos_short_600ms_horvertflip\78.single_stroke_top_to_bottom_with_soft_brush_short_horvertflip_short_600ms.mp4	78.single_stroke_top_to_bottom_with_soft_brush_short_horvertflip_short_600ms.mp4	509.2937765531933	509.9020734070432	0.608296853849879				
395.123046875	0.2	809212	357	44	3	0	0	71	187	stimuli\Videos_short_600ms_horvertflip\16.repeated_touch_with_plastic_brush_short_horvertflip_short_600ms.mp4	16.repeated_touch_with_plastic_brush_short_horvertflip_short_600ms.mp4	510.0936912780021	510.7020529386514	0.6083616606492797				
395.9228515625	0.2	810850	358	44	3	0	0	72	135	stimuli\Videos_short_600ms_horflip\50.single_(long)hard_push_with_thumb_short_horflip_short_600ms.mp4	50.single_(long)hard_push_with_thumb_short_horflip_short_600ms.mp4	510.8936930961113	511.5020330567463	0.6083399606350213				
396.72265625	0.2	812488	359	44	3	0	0	73	359	stimuli\Videos_short_600ms_vertflip\90.repeated_touch_with_sponge_short_vertflip_short_600ms.mp4	90.repeated_touch_with_sponge_short_vertflip_short_600ms.mp4	511.6936477020272	512.3020108288938	0.6083631268666068				
397.52294921875	0.2	814127	360	44	3	0	0	74	239	stimuli\Videos_short_600ms_horvertflip\63.stroke_top_to_bottom_with_screwdriver_short_horvertflip_short_600ms.mp4	63.stroke_top_to_bottom_with_screwdriver_short_horvertflip_short_600ms.mp4	512.4936518660838	513.101964848323	0.6083129822391129				
398.32275390625	0.2	815765	361	44	3	0	0	75	84	stimuli\Videos_short_600ms\86.touch_top_to_bottom_with_hair_brush_short_short_600ms.mp4	86.touch_top_to_bottom_with_hair_brush_short_short_600ms.mp4	513.2936319841792	513.9019649069714	0.608332922792215				
399.12255859375	0.2	817403	362	44	3	0	0	76	100	stimuli\Videos_short_600ms_horflip\19.single_touch_with_rolling_pin_short_horflip_short_600ms.mp4	19.single_touch_with_rolling_pin_short_horflip_short_600ms.mp4	514.093633509045	514.7019476642577	0.6083141552126108				
399.9228515625	0.2	819042	363	44	3	0	0	77	57	stimuli\Videos_short_600ms\61.single_hit_with_rolling_pin_short_short_600ms.mp4	61.single_hit_with_rolling_pin_short_short_600ms.mp4	514.8936130406528	515.5018785174552	0.608265476802444				
400.72265625	0.2	820680	364	44	3	0	0	78	301	stimuli\Videos_short_600ms_vertflip\38.double_slap_with_pencil_short_vertflip_short_600ms.mp4	38.double_slap_with_pencil_short_vertflip_short_600ms.mp4	515.693587000636	516.3018797490777	0.6082927484417269				
401.5224609375	0.2	822318	365	44	3	0	0	79	302	stimuli\Videos_short_600ms_vertflip\39.single_stab_with_scissors_short_vertflip_short_600ms.mp4	39.single_stab_with_scissors_short_vertflip_short_600ms.mp4	516.4935662390003	517.101844618514	0.6082783795136493				
402.32275390625	0.2	823957	366	44	3	0	0	80	66	stimuli\Videos_short_600ms\7.repeated_touch_with_hairbrush_short_short_600ms.mp4	7.repeated_touch_with_hairbrush_short_short_600ms.mp4	517.2935443043916	517.9018411582415	0.608296853849879				
403.12255859375	0.2	825595	367	44	3	0	0	81	257	stimuli\Videos_short_600ms_horvertflip\8.single_touch_with_hairbrush_short_horvertflip_short_600ms.mp4	8.single_touch_with_hairbrush_short_horvertflip_short_600ms.mp4	518.0935214900519	518.7018209830931	0.6082994930411587				
403.92236328125	0.2	827233	368	44	3	0	0	82	350	stimuli\Videos_short_600ms_vertflip\82.repeated_touch_with_cotton_bud_short_vertflip_short_600ms.mp4	82.repeated_touch_with_cotton_bud_short_vertflip_short_600ms.mp4	518.8934972094953	519.5018228012023	0.6083255917069437				
404.72265625	0.2	828872	369	44	3	0	0	83	200	stimuli\Videos_short_600ms_horvertflip\28.single_injection_with_sharp_needle_short_horvertflip_short_600ms.mp4	28.single_injection_with_sharp_needle_short_horvertflip_short_600ms.mp4	519.6934773275907	520.301795588211	0.6083182606203081				
405.5224609375	0.2	830510	370	44	3	0	0	84	96	stimuli\Videos_short_600ms_horflip\15.single_stroke_top_to_bottom_with_a_plastic_whisk_short_horflip_short_600ms.mp4	15.single_stroke_top_to_bottom_with_a_plastic_whisk_short_horflip_short_600ms.mp4	520.4934556862249	521.1017739468457	0.6083182606207629				
406.322265625	0.2	832148	371	44	3	0	0	85	122	stimuli\Videos_short_600ms_horflip\39.single_stab_with_scissors_short_horflip_short_600ms.mp4	39.single_stab_with_scissors_short_horflip_short_600ms.mp4	521.2934363908066	521.9017511325064	0.6083147416998145				
407.12255859375	0.2	833787	372	44	3	0	0	86	307	stimuli\Videos_short_600ms_vertflip\43.touch_top_to_bottom_with_sharp_wooden_stick_short_vertflip_short_600ms.mp4	43.touch_top_to_bottom_with_sharp_wooden_stick_short_vertflip_short_600ms.mp4	522.09341211025	522.701730957358	0.6083188471079666				
407.92236328125	0.2	835425	373	44	3	0	1	87	366	stimuli\Targets_short_600ms_horflip\brush-stroke_short_horflip_short_600ms.mp4	brush-stroke_short_horflip_short_600ms.mp4	522.8933989729444	523.5017116619397	0.6083126889952837				
408.72216796875	0.2	837063	374	44	3	0	0	88	284	stimuli\Videos_short_600ms_vertflip\22.single_touch_with_metal_chopstick_short_vertflip_short_600ms.mp4	22.single_touch_with_metal_chopstick_short_vertflip_short_600ms.mp4	523.6933697072491	524.3016870881397	0.6083173808906395				
