onset	duration	onsetsample	eventnumber	subjectnr	sequencenumber	blocksequencenumber	istarget	presentationnumber	stimnumber	stim	stimname	time_stimon	time_stimoff	stimdur	cresp	resp	rt	correct
41.6533203125	0.2	85306	0	16	0	0	0	0	27	stimuli\Videos_short_600ms\34.repeated_punch_with_hand_short_short_600ms.mp4	34.repeated_punch_with_hand_short_short_600ms.mp4	264.0948181543331	264.703135405618	0.608317251284916				
42.453125	0.2	86944	1	16	0	0	0	1	327	stimuli\Videos_short_600ms_vertflip\61.single_hit_with_rolling_pin_short_vertflip_short_600ms.mp4	61.single_hit_with_rolling_pin_short_vertflip_short_600ms.mp4	264.8947880673886	265.50311792821185	0.6083298608232326				
43.25341796875	0.2	88583	2	16	0	0	0	2	126	stimuli\Videos_short_600ms_horflip\42.single_slap_with_plastic_whisk_short_horflip_short_600ms.mp4	42.single_slap_with_plastic_whisk_short_horflip_short_600ms.mp4	265.6947565142191	266.3031004508057	0.608343936586607				
44.05322265625	0.2	90221	3	16	0	0	0	3	234	stimuli\Videos_short_600ms_horvertflip\59.single_push_with_long_side_pencil_short_horvertflip_short_600ms.mp4	59.single_push_with_long_side_pencil_short_horvertflip_short_600ms.mp4	266.494729946216	267.10308238690914	0.6083524406931247				
44.85302734375	0.2	91859	4	16	0	0	0	4	74	stimuli\Videos_short_600ms\77.tapping_with_all_fingers_short_short_600ms.mp4	77.tapping_with_all_fingers_short_short_600ms.mp4	267.29472302563227	267.9030666689737	0.6083436433414136				
45.6533203125	0.2	93498	5	16	0	0	0	5	130	stimuli\Videos_short_600ms_horflip\46.scratching_top_to_bottom_with_finger_nails_short_horflip_short_600ms.mp4	46.scratching_top_to_bottom_with_finger_nails_short_horflip_short_600ms.mp4	268.0947093604118	268.7030518307729	0.6083424703610945				
46.453125	0.2	95136	6	16	0	0	0	6	288	stimuli\Videos_short_600ms_vertflip\26.single_touch_with_a_blunt_syringe_short_vertflip_short_600ms.mp4	26.single_touch_with_a_blunt_syringe_short_vertflip_short_600ms.mp4	268.89469305598595	269.50301060051606	0.6083175445301094				
47.2529296875	0.2	96774	7	16	0	0	0	7	147	stimuli\Videos_short_600ms_horflip\61.single_hit_with_rolling_pin_short_horflip_short_600ms.mp4	61.single_hit_with_rolling_pin_short_horflip_short_600ms.mp4	269.69482278760506	270.3030127705297	0.608189982924614				
48.05322265625	0.2	98413	8	16	0	0	0	8	338	stimuli\Videos_short_600ms_vertflip\71.single_stroke_with_finger_top_to_bottom_short_vertflip_short_600ms.mp4	71.single_stroke_with_finger_top_to_bottom_short_vertflip_short_600ms.mp4	270.494680681044	271.102972420008	0.6082917389639988				
48.85302734375	0.2	100051	9	16	0	0	0	9	13	stimuli\Videos_short_600ms\21.repeated_touch_with_metal_chopstick_short_short_600ms.mp4	21.repeated_touch_with_metal_chopstick_short_short_600ms.mp4	271.2947652529224	271.902960221013	0.6081949680906291				
49.65283203125	0.2	101689	10	16	0	0	0	10	96	stimuli\Videos_short_600ms_horflip\15.single_stroke_top_to_bottom_with_a_plastic_whisk_short_horflip_short_600ms.mp4	15.single_stroke_top_to_bottom_with_a_plastic_whisk_short_horflip_short_600ms.mp4	272.0946439667614	272.7029233894318	0.6082794226704209				
50.453125	0.2	103328	11	16	0	0	0	11	160	stimuli\Videos_short_600ms_horflip\73.single_stroke_with_flat_hand_short_horflip_short_600ms.mp4	73.single_stroke_with_flat_hand_short_horflip_short_600ms.mp4	272.89462707584516	273.5029390487189	0.6083119728737074				
51.2529296875	0.2	104966	12	16	0	0	0	12	11	stimuli\Videos_short_600ms\2.single_touch_with_finger_short_short_600ms.mp4	2.single_touch_with_finger_short_short_600ms.mp4	273.6946093051938	274.30290808203927	0.6082987768454586				
52.05322265625	0.2	106605	13	16	0	0	0	13	263	stimuli\Videos_short_600ms_horvertflip\85.touch_top_to_bottom_with_fabric_short_horvertflip_short_600ms.mp4	85.touch_top_to_bottom_with_fabric_short_horvertflip_short_600ms.mp4	274.4945900683174	275.1029222751008	0.608332206783416				
52.85302734375	0.2	108243	14	16	0	0	0	14	199	stimuli\Videos_short_600ms_horvertflip\27.single_push_with_a_plastic_whisk_short_horvertflip_short_600ms.mp4	27.single_push_with_a_plastic_whisk_short_horvertflip_short_600ms.mp4	275.29457259091123	275.9028924814015	0.6083198904902929				
53.65283203125	0.2	109881	15	16	0	0	0	15	283	stimuli\Videos_short_600ms_vertflip\21.repeated_touch_with_metal_chopstick_short_vertflip_short_600ms.mp4	21.repeated_touch_with_metal_chopstick_short_vertflip_short_600ms.mp4	276.0945354660853	276.70287793644593	0.6083424703606397				
54.453125	0.2	111520	16	16	0	0	0	16	162	stimuli\Videos_short_600ms_horflip\75.(long)stroke_with_fingers_all_over_the_hand_short_horflip_short_600ms.mp4	75.(long)stroke_with_fingers_all_over_the_hand_short_horflip_short_600ms.mp4	276.8945197481494	277.502860165795	0.6083404176456497				
55.2529296875	0.2	113158	17	16	0	0	0	17	356	stimuli\Videos_short_600ms_vertflip\88.repeated_stroke_with_plastic_brush_short_vertflip_short_600ms.mp4	88.repeated_stroke_with_plastic_brush_short_vertflip_short_600ms.mp4	277.6945207451827	278.30283946269265	0.6083187175099738				
56.052734375	0.2	114796	18	16	0	0	0	18	342	stimuli\Videos_short_600ms_vertflip\75.(long)stroke_with_fingers_all_over_the_hand_short_vertflip_short_600ms.mp4	75.(long)stroke_with_fingers_all_over_the_hand_short_vertflip_short_600ms.mp4	278.49451059890316	279.1028219852865	0.6083113863833205				
56.85302734375	0.2	116435	19	16	0	0	0	19	230	stimuli\Videos_short_600ms_horvertflip\55.touch_top_to_bottom_with_nail_file_short_horvertflip_short_600ms.mp4	55.touch_top_to_bottom_with_nail_file_short_horvertflip_short_600ms.mp4	279.2944620375197	279.9028045078803	0.6083424703606397				
57.65283203125	0.2	118073	20	16	0	0	0	20	102	stimuli\Videos_short_600ms_horflip\20.single_touch_with_screwdriver_short_horflip_short_600ms.mp4	20.single_touch_with_screwdriver_short_horflip_short_600ms.mp4	280.0944310708401	280.70278966968	0.6083585988399136				
58.45263671875	0.2	119711	21	16	0	0	0	21	91	stimuli\Videos_short_600ms_horflip\10.single_touch_with_knife_short_horflip_short_600ms.mp4	10.single_touch_with_knife_short_horflip_short_600ms.mp4	280.894406555552	281.5027692598228	0.6083627042708031				
59.2529296875	0.2	121350	22	16	0	0	0	22	64	stimuli\Videos_short_600ms\68.stroke_top_to_bottom_with_shawl_short_short_600ms.mp4	68.stroke_top_to_bottom_with_shawl_short_short_600ms.mp4	281.69439083761654	282.30275207566183	0.6083612380452905				
60.052734375	0.2	122988	23	16	0	0	0	23	210	stimuli\Videos_short_600ms_horvertflip\37.single_stab_with_nail_file_short_horvertflip_short_600ms.mp4	37.single_stab_with_nail_file_short_horvertflip_short_600ms.mp4	282.4943739467003	283.1027351847456	0.6083612380452905				
60.8525390625	0.2	124626	24	16	0	0	1	24	377	stimuli\Targets_short_600ms_horvertflip\hand-stroke_short_vertflip_short_600ms.mp4	hand-stroke_short_vertflip_short_600ms.mp4	283.29438755327146	283.9027223992607	0.6083348459892477				
61.65283203125	0.2	126265	25	16	0	0	0	25	214	stimuli\Videos_short_600ms_horvertflip\40.repeated_push_with_finger_short_horvertflip_short_600ms.mp4	40.repeated_push_with_finger_short_horvertflip_short_600ms.mp4	284.09436831639505	284.7027016961588	0.6083333797637351				
62.45263671875	0.2	127903	26	16	0	0	0	26	249	stimuli\Videos_short_600ms_horvertflip\72.(short)stroke_with_finger_all_over_the_hand_short_horvertflip_short_600ms.mp4	72.(short)stroke_with_finger_all_over_the_hand_short_horvertflip_short_600ms.mp4	284.8943707796534	285.5026938958399	0.6083231161865115				
63.25244140625	0.2	129541	27	16	0	0	0	27	309	stimuli\Videos_short_600ms_vertflip\45.scratching_with_finger_nails_short_vertflip_short_600ms.mp4	45.scratching_with_finger_nails_short_vertflip_short_600ms.mp4	285.6944046201347	286.3026438682309	0.6082392480961971				
64.052734375	0.2	131180	28	16	0	0	0	28	354	stimuli\Videos_short_600ms_vertflip\86.touch_top_to_bottom_with_hair_brush_short_vertflip_short_600ms.mp4	86.touch_top_to_bottom_with_hair_brush_short_vertflip_short_600ms.mp4	286.49432995993993	287.1026255110896	0.6082955511496948				
64.8525390625	0.2	132818	29	16	0	0	0	29	179	stimuli\Videos_short_600ms_horflip\90.repeated_touch_with_sponge_short_horflip_short_600ms.mp4	90.repeated_touch_with_sponge_short_horflip_short_600ms.mp4	287.2943327164435	287.9026133120947	0.6082805956511947				
65.65234375	0.2	134456	30	16	0	0	0	30	201	stimuli\Videos_short_600ms_horvertflip\29.single_pinch_with_tweezers_short_horvertflip_short_600ms.mp4	29.single_pinch_with_tweezers_short_horvertflip_short_600ms.mp4	288.09429500512715	288.70260169958965	0.6083066944624989				
66.45263671875	0.2	136095	31	16	0	0	1	31	383	stimuli\Targets_short_600ms_vertflip\hand-stroke_short_horvertflip_short_600ms.mp4	hand-stroke_short_horvertflip_short_600ms.mp4	288.8942836858678	289.5025786505271	0.6082949646593079				
67.25244140625	0.2	137733	32	16	0	0	0	32	207	stimuli\Videos_short_600ms_horvertflip\34.repeated_punch_with_hand_short_horvertflip_short_600ms.mp4	34.repeated_punch_with_hand_short_horvertflip_short_600ms.mp4	289.6942606368052	290.30259430981414	0.6083336730089286				
68.05224609375	0.2	139371	33	16	0	0	0	33	61	stimuli\Videos_short_600ms\65.stroke_top_to_bottom_with_stanley_knife_short_short_600ms.mp4	65.stroke_top_to_bottom_with_stanley_knife_short_short_600ms.mp4	290.4942490243002	291.1025656890952	0.6083166647949838				
68.8525390625	0.2	141010	34	16	0	0	0	34	196	stimuli\Videos_short_600ms_horvertflip\24.single_stroke_top_to_bottom_with_a_spoon_short_horvertflip_short_600ms.mp4	24.single_stroke_top_to_bottom_with_a_spoon_short_horvertflip_short_600ms.mp4	291.2942306671589	291.90255026440445	0.6083195972455542				
69.65234375	0.2	142648	35	16	0	0	0	35	333	stimuli\Videos_short_600ms_vertflip\67.single_touch_with_sponge_short_vertflip_short_600ms.mp4	67.single_touch_with_sponge_short_vertflip_short_600ms.mp4	292.0942146559778	292.70253073428285	0.6083160783050516				
70.4521484375	0.2	144286	36	16	0	0	0	36	232	stimuli\Videos_short_600ms_horvertflip\57.single_touch_with_nail_file_short_horvertflip_short_600ms.mp4	57.single_touch_with_nail_file_short_horvertflip_short_600ms.mp4	292.89419453936625	293.5025132568767	0.6083187175104285				
71.25244140625	0.2	145925	37	16	0	0	0	37	204	stimuli\Videos_short_600ms_horvertflip\31.hand_grabbing_wrist_short_horvertflip_short_600ms.mp4	31.hand_grabbing_wrist_short_horvertflip_short_600ms.mp4	293.69417471599945	294.3024937267546	0.6083190107551673				
72.05224609375	0.2	147563	38	16	0	0	0	38	295	stimuli\Videos_short_600ms_vertflip\32.single_(long)pinch_with_fingers_short_vertflip_short_600ms.mp4	32.single_(long)pinch_with_fingers_short_vertflip_short_600ms.mp4	294.4941584115736	295.1024774223288	0.6083190107551673				
72.8525390625	0.2	149202	39	16	0	0	0	39	273	stimuli\Videos_short_600ms_vertflip\12.repeated_touch_with_nail_file_short_vertflip_short_600ms.mp4	12.repeated_touch_with_nail_file_short_vertflip_short_600ms.mp4	295.2941585288713	295.90246082465774	0.6083022957864159				
73.65234375	0.2	150840	40	16	0	0	0	40	262	stimuli\Videos_short_600ms_horvertflip\84.single_touch_with_cotton_bud_short_horvertflip_short_600ms.mp4	84.single_touch_with_cotton_bud_short_horvertflip_short_600ms.mp4	296.0941076215272	296.70244246751645	0.6083348459892477				
74.4521484375	0.2	152478	41	16	0	0	1	41	382	stimuli\Targets_short_600ms_vertflip\hand-pinch_short_horvertflip_short_600ms.mp4	hand-pinch_short_horvertflip_short_600ms.mp4	296.8940833994843	297.5024261630906	0.6083427636062879				
75.25244140625	0.2	154117	42	16	0	0	0	42	122	stimuli\Videos_short_600ms_horflip\39.single_stab_with_scissors_short_horflip_short_600ms.mp4	39.single_stab_with_scissors_short_horflip_short_600ms.mp4	297.69406621532335	298.30240809919405	0.6083418838707075				
76.05224609375	0.2	155755	43	16	0	0	0	43	86	stimuli\Videos_short_600ms\88.repeated_stroke_with_plastic_brush_short_short_600ms.mp4	88.repeated_stroke_with_plastic_brush_short_short_600ms.mp4	298.49405870824967	299.1023923812586	0.6083336730089286				
76.85205078125	0.2	157393	44	16	0	0	0	44	21	stimuli\Videos_short_600ms\29.single_pinch_with_tweezers_short_short_600ms.mp4	29.single_pinch_with_tweezers_short_short_600ms.mp4	299.29403301998127	299.9023707984211	0.6083377784398181				
77.65234375	0.2	159032	45	16	0	0	0	45	291	stimuli\Videos_short_600ms_vertflip\29.single_pinch_with_tweezers_short_vertflip_short_600ms.mp4	29.single_pinch_with_tweezers_short_vertflip_short_600ms.mp4	300.09403255078905	300.702324876243	0.608292325453931				
78.4521484375	0.2	160670	46	16	0	0	1	46	372	stimuli\Targets_short_600ms_horvertflip\brush-stroke_short_vertflip_short_600ms.mp4	brush-stroke_short_vertflip_short_600ms.mp4	300.89403941272394	301.5022956690341	0.6082562563101419				
79.251953125	0.2	162308	47	16	0	0	0	47	150	stimuli\Videos_short_600ms_horflip\64.repeated_touch_with_screwdriver_short_horflip_short_600ms.mp4	64.repeated_touch_with_screwdriver_short_horflip_short_600ms.mp4	301.69400463385864	302.3023034107041	0.6082987768454586				
80.05224609375	0.2	163947	48	16	0	0	0	48	114	stimuli\Videos_short_600ms_horflip\31.hand_grabbing_wrist_short_horflip_short_600ms.mp4	31.hand_grabbing_wrist_short_horflip_short_600ms.mp4	302.49400680387225	303.1023049942273	0.6082981903550717				
80.85205078125	0.2	165585	49	16	0	0	0	49	78	stimuli\Videos_short_600ms\80.stroke_with_sharp_stick_all_over_the_hand_short_short_600ms.mp4	80.stroke_with_sharp_stick_all_over_the_hand_short_short_600ms.mp4	303.29397085202663	303.90227813297906	0.608307280952431				
81.65185546875	0.2	167223	50	16	0	0	0	50	83	stimuli\Videos_short_600ms\85.touch_top_to_bottom_with_fabric_short_short_600ms.mp4	85.touch_top_to_bottom_with_fabric_short_short_600ms.mp4	304.0939539611104	304.70227297186557	0.6083190107551673				
82.4521484375	0.2	168862	51	16	0	0	0	51	22	stimuli\Videos_short_600ms\3.single_push_with_finger_short_short_600ms.mp4	3.single_push_with_finger_short_short_600ms.mp4	304.8939338444984	305.50226341207645	0.6083295675780391				
83.251953125	0.2	170500	52	16	0	0	0	52	88	stimuli\Videos_short_600ms\9.single_touch_with_hammer_short_short_600ms.mp4	9.single_touch_with_hammer_short_short_600ms.mp4	305.69391754007256	306.30224886712085	0.6083313270482904				
84.0517578125	0.2	172138	53	16	0	0	0	53	108	stimuli\Videos_short_600ms_horflip\26.single_touch_with_a_blunt_syringe_short_horflip_short_600ms.mp4	26.single_touch_with_a_blunt_syringe_short_horflip_short_600ms.mp4	306.49390182213665	307.10222376534284	0.6083219432061924				
84.85205078125	0.2	173777	54	16	0	0	0	54	120	stimuli\Videos_short_600ms_horflip\37.single_stab_with_nail_file_short_horflip_short_600ms.mp4	37.single_stab_with_nail_file_short_horflip_short_600ms.mp4	307.2938899163869	307.90220482171117	0.6083149053242778				
85.65185546875	0.2	175415	55	16	0	0	1	55	374	stimuli\Targets_short_600ms_horvertflip\chopstickwood-tap_short_vertflip_short_600ms.mp4	chopstickwood-tap_short_vertflip_short_600ms.mp4	308.09386950653015	308.70218705106026	0.6083175445301094				
86.45166015625	0.2	177053	56	16	0	0	0	56	298	stimuli\Videos_short_600ms_vertflip\35.single_punch_with_hand_short_vertflip_short_600ms.mp4	35.single_punch_with_hand_short_vertflip_short_600ms.mp4	308.89384909667297	309.502173679085	0.608324582412024				
87.251953125	0.2	178692	57	16	0	0	0	57	144	stimuli\Videos_short_600ms_horflip\59.single_push_with_long_side_pencil_short_horflip_short_600ms.mp4	59.single_push_with_long_side_pencil_short_horflip_short_600ms.mp4	309.69383543145295	310.30215297598306	0.6083175445301094				
88.0517578125	0.2	180330	58	16	0	0	0	58	113	stimuli\Videos_short_600ms_horflip\30.finger_pulling_back_another_finger_short_horflip_short_600ms.mp4	30.finger_pulling_back_another_finger_short_horflip_short_600ms.mp4	310.493823232458	311.10213579182164	0.6083125593636396				
88.8515625	0.2	181968	59	16	0	0	0	59	46	stimuli\Videos_short_600ms\51.repeated_touch_with_hammer_short_short_600ms.mp4	51.repeated_touch_with_hammer_short_short_600ms.mp4	311.293781708956	311.9021165549452	0.6083348459892477				
89.65185546875	0.2	183607	60	16	0	0	0	60	311	stimuli\Videos_short_600ms_vertflip\47.(long)scratching_with_finger_nails_short_vertflip_short_600ms.mp4	47.(long)scratching_with_finger_nails_short_vertflip_short_600ms.mp4	312.0937375462486	312.7021005437641	0.6083629975155418				
90.45166015625	0.2	185245	61	16	0	0	0	61	119	stimuli\Videos_short_600ms_horflip\36.single_slap_with_full_hand_short_horflip_short_600ms.mp4	36.single_slap_with_full_hand_short_horflip_short_600ms.mp4	312.893719482352	313.50208306635795	0.6083635840059287				
91.25146484375	0.2	186883	62	16	0	0	0	62	323	stimuli\Videos_short_600ms_vertflip\58.single_slap_with_pencil_short_vertflip_short_600ms.mp4	58.single_slap_with_pencil_short_vertflip_short_600ms.mp4	313.6937292767375	314.3020667619321	0.6083374851946246				
92.0517578125	0.2	188522	63	16	0	0	0	63	324	stimuli\Videos_short_600ms_vertflip\59.single_push_with_long_side_pencil_short_vertflip_short_600ms.mp4	59.single_push_with_long_side_pencil_short_vertflip_short_600ms.mp4	314.49372176966335	315.1020463520754	0.608324582412024				
92.8515625	0.2	190160	64	16	0	0	0	64	56	stimuli\Videos_short_600ms\60.single_push_with_tip_of_pencil_short_short_600ms.mp4	60.single_push_with_tip_of_pencil_short_short_600ms.mp4	315.2937142625897	315.90201040022976	0.6082961376400817				
93.65185546875	0.2	191799	65	16	0	0	0	65	240	stimuli\Videos_short_600ms_horvertflip\64.repeated_touch_with_screwdriver_short_horvertflip_short_600ms.mp4	64.repeated_touch_with_screwdriver_short_horvertflip_short_600ms.mp4	316.0937170190932	316.7019973214997	0.608280302406456				
94.45166015625	0.2	193437	66	16	0	0	0	66	285	stimuli\Videos_short_600ms_vertflip\23.single_push_with_a_spoon_short_vertflip_short_600ms.mp4	23.single_push_with_a_spoon_short_vertflip_short_600ms.mp4	316.89386082647616	317.50195462501733	0.6080937985411765				
95.25146484375	0.2	195075	67	16	0	0	0	67	242	stimuli\Videos_short_600ms_horvertflip\66.stroke_top_to_bottom_with_sponge_short_horvertflip_short_600ms.mp4	66.stroke_top_to_bottom_with_sponge_short_horvertflip_short_600ms.mp4	317.6936764926245	318.301958261256	0.6082817686315138				
96.0517578125	0.2	196714	68	16	0	0	0	68	43	stimuli\Videos_short_600ms\49.repeated_slap_with_hand_short_short_600ms.mp4	49.repeated_slap_with_hand_short_short_600ms.mp4	318.4936440597198	319.1019484082217	0.6083043485018607				
96.8515625	0.2	198352	69	16	0	0	0	69	189	stimuli\Videos_short_600ms_horvertflip\18.single_stroke_from_top_to_bottom_with_rolling_pin_short_horvertflip_short_600ms.mp4	18.single_stroke_from_top_to_bottom_with_rolling_pin_short_horvertflip_short_600ms.mp4	319.2936289282743	319.9019347430012	0.6083058147269185				
97.6513671875	0.2	199990	70	16	0	0	0	70	41	stimuli\Videos_short_600ms\47.(long)scratching_with_finger_nails_short_short_600ms.mp4	47.(long)scratching_with_finger_nails_short_short_600ms.mp4	320.0936132103384	320.7019307548685	0.6083175445301094				
98.45166015625	0.2	201629	71	16	0	0	0	71	348	stimuli\Videos_short_600ms_vertflip\80.stroke_with_sharp_stick_all_over_the_hand_short_vertflip_short_600ms.mp4	80.stroke_with_sharp_stick_all_over_the_hand_short_vertflip_short_600ms.mp4	320.8935587840533	321.50191708964803	0.6083583055947202				
99.25146484375	0.2	203267	72	16	0	0	0	72	112	stimuli\Videos_short_600ms_horflip\3.single_push_with_finger_short_horflip_short_600ms.mp4	3.single_push_with_finger_short_horflip_short_600ms.mp4	321.69357825552606	322.30189609330137	0.6083178377753029				
100.05126953125	0.2	204905	73	16	0	0	0	73	167	stimuli\Videos_short_600ms_horflip\8.single_touch_with_hairbrush_short_horflip_short_600ms.mp4	8.single_touch_with_hairbrush_short_horflip_short_600ms.mp4	322.49355901864965	323.1018818415905	0.6083228229408633				
100.8515625	0.2	206544	74	16	0	0	0	74	353	stimuli\Videos_short_600ms_vertflip\85.touch_top_to_bottom_with_fabric_short_vertflip_short_600ms.mp4	85.touch_top_to_bottom_with_fabric_short_vertflip_short_600ms.mp4	323.29355239131064	323.9018623114689	0.6083099201582627				
101.6513671875	0.2	208182	75	16	0	0	0	75	8	stimuli\Videos_short_600ms\17.repeated_touch_with_rolling_pin_short_short_600ms.mp4	17.repeated_touch_with_rolling_pin_short_short_600ms.mp4	324.0935281692682	324.7018486462489	0.6083204769806798				
102.451171875	0.2	209820	76	16	0	0	0	76	24	stimuli\Videos_short_600ms\31.hand_grabbing_wrist_short_short_600ms.mp4	31.hand_grabbing_wrist_short_short_600ms.mp4	324.8935065864307	325.50182794314696	0.6083213567162602				
103.25146484375	0.2	211459	77	16	0	0	1	77	367	stimuli\Targets_short_600ms_horflip\chopstick-silver-tap_short_horflip_short_600ms.mp4	chopstick-silver-tap_short_horflip_short_600ms.mp4	325.6934870563091	326.3018142779265	0.6083272216174009				
104.05126953125	0.2	213097	78	16	0	0	0	78	51	stimuli\Videos_short_600ms\56.repeated_touch_with_nail_file_short_short_600ms.mp4	56.repeated_touch_with_nail_file_short_short_600ms.mp4	326.49345520989436	327.10179738701027	0.608342177115901				
104.85107421875	0.2	214735	79	16	0	0	0	79	165	stimuli\Videos_short_600ms_horflip\78.single_stroke_top_to_bottom_with_soft_brush_short_horflip_short_600ms.mp4	78.single_stroke_top_to_bottom_with_soft_brush_short_horflip_short_600ms.mp4	327.2934406649392	327.90177668390834	0.608336018969112				
105.6513671875	0.2	216374	80	16	0	0	0	80	265	stimuli\Videos_short_600ms_horvertflip\87.single_stroke_top_to_bottom_with_plastic_brush_short_horvertflip_short_600ms.mp4	87.single_stroke_top_to_bottom_with_plastic_brush_short_horvertflip_short_600ms.mp4	328.09344664713853	328.70176243219794	0.6083157850594034				
106.451171875	0.2	218012	81	16	0	0	0	81	117	stimuli\Videos_short_600ms_horflip\34.repeated_punch_with_hand_short_horflip_short_600ms.mp4	34.repeated_punch_with_hand_short_horflip_short_600ms.mp4	328.8934024844307	329.50174348856626	0.6083410041355819				
107.2509765625	0.2	219650	82	16	0	0	0	82	306	stimuli\Videos_short_600ms_vertflip\42.single_slap_with_plastic_whisk_short_vertflip_short_600ms.mp4	42.single_slap_with_plastic_whisk_short_vertflip_short_600ms.mp4	329.69339204490643	330.3017260111601	0.6083339662536673				
108.05126953125	0.2	221289	83	16	0	0	0	83	77	stimuli\Videos_short_600ms\8.single_touch_with_hairbrush_short_short_600ms.mp4	8.single_touch_with_hairbrush_short_short_600ms.mp4	330.49338131213653	331.10170589454856	0.608324582412024				
108.85107421875	0.2	222927	84	16	0	0	0	84	100	stimuli\Videos_short_600ms_horflip\19.single_touch_with_rolling_pin_short_horflip_short_600ms.mp4	19.single_touch_with_rolling_pin_short_horflip_short_600ms.mp4	331.29408697707413	331.90167639409447	0.6075894170203355				
109.65087890625	0.2	224565	85	16	0	0	0	85	164	stimuli\Videos_short_600ms_horflip\77.tapping_with_all_fingers_short_horflip_short_600ms.mp4	77.tapping_with_all_fingers_short_horflip_short_600ms.mp4	332.09339151706536	332.7016583301979	0.608266813132559				
110.451171875	0.2	226204	86	16	0	0	0	86	169	stimuli\Videos_short_600ms_horflip\81.single_stroke_top_to_bottom_with_cotton_pad_short_horflip_short_600ms.mp4	81.single_stroke_top_to_bottom_with_cotton_pad_short_horflip_short_600ms.mp4	332.8933473543575	333.501637627096	0.6082902727384862				
111.2509765625	0.2	227842	87	16	0	0	0	87	185	stimuli\Videos_short_600ms_horvertflip\14.repeated_touch_with_pencil_short_horvertflip_short_600ms.mp4	14.repeated_touch_with_pencil_short_horvertflip_short_600ms.mp4	333.693340140529	334.30162542810103	0.6082852875720164				
112.05126953125	0.2	229481	88	16	0	0	0	88	140	stimuli\Videos_short_600ms_horflip\55.touch_top_to_bottom_with_nail_file_short_horflip_short_600ms.mp4	55.touch_top_to_bottom_with_nail_file_short_horflip_short_600ms.mp4	334.4934082906834	335.1016105899007	0.6082022992172824				
112.85107421875	0.2	231119	89	16	0	0	0	89	127	stimuli\Videos_short_600ms_horflip\43.touch_top_to_bottom_with_sharp_wooden_stick_short_horflip_short_600ms.mp4	43.touch_top_to_bottom_with_sharp_wooden_stick_short_horflip_short_600ms.mp4	335.2932896437278	335.901605135542	0.60831549181421				
113.65087890625	0.2	232757	90	16	0	0	0	90	3	stimuli\Videos_short_600ms\12.repeated_touch_with_nail_file_short_short_600ms.mp4	12.repeated_touch_with_nail_file_short_short_600ms.mp4	336.09328272314406	336.701604959595	0.6083222364509311				
114.451171875	0.2	234396	91	16	0	0	0	91	115	stimuli\Videos_short_600ms_horflip\32.single_(long)pinch_with_fingers_short_horflip_short_600ms.mp4	32.single_(long)pinch_with_fingers_short_horflip_short_600ms.mp4	336.89328313368696	337.5015780983467	0.6082949646597626				
115.2509765625	0.2	236034	92	16	0	0	0	92	218	stimuli\Videos_short_600ms_horvertflip\44.pushing_top_to_bottom_with_finger_short_horvertflip_short_600ms.mp4	44.pushing_top_to_bottom_with_finger_short_horvertflip_short_600ms.mp4	337.69326389681055	338.30156032769537	0.6082964308848204				
116.05078125	0.2	237672	93	16	0	0	0	93	142	stimuli\Videos_short_600ms_horflip\57.single_touch_with_nail_file_short_horflip_short_600ms.mp4	57.single_touch_with_nail_file_short_horflip_short_600ms.mp4	338.493237328807	339.10154079757376	0.608303468766735				
116.85107421875	0.2	239311	94	16	0	0	0	94	222	stimuli\Videos_short_600ms_horvertflip\48.single_slap_with_hand_short_horvertflip_short_600ms.mp4	48.single_slap_with_hand_short_horvertflip_short_600ms.mp4	339.2932084148433	339.9015280120889	0.6083195972455542				
117.65087890625	0.2	240949	95	16	0	0	0	95	357	stimuli\Videos_short_600ms_vertflip\89.single_touch_with_plastic_brush_short_vertflip_short_600ms.mp4	89.single_touch_with_plastic_brush_short_vertflip_short_600ms.mp4	340.093203546975	340.70150701574175	0.608303468766735	6.0	6.0	2.249053331601317	1.0
160.291015625	0.2	328276	96	16	1	0	0	0	358	stimuli\Videos_short_600ms_vertflip\9.single_touch_with_hammer_short_vertflip_short_600ms.mp4	9.single_touch_with_hammer_short_vertflip_short_600ms.mp4	382.7344316925196	383.3422715408296	0.60783984831005				
161.09130859375	0.2	329915	97	16	1	0	0	1	136	stimuli\Videos_short_600ms_horflip\51.repeated_touch_with_hammer_short_horflip_short_600ms.mp4	51.repeated_touch_with_hammer_short_horflip_short_600ms.mp4	383.5339136457783	384.1422543566687	0.6083407108903884				
161.89111328125	0.2	331553	98	16	1	0	0	2	253	stimuli\Videos_short_600ms_horvertflip\76.tickle_with_fingers_from_top_to_bottom_short_horvertflip_short_600ms.mp4	76.tickle_with_fingers_from_top_to_bottom_short_horvertflip_short_600ms.mp4	384.3338768141971	384.9422377589976	0.6083609448005518				
162.69091796875	0.2	333191	99	16	1	0	0	3	121	stimuli\Videos_short_600ms_horflip\38.double_slap_with_pencil_short_horflip_short_600ms.mp4	38.double_slap_with_pencil_short_horflip_short_600ms.mp4	385.1338833828868	385.7422243870224	0.6083410041355819				
163.4912109375	0.2	334830	100	16	1	0	1	4	363	stimuli\Targets_short_600ms\finger-tap_short_short_600ms.mp4	finger-tap_short_short_600ms.mp4	385.9338741163424	386.5422072028614	0.6083330865189964				
164.291015625	0.2	336468	101	16	1	0	0	5	200	stimuli\Videos_short_600ms_horvertflip\28.single_injection_with_sharp_needle_short_horvertflip_short_600ms.mp4	28.single_injection_with_sharp_needle_short_horvertflip_short_600ms.mp4	386.7338551727112	387.3421178804128	0.6082627077016696				
165.0908203125	0.2	338106	102	16	1	0	1	6	361	stimuli\Targets_short_600ms\chopstick-silver-tap_short_short_600ms.mp4	chopstick-silver-tap_short_short_600ms.mp4	387.53385734272433	388.1421004030067	0.6082430602823479				
165.89111328125	0.2	339745	103	16	1	0	0	7	99	stimuli\Videos_short_600ms_horflip\18.single_stroke_from_top_to_bottom_with_rolling_pin_short_horflip_short_600ms.mp4	18.single_stroke_from_top_to_bottom_with_rolling_pin_short_horflip_short_600ms.mp4	388.3338369328676	388.94213482997793	0.608297897110333				
166.69091796875	0.2	341383	104	16	1	0	0	8	274	stimuli\Videos_short_600ms_vertflip\13.single_touch_with_pen_short_vertflip_short_600ms.mp4	13.single_touch_with_pen_short_vertflip_short_600ms.mp4	389.1338528853994	389.7421337742958	0.6082808888963882				
167.49072265625	0.2	343021	105	16	1	0	1	9	375	stimuli\Targets_short_600ms_horvertflip\finger-tap_short_vertflip_short_600ms.mp4	finger-tap_short_vertflip_short_600ms.mp4	389.933808722692	390.5421186428498	0.6083099201578079				
168.291015625	0.2	344660	106	16	1	0	0	10	87	stimuli\Videos_short_600ms\89.single_touch_with_plastic_brush_short_short_600ms.mp4	89.single_touch_with_plastic_brush_short_short_600ms.mp4	390.73378684660975	391.34208884915097	0.6083020025412225				
169.0908203125	0.2	346298	107	16	1	0	0	11	73	stimuli\Videos_short_600ms\76.tickle_with_fingers_from_top_to_bottom_short_short_600ms.mp4	76.tickle_with_fingers_from_top_to_bottom_short_short_600ms.mp4	391.53377171516377	392.1420836880375	0.6083119728737074				
169.890625	0.2	347936	108	16	1	0	0	12	326	stimuli\Videos_short_600ms_vertflip\60.single_push_with_tip_of_pencil_short_vertflip_short_600ms.mp4	60.single_push_with_tip_of_pencil_short_vertflip_short_600ms.mp4	392.3337386957692	392.9420773539441	0.6083386581749437				
170.69091796875	0.2	349575	109	16	1	0	0	13	67	stimuli\Videos_short_600ms\70.(long)stroke_with_finger_all_over_the_hand_short_short_600ms.mp4	70.(long)stroke_with_finger_all_over_the_hand_short_short_600ms.mp4	393.1337185791572	393.7420534251464	0.6083348459892477				
171.49072265625	0.2	351213	110	16	1	0	0	14	109	stimuli\Videos_short_600ms_horflip\27.single_push_with_a_plastic_whisk_short_horflip_short_600ms.mp4	27.single_push_with_a_plastic_whisk_short_horflip_short_600ms.mp4	393.9337178167202	394.5420385869456	0.6083207702254185				
172.29052734375	0.2	352851	111	16	1	0	0	15	60	stimuli\Videos_short_600ms\64.repeated_touch_with_screwdriver_short_short_600ms.mp4	64.repeated_touch_with_screwdriver_short_short_600ms.mp4	394.733680985139	395.341955715889	0.608274730750054				
173.0908203125	0.2	354490	112	16	1	0	0	16	29	stimuli\Videos_short_600ms\36.single_slap_with_full_hand_short_short_600ms.mp4	36.single_slap_with_full_hand_short_short_600ms.mp4	395.5336928322399	396.1420042186237	0.6083113863837752				
173.890625	0.2	356128	113	16	1	0	1	17	370	stimuli\Targets_short_600ms_horflip\hand-pinch_short_horflip_short_600ms.mp4	hand-pinch_short_horflip_short_600ms.mp4	396.33366978317736	396.9419855682372	0.6083157850598582				
174.6904296875	0.2	357766	114	16	1	0	0	18	276	stimuli\Videos_short_600ms_vertflip\15.single_stroke_top_to_bottom_with_a_plastic_whisk_short_vertflip_short_600ms.mp4	15.single_stroke_top_to_bottom_with_a_plastic_whisk_short_vertflip_short_600ms.mp4	397.1336291394109	397.7419698503013	0.6083407108903884				
175.49072265625	0.2	359405	115	16	1	0	0	19	2	stimuli\Videos_short_600ms\11.single_touch_with_lighter_short_short_600ms.mp4	11.single_touch_with_lighter_short_short_600ms.mp4	397.9336351216102	398.5419553053457	0.6083201837354864				
176.29052734375	0.2	361043	116	16	1	0	0	20	152	stimuli\Videos_short_600ms_horflip\66.stroke_top_to_bottom_with_sponge_short_horflip_short_600ms.mp4	66.stroke_top_to_bottom_with_sponge_short_horflip_short_600ms.mp4	398.7335736574432	399.341934895489	0.6083612380457453				
177.0908203125	0.2	362682	117	16	1	0	0	21	341	stimuli\Videos_short_600ms_vertflip\74.fingers_walking_from_top_to_bottom_short_vertflip_short_600ms.mp4	74.fingers_walking_from_top_to_bottom_short_vertflip_short_600ms.mp4	399.5335764139472	400.14191859106313	0.608342177115901				
177.890625	0.2	364320	118	16	1	0	1	22	362	stimuli\Targets_short_600ms\chopstickwood-tap_short_short_600ms.mp4	chopstickwood-tap_short_short_600ms.mp4	400.3335677338928	400.9419034596171	0.6083357257243733				
178.6904296875	0.2	365958	119	16	1	0	0	23	131	stimuli\Videos_short_600ms_horflip\47.(long)scratching_with_finger_nails_short_horflip_short_600ms.mp4	47.(long)scratching_with_finger_nails_short_horflip_short_600ms.mp4	401.133550842977	401.74188129029017	0.6083304473131648				
179.49072265625	0.2	367597	120	16	1	0	1	24	380	stimuli\Targets_short_600ms_vertflip\chopstickwood-tap_short_horvertflip_short_600ms.mp4	chopstickwood-tap_short_horvertflip_short_600ms.mp4	401.9335313128554	402.5418579479824	0.608326635127014				
180.29052734375	0.2	369235	121	16	1	0	0	25	49	stimuli\Videos_short_600ms\54.repeated_touch_with_knife_short_short_600ms.mp4	54.repeated_touch_with_knife_short_short_600ms.mp4	402.7335158881647	403.3418545463396	0.6083386581749437				
181.09033203125	0.2	370873	122	16	1	0	0	26	308	stimuli\Videos_short_600ms_vertflip\44.pushing_top_to_bottom_with_finger_short_vertflip_short_600ms.mp4	44.pushing_top_to_bottom_with_finger_short_vertflip_short_600ms.mp4	403.53351395274694	404.14181126336734	0.6082973106204008				
181.890625	0.2	372512	123	16	1	0	0	27	336	stimuli\Videos_short_600ms_vertflip\7.repeated_touch_with_hairbrush_short_vertflip_short_600ms.mp4	7.repeated_touch_with_hairbrush_short_vertflip_short_600ms.mp4	404.333500287527	404.9417946656963	0.6082943781693757				
182.6904296875	0.2	374150	124	16	1	0	0	28	133	stimuli\Videos_short_600ms_horflip\49.repeated_slap_with_hand_short_horflip_short_600ms.mp4	49.repeated_slap_with_hand_short_horflip_short_600ms.mp4	405.1334901412474	405.74178774511256	0.6082976038651395				
183.490234375	0.2	375788	125	16	1	0	0	29	53	stimuli\Videos_short_600ms\58.single_slap_with_pencil_short_short_600ms.mp4	58.single_slap_with_pencil_short_short_600ms.mp4	405.93347618278176	406.54176762850057	0.6082914457188053				
184.29052734375	0.2	377427	126	16	1	0	0	30	266	stimuli\Videos_short_600ms_horvertflip\88.repeated_stroke_with_plastic_brush_short_horvertflip_short_600ms.mp4	88.repeated_stroke_with_plastic_brush_short_horvertflip_short_600ms.mp4	406.7334012293418	407.341753083545	0.6083518542031925				
185.09033203125	0.2	379065	127	16	1	0	0	31	18	stimuli\Videos_short_600ms\26.single_touch_with_a_blunt_syringe_short_short_600ms.mp4	26.single_touch_with_a_blunt_syringe_short_short_600ms.mp4	407.53343858876406	408.1417611184602	0.6083225296961245				
185.89013671875	0.2	380703	128	16	1	0	0	32	296	stimuli\Videos_short_600ms_vertflip\33.scratch_top_to_bottom_with_scissors_short_vertflip_short_600ms.mp4	33.scratch_top_to_bottom_with_scissors_short_vertflip_short_600ms.mp4	408.333394132811	408.94173367072153	0.6083395379105241				
186.6904296875	0.2	382342	129	16	1	0	0	33	172	stimuli\Videos_short_600ms_horflip\84.single_touch_with_cotton_bud_short_horflip_short_600ms.mp4	84.single_touch_with_cotton_bud_short_horflip_short_600ms.mp4	409.13339894203045	409.7417197122563	0.6083207702258733				
187.490234375	0.2	383980	130	16	1	0	0	34	69	stimuli\Videos_short_600ms\72.(short)stroke_with_finger_all_over_the_hand_short_short_600ms.mp4	72.(short)stroke_with_finger_all_over_the_hand_short_short_600ms.mp4	409.9333624036945	410.5416987159092	0.6083363122147603				
188.2900390625	0.2	385618	131	16	1	0	0	35	251	stimuli\Videos_short_600ms_horvertflip\74.fingers_walking_from_top_to_bottom_short_horvertflip_short_600ms.mp4	74.fingers_walking_from_top_to_bottom_short_horvertflip_short_600ms.mp4	410.7333654534432	411.34168534393393	0.6083198904907476				
189.09033203125	0.2	387257	132	16	1	0	1	36	373	stimuli\Targets_short_600ms_horvertflip\chopstick-silver-tap_short_vertflip_short_600ms.mp4	chopstick-silver-tap_short_vertflip_short_600ms.mp4	411.5333468030567	412.1416649340772	0.6083181310204964				
189.89013671875	0.2	388895	133	16	1	0	0	37	233	stimuli\Videos_short_600ms_horvertflip\58.single_slap_with_pencil_short_horvertflip_short_600ms.mp4	58.single_slap_with_pencil_short_horvertflip_short_600ms.mp4	412.3333252202197	412.9415847022255	0.6082594820059057				
190.68994140625	0.2	390533	134	16	1	0	0	38	103	stimuli\Videos_short_600ms_horflip\21.repeated_touch_with_metal_chopstick_short_horflip_short_600ms.mp4	21.repeated_touch_with_metal_chopstick_short_horflip_short_600ms.mp4	413.1333045171177	413.74163203197986	0.6083275148621397				
191.490234375	0.2	392172	135	16	1	0	0	39	294	stimuli\Videos_short_600ms_vertflip\31.hand_grabbing_wrist_short_vertflip_short_600ms.mp4	31.hand_grabbing_wrist_short_vertflip_short_600ms.mp4	413.9332744301733	414.5416145545737	0.6083401244004563				
192.2900390625	0.2	393810	136	16	1	0	1	40	381	stimuli\Targets_short_600ms_vertflip\finger-tap_short_horvertflip_short_600ms.mp4	finger-tap_short_horvertflip_short_600ms.mp4	414.7332768934321	415.34159971637337	0.608322822941318				
193.08984375	0.2	395448	137	16	1	0	0	41	68	stimuli\Videos_short_600ms\71.single_stroke_with_finger_top_to_bottom_short_short_600ms.mp4	71.single_stroke_with_finger_top_to_bottom_short_short_600ms.mp4	415.5332409415864	416.14158370519226	0.6083427636058332				
193.89013671875	0.2	397087	138	16	1	0	0	42	334	stimuli\Videos_short_600ms_vertflip\68.stroke_top_to_bottom_with_shawl_short_vertflip_short_600ms.mp4	68.stroke_top_to_bottom_with_shawl_short_vertflip_short_600ms.mp4	416.33323460749307	416.94156945348186	0.608334845988793				
194.68994140625	0.2	398725	139	16	1	0	0	43	105	stimuli\Videos_short_600ms_horflip\23.single_push_with_a_spoon_short_horflip_short_600ms.mp4	23.single_push_with_a_spoon_short_horflip_short_600ms.mp4	417.1331945502161	417.74154611117456	0.6083515609584538				
195.490234375	0.2	400364	140	16	1	0	0	44	193	stimuli\Videos_short_600ms_horvertflip\21.repeated_touch_with_metal_chopstick_short_horvertflip_short_600ms.mp4	21.repeated_touch_with_metal_chopstick_short_horvertflip_short_600ms.mp4	417.9331970134749	418.5415500406584	0.6083530271835116				
196.2900390625	0.2	402002	141	16	1	0	0	45	80	stimuli\Videos_short_600ms\82.repeated_touch_with_cotton_bud_short_short_600ms.mp4	82.repeated_touch_with_cotton_bud_short_short_600ms.mp4	418.7332018226939	419.34149033596213	0.608288513268235				
197.08984375	0.2	403640	142	16	1	0	0	46	5	stimuli\Videos_short_600ms\14.repeated_touch_with_pencil_short_short_600ms.mp4	14.repeated_touch_with_pencil_short_short_600ms.mp4	419.53317877363133	420.14147432478103	0.6082955511496948				
197.89013671875	0.2	405279	143	16	1	0	0	47	328	stimuli\Videos_short_600ms_vertflip\62.touch_top_to_bottom_with_scissors_short_vertflip_short_600ms.mp4	62.touch_top_to_bottom_with_scissors_short_vertflip_short_600ms.mp4	420.3331659881465	420.9414808934707	0.6083149053242778				
198.68994140625	0.2	406917	144	16	1	0	0	48	182	stimuli\Videos_short_600ms_horvertflip\11.single_touch_with_lighter_short_horvertflip_short_600ms.mp4	11.single_touch_with_lighter_short_horvertflip_short_600ms.mp4	421.13315584186694	421.7414496335464	0.6082937916794435				
199.48974609375	0.2	408555	145	16	1	0	0	49	39	stimuli\Videos_short_600ms\45.scratching_with_finger_nails_short_short_600ms.mp4	45.scratching_with_finger_nails_short_short_600ms.mp4	421.9331278076384	422.5414400737568	0.6083122661184461				
200.2900390625	0.2	410194	146	16	1	0	0	50	261	stimuli\Videos_short_600ms_horvertflip\83.single_stroke_top_to_bottom_with_cotton_bud_short_horvertflip_short_600ms.mp4	83.single_stroke_top_to_bottom_with_cotton_bud_short_horvertflip_short_600ms.mp4	422.7331112099673	423.3414360856241	0.6083248756567627				
201.08984375	0.2	411832	147	16	1	0	0	51	155	stimuli\Videos_short_600ms_horflip\69.stroke_with_soft_sock_short_horflip_short_600ms.mp4	69.stroke_with_soft_sock_short_horflip_short_600ms.mp4	423.5330922663357	424.14141420954184	0.6083219432061924				
201.8896484375	0.2	413470	148	16	1	0	0	52	329	stimuli\Videos_short_600ms_vertflip\63.stroke_top_to_bottom_with_screwdriver_short_vertflip_short_600ms.mp4	63.stroke_top_to_bottom_with_screwdriver_short_vertflip_short_600ms.mp4	424.33308299979126	424.9414087551836	0.6083257553923431				
202.68994140625	0.2	415109	149	16	1	0	0	53	139	stimuli\Videos_short_600ms_horflip\54.repeated_touch_with_knife_short_horflip_short_600ms.mp4	54.repeated_touch_with_knife_short_horflip_short_600ms.mp4	425.1330655223851	425.7413824804253	0.6083169580401773				
203.48974609375	0.2	416747	150	16	1	0	0	54	40	stimuli\Videos_short_600ms\46.scratching_top_to_bottom_with_finger_nails_short_short_600ms.mp4	46.scratching_top_to_bottom_with_finger_nails_short_short_600ms.mp4	425.9330451125283	426.5413629503032	0.6083178377748482				
204.28955078125	0.2	418385	151	16	1	0	0	55	282	stimuli\Videos_short_600ms_vertflip\20.single_touch_with_screwdriver_short_vertflip_short_600ms.mp4	20.single_touch_with_screwdriver_short_vertflip_short_600ms.mp4	426.7330270486318	427.3413478188577	0.6083207702258733				
205.08984375	0.2	420024	152	16	1	0	0	56	132	stimuli\Videos_short_600ms_horflip\48.single_slap_with_hand_short_horflip_short_600ms.mp4	48.single_slap_with_hand_short_horflip_short_600ms.mp4	427.5330122104315	428.1413306346967	0.6083184242652351				
205.8896484375	0.2	421662	153	16	1	0	0	57	146	stimuli\Videos_short_600ms_horflip\60.single_push_with_tip_of_pencil_short_horflip_short_600ms.mp4	60.single_push_with_tip_of_pencil_short_horflip_short_600ms.mp4	428.3330076358084	428.94131433027087	0.6083066944624989				
206.689453125	0.2	423300	154	16	1	0	0	58	168	stimuli\Videos_short_600ms_horflip\80.stroke_with_sharp_stick_all_over_the_hand_short_horflip_short_600ms.mp4	80.stroke_with_sharp_stick_all_over_the_hand_short_horflip_short_600ms.mp4	429.132957021709	429.7412959731291	0.6083389514201372				
207.48974609375	0.2	424939	155	16	1	0	0	59	151	stimuli\Videos_short_600ms_horflip\65.stroke_top_to_bottom_with_stanley_knife_short_horflip_short_600ms.mp4	65.stroke_top_to_bottom_with_stanley_knife_short_horflip_short_600ms.mp4	429.93293573211713	430.54119668034855	0.6082609482314183				
208.28955078125	0.2	426577	156	16	1	0	0	60	143	stimuli\Videos_short_600ms_horflip\58.single_slap_with_pencil_short_horflip_short_600ms.mp4	58.single_slap_with_pencil_short_horflip_short_600ms.mp4	430.73290095325183	431.3412618980519	0.6083609448000971				
209.08935546875	0.2	428215	157	16	1	0	0	61	269	stimuli\Videos_short_600ms_horvertflip\90.repeated_touch_with_sponge_short_horvertflip_short_600ms.mp4	90.repeated_touch_with_sponge_short_horvertflip_short_600ms.mp4	431.53291368008786	432.1412429544207	0.6083292743328457				
209.8896484375	0.2	429854	158	16	1	0	0	62	70	stimuli\Videos_short_600ms\73.single_stroke_with_flat_hand_short_short_600ms.mp4	73.single_stroke_with_flat_hand_short_short_600ms.mp4	432.33289825539714	432.94121404045654	0.6083157850594034				
210.689453125	0.2	431492	159	16	1	0	0	63	9	stimuli\Videos_short_600ms\18.single_stroke_from_top_to_bottom_with_rolling_pin_short_short_600ms.mp4	18.single_stroke_from_top_to_bottom_with_rolling_pin_short_short_600ms.mp4	433.1329030646162	433.7411648925827	0.6082618279665439				
211.4892578125	0.2	433130	160	16	1	0	0	64	215	stimuli\Videos_short_600ms_horvertflip\41.injection_with_blunt_syringe_short_horvertflip_short_600ms.mp4	41.injection_with_blunt_syringe_short_horvertflip_short_600ms.mp4	433.93286506005506	434.5411609044499	0.6082958443948883				
212.28955078125	0.2	434769	161	16	1	0	0	65	237	stimuli\Videos_short_600ms_horvertflip\61.single_hit_with_rolling_pin_short_horvertflip_short_600ms.mp4	61.single_hit_with_rolling_pin_short_horvertflip_short_600ms.mp4	434.7328622449022	435.3411325769762	0.6082703320739711				
213.08935546875	0.2	436407	162	16	1	0	0	66	184	stimuli\Videos_short_600ms_horvertflip\13.single_touch_with_pen_short_horvertflip_short_600ms.mp4	13.single_touch_with_pen_short_horvertflip_short_600ms.mp4	435.5328520986231	436.14114061189093	0.6082885132677802				
213.8896484375	0.2	438046	163	16	1	0	0	67	221	stimuli\Videos_short_600ms_horvertflip\47.(long)scratching_with_finger_nails_short_horvertflip_short_600ms.mp4	47.(long)scratching_with_finger_nails_short_horvertflip_short_600ms.mp4	436.3328234779042	436.9411266534257	0.6083031755215416				
214.689453125	0.2	439684	164	16	1	0	0	68	82	stimuli\Videos_short_600ms\84.single_touch_with_cotton_bud_short_short_600ms.mp4	84.single_touch_with_cotton_bud_short_short_600ms.mp4	437.13279309771497	437.741111228735	0.6083181310200416				
215.4892578125	0.2	441322	165	16	1	0	0	69	124	stimuli\Videos_short_600ms_horflip\40.repeated_push_with_finger_short_horflip_short_600ms.mp4	40.repeated_push_with_finger_short_horflip_short_600ms.mp4	437.9327923352775	438.5411216096104	0.6083292743328457				
216.28955078125	0.2	442961	166	16	1	0	0	70	166	stimuli\Videos_short_600ms_horflip\79.long_with_soft_brush_all_over_the_hand_short_horflip_short_600ms.mp4	79.long_with_soft_brush_all_over_the_hand_short_horflip_short_600ms.mp4	438.7327760308517	439.3410924024015	0.6083163715497903				
217.08935546875	0.2	444599	167	16	1	0	0	71	180	stimuli\Videos_short_600ms_horvertflip\1.repeated_touch_with_finger_fast_short_horvertflip_short_600ms.mp4	1.repeated_touch_with_finger_fast_short_horvertflip_short_600ms.mp4	439.5327573804652	440.1410860683077	0.6083286878424587				
217.88916015625	0.2	446237	168	16	1	0	0	72	26	stimuli\Videos_short_600ms\33.scratch_top_to_bottom_with_scissors_short_short_600ms.mp4	33.scratch_top_to_bottom_with_scissors_short_short_600ms.mp4	440.3327419557745	440.9410565678536	0.6083146120790843				
218.689453125	0.2	447876	169	16	1	0	0	73	50	stimuli\Videos_short_600ms\55.touch_top_to_bottom_with_nail_file_short_short_600ms.mp4	55.touch_top_to_bottom_with_nail_file_short_short_600ms.mp4	441.1327224256529	441.74104202289845	0.6083195972455542				
219.4892578125	0.2	449514	170	16	1	0	0	74	55	stimuli\Videos_short_600ms\6.single_touch_with_flat_hand_short_short_600ms.mp4	6.single_touch_with_flat_hand_short_short_600ms.mp4	441.932711106393	442.5410254252274	0.6083143188343456				
220.2890625	0.2	451152	171	16	1	0	0	75	302	stimuli\Videos_short_600ms_vertflip\39.single_stab_with_scissors_short_vertflip_short_600ms.mp4	39.single_stab_with_scissors_short_vertflip_short_600ms.mp4	442.73268043295866	443.34100794782125	0.6083275148625944				
221.08935546875	0.2	452791	172	16	1	0	0	76	260	stimuli\Videos_short_600ms_horvertflip\82.repeated_touch_with_cotton_bud_short_horvertflip_short_600ms.mp4	82.repeated_touch_with_cotton_bud_short_horvertflip_short_600ms.mp4	443.5326996111862	444.1409913501502	0.6082917389639988				
221.88916015625	0.2	454429	173	16	1	0	0	77	37	stimuli\Videos_short_600ms\43.touch_top_to_bottom_with_sharp_wooden_stick_short_short_600ms.mp4	43.touch_top_to_bottom_with_sharp_wooden_stick_short_short_600ms.mp4	444.3326319888729	444.94097328625367	0.6083412973807754				
222.68896484375	0.2	456067	174	16	1	0	0	78	149	stimuli\Videos_short_600ms_horflip\63.stroke_top_to_bottom_with_screwdriver_short_horflip_short_600ms.mp4	63.stroke_top_to_bottom_with_screwdriver_short_horflip_short_600ms.mp4	445.13262096285825	445.7409558088475	0.6083348459892477				
223.4892578125	0.2	457706	175	16	1	0	0	79	6	stimuli\Videos_short_600ms\15.single_stroke_top_to_bottom_with_a_plastic_whisk_short_short_600ms.mp4	15.single_stroke_top_to_bottom_with_a_plastic_whisk_short_short_600ms.mp4	445.93260113949145	446.5409409706472	0.6083398311557175				
224.2890625	0.2	459344	176	16	1	0	0	80	66	stimuli\Videos_short_600ms\7.repeated_touch_with_hairbrush_short_short_600ms.mp4	7.repeated_touch_with_hairbrush_short_short_600ms.mp4	446.7325918729475	447.34092554595645	0.6083336730089286				
225.0888671875	0.2	460982	177	16	1	0	0	81	190	stimuli\Videos_short_600ms_horvertflip\19.single_touch_with_rolling_pin_short_horvertflip_short_600ms.mp4	19.single_touch_with_rolling_pin_short_horvertflip_short_600ms.mp4	447.5325723428259	448.1408464870851	0.6082741442592123				
225.88916015625	0.2	462621	178	16	1	0	0	82	350	stimuli\Videos_short_600ms_vertflip\82.repeated_touch_with_cotton_bud_short_vertflip_short_600ms.mp4	82.repeated_touch_with_cotton_bud_short_vertflip_short_600ms.mp4	448.3325733398587	448.9408706504792	0.6082973106204008				
226.68896484375	0.2	464259	179	16	1	0	0	83	239	stimuli\Videos_short_600ms_horvertflip\63.stroke_top_to_bottom_with_screwdriver_short_horvertflip_short_600ms.mp4	63.stroke_top_to_bottom_with_screwdriver_short_horvertflip_short_600ms.mp4	449.1325623138441	449.7408801516194	0.6083178377753029				
227.48876953125	0.2	465897	180	16	1	0	0	84	31	stimuli\Videos_short_600ms\38.double_slap_with_pencil_short_short_600ms.mp4	38.double_slap_with_pencil_short_short_600ms.mp4	449.9325416107422	450.54083129699075	0.6082896862485541				
228.2890625	0.2	467536	181	16	1	0	0	85	123	stimuli\Videos_short_600ms_horflip\4.repeated_tap_with_finger_slow_short_horflip_short_600ms.mp4	4.repeated_tap_with_finger_slow_short_horflip_short_600ms.mp4	450.73251914817	451.3407997438212	0.6082805956511947				
229.0888671875	0.2	469174	182	16	1	0	0	86	227	stimuli\Videos_short_600ms_horvertflip\52.touch_top_to_bottom_with_hammer_short_horvertflip_short_600ms.mp4	52.touch_top_to_bottom_with_hammer_short_horvertflip_short_600ms.mp4	451.53250284374417	452.14080396655027	0.6083011228060968				
229.888671875	0.2	470812	183	16	1	0	0	87	85	stimuli\Videos_short_600ms\87.single_stroke_top_to_bottom_with_plastic_brush_short_short_600ms.mp4	87.single_stroke_top_to_bottom_with_plastic_brush_short_short_600ms.mp4	452.33248624607313	452.9407867823888	0.6083005363157099				
230.68896484375	0.2	472451	184	16	1	0	0	88	235	stimuli\Videos_short_600ms_horvertflip\6.single_touch_with_flat_hand_short_horvertflip_short_600ms.mp4	6.single_touch_with_flat_hand_short_horvertflip_short_600ms.mp4	453.1324696484021	453.74079305783334	0.6083234094312502				
231.48876953125	0.2	474089	185	16	1	0	0	89	216	stimuli\Videos_short_600ms_horvertflip\42.single_slap_with_plastic_whisk_short_horvertflip_short_600ms.mp4	42.single_slap_with_plastic_whisk_short_horvertflip_short_600ms.mp4	453.9324548102013	454.5407720614862	0.608317251284916				
232.28857421875	0.2	475727	186	16	1	0	0	90	45	stimuli\Videos_short_600ms\50.single_(long)hard_push_with_thumb_short_short_600ms.mp4	50.single_(long)hard_push_with_thumb_short_short_600ms.mp4	454.7324355733249	455.3407566367955	0.608321063470612				
233.0888671875	0.2	477366	187	16	1	0	0	91	71	stimuli\Videos_short_600ms\74.fingers_walking_from_top_to_bottom_short_short_600ms.mp4	74.fingers_walking_from_top_to_bottom_short_short_600ms.mp4	455.53241750942834	456.1407362269388	0.6083187175104285				
233.888671875	0.2	479004	188	16	1	0	0	92	255	stimuli\Videos_short_600ms_horvertflip\78.single_stroke_top_to_bottom_with_soft_brush_short_horvertflip_short_600ms.mp4	78.single_stroke_top_to_bottom_with_soft_brush_short_horvertflip_short_600ms.mp4	456.3323850765237	456.9407187495326	0.6083336730089286				
234.68896484375	0.2	480643	189	16	1	0	0	93	153	stimuli\Videos_short_600ms_horflip\67.single_touch_with_sponge_short_horflip_short_600ms.mp4	67.single_touch_with_sponge_short_horflip_short_600ms.mp4	457.13238519382185	457.7407033248419	0.6083181310200416				
235.48876953125	0.2	482281	190	16	1	0	0	94	129	stimuli\Videos_short_600ms_horflip\45.scratching_with_finger_nails_short_horflip_short_600ms.mp4	45.scratching_with_finger_nails_short_horflip_short_600ms.mp4	457.9323768070126	458.54068643392566	0.6083096269130692				
236.28857421875	0.2	483919	191	16	1	0	0	95	4	stimuli\Videos_short_600ms\13.single_touch_with_pen_short_short_600ms.mp4	13.single_touch_with_pen_short_short_600ms.mp4	458.73235493093034	459.3406507753252	0.6082958443948883				
237.0888671875	0.2	485558	192	16	1	0	0	96	30	stimuli\Videos_short_600ms\37.single_stab_with_nail_file_short_short_600ms.mp4	37.single_stab_with_nail_file_short_short_600ms.mp4	459.53227499232435	460.140650306133	0.6083753138086649				
237.888671875	0.2	487196	193	16	1	0	0	97	1	stimuli\Videos_short_600ms\10.single_touch_with_knife_short_short_600ms.mp4	10.single_touch_with_knife_short_short_600ms.mp4	460.3322762826024	460.9406363476678	0.6083600650654262	8.0	8.0	2.06445380026571	1.0
272.05419921875	0.2	557167	194	16	2	0	0	0	293	stimuli\Videos_short_600ms_vertflip\30.finger_pulling_back_another_finger_short_vertflip_short_600ms.mp4	30.finger_pulling_back_another_finger_short_vertflip_short_600ms.mp4	494.49824184918	495.1065857857662	0.6083439365861523				
272.85400390625	0.2	558805	195	16	2	0	0	1	192	stimuli\Videos_short_600ms_horvertflip\20.single_touch_with_screwdriver_short_horvertflip_short_600ms.mp4	20.single_touch_with_screwdriver_short_horvertflip_short_600ms.mp4	495.2982425529681	495.9065618569685	0.6083193040003607				
273.654296875	0.2	560444	196	16	2	0	0	2	38	stimuli\Videos_short_600ms\44.pushing_top_to_bottom_with_finger_short_short_600ms.mp4	44.pushing_top_to_bottom_with_finger_short_short_600ms.mp4	496.0982253688071	496.7065464322777	0.608321063470612				
274.4541015625	0.2	562082	197	16	2	0	0	3	278	stimuli\Videos_short_600ms_vertflip\17.repeated_touch_with_rolling_pin_short_vertflip_short_600ms.mp4	17.repeated_touch_with_rolling_pin_short_vertflip_short_600ms.mp4	496.8982090643808	497.5065263156657	0.608317251284916				
275.25390625	0.2	563720	198	16	2	0	0	4	319	stimuli\Videos_short_600ms_vertflip\54.repeated_touch_with_knife_short_vertflip_short_600ms.mp4	54.repeated_touch_with_knife_short_vertflip_short_600ms.mp4	497.69818924101446	498.30651089097546	0.6083216499609989				
276.05419921875	0.2	565359	199	16	2	0	0	5	125	stimuli\Videos_short_600ms_horflip\41.injection_with_blunt_syringe_short_horflip_short_600ms.mp4	41.injection_with_blunt_syringe_short_horflip_short_600ms.mp4	498.49817469605887	499.1064928270789	0.6083181310200416				
276.85400390625	0.2	566997	200	16	2	0	0	6	0	stimuli\Videos_short_600ms\1.repeated_touch_with_finger_fast_short_short_600ms.mp4	1.repeated_touch_with_finger_fast_short_short_600ms.mp4	499.2981572186527	499.9064776956334	0.6083204769806798				
277.65380859375	0.2	568635	201	16	2	0	0	7	44	stimuli\Videos_short_600ms\5.repeated_tap_with_finger_moving_from_top_to_bottom_short_short_600ms.mp4	5.repeated_tap_with_finger_moving_from_top_to_bottom_short_short_600ms.mp4	500.09814912508864	500.7064596317368	0.6083105066481949				
278.4541015625	0.2	570274	202	16	2	0	0	8	16	stimuli\Videos_short_600ms\24.single_stroke_top_to_bottom_with_a_spoon_short_short_600ms.mp4	24.single_stroke_top_to_bottom_with_a_spoon_short_short_600ms.mp4	500.8980691864822	501.506443327311	0.6083741408288006				
279.25390625	0.2	571912	203	16	2	0	0	9	241	stimuli\Videos_short_600ms_horvertflip\65.stroke_top_to_bottom_with_stanley_knife_short_horvertflip_short_600ms.mp4	65.stroke_top_to_bottom_with_stanley_knife_short_horvertflip_short_600ms.mp4	501.6980798606028	502.3064252634144	0.6083454028116648				
280.0537109375	0.2	573550	204	16	2	0	0	10	181	stimuli\Videos_short_600ms_horvertflip\10.single_touch_with_knife_short_horvertflip_short_600ms.mp4	10.single_touch_with_knife_short_horvertflip_short_600ms.mp4	502.49809141445894	503.1064101319689	0.6083187175099738				
280.85400390625	0.2	575189	205	16	2	0	0	11	107	stimuli\Videos_short_600ms_horflip\25.single_touch_with_stanley_knife_short_horflip_short_600ms.mp4	25.single_touch_with_stanley_knife_short_horflip_short_600ms.mp4	503.2980534098974	503.9063991059543	0.6083456960568583				
281.65380859375	0.2	576827	206	16	2	0	0	12	58	stimuli\Videos_short_600ms\62.touch_top_to_bottom_with_scissors_short_short_600ms.mp4	62.touch_top_to_bottom_with_scissors_short_short_600ms.mp4	504.09805704613655	504.7063716582156	0.6083146120790843				
282.4541015625	0.2	578466	207	16	2	0	0	13	59	stimuli\Videos_short_600ms\63.stroke_top_to_bottom_with_screwdriver_short_short_600ms.mp4	63.stroke_top_to_bottom_with_screwdriver_short_short_600ms.mp4	504.89804660661184	505.5063418645168	0.6082952579049561				
283.25390625	0.2	580104	208	16	2	0	0	14	289	stimuli\Videos_short_600ms_vertflip\27.single_push_with_a_plastic_whisk_short_vertflip_short_600ms.mp4	27.single_push_with_a_plastic_whisk_short_vertflip_short_600ms.mp4	505.6980220913242	506.3063202816793	0.6082981903550717				
284.0537109375	0.2	581742	209	16	2	0	0	15	268	stimuli\Videos_short_600ms_horvertflip\9.single_touch_with_hammer_short_horvertflip_short_600ms.mp4	9.single_touch_with_hammer_short_horvertflip_short_600ms.mp4	506.4980093058389	507.10627905142246	0.6082697455835842				
284.85400390625	0.2	583381	210	16	2	0	0	16	79	stimuli\Videos_short_600ms\81.single_stroke_top_to_bottom_with_cotton_pad_short_short_600ms.mp4	81.single_stroke_top_to_bottom_with_cotton_pad_short_short_600ms.mp4	507.2979859635316	507.9062879660728	0.6083020025412225				
285.65380859375	0.2	585019	211	16	2	0	0	17	344	stimuli\Videos_short_600ms_vertflip\77.tapping_with_all_fingers_short_vertflip_short_600ms.mp4	77.tapping_with_all_fingers_short_vertflip_short_600ms.mp4	508.09796907261534	508.706273127872	0.6083040552566672				
286.45361328125	0.2	586657	212	16	2	0	0	18	332	stimuli\Videos_short_600ms_vertflip\66.stroke_top_to_bottom_with_sponge_short_vertflip_short_600ms.mp4	66.stroke_top_to_bottom_with_sponge_short_vertflip_short_600ms.mp4	508.8979518884544	509.50626004914193	0.6083081606875567				
287.25390625	0.2	588296	213	16	2	0	0	19	321	stimuli\Videos_short_600ms_vertflip\56.repeated_touch_with_nail_file_short_vertflip_short_600ms.mp4	56.repeated_touch_with_nail_file_short_vertflip_short_600ms.mp4	509.6979344110482	510.3062636853806	0.6083292743323909				
288.0537109375	0.2	589934	214	16	2	0	0	20	243	stimuli\Videos_short_600ms_horvertflip\67.single_touch_with_sponge_short_horvertflip_short_600ms.mp4	67.single_touch_with_sponge_short_horvertflip_short_600ms.mp4	510.4979181066219	511.10623829035785	0.6083201837359411				
288.853515625	0.2	591572	215	16	2	0	0	21	359	stimuli\Videos_short_600ms_vertflip\90.repeated_touch_with_sponge_short_vertflip_short_600ms.mp4	90.repeated_touch_with_sponge_short_vertflip_short_600ms.mp4	511.2978812750411	511.90622403864745	0.6083427636062879				
289.65380859375	0.2	593211	216	16	2	0	0	22	252	stimuli\Videos_short_600ms_horvertflip\75.(long)stroke_with_fingers_all_over_the_hand_short_horvertflip_short_600ms.mp4	75.(long)stroke_with_fingers_all_over_the_hand_short_horvertflip_short_600ms.mp4	512.0978840315447	512.706205388261	0.6083213567162602				
290.45361328125	0.2	594849	217	16	2	0	0	23	236	stimuli\Videos_short_600ms_horvertflip\60.single_push_with_tip_of_pencil_short_horvertflip_short_600ms.mp4	60.single_push_with_tip_of_pencil_short_horvertflip_short_600ms.mp4	512.8978477864543	513.5061876176096	0.6083398311552628				
291.25341796875	0.2	596487	218	16	2	0	1	24	364	stimuli\Targets_short_600ms\hand-pinch_short_short_600ms.mp4	hand-pinch_short_short_600ms.mp4	513.6978502497127	514.3061733658992	0.6083231161865115				
292.0537109375	0.2	598126	219	16	2	0	0	25	19	stimuli\Videos_short_600ms\27.single_push_with_a_plastic_whisk_short_short_600ms.mp4	27.single_push_with_a_plastic_whisk_short_short_600ms.mp4	514.497831306081	515.1061511965718	0.6083198904907476				
292.853515625	0.2	599764	220	16	2	0	1	26	379	stimuli\Targets_short_600ms_vertflip\chopstick-silver-tap_short_horvertflip_short_600ms.mp4	chopstick-silver-tap_short_horvertflip_short_600ms.mp4	515.2977724811199	515.9061378245965	0.6083653434766347				
293.6533203125	0.2	601402	221	16	2	0	0	27	304	stimuli\Videos_short_600ms_vertflip\40.repeated_push_with_finger_short_vertflip_short_600ms.mp4	40.repeated_push_with_finger_short_vertflip_short_600ms.mp4	516.0977544172238	516.7061185877201	0.6083641704963156				
294.45361328125	0.2	603041	222	16	2	0	0	28	245	stimuli\Videos_short_600ms_horvertflip\69.stroke_with_soft_sock_short_horvertflip_short_600ms.mp4	69.stroke_with_soft_sock_short_horvertflip_short_600ms.mp4	516.8977369398176	517.5060846885899	0.608347748772303				
295.25341796875	0.2	604679	223	16	2	0	0	29	134	stimuli\Videos_short_600ms_horflip\5.repeated_tap_with_finger_moving_from_top_to_bottom_short_horflip_short_600ms.mp4	5.repeated_tap_with_finger_moving_from_top_to_bottom_short_horflip_short_600ms.mp4	517.6977279665184	518.3060859788679	0.6083580123495267				
296.05322265625	0.2	606317	224	16	2	0	0	30	220	stimuli\Videos_short_600ms_horvertflip\46.scratching_top_to_bottom_with_finger_nails_short_horvertflip_short_600ms.mp4	46.scratching_top_to_bottom_with_finger_nails_short_horvertflip_short_600ms.mp4	518.4980227951123	519.1060755393437	0.6080527442313723				
296.853515625	0.2	607956	225	16	2	0	0	31	176	stimuli\Videos_short_600ms_horflip\88.repeated_stroke_with_plastic_brush_short_horflip_short_600ms.mp4	88.repeated_stroke_with_plastic_brush_short_horflip_short_600ms.mp4	519.2977147118413	519.9060477983599	0.6083330865185417				
297.6533203125	0.2	609594	226	16	2	0	0	32	340	stimuli\Videos_short_600ms_vertflip\73.single_stroke_with_flat_hand_short_vertflip_short_600ms.mp4	73.single_stroke_with_flat_hand_short_vertflip_short_600ms.mp4	520.0977209872858	520.7060121397594	0.6082911524736119				
298.453125	0.2	611232	227	16	2	0	0	33	145	stimuli\Videos_short_600ms_horflip\6.single_touch_with_flat_hand_short_horflip_short_600ms.mp4	6.single_touch_with_flat_hand_short_horflip_short_600ms.mp4	520.8976970584881	521.5059934893729	0.6082964308848204				
299.25341796875	0.2	612871	228	16	2	0	0	34	248	stimuli\Videos_short_600ms_horvertflip\71.single_stroke_with_finger_top_to_bottom_short_horvertflip_short_600ms.mp4	71.single_stroke_with_finger_top_to_bottom_short_horvertflip_short_600ms.mp4	521.6977578775154	522.3059874485243	0.6082295710089056				
300.05322265625	0.2	614509	229	16	2	0	0	35	25	stimuli\Videos_short_600ms\32.single_(long)pinch_with_fingers_short_short_600ms.mp4	32.single_(long)pinch_with_fingers_short_short_600ms.mp4	522.4976703145376	523.1059623467463	0.6082920322087375				
300.85302734375	0.2	616147	230	16	2	0	0	36	161	stimuli\Videos_short_600ms_horflip\74.fingers_walking_from_top_to_bottom_short_horflip_short_600ms.mp4	74.fingers_walking_from_top_to_bottom_short_horflip_short_600ms.mp4	523.2976460924947	523.905947508546	0.6083014160512903				
301.6533203125	0.2	617786	231	16	2	0	0	37	187	stimuli\Videos_short_600ms_horvertflip\16.repeated_touch_with_plastic_brush_short_horvertflip_short_600ms.mp4	16.repeated_touch_with_plastic_brush_short_horvertflip_short_600ms.mp4	524.0976297880688	524.7059329635904	0.6083031755215416				
302.453125	0.2	619424	232	16	2	0	0	38	194	stimuli\Videos_short_600ms_horvertflip\22.single_touch_with_metal_chopstick_short_horvertflip_short_600ms.mp4	22.single_touch_with_metal_chopstick_short_horvertflip_short_600ms.mp4	524.89762198775	525.505943637711	0.6083216499609989				
303.25341796875	0.2	621063	233	16	2	0	0	39	351	stimuli\Videos_short_600ms_vertflip\83.single_stroke_top_to_bottom_with_cotton_bud_short_vertflip_short_600ms.mp4	83.single_stroke_top_to_bottom_with_cotton_bud_short_vertflip_short_600ms.mp4	525.6975960062368	526.3059156034824	0.6083195972455542				
304.05322265625	0.2	622701	234	16	2	0	0	40	93	stimuli\Videos_short_600ms_horflip\12.repeated_touch_with_nail_file_short_horflip_short_600ms.mp4	12.repeated_touch_with_nail_file_short_horflip_short_600ms.mp4	526.4975928978388	527.1059095626338	0.6083166647949838				
304.85302734375	0.2	624339	235	16	2	0	0	41	154	stimuli\Videos_short_600ms_horflip\68.stroke_top_to_bottom_with_shawl_short_horflip_short_600ms.mp4	68.stroke_top_to_bottom_with_shawl_short_horflip_short_600ms.mp4	527.297561051424	527.9058818216499	0.6083207702258733				
305.6533203125	0.2	625978	236	16	2	0	0	42	256	stimuli\Videos_short_600ms_horvertflip\79.long_with_soft_brush_all_over_the_hand_short_horvertflip_short_600ms.mp4	79.long_with_soft_brush_all_over_the_hand_short_horvertflip_short_600ms.mp4	528.0975465064689	528.7058666902044	0.6083201837354864				
306.453125	0.2	627616	237	16	2	0	0	43	349	stimuli\Videos_short_600ms_vertflip\81.single_stroke_top_to_bottom_with_cotton_pad_short_vertflip_short_600ms.mp4	81.single_stroke_top_to_bottom_with_cotton_pad_short_vertflip_short_600ms.mp4	528.8975322547585	529.5058462803477	0.6083140255891522				
307.2529296875	0.2	629254	238	16	2	0	0	44	163	stimuli\Videos_short_600ms_horflip\76.tickle_with_fingers_from_top_to_bottom_short_horflip_short_600ms.mp4	76.tickle_with_fingers_from_top_to_bottom_short_horflip_short_600ms.mp4	529.6974939569523	530.3058311489017	0.6083371919494311				
308.05322265625	0.2	630893	239	16	2	0	0	45	110	stimuli\Videos_short_600ms_horflip\28.single_injection_with_sharp_needle_short_horflip_short_600ms.mp4	28.single_injection_with_sharp_needle_short_horflip_short_600ms.mp4	530.4975052175628	531.105815137721	0.6083099201582627				
308.85302734375	0.2	632531	240	16	2	0	1	46	371	stimuli\Targets_short_600ms_horflip\hand-stroke_short_horflip_short_600ms.mp4	hand-stroke_short_horflip_short_600ms.mp4	531.297430557368	531.9057964873346	0.6083659299665669				
309.65283203125	0.2	634169	241	16	2	0	0	47	301	stimuli\Videos_short_600ms_vertflip\38.double_slap_with_pencil_short_vertflip_short_600ms.mp4	38.double_slap_with_pencil_short_vertflip_short_600ms.mp4	532.097435366587	532.7057790099284	0.6083436433414136				
310.453125	0.2	635808	242	16	2	0	0	48	277	stimuli\Videos_short_600ms_vertflip\16.repeated_touch_with_plastic_brush_short_vertflip_short_600ms.mp4	16.repeated_touch_with_plastic_brush_short_vertflip_short_600ms.mp4	532.8974219946117	533.5057641717276	0.608342177115901				
311.2529296875	0.2	637446	243	16	2	0	0	49	89	stimuli\Videos_short_600ms\90.repeated_touch_with_sponge_short_short_600ms.mp4	90.repeated_touch_with_sponge_short_short_600ms.mp4	533.6974121415774	534.3057261671665	0.6083140255891522				
312.052734375	0.2	639084	244	16	2	0	0	50	292	stimuli\Videos_short_600ms_vertflip\3.single_push_with_finger_short_vertflip_short_600ms.mp4	3.single_push_with_finger_short_vertflip_short_600ms.mp4	534.4973876262898	535.105728043935	0.608340417645195				
312.85302734375	0.2	640723	245	16	2	0	0	51	141	stimuli\Videos_short_600ms_horflip\56.repeated_touch_with_nail_file_short_horflip_short_600ms.mp4	56.repeated_touch_with_nail_file_short_horflip_short_600ms.mp4	535.2974024058412	535.9056668730136	0.6082644671723756				
313.65283203125	0.2	642361	246	16	2	0	0	52	191	stimuli\Videos_short_600ms_horvertflip\2.single_touch_with_finger_short_horvertflip_short_600ms.mp4	2.single_touch_with_finger_short_horvertflip_short_600ms.mp4	536.0974784736122	536.7056485158719	0.6081700422596441				
314.45263671875	0.2	643999	247	16	2	0	0	53	90	stimuli\Videos_short_600ms_horflip\1.repeated_touch_with_finger_fast_short_horflip_short_600ms.mp4	1.repeated_touch_with_finger_fast_short_horflip_short_600ms.mp4	536.8973577739416	537.5056316249561	0.6082738510144736				
315.2529296875	0.2	645638	248	16	2	0	1	54	360	stimuli\Targets_short_600ms\brush-stroke_short_short_600ms.mp4	brush-stroke_short_short_600ms.mp4	537.6973414695153	538.3056387801357	0.6082973106204008				
316.052734375	0.2	647276	249	16	2	0	0	55	23	stimuli\Videos_short_600ms\30.finger_pulling_back_another_finger_short_short_600ms.mp4	30.finger_pulling_back_another_finger_short_short_600ms.mp4	538.4973216461485	539.1056265811408	0.6083049349922476				
316.8525390625	0.2	648914	250	16	2	0	0	56	259	stimuli\Videos_short_600ms_horvertflip\81.single_stroke_top_to_bottom_with_cotton_pad_short_horvertflip_short_600ms.mp4	81.single_stroke_top_to_bottom_with_cotton_pad_short_horvertflip_short_600ms.mp4	539.2973062214583	539.9056184875767	0.6083122661184461				
317.65283203125	0.2	650553	251	16	2	0	0	57	231	stimuli\Videos_short_600ms_horvertflip\56.repeated_touch_with_nail_file_short_horvertflip_short_600ms.mp4	56.repeated_touch_with_nail_file_short_horvertflip_short_600ms.mp4	540.0972872778266	540.7056209508355	0.6083336730089286				
318.45263671875	0.2	652191	252	16	2	0	0	58	202	stimuli\Videos_short_600ms_horvertflip\3.single_push_with_finger_short_horvertflip_short_600ms.mp4	3.single_push_with_finger_short_horvertflip_short_600ms.mp4	540.8972703869103	541.505589397666	0.608319010755622				
319.25244140625	0.2	653829	253	16	2	0	0	59	325	stimuli\Videos_short_600ms_vertflip\6.single_touch_with_flat_hand_short_vertflip_short_600ms.mp4	6.single_touch_with_flat_hand_short_vertflip_short_600ms.mp4	541.6972537892393	542.305585702778	0.6083319135386773				
320.052734375	0.2	655468	254	16	2	0	1	60	366	stimuli\Targets_short_600ms_horflip\brush-stroke_short_horflip_short_600ms.mp4	brush-stroke_short_horflip_short_600ms.mp4	542.4972371915683	543.1055582550393	0.6083210634710667				
320.8525390625	0.2	657106	255	16	2	0	0	61	317	stimuli\Videos_short_600ms_vertflip\52.touch_top_to_bottom_with_hammer_short_vertflip_short_600ms.mp4	52.touch_top_to_bottom_with_hammer_short_vertflip_short_600ms.mp4	543.2972355493962	543.9055393114077	0.6083037620114737				
321.65283203125	0.2	658745	256	16	2	0	0	62	197	stimuli\Videos_short_600ms_horvertflip\25.single_touch_with_stanley_knife_short_horvertflip_short_600ms.mp4	25.single_touch_with_stanley_knife_short_horvertflip_short_600ms.mp4	544.0972183652348	544.7055215407563	0.6083031755215416				
322.45263671875	0.2	660383	257	16	2	0	0	63	148	stimuli\Videos_short_600ms_horflip\62.touch_top_to_bottom_with_scissors_short_horflip_short_600ms.mp4	62.touch_top_to_bottom_with_scissors_short_horflip_short_600ms.mp4	544.8971882782907	545.5055078755363	0.6083195972455542				
323.25244140625	0.2	662021	258	16	2	0	0	64	75	stimuli\Videos_short_600ms\78.single_stroke_top_to_bottom_with_soft_brush_short_short_600ms.mp4	78.single_stroke_top_to_bottom_with_soft_brush_short_short_600ms.mp4	545.6971517399547	546.3054895183946	0.6083377784398181				
324.052734375	0.2	663660	259	16	2	0	0	65	183	stimuli\Videos_short_600ms_horvertflip\12.repeated_touch_with_nail_file_short_horvertflip_short_600ms.mp4	12.repeated_touch_with_nail_file_short_horvertflip_short_600ms.mp4	546.4971140286389	547.1054726274788	0.6083585988399136				
324.8525390625	0.2	665298	260	16	2	0	0	66	225	stimuli\Videos_short_600ms_horvertflip\50.single_(long)hard_push_with_thumb_short_horvertflip_short_600ms.mp4	50.single_(long)hard_push_with_thumb_short_horvertflip_short_600ms.mp4	547.2970906863311	547.9054516311317	0.6083609448005518				
325.65234375	0.2	666936	261	16	2	0	0	67	206	stimuli\Videos_short_600ms_horvertflip\33.scratch_top_to_bottom_with_scissors_short_horvertflip_short_600ms.mp4	33.scratch_top_to_bottom_with_scissors_short_horvertflip_short_600ms.mp4	548.0971157294603	548.7054382591564	0.6083225296961245				
326.45263671875	0.2	668575	262	16	2	0	0	68	188	stimuli\Videos_short_600ms_horvertflip\17.repeated_touch_with_rolling_pin_short_horvertflip_short_600ms.mp4	17.repeated_touch_with_rolling_pin_short_horvertflip_short_600ms.mp4	548.8970865222514	549.5054193155247	0.6083327932733482				
327.25244140625	0.2	670213	263	16	2	0	0	69	212	stimuli\Videos_short_600ms_horvertflip\39.single_stab_with_scissors_short_horvertflip_short_600ms.mp4	39.single_stab_with_scissors_short_horvertflip_short_600ms.mp4	549.6970728570309	550.3053991989132	0.6083263418822753				
328.05224609375	0.2	671851	264	16	2	0	0	70	97	stimuli\Videos_short_600ms_horflip\16.repeated_touch_with_plastic_brush_short_horflip_short_600ms.mp4	16.repeated_touch_with_plastic_brush_short_horflip_short_600ms.mp4	550.4970729743291	551.1053764430958	0.608303468766735				
328.8525390625	0.2	673490	265	16	2	0	0	71	92	stimuli\Videos_short_600ms_horflip\11.single_touch_with_lighter_short_horflip_short_600ms.mp4	11.single_touch_with_lighter_short_horflip_short_600ms.mp4	551.2970279318861	551.9053478223768	0.6083198904907476				
329.65234375	0.2	675128	266	16	2	0	0	72	272	stimuli\Videos_short_600ms_vertflip\11.single_touch_with_lighter_short_vertflip_short_600ms.mp4	11.single_touch_with_lighter_short_vertflip_short_600ms.mp4	552.0970321546151	552.7053271192749	0.6082949646597626				
330.4521484375	0.2	676766	267	16	2	0	0	73	258	stimuli\Videos_short_600ms_horvertflip\80.stroke_with_sharp_stick_all_over_the_hand_short_horvertflip_short_600ms.mp4	80.stroke_with_sharp_stick_all_over_the_hand_short_horvertflip_short_600ms.mp4	552.8970202488654	553.5053131608092	0.6082929119438631				
331.25244140625	0.2	678405	268	16	2	0	0	74	330	stimuli\Videos_short_600ms_vertflip\64.repeated_touch_with_screwdriver_short_vertflip_short_600ms.mp4	64.repeated_touch_with_screwdriver_short_vertflip_short_600ms.mp4	553.6969986660283	554.3052980293637	0.6082993633353908				
332.05224609375	0.2	680043	269	16	2	0	0	75	247	stimuli\Videos_short_600ms_horvertflip\70.(long)stroke_with_finger_all_over_the_hand_short_horvertflip_short_600ms.mp4	70.(long)stroke_with_finger_all_over_the_hand_short_horvertflip_short_600ms.mp4	554.4969806021318	555.1052855371236	0.6083049349917928				
332.85205078125	0.2	681681	270	16	2	0	0	76	203	stimuli\Videos_short_600ms_horvertflip\30.finger_pulling_back_another_finger_short_horvertflip_short_600ms.mp4	30.finger_pulling_back_another_finger_short_horvertflip_short_600ms.mp4	555.2969701626071	555.9052935720388	0.6083234094317049				
333.65234375	0.2	683320	271	16	2	0	0	77	173	stimuli\Videos_short_600ms_horflip\85.touch_top_to_bottom_with_fabric_short_horflip_short_600ms.mp4	85.touch_top_to_bottom_with_fabric_short_horflip_short_600ms.mp4	556.0969567906322	556.7052675905256	0.6083107998933883				
334.4521484375	0.2	684958	272	16	2	0	0	78	35	stimuli\Videos_short_600ms\41.injection_with_blunt_syringe_short_short_600ms.mp4	41.injection_with_blunt_syringe_short_short_600ms.mp4	556.8969076427584	557.5052498198743	0.608342177115901				
335.251953125	0.2	686596	273	16	2	0	0	79	307	stimuli\Videos_short_600ms_vertflip\43.touch_top_to_bottom_with_sharp_wooden_stick_short_vertflip_short_600ms.mp4	43.touch_top_to_bottom_with_sharp_wooden_stick_short_vertflip_short_600ms.mp4	557.6969124519774	558.3052311694878	0.6083187175104285				
336.05224609375	0.2	688235	274	16	2	0	0	80	279	stimuli\Videos_short_600ms_vertflip\18.single_stroke_from_top_to_bottom_with_rolling_pin_short_vertflip_short_600ms.mp4	18.single_stroke_from_top_to_bottom_with_rolling_pin_short_vertflip_short_600ms.mp4	558.4968940948361	559.1052131055912	0.6083190107551673				
336.85205078125	0.2	689873	275	16	2	0	0	81	84	stimuli\Videos_short_600ms\86.touch_top_to_bottom_with_hair_brush_short_short_600ms.mp4	86.touch_top_to_bottom_with_hair_brush_short_short_600ms.mp4	559.2968777904102	559.9051976809005	0.6083198904902929				
337.65185546875	0.2	691511	276	16	2	0	0	82	159	stimuli\Videos_short_600ms_horflip\72.(short)stroke_with_finger_all_over_the_hand_short_horflip_short_600ms.mp4	72.(short)stroke_with_finger_all_over_the_hand_short_horflip_short_600ms.mp4	560.0968435980349	560.7051807899848	0.6083371919498859				
338.4521484375	0.2	693150	277	16	2	0	0	83	208	stimuli\Videos_short_600ms_horvertflip\35.single_punch_with_hand_short_horvertflip_short_600ms.mp4	35.single_punch_with_hand_short_horvertflip_short_600ms.mp4	560.8967982623471	561.505162432843	0.6083641704958609				
339.251953125	0.2	694788	278	16	2	0	0	84	36	stimuli\Videos_short_600ms\42.single_slap_with_plastic_whisk_short_short_600ms.mp4	42.single_slap_with_plastic_whisk_short_short_600ms.mp4	561.6967931012337	562.3051464216624	0.608353320428705				
340.0517578125	0.2	696426	279	16	2	0	0	85	42	stimuli\Videos_short_600ms\48.single_slap_with_hand_short_short_600ms.mp4	48.single_slap_with_hand_short_short_600ms.mp4	562.4967653602503	563.1051283577658	0.6083629975155418				
340.85205078125	0.2	698065	280	16	2	0	0	86	186	stimuli\Videos_short_600ms_horvertflip\15.single_stroke_top_to_bottom_with_a_plastic_whisk_short_horvertflip_short_600ms.mp4	15.single_stroke_top_to_bottom_with_a_plastic_whisk_short_horvertflip_short_600ms.mp4	563.2967675302634	563.9051123465852	0.6083448163217327				
341.65185546875	0.2	699703	281	16	2	0	0	87	177	stimuli\Videos_short_600ms_horflip\89.single_touch_with_plastic_brush_short_horflip_short_600ms.mp4	89.single_touch_with_plastic_brush_short_horflip_short_600ms.mp4	564.0967626623956	564.7050517621537	0.6082890997581671				
342.4521484375	0.2	701342	282	16	2	0	0	88	81	stimuli\Videos_short_600ms\83.single_stroke_top_to_bottom_with_cotton_bud_short_short_600ms.mp4	83.single_stroke_top_to_bottom_with_cotton_bud_short_short_600ms.mp4	564.8967489971751	565.5050800309782	0.6083310338030969				
343.251953125	0.2	702980	283	16	2	0	0	89	254	stimuli\Videos_short_600ms_horvertflip\77.tapping_with_all_fingers_short_horvertflip_short_600ms.mp4	77.tapping_with_all_fingers_short_horvertflip_short_600ms.mp4	565.6967467685126	566.3050584481412	0.608311679628514				
344.0517578125	0.2	704618	284	16	2	0	0	90	205	stimuli\Videos_short_600ms_horvertflip\32.single_(long)pinch_with_fingers_short_horvertflip_short_600ms.mp4	32.single_(long)pinch_with_fingers_short_horvertflip_short_600ms.mp4	566.4967310505767	567.10499962318	0.6082685726032651				
344.85205078125	0.2	706257	285	16	2	0	0	91	34	stimuli\Videos_short_600ms\40.repeated_push_with_finger_short_short_600ms.mp4	40.repeated_push_with_finger_short_short_600ms.mp4	567.2966904068098	567.9050023796835	0.6083119728737074				
345.65185546875	0.2	707895	286	16	2	0	0	92	281	stimuli\Videos_short_600ms_vertflip\2.single_touch_with_finger_short_vertflip_short_600ms.mp4	2.single_touch_with_finger_short_vertflip_short_600ms.mp4	568.0966914038431	568.7049887144635	0.6082973106204008				
346.45166015625	0.2	709533	287	16	2	0	0	93	135	stimuli\Videos_short_600ms_horflip\50.single_(long)hard_push_with_thumb_short_horflip_short_600ms.mp4	50.single_(long)hard_push_with_thumb_short_horflip_short_600ms.mp4	568.8966554519975	569.5049741695079	0.6083187175104285				
347.251953125	0.2	711172	288	16	2	0	0	94	118	stimuli\Videos_short_600ms_horflip\35.single_punch_with_hand_short_horflip_short_600ms.mp4	35.single_punch_with_hand_short_horflip_short_600ms.mp4	569.6966526368451	570.3049631434933	0.6083105066481949	5.0	5.0	2.410764791941346	1.0
385.5673828125	0.2	789642	289	16	3	0	1	0	365	stimuli\Targets_short_600ms\hand-stroke_short_short_600ms.mp4	hand-stroke_short_short_600ms.mp4	608.0124541181431	608.620795708769	0.6083415906259688				
386.3671875	0.2	791280	290	16	3	0	0	1	98	stimuli\Videos_short_600ms_horflip\17.repeated_touch_with_rolling_pin_short_horflip_short_600ms.mp4	17.repeated_touch_with_rolling_pin_short_horflip_short_600ms.mp4	608.8124636192833	609.4207805773231	0.6083169580397225				
387.1669921875	0.2	792918	291	16	3	0	0	2	76	stimuli\Videos_short_600ms\79.long_with_soft_brush_all_over_the_hand_short_short_600ms.mp4	79.long_with_soft_brush_all_over_the_hand_short_short_600ms.mp4	609.6126698878661	610.2207654458775	0.6080955580114278				
387.96728515625	0.2	794557	292	16	3	0	0	3	20	stimuli\Videos_short_600ms\28.single_injection_with_sharp_needle_short_short_600ms.mp4	28.single_injection_with_sharp_needle_short_short_600ms.mp4	610.4124459659301	611.0207470887362	0.6083011228060968				
388.76708984375	0.2	796195	293	16	3	0	0	4	316	stimuli\Videos_short_600ms_vertflip\51.repeated_touch_with_hammer_short_vertflip_short_600ms.mp4	51.repeated_touch_with_hammer_short_vertflip_short_600ms.mp4	611.2124126532904	611.8207595223271	0.6083468690367226				
389.56689453125	0.2	797833	294	16	3	0	0	5	300	stimuli\Videos_short_600ms_vertflip\37.single_stab_with_nail_file_short_vertflip_short_600ms.mp4	37.single_stab_with_nail_file_short_vertflip_short_600ms.mp4	612.0124154097939	612.6207141866394	0.6082987768454586				
390.3671875	0.2	799472	295	16	3	0	0	6	106	stimuli\Videos_short_600ms_horflip\24.single_stroke_top_to_bottom_with_a_spoon_short_horflip_short_600ms.mp4	24.single_stroke_top_to_bottom_with_a_spoon_short_horflip_short_600ms.mp4	612.8123762322525	613.420721341819	0.6083451095664714				
391.1669921875	0.2	801110	296	16	3	0	0	7	48	stimuli\Videos_short_600ms\53.touch_top_to_bottom_with_knife_short_short_600ms.mp4	53.touch_top_to_bottom_with_knife_short_short_600ms.mp4	613.612358168356	614.2207103158044	0.608352147448386				
391.966796875	0.2	802748	297	16	3	0	0	8	28	stimuli\Videos_short_600ms\35.single_punch_with_hand_short_short_600ms.mp4	35.single_punch_with_hand_short_short_600ms.mp4	614.4123603383696	615.0206805221051	0.6083201837354864				
392.76708984375	0.2	804387	298	16	3	0	0	9	331	stimuli\Videos_short_600ms_vertflip\65.stroke_top_to_bottom_with_stanley_knife_short_vertflip_short_600ms.mp4	65.stroke_top_to_bottom_with_stanley_knife_short_vertflip_short_600ms.mp4	615.2123235067888	615.8206692028457	0.6083456960568583				
393.56689453125	0.2	806025	299	16	3	0	0	10	94	stimuli\Videos_short_600ms_horflip\13.single_touch_with_pen_short_horflip_short_600ms.mp4	13.single_touch_with_pen_short_horflip_short_600ms.mp4	616.0123344741542	616.620650845704	0.6083163715497903				
394.36669921875	0.2	807663	300	16	3	0	0	11	223	stimuli\Videos_short_600ms_horvertflip\49.repeated_slap_with_hand_short_horvertflip_short_600ms.mp4	49.repeated_slap_with_hand_short_horvertflip_short_600ms.mp4	616.8123208089341	617.4206286763765	0.6083078674423632				
395.1669921875	0.2	809302	301	16	3	0	0	12	33	stimuli\Videos_short_600ms\4.repeated_tap_with_finger_slow_short_short_600ms.mp4	4.repeated_tap_with_finger_slow_short_short_600ms.mp4	617.6122710745699	618.220612958441	0.6083418838711623				
395.966796875	0.2	810940	302	16	3	0	0	13	339	stimuli\Videos_short_600ms_vertflip\72.(short)stroke_with_finger_all_over_the_hand_short_vertflip_short_600ms.mp4	72.(short)stroke_with_finger_all_over_the_hand_short_vertflip_short_600ms.mp4	618.412250371468	619.0205954810349	0.6083451095669261				
396.7666015625	0.2	812578	303	16	3	0	0	14	250	stimuli\Videos_short_600ms_horvertflip\73.single_stroke_with_flat_hand_short_horvertflip_short_600ms.mp4	73.single_stroke_with_flat_hand_short_horvertflip_short_600ms.mp4	619.2122358265128	619.820579176609	0.6083433500962201				
397.56689453125	0.2	814217	304	16	3	0	0	15	170	stimuli\Videos_short_600ms_horflip\82.repeated_touch_with_cotton_bud_short_horflip_short_600ms.mp4	82.repeated_touch_with_cotton_bud_short_horflip_short_600ms.mp4	620.0122177626163	620.6205605262226	0.6083427636062879				
398.36669921875	0.2	815855	305	16	3	0	0	16	305	stimuli\Videos_short_600ms_vertflip\41.injection_with_blunt_syringe_short_vertflip_short_600ms.mp4	41.injection_with_blunt_syringe_short_vertflip_short_600ms.mp4	620.8122111352777	621.4205187094753	0.6083075741976245				
399.1669921875	0.2	817494	306	16	3	0	1	17	369	stimuli\Targets_short_600ms_horflip\finger-tap_short_horflip_short_600ms.mp4	finger-tap_short_horflip_short_600ms.mp4	621.6122141850265	622.2204801184239	0.6082659333974334				
399.966796875	0.2	819132	307	16	3	0	0	18	264	stimuli\Videos_short_600ms_horvertflip\86.touch_top_to_bottom_with_hair_brush_short_horvertflip_short_600ms.mp4	86.touch_top_to_bottom_with_hair_brush_short_horvertflip_short_600ms.mp4	622.4121970008655	623.0204641072432	0.6082671063777525				
400.7666015625	0.2	820770	308	16	3	0	0	19	10	stimuli\Videos_short_600ms\19.single_touch_with_rolling_pin_short_short_600ms.mp4	19.single_touch_with_rolling_pin_short_short_600ms.mp4	623.2121716058423	623.8204938422932	0.6083222364509311				
401.56689453125	0.2	822409	309	16	3	0	0	20	315	stimuli\Videos_short_600ms_vertflip\50.single_(long)hard_push_with_thumb_short_vertflip_short_600ms.mp4	50.single_(long)hard_push_with_thumb_short_vertflip_short_600ms.mp4	624.0122262667232	624.6204529052816	0.6082266385583353				
402.36669921875	0.2	824047	310	16	3	0	1	21	376	stimuli\Targets_short_600ms_horvertflip\hand-pinch_short_vertflip_short_600ms.mp4	hand-pinch_short_vertflip_short_600ms.mp4	624.812116710365	625.4204415860218	0.6083248756567627				
403.16650390625	0.2	825685	311	16	3	0	0	22	47	stimuli\Videos_short_600ms\52.touch_top_to_bottom_with_hammer_short_short_600ms.mp4	52.touch_top_to_bottom_with_hammer_short_short_600ms.mp4	625.6121009924291	626.2204229356353	0.6083219432061924				
403.966796875	0.2	827324	312	16	3	0	0	23	57	stimuli\Videos_short_600ms\61.single_hit_with_rolling_pin_short_short_600ms.mp4	61.single_hit_with_rolling_pin_short_short_600ms.mp4	626.4120899664144	627.0204365422064	0.6083465757919839				
404.7666015625	0.2	828962	313	16	3	0	0	24	229	stimuli\Videos_short_600ms_horvertflip\54.repeated_touch_with_knife_short_horvertflip_short_600ms.mp4	54.repeated_touch_with_knife_short_horvertflip_short_600ms.mp4	627.2121067986818	627.8204140796342	0.608307280952431				
405.56640625	0.2	830600	314	16	3	0	0	25	320	stimuli\Videos_short_600ms_vertflip\55.touch_top_to_bottom_with_nail_file_short_vertflip_short_600ms.mp4	55.touch_top_to_bottom_with_nail_file_short_vertflip_short_600ms.mp4	628.0120526656415	628.6203948427574	0.608342177115901				
406.36669921875	0.2	832239	315	16	3	0	0	26	352	stimuli\Videos_short_600ms_vertflip\84.single_touch_with_cotton_bud_short_vertflip_short_600ms.mp4	84.single_touch_with_cotton_bud_short_vertflip_short_600ms.mp4	628.8120545424099	629.4203802978022	0.6083257553923431				
407.16650390625	0.2	833877	316	16	3	0	1	27	378	stimuli\Targets_short_600ms_vertflip\brush-stroke_short_horvertflip_short_600ms.mp4	brush-stroke_short_horvertflip_short_600ms.mp4	629.6120411704351	630.2203537297987	0.6083125593636396				
407.96630859375	0.2	835515	317	16	3	0	0	28	337	stimuli\Videos_short_600ms_vertflip\70.(long)stroke_with_finger_all_over_the_hand_short_vertflip_short_600ms.mp4	70.(long)stroke_with_finger_all_over_the_hand_short_vertflip_short_600ms.mp4	630.4120603486626	631.0203391848431	0.6082788361804887				
408.7666015625	0.2	837154	318	16	3	0	0	29	284	stimuli\Videos_short_600ms_vertflip\22.single_touch_with_metal_chopstick_short_vertflip_short_600ms.mp4	22.single_touch_with_metal_chopstick_short_vertflip_short_600ms.mp4	631.2119980047605	631.8203187749864	0.6083207702258733				
409.56640625	0.2	838792	319	16	3	0	0	30	101	stimuli\Videos_short_600ms_horflip\2.single_touch_with_finger_short_horflip_short_600ms.mp4	2.single_touch_with_finger_short_horflip_short_600ms.mp4	632.0119444582106	632.6203021773154	0.608357719104788				
410.3662109375	0.2	840430	320	16	3	0	0	31	12	stimuli\Videos_short_600ms\20.single_touch_with_screwdriver_short_short_600ms.mp4	20.single_touch_with_screwdriver_short_short_600ms.mp4	632.8119193564326	633.4202855796443	0.6083662232117604				
411.16650390625	0.2	842069	321	16	3	0	0	32	7	stimuli\Videos_short_600ms\16.repeated_touch_with_plastic_brush_short_short_600ms.mp4	16.repeated_touch_with_plastic_brush_short_short_600ms.mp4	633.6119270981026	634.2202719144238	0.6083448163212779				
411.96630859375	0.2	843707	322	16	3	0	0	33	299	stimuli\Videos_short_600ms_vertflip\36.single_slap_with_full_hand_short_vertflip_short_600ms.mp4	36.single_slap_with_full_hand_short_vertflip_short_600ms.mp4	634.4118981841384	635.0202582492038	0.6083600650654262				
412.76611328125	0.2	845345	323	16	3	0	0	34	138	stimuli\Videos_short_600ms_horflip\53.touch_top_to_bottom_with_knife_short_horflip_short_600ms.mp4	53.touch_top_to_bottom_with_knife_short_horflip_short_600ms.mp4	635.2118936095153	635.8202357866312	0.608342177115901				
413.56640625	0.2	846984	324	16	3	0	0	35	137	stimuli\Videos_short_600ms_horflip\52.touch_top_to_bottom_with_hammer_short_horflip_short_600ms.mp4	52.touch_top_to_bottom_with_hammer_short_horflip_short_600ms.mp4	636.0118773050895	636.620213324059	0.6083360189695668				
414.3662109375	0.2	848622	325	16	3	0	0	36	297	stimuli\Videos_short_600ms_vertflip\34.repeated_punch_with_hand_short_vertflip_short_600ms.mp4	34.repeated_punch_with_hand_short_vertflip_short_600ms.mp4	636.8118873927201	637.4201524463824	0.6082650536623078				
415.166015625	0.2	850260	326	16	3	0	1	37	368	stimuli\Targets_short_600ms_horflip\chopstickwood-tap_short_horflip_short_600ms.mp4	chopstickwood-tap_short_horflip_short_600ms.mp4	637.6118693288236	638.2201475785141	0.6082782496905565				
415.96630859375	0.2	851899	327	16	3	0	0	38	343	stimuli\Videos_short_600ms_vertflip\76.tickle_with_fingers_from_top_to_bottom_short_vertflip_short_600ms.mp4	76.tickle_with_fingers_from_top_to_bottom_short_vertflip_short_600ms.mp4	638.4118266323412	639.0201198375303	0.6082932051890566				
416.76611328125	0.2	853537	328	16	3	0	0	39	198	stimuli\Videos_short_600ms_horvertflip\26.single_touch_with_a_blunt_syringe_short_horvertflip_short_600ms.mp4	26.single_touch_with_a_blunt_syringe_short_horvertflip_short_600ms.mp4	639.2118299753351	639.8201243535045	0.6082943781693757				
417.56591796875	0.2	855175	329	16	3	0	0	40	219	stimuli\Videos_short_600ms_horvertflip\45.scratching_with_finger_nails_short_horvertflip_short_600ms.mp4	45.scratching_with_finger_nails_short_horvertflip_short_600ms.mp4	640.0118368372696	640.620114207225	0.6082773699554309				
418.3662109375	0.2	856814	330	16	3	0	0	41	347	stimuli\Videos_short_600ms_vertflip\8.single_touch_with_hairbrush_short_vertflip_short_600ms.mp4	8.single_touch_with_hairbrush_short_vertflip_short_600ms.mp4	640.811775373103	641.4200949703486	0.6083195972455542				
419.166015625	0.2	858452	331	16	3	0	0	42	104	stimuli\Videos_short_600ms_horflip\22.single_touch_with_metal_chopstick_short_horflip_short_600ms.mp4	22.single_touch_with_metal_chopstick_short_horflip_short_600ms.mp4	641.611766693049	642.2201041782437	0.6083374851946246				
419.96630859375	0.2	860091	332	16	3	0	0	43	52	stimuli\Videos_short_600ms\57.single_touch_with_nail_file_short_short_600ms.mp4	57.single_touch_with_nail_file_short_short_600ms.mp4	642.4117577197499	643.0200790764657	0.6083213567158055				
420.76611328125	0.2	861729	333	16	3	0	0	44	14	stimuli\Videos_short_600ms\22.single_touch_with_metal_chopstick_short_short_600ms.mp4	22.single_touch_with_metal_chopstick_short_short_600ms.mp4	643.2117458140001	643.8200701031665	0.6083242891663758				
421.56591796875	0.2	863367	334	16	3	0	0	45	310	stimuli\Videos_short_600ms_vertflip\46.scratching_top_to_bottom_with_finger_nails_short_vertflip_short_600ms.mp4	46.scratching_top_to_bottom_with_finger_nails_short_vertflip_short_600ms.mp4	644.0117309757993	644.6200420689379	0.6083110931385818				
422.3662109375	0.2	865006	335	16	3	0	0	46	211	stimuli\Videos_short_600ms_horvertflip\38.double_slap_with_pencil_short_horvertflip_short_600ms.mp4	38.double_slap_with_pencil_short_horvertflip_short_600ms.mp4	644.8117439958805	645.4200260577568	0.6082820618762526				
423.166015625	0.2	866644	336	16	3	0	0	47	313	stimuli\Videos_short_600ms_vertflip\49.repeated_slap_with_hand_short_vertflip_short_600ms.mp4	49.repeated_slap_with_hand_short_vertflip_short_600ms.mp4	645.6116757870768	646.2200059411452	0.608330154068426				
423.9658203125	0.2	868282	337	16	3	0	0	48	217	stimuli\Videos_short_600ms_horvertflip\43.touch_top_to_bottom_with_sharp_wooden_stick_short_horvertflip_short_600ms.mp4	43.touch_top_to_bottom_with_sharp_wooden_stick_short_horvertflip_short_600ms.mp4	646.4116826490117	647.0199916894348	0.608309040423137				
424.76611328125	0.2	869921	338	16	3	0	0	49	335	stimuli\Videos_short_600ms_vertflip\69.stroke_with_soft_sock_short_vertflip_short_600ms.mp4	69.stroke_with_soft_sock_short_vertflip_short_600ms.mp4	647.2116425917352	647.8199768512341	0.6083342594988608				
425.56591796875	0.2	871559	339	16	3	0	0	50	195	stimuli\Videos_short_600ms_horvertflip\23.single_push_with_a_spoon_short_horvertflip_short_600ms.mp4	23.single_push_with_a_spoon_short_horvertflip_short_600ms.mp4	648.011613677771	648.6199558548869	0.608342177115901				
426.36572265625	0.2	873197	340	16	3	0	0	51	111	stimuli\Videos_short_600ms_horflip\29.single_pinch_with_tweezers_short_horflip_short_600ms.mp4	29.single_pinch_with_tweezers_short_horflip_short_600ms.mp4	648.8116023585112	649.4199389639712	0.6083366054599537				
427.166015625	0.2	874836	341	16	3	0	0	52	224	stimuli\Videos_short_600ms_horvertflip\5.repeated_tap_with_finger_moving_from_top_to_bottom_short_horvertflip_short_600ms.mp4	5.repeated_tap_with_finger_moving_from_top_to_bottom_short_horvertflip_short_600ms.mp4	649.6117062845642	650.2199211933198	0.608214908755599				
427.9658203125	0.2	876474	342	16	3	0	0	53	318	stimuli\Videos_short_600ms_vertflip\53.touch_top_to_bottom_with_knife_short_vertflip_short_600ms.mp4	53.touch_top_to_bottom_with_knife_short_vertflip_short_600ms.mp4	650.4115770807862	651.0199045956488	0.6083275148625944				
428.765625	0.2	878112	343	16	3	0	0	54	303	stimuli\Videos_short_600ms_vertflip\4.repeated_tap_with_finger_slow_short_vertflip_short_600ms.mp4	4.repeated_tap_with_finger_slow_short_vertflip_short_600ms.mp4	651.2115575506646	651.819889170958	0.6083316202934839				
429.56591796875	0.2	879751	344	16	3	0	0	55	174	stimuli\Videos_short_600ms_horflip\86.touch_top_to_bottom_with_hair_brush_short_horflip_short_600ms.mp4	86.touch_top_to_bottom_with_hair_brush_short_horflip_short_600ms.mp4	652.0115397800132	652.6198579110337	0.6083181310204964				
430.36572265625	0.2	881389	345	16	3	0	0	56	157	stimuli\Videos_short_600ms_horflip\70.(long)stroke_with_finger_all_over_the_hand_short_horflip_short_600ms.mp4	70.(long)stroke_with_finger_all_over_the_hand_short_horflip_short_600ms.mp4	652.8115398973114	653.4198128685907	0.608272971279348				
431.16552734375	0.2	883027	346	16	3	0	0	57	290	stimuli\Videos_short_600ms_vertflip\28.single_injection_with_sharp_needle_short_vertflip_short_600ms.mp4	28.single_injection_with_sharp_needle_short_vertflip_short_600ms.mp4	653.6115197806994	654.2198123993985	0.6082926186991244				
431.9658203125	0.2	884666	347	16	3	0	0	58	314	stimuli\Videos_short_600ms_vertflip\5.repeated_tap_with_finger_moving_from_top_to_bottom_short_vertflip_short_600ms.mp4	5.repeated_tap_with_finger_moving_from_top_to_bottom_short_vertflip_short_600ms.mp4	654.411488520775	655.0198013733839	0.608312852608833				
432.765625	0.2	886304	348	16	3	0	0	59	72	stimuli\Videos_short_600ms\75.(long)stroke_with_fingers_all_over_the_hand_short_short_600ms.mp4	75.(long)stroke_with_fingers_all_over_the_hand_short_short_600ms.mp4	655.2114851191322	655.8197812567719	0.608296137639627				
433.5654296875	0.2	887942	349	16	3	0	0	60	312	stimuli\Videos_short_600ms_vertflip\48.single_slap_with_hand_short_vertflip_short_600ms.mp4	48.single_slap_with_hand_short_vertflip_short_600ms.mp4	656.0115488706106	656.6197661253264	0.6082172547157825				
434.36572265625	0.2	889581	350	16	3	0	0	61	17	stimuli\Videos_short_600ms\25.single_touch_with_stanley_knife_short_short_600ms.mp4	25.single_touch_with_stanley_knife_short_short_600ms.mp4	656.8114264114693	657.4197782656724	0.6083518542031925				
435.16552734375	0.2	891219	351	16	3	0	0	62	95	stimuli\Videos_short_600ms_horflip\14.repeated_touch_with_pencil_short_horflip_short_600ms.mp4	14.repeated_touch_with_pencil_short_horflip_short_600ms.mp4	657.611413039494	658.2197531638944	0.6083401244004563				
435.96533203125	0.2	892857	352	16	3	0	0	63	156	stimuli\Videos_short_600ms_horflip\7.repeated_touch_with_hairbrush_short_horflip_short_600ms.mp4	7.repeated_touch_with_hairbrush_short_horflip_short_600ms.mp4	658.4114175554678	659.0197365662234	0.608319010755622				
436.765625	0.2	894496	353	16	3	0	0	64	15	stimuli\Videos_short_600ms\23.single_push_with_a_spoon_short_short_600ms.mp4	23.single_push_with_a_spoon_short_short_600ms.mp4	659.2113619562028	659.8197155698763	0.6083536136734438				
437.5654296875	0.2	896134	354	16	3	0	0	65	355	stimuli\Videos_short_600ms_vertflip\87.single_stroke_top_to_bottom_with_plastic_brush_short_vertflip_short_600ms.mp4	87.single_stroke_top_to_bottom_with_plastic_brush_short_vertflip_short_600ms.mp4	660.0113820141655	660.6196977992249	0.6083157850594034				
438.365234375	0.2	897772	355	16	3	0	0	66	257	stimuli\Videos_short_600ms_horvertflip\8.single_touch_with_hairbrush_short_horvertflip_short_600ms.mp4	8.single_touch_with_hairbrush_short_horvertflip_short_600ms.mp4	660.8113680556999	661.4196797353288	0.6083116796289687				
439.16552734375	0.2	899411	356	16	3	0	0	67	32	stimuli\Videos_short_600ms\39.single_stab_with_scissors_short_short_600ms.mp4	39.single_stab_with_scissors_short_short_600ms.mp4	661.6113235997473	662.2196622579227	0.6083386581753985				
439.96533203125	0.2	901049	357	16	3	0	0	68	213	stimuli\Videos_short_600ms_horvertflip\4.repeated_tap_with_finger_slow_short_horvertflip_short_600ms.mp4	4.repeated_tap_with_finger_slow_short_horvertflip_short_600ms.mp4	662.4112814897553	663.0196497656825	0.6083682759272051				
440.765625	0.2	902688	358	16	3	0	0	69	286	stimuli\Videos_short_600ms_vertflip\24.single_stroke_top_to_bottom_with_a_spoon_short_vertflip_short_600ms.mp4	24.single_stroke_top_to_bottom_with_a_spoon_short_vertflip_short_600ms.mp4	663.2112643055943	663.8196281828455	0.6083638772511222				
441.5654296875	0.2	904326	359	16	3	0	0	70	246	stimuli\Videos_short_600ms_horvertflip\7.repeated_touch_with_hairbrush_short_horvertflip_short_600ms.mp4	7.repeated_touch_with_hairbrush_short_horvertflip_short_600ms.mp4	664.0112579715005	664.6196112919292	0.608353320428705				
442.365234375	0.2	905964	360	16	3	0	0	71	322	stimuli\Videos_short_600ms_vertflip\57.single_touch_with_nail_file_short_vertflip_short_600ms.mp4	57.single_touch_with_nail_file_short_vertflip_short_600ms.mp4	664.8112308170071	665.4196005591598	0.6083697421527177				
443.16552734375	0.2	907603	361	16	3	0	0	72	54	stimuli\Videos_short_600ms\59.single_push_with_long_side_pencil_short_short_600ms.mp4	59.single_push_with_long_side_pencil_short_short_600ms.mp4	665.6112438370883	666.2195757506265	0.6083319135382226				
443.96533203125	0.2	909241	362	16	3	0	0	73	158	stimuli\Videos_short_600ms_horflip\71.single_stroke_with_finger_top_to_bottom_short_horflip_short_600ms.mp4	71.single_stroke_with_finger_top_to_bottom_short_horflip_short_600ms.mp4	666.4112269461721	667.0195368663303	0.6083099201582627				
444.76513671875	0.2	910879	363	16	3	0	0	74	171	stimuli\Videos_short_600ms_horflip\83.single_stroke_top_to_bottom_with_cotton_bud_short_horflip_short_600ms.mp4	83.single_stroke_top_to_bottom_with_cotton_bud_short_horflip_short_600ms.mp4	667.2112326351266	667.8195425552849	0.6083099201582627				
445.5654296875	0.2	912518	364	16	3	0	0	75	228	stimuli\Videos_short_600ms_horvertflip\53.touch_top_to_bottom_with_knife_short_horvertflip_short_600ms.mp4	53.touch_top_to_bottom_with_knife_short_horvertflip_short_600ms.mp4	668.0111861264581	668.6195010317829	0.6083149053247325				
446.365234375	0.2	914156	365	16	3	0	0	76	209	stimuli\Videos_short_600ms_horvertflip\36.single_slap_with_full_hand_short_horvertflip_short_600ms.mp4	36.single_slap_with_full_hand_short_horvertflip_short_600ms.mp4	668.8112331629677	669.419484727357	0.6082515643893203				
447.1650390625	0.2	915794	366	16	3	0	0	77	63	stimuli\Videos_short_600ms\67.single_touch_with_sponge_short_short_600ms.mp4	67.single_touch_with_sponge_short_short_600ms.mp4	669.6111740447614	670.2194522944519	0.6082782496905565				
447.96533203125	0.2	917433	367	16	3	0	0	78	226	stimuli\Videos_short_600ms_horvertflip\51.repeated_touch_with_hammer_short_horvertflip_short_600ms.mp4	51.repeated_touch_with_hammer_short_horvertflip_short_600ms.mp4	670.4111430780822	671.0194547577107	0.608311679628514				
448.76513671875	0.2	919071	368	16	3	0	0	79	62	stimuli\Videos_short_600ms\66.stroke_top_to_bottom_with_sponge_short_short_600ms.mp4	66.stroke_top_to_bottom_with_sponge_short_short_600ms.mp4	671.2111214952447	671.8194366938142	0.6083151985694712				
449.56494140625	0.2	920709	369	16	3	0	0	80	178	stimuli\Videos_short_600ms_horflip\9.single_touch_with_hammer_short_horflip_short_600ms.mp4	9.single_touch_with_hammer_short_horflip_short_600ms.mp4	672.0111057773092	672.6194514733656	0.6083456960564035				
450.365234375	0.2	922348	370	16	3	0	0	81	270	stimuli\Videos_short_600ms_vertflip\1.repeated_touch_with_finger_fast_short_vertflip_short_600ms.mp4	1.repeated_touch_with_finger_fast_short_vertflip_short_600ms.mp4	672.8111100000378	673.4194213864216	0.6083113863837752				
451.1650390625	0.2	923986	371	16	3	0	0	82	267	stimuli\Videos_short_600ms_horvertflip\89.single_touch_with_plastic_brush_short_horvertflip_short_600ms.mp4	89.single_touch_with_plastic_brush_short_horvertflip_short_600ms.mp4	673.6110881239556	674.2194097739166	0.6083216499609989				
451.96484375	0.2	925624	372	16	3	0	0	83	116	stimuli\Videos_short_600ms_horflip\33.scratch_top_to_bottom_with_scissors_short_horflip_short_600ms.mp4	33.scratch_top_to_bottom_with_scissors_short_horflip_short_600ms.mp4	674.4110697668143	675.0193893640599	0.6083195972455542				
452.76513671875	0.2	927263	373	16	3	0	0	84	271	stimuli\Videos_short_600ms_vertflip\10.single_touch_with_knife_short_vertflip_short_600ms.mp4	10.single_touch_with_knife_short_vertflip_short_600ms.mp4	675.2111901145913	675.8193677812228	0.6081776666314909				
453.56494140625	0.2	928901	374	16	3	0	0	85	128	stimuli\Videos_short_600ms_horflip\44.pushing_top_to_bottom_with_finger_short_horflip_short_600ms.mp4	44.pushing_top_to_bottom_with_finger_short_horflip_short_600ms.mp4	676.0110351052472	676.6193526497773	0.6083175445301094				
454.36474609375	0.2	930539	375	16	3	0	0	86	275	stimuli\Videos_short_600ms_vertflip\14.repeated_touch_with_pencil_short_vertflip_short_600ms.mp4	14.repeated_touch_with_pencil_short_vertflip_short_600ms.mp4	676.8110193873113	677.4193334129004	0.6083140255891522				
