onset	duration	onsetsample	eventnumber	subjectnr	sequencenumber	blocksequencenumber	istarget	presentationnumber	stimnumber	stim	stimname	time_stimon	time_stimoff	stimdur	cresp	resp	rt	correct
0.49853515625	0.2	1021	0	47	0	0	1	0	367	stimuli\Targets_short_600ms_horflip\chopstick-silver-tap_short_horflip_short_600ms.mp4	chopstick-silver-tap_short_horflip_short_600ms.mp4	50.00203686891109	50.61035395655563	0.6083170876445365				
1.298828125	0.2	2660	1	47	0	0	0	1	305	stimuli\Videos_short_600ms_vertflip\41.injection_with_blunt_syringe_short_vertflip_short_600ms.mp4	41.injection_with_blunt_syringe_short_vertflip_short_600ms.mp4	50.80201405457046	51.41033407465147	0.6083200200810097				
2.0986328125	0.2	4298	2	47	0	0	0	2	13	stimuli\Videos_short_600ms\21.repeated_touch_with_metal_chopstick_short_short_600ms.mp4	21.repeated_touch_with_metal_chopstick_short_short_600ms.mp4	51.60199270644807	52.21031008733917	0.6083173808910942				
2.8984375	0.2	5936	3	47	0	0	0	3	85	stimuli\Videos_short_600ms\87.single_stroke_top_to_bottom_with_plastic_brush_short_short_600ms.mp4	87.single_stroke_top_to_bottom_with_plastic_brush_short_short_600ms.mp4	52.4019807421173	53.010289032459696	0.6083082903423929				
3.69873046875	0.2	7575	4	47	0	0	0	4	344	stimuli\Videos_short_600ms_vertflip\77.tapping_with_all_fingers_short_vertflip_short_600ms.mp4	77.tapping_with_all_fingers_short_vertflip_short_600ms.mp4	53.20192508451146	53.81026944379846	0.6083443592870026				
4.49853515625	0.2	9213	5	47	0	0	0	5	241	stimuli\Videos_short_600ms_horvertflip\65.stroke_top_to_bottom_with_stanley_knife_short_horvertflip_short_600ms.mp4	65.stroke_top_to_bottom_with_stanley_knife_short_horvertflip_short_600ms.mp4	54.001905495850224	54.61024457675376	0.6083390809035336				
5.29833984375	0.2	10851	6	47	0	0	0	6	32	stimuli\Videos_short_600ms\39.single_stab_with_scissors_short_short_600ms.mp4	39.single_stab_with_scissors_short_short_600ms.mp4	54.8019023288216	55.41022616106784	0.6083238322462421				
6.0986328125	0.2	12490	7	47	0	0	0	7	102	stimuli\Videos_short_600ms_horflip\20.single_touch_with_screwdriver_short_horflip_short_600ms.mp4	20.single_touch_with_screwdriver_short_horflip_short_600ms.mp4	55.60188479286444	56.21020627916005	0.6083214862956083				
6.8984375	0.2	14128	8	47	0	0	0	8	253	stimuli\Videos_short_600ms_horvertflip\76.tickle_with_fingers_from_top_to_bottom_short_horvertflip_short_600ms.mp4	76.tickle_with_fingers_from_top_to_bottom_short_horvertflip_short_600ms.mp4	56.401886024486885	57.01018229184774	0.6082962673608563				
7.6982421875	0.2	15766	9	47	0	0	0	9	209	stimuli\Videos_short_600ms_horvertflip\36.single_slap_with_full_hand_short_horvertflip_short_600ms.mp4	36.single_slap_with_full_hand_short_horvertflip_short_600ms.mp4	57.201854119601194	57.81013484506184	0.608280725460645				
8.49853515625	0.2	17405	10	47	0	0	0	10	156	stimuli\Videos_short_600ms_horflip\7.repeated_touch_with_hairbrush_short_horflip_short_600ms.mp4	7.repeated_touch_with_hairbrush_short_horflip_short_600ms.mp4	58.001821041740186	58.61011554964352	0.6082945079033379				
9.29833984375	0.2	19043	11	47	0	0	0	11	207	stimuli\Videos_short_600ms_horvertflip\34.repeated_punch_with_hand_short_horvertflip_short_600ms.mp4	34.repeated_punch_with_hand_short_horvertflip_short_600ms.mp4	58.801800573346554	59.41009185557414	0.608291282227583				
10.0986328125	0.2	20682	12	47	0	0	0	12	177	stimuli\Videos_short_600ms_horflip\89.single_touch_with_plastic_brush_short_horflip_short_600ms.mp4	89.single_touch_with_plastic_brush_short_horflip_short_600ms.mp4	59.60177922522416	60.21009601962942	0.6083167944052548				
10.8984375	0.2	22320	13	47	0	0	0	13	75	stimuli\Videos_short_600ms\78.single_stroke_top_to_bottom_with_soft_brush_short_short_600ms.mp4	78.single_stroke_top_to_bottom_with_soft_brush_short_short_600ms.mp4	60.40175758385885	61.01008610800272	0.6083285241438716				
11.6982421875	0.2	23958	14	47	0	0	0	14	135	stimuli\Videos_short_600ms_horflip\50.single_(long)hard_push_with_thumb_short_horflip_short_600ms.mp4	50.single_(long)hard_push_with_thumb_short_horflip_short_600ms.mp4	61.20173594249354	61.81006563960909	0.6083296971155505				
12.49853515625	0.2	25597	15	47	0	0	0	15	17	stimuli\Videos_short_600ms\25.single_touch_with_stanley_knife_short_short_600ms.mp4	25.single_touch_with_stanley_knife_short_short_600ms.mp4	62.00171635383231	62.61003461445216	0.6083182606198534				
13.29833984375	0.2	27235	16	47	0	0	0	16	295	stimuli\Videos_short_600ms_vertflip\32.single_(long)pinch_with_fingers_short_vertflip_short_600ms.mp4	32.single_(long)pinch_with_fingers_short_vertflip_short_600ms.mp4	62.801694712467	63.41001443930509	0.60831972683809				
14.09814453125	0.2	28873	17	47	0	0	0	17	41	stimuli\Videos_short_600ms\47.(long)scratching_with_finger_nails_short_short_600ms.mp4	47.(long)scratching_with_finger_nails_short_short_600ms.mp4	63.6016757102916	64.20999103847862	0.6083153281870182				
14.8984375	0.2	30512	18	47	0	0	0	18	358	stimuli\Videos_short_600ms_vertflip\9.single_touch_with_hammer_short_vertflip_short_600ms.mp4	9.single_touch_with_hammer_short_vertflip_short_600ms.mp4	64.40164908378938	65.00996969035623	0.6083206065668492				
15.6982421875	0.2	32150	19	47	0	0	0	19	91	stimuli\Videos_short_600ms_horflip\10.single_touch_with_knife_short_horflip_short_600ms.mp4	10.single_touch_with_knife_short_horflip_short_600ms.mp4	65.20162773566699	65.80994628952976	0.6083185538627731				
16.498046875	0.2	33788	20	47	0	0	0	20	235	stimuli\Videos_short_600ms_horvertflip\6.single_touch_with_flat_hand_short_horvertflip_short_600ms.mp4	6.single_touch_with_flat_hand_short_horvertflip_short_600ms.mp4	66.00162632809952	66.60992904681552	0.6083027187160042				
17.29833984375	0.2	35427	21	47	0	0	0	21	246	stimuli\Videos_short_600ms_horvertflip\7.repeated_touch_with_hairbrush_short_horvertflip_short_600ms.mp4	7.repeated_touch_with_hairbrush_short_horvertflip_short_600ms.mp4	66.80158943807328	67.40990505950322	0.6083156214299379				
18.09814453125	0.2	37065	22	47	0	0	0	22	242	stimuli\Videos_short_600ms_horvertflip\66.stroke_top_to_bottom_with_sponge_short_horvertflip_short_600ms.mp4	66.stroke_top_to_bottom_with_sponge_short_horvertflip_short_600ms.mp4	67.60156955616912	68.20988488435614	0.6083153281870182				
18.89794921875	0.2	38703	23	47	0	0	0	23	30	stimuli\Videos_short_600ms\37.single_stab_with_nail_file_short_short_600ms.mp4	37.single_stab_with_nail_file_short_short_600ms.mp4	68.40152005667551	69.00986265650135	0.6083425998258463				
19.6982421875	0.2	40342	24	47	0	0	0	24	107	stimuli\Videos_short_600ms_horflip\25.single_touch_with_stanley_knife_short_horflip_short_600ms.mp4	25.single_touch_with_stanley_knife_short_horflip_short_600ms.mp4	69.20152070181211	69.80984424081544	0.6083235390033224				
20.498046875	0.2	41980	25	47	0	0	0	25	150	stimuli\Videos_short_600ms_horflip\64.repeated_touch_with_screwdriver_short_horflip_short_600ms.mp4	64.repeated_touch_with_screwdriver_short_horflip_short_600ms.mp4	70.00150023341848	70.60982289269305	0.6083226592745632				
21.2978515625	0.2	43618	26	47	0	0	0	26	198	stimuli\Videos_short_600ms_horvertflip\26.single_touch_with_a_blunt_syringe_short_horvertflip_short_600ms.mp4	26.single_touch_with_a_blunt_syringe_short_horvertflip_short_600ms.mp4	70.8014824042184	71.40978981483204	0.6083074106136337				
22.09814453125	0.2	45257	27	47	0	0	0	27	277	stimuli\Videos_short_600ms_vertflip\16.repeated_touch_with_plastic_brush_short_vertflip_short_600ms.mp4	16.repeated_touch_with_plastic_brush_short_vertflip_short_600ms.mp4	71.60146193582841	72.20975996265042	0.6082980268220126				
22.89794921875	0.2	46895	28	47	0	0	0	28	288	stimuli\Videos_short_600ms_vertflip\26.single_touch_with_a_blunt_syringe_short_vertflip_short_600ms.mp4	26.single_touch_with_a_blunt_syringe_short_vertflip_short_600ms.mp4	72.40145055798348	73.00973186992996	0.6082813119464845				
23.69775390625	0.2	48533	29	47	0	0	0	29	203	stimuli\Videos_short_600ms_horvertflip\30.finger_pulling_back_another_finger_short_horvertflip_short_600ms.mp4	30.finger_pulling_back_another_finger_short_horvertflip_short_600ms.mp4	73.20141777336539	73.80971052180757	0.6082927484421816				
24.498046875	0.2	50172	30	47	0	0	1	30	366	stimuli\Targets_short_600ms_horflip\brush-stroke_short_horflip_short_600ms.mp4	brush-stroke_short_horflip_short_600ms.mp4	74.00139994416531	74.6096894669281	0.6082895227627887				
25.2978515625	0.2	51810	31	47	0	0	0	31	286	stimuli\Videos_short_600ms_vertflip\24.single_stroke_top_to_bottom_with_a_spoon_short_vertflip_short_600ms.mp4	24.single_stroke_top_to_bottom_with_a_spoon_short_vertflip_short_600ms.mp4	74.80137654333885	75.40967838232609	0.608301838987245				
26.09765625	0.2	53448	32	47	0	0	0	32	301	stimuli\Videos_short_600ms_vertflip\38.double_slap_with_pencil_short_vertflip_short_600ms.mp4	38.double_slap_with_pencil_short_vertflip_short_600ms.mp4	75.60135548845938	76.20967726800154	0.608321779542166				
26.89794921875	0.2	55087	33	47	0	0	0	33	202	stimuli\Videos_short_600ms_horvertflip\3.single_push_with_finger_short_horvertflip_short_600ms.mp4	3.single_push_with_finger_short_horvertflip_short_600ms.mp4	76.40133384709407	77.00965445366091	0.6083206065668492				
27.69775390625	0.2	56725	34	47	0	0	0	34	4	stimuli\Videos_short_600ms\13.single_touch_with_pen_short_short_600ms.mp4	13.single_touch_with_pen_short_short_600ms.mp4	77.20131455167575	77.80964248933014	0.6083279376543942				
28.49755859375	0.2	58363	35	47	0	0	0	35	2	stimuli\Videos_short_600ms\11.single_touch_with_lighter_short_short_600ms.mp4	11.single_touch_with_lighter_short_short_600ms.mp4	78.0012899778776	78.60961058444445	0.6083206065668492				
29.2978515625	0.2	60002	36	47	0	0	0	36	164	stimuli\Videos_short_600ms_horflip\77.tapping_with_all_fingers_short_horflip_short_600ms.mp4	77.tapping_with_all_fingers_short_horflip_short_600ms.mp4	78.80127068245929	79.40958659713215	0.6083159146728576				
30.09765625	0.2	61640	37	47	0	0	0	37	42	stimuli\Videos_short_600ms\48.single_slap_with_hand_short_short_600ms.mp4	48.single_slap_with_hand_short_short_600ms.mp4	79.60125813163904	80.20956642198144	0.6083082903423929				
30.89794921875	0.2	63279	38	47	0	0	0	38	256	stimuli\Videos_short_600ms_horvertflip\79.long_with_soft_brush_all_over_the_hand_short_horvertflip_short_600ms.mp4	79.long_with_soft_brush_all_over_the_hand_short_horvertflip_short_600ms.mp4	80.40122534702095	81.00954829953844	0.6083229525174829				
31.69775390625	0.2	64917	39	47	0	0	0	39	29	stimuli\Videos_short_600ms\36.single_slap_with_full_hand_short_short_600ms.mp4	36.single_slap_with_full_hand_short_short_600ms.mp4	81.20120751782088	81.80952519195489	0.6083176741340139				
32.49755859375	0.2	66555	40	47	0	0	0	40	40	stimuli\Videos_short_600ms\46.scratching_top_to_bottom_with_finger_nails_short_short_600ms.mp4	46.scratching_top_to_bottom_with_finger_nails_short_short_600ms.mp4	82.00118851564548	82.6095038438325	0.6083153281870182				
33.2978515625	0.2	68194	41	47	0	0	0	41	89	stimuli\Videos_short_600ms\90.repeated_touch_with_sponge_short_short_600ms.mp4	90.repeated_touch_with_sponge_short_short_600ms.mp4	82.80115924995334	83.4094833754425	0.6083241254891618				
34.09765625	0.2	69832	42	47	0	0	0	42	239	stimuli\Videos_short_600ms_horvertflip\63.stroke_top_to_bottom_with_screwdriver_short_horvertflip_short_600ms.mp4	63.stroke_top_to_bottom_with_screwdriver_short_horvertflip_short_600ms.mp4	83.60114405994318	84.20946261380595	0.6083185538627731				
34.8974609375	0.2	71470	43	47	0	0	0	43	115	stimuli\Videos_short_600ms_horflip\32.single_(long)pinch_with_fingers_short_horflip_short_600ms.mp4	32.single_(long)pinch_with_fingers_short_horflip_short_600ms.mp4	84.40117461590853	85.00944097244064	0.6082663565321127				
35.69775390625	0.2	73109	44	47	0	0	0	44	0	stimuli\Videos_short_600ms\1.repeated_touch_with_finger_fast_short_short_600ms.mp4	1.repeated_touch_with_finger_fast_short_short_600ms.mp4	85.20107614476365	85.80941815810002	0.6083420133363688				
36.49755859375	0.2	74747	45	47	0	0	0	45	39	stimuli\Videos_short_600ms\45.scratching_with_finger_nails_short_short_600ms.mp4	45.scratching_with_finger_nails_short_short_600ms.mp4	86.00108324125176	86.60939798295294	0.6083147417011787				
37.29736328125	0.2	76385	46	47	0	0	0	46	57	stimuli\Videos_short_600ms\61.single_hit_with_rolling_pin_short_short_600ms.mp4	61.single_hit_with_rolling_pin_short_short_600ms.mp4	86.80106746475576	87.40936490509193	0.6082974403361732				
38.09765625	0.2	78024	47	47	0	0	0	47	278	stimuli\Videos_short_600ms_vertflip\17.repeated_touch_with_rolling_pin_short_vertflip_short_600ms.mp4	17.repeated_touch_with_rolling_pin_short_vertflip_short_600ms.mp4	87.60104787609453	88.20936291103862	0.6083150349440984				
38.8974609375	0.2	79662	48	47	0	0	0	48	269	stimuli\Videos_short_600ms_horvertflip\90.repeated_touch_with_sponge_short_horvertflip_short_600ms.mp4	90.repeated_touch_with_sponge_short_horvertflip_short_600ms.mp4	88.40101743742707	89.00930901289394	0.6082915754668647				
39.697265625	0.2	81300	49	47	0	0	0	49	293	stimuli\Videos_short_600ms_vertflip\30.finger_pulling_back_another_finger_short_vertflip_short_600ms.mp4	30.finger_pulling_back_another_finger_short_vertflip_short_600ms.mp4	89.20100254065983	89.80932138776552	0.6083188471056928				
40.49755859375	0.2	82939	50	47	0	0	0	50	206	stimuli\Videos_short_600ms_horvertflip\33.scratch_top_to_bottom_with_scissors_short_horvertflip_short_600ms.mp4	33.scratch_top_to_bottom_with_scissors_short_horvertflip_short_600ms.mp4	90.00097650064345	90.609288896394	0.608312395750545				
41.29736328125	0.2	84577	51	47	0	0	0	51	92	stimuli\Videos_short_600ms_horflip\11.single_touch_with_lighter_short_horflip_short_600ms.mp4	11.single_touch_with_lighter_short_horflip_short_600ms.mp4	90.80095163359874	91.40927018746152	0.6083185538627731				
42.09716796875	0.2	86215	52	47	0	0	0	52	349	stimuli\Videos_short_600ms_vertflip\81.single_stroke_top_to_bottom_with_cotton_pad_short_vertflip_short_600ms.mp4	81.single_stroke_top_to_bottom_with_cotton_pad_short_vertflip_short_600ms.mp4	91.6009308719622	92.2092591028595	0.6083282308973139				
42.8974609375	0.2	87854	53	47	0	0	0	53	191	stimuli\Videos_short_600ms_horvertflip\2.single_touch_with_finger_short_horvertflip_short_600ms.mp4	2.single_touch_with_finger_short_horvertflip_short_600ms.mp4	92.40091128330096	93.00923980744484	0.6083285241438716				
43.697265625	0.2	89492	54	47	0	0	0	54	7	stimuli\Videos_short_600ms\16.repeated_touch_with_plastic_brush_short_short_600ms.mp4	16.repeated_touch_with_plastic_brush_short_short_600ms.mp4	93.20088876220689	93.80920848904498	0.60831972683809				
44.4970703125	0.2	91130	55	47	0	0	0	55	72	stimuli\Videos_short_600ms\75.(long)stroke_with_fingers_all_over_the_hand_short_short_600ms.mp4	75.(long)stroke_with_fingers_all_over_the_hand_short_short_600ms.mp4	94.00088794112526	94.60918948686958	0.6083015457443253				
45.29736328125	0.2	92769	56	47	0	0	0	56	100	stimuli\Videos_short_600ms_horflip\19.single_touch_with_rolling_pin_short_horflip_short_600ms.mp4	19.single_touch_with_rolling_pin_short_horflip_short_600ms.mp4	94.80084899839494	95.40916725901845	0.6083182606234914				
46.09716796875	0.2	94407	57	47	0	0	0	57	354	stimuli\Videos_short_600ms_vertflip\86.touch_top_to_bottom_with_hair_brush_short_vertflip_short_600ms.mp4	86.touch_top_to_bottom_with_hair_brush_short_vertflip_short_600ms.mp4	95.6008267705438	96.20914591089604	0.6083191403522505				
46.89697265625	0.2	96045	58	47	0	0	0	58	281	stimuli\Videos_short_600ms_vertflip\2.single_touch_with_finger_short_vertflip_short_600ms.mp4	2.single_touch_with_finger_short_vertflip_short_600ms.mp4	96.40080718188256	97.0091219235801	0.6083147416975407				
47.697265625	0.2	97684	59	47	0	0	0	59	201	stimuli\Videos_short_600ms_horvertflip\29.single_pinch_with_tweezers_short_horvertflip_short_600ms.mp4	29.single_pinch_with_tweezers_short_horvertflip_short_600ms.mp4	97.20082424865176	97.80908474031456	0.6082604916628043				
48.4970703125	0.2	99322	60	47	0	0	0	60	214	stimuli\Videos_short_600ms_horvertflip\40.repeated_push_with_finger_short_horvertflip_short_600ms.mp4	40.repeated_push_with_finger_short_horvertflip_short_600ms.mp4	98.00074425183992	98.60908098679649	0.6083367349565378				
49.296875	0.2	100960	61	47	0	0	0	61	11	stimuli\Videos_short_600ms\2.single_touch_with_finger_short_short_600ms.mp4	2.single_touch_with_finger_short_short_600ms.mp4	98.80071821182356	99.40905993192064	0.6083417200970871				
50.0966796875	0.2	102598	62	47	0	0	0	62	200	stimuli\Videos_short_600ms_horvertflip\28.single_injection_with_sharp_needle_short_horvertflip_short_600ms.mp4	28.single_injection_with_sharp_needle_short_horvertflip_short_600ms.mp4	99.60069862316232	100.20904063650232	0.6083420133400068				
50.89697265625	0.2	104237	63	47	0	0	0	63	142	stimuli\Videos_short_600ms_horflip\57.single_touch_with_nail_file_short_horflip_short_600ms.mp4	57.single_touch_with_nail_file_short_horflip_short_600ms.mp4	100.4006898845073	101.00901840864752	0.6083285241402336				
51.69677734375	0.2	105875	64	47	0	0	0	64	78	stimuli\Videos_short_600ms\80.stroke_with_sharp_stick_all_over_the_hand_short_short_600ms.mp4	80.stroke_with_sharp_stick_all_over_the_hand_short_short_600ms.mp4	101.20067704044412	101.80899735376806	0.6083203133239294				
52.49658203125	0.2	107513	65	47	0	0	0	65	81	stimuli\Videos_short_600ms\83.single_stroke_top_to_bottom_with_cotton_bud_short_short_600ms.mp4	83.single_stroke_top_to_bottom_with_cotton_bud_short_short_600ms.mp4	102.00066507611336	102.60897336645576	0.6083082903423929				
53.296875	0.2	109152	66	47	0	0	0	66	351	stimuli\Videos_short_600ms_vertflip\83.single_stroke_top_to_bottom_with_cotton_bud_short_vertflip_short_600ms.mp4	83.single_stroke_top_to_bottom_with_cotton_bud_short_vertflip_short_600ms.mp4	102.80063962258282	103.40893530345784	0.6082956808750168				
54.0966796875	0.2	110790	67	47	0	0	0	67	270	stimuli\Videos_short_600ms_vertflip\1.repeated_touch_with_finger_fast_short_vertflip_short_600ms.mp4	1.repeated_touch_with_finger_fast_short_vertflip_short_600ms.mp4	103.6006144622952	104.20893800129852	0.6083235390033224				
54.89697265625	0.2	112429	68	47	0	0	0	68	350	stimuli\Videos_short_600ms_vertflip\82.repeated_touch_with_cotton_bud_short_vertflip_short_600ms.mp4	82.repeated_touch_with_cotton_bud_short_vertflip_short_600ms.mp4	104.4005986857992	105.00889729911069	0.60829861331149				
55.69677734375	0.2	114067	69	47	0	0	0	69	247	stimuli\Videos_short_600ms_horvertflip\70.(long)stroke_with_finger_all_over_the_hand_short_horvertflip_short_600ms.mp4	70.(long)stroke_with_finger_all_over_the_hand_short_horvertflip_short_600ms.mp4	105.2005741119974	105.80888856045569	0.608314448458259				
56.49658203125	0.2	115705	70	47	0	0	0	70	128	stimuli\Videos_short_600ms_horflip\44.pushing_top_to_bottom_with_finger_short_horflip_short_600ms.mp4	44.pushing_top_to_bottom_with_finger_short_horflip_short_600ms.mp4	106.00055364360742	106.60887366368844	0.6083200200810097				
57.296875	0.2	117344	71	47	0	0	0	71	339	stimuli\Videos_short_600ms_vertflip\72.(short)stroke_with_finger_all_over_the_hand_short_vertflip_short_600ms.mp4	72.(short)stroke_with_finger_all_over_the_hand_short_vertflip_short_600ms.mp4	106.80053141575264	107.40885231556604	0.6083208998134069				
58.0966796875	0.2	118982	72	47	0	0	0	72	44	stimuli\Videos_short_600ms\5.repeated_tap_with_finger_moving_from_top_to_bottom_short_short_600ms.mp4	5.repeated_tap_with_finger_moving_from_top_to_bottom_short_short_600ms.mp4	107.6005127068238	108.2088295012254	0.6083167944016168				
58.896484375	0.2	120620	73	47	0	0	1	73	373	stimuli\Targets_short_600ms_horvertflip\chopstick-silver-tap_short_vertflip_short_600ms.mp4	chopstick-silver-tap_short_vertflip_short_600ms.mp4	108.40048989248317	109.00880727337426	0.6083173808910942				
59.69677734375	0.2	122259	74	47	0	0	0	74	280	stimuli\Videos_short_600ms_vertflip\19.single_touch_with_rolling_pin_short_vertflip_short_600ms.mp4	19.single_touch_with_rolling_pin_short_vertflip_short_600ms.mp4	109.2004160537872	109.80879677525807	0.6083807214708941				
60.49658203125	0.2	123897	75	47	0	0	0	75	284	stimuli\Videos_short_600ms_vertflip\22.single_touch_with_metal_chopstick_short_vertflip_short_600ms.mp4	22.single_touch_with_metal_chopstick_short_vertflip_short_600ms.mp4	110.00044807597078	110.6087648703724	0.6083167944016168				
61.29638671875	0.2	125535	76	47	0	0	1	76	380	stimuli\Targets_short_600ms_vertflip\chopstickwood-tap_short_horvertflip_short_600ms.mp4	chopstickwood-tap_short_horvertflip_short_600ms.mp4	110.80042555487309	111.40874352225	0.6083179673769337				
62.0966796875	0.2	127174	77	47	0	0	0	77	190	stimuli\Videos_short_600ms_horvertflip\19.single_touch_with_rolling_pin_short_horvertflip_short_600ms.mp4	19.single_touch_with_rolling_pin_short_horvertflip_short_600ms.mp4	111.60040655269768	112.20872569304991	0.6083191403522505				
62.896484375	0.2	128812	78	47	0	0	0	78	331	stimuli\Videos_short_600ms_vertflip\65.stroke_top_to_bottom_with_stanley_knife_short_vertflip_short_600ms.mp4	65.stroke_top_to_bottom_with_stanley_knife_short_vertflip_short_600ms.mp4	112.40039253566285	113.00869994627648	0.6083074106136337				
63.6962890625	0.2	130450	79	47	0	0	0	79	185	stimuli\Videos_short_600ms_horvertflip\14.repeated_touch_with_pencil_short_horvertflip_short_600ms.mp4	14.repeated_touch_with_pencil_short_horvertflip_short_600ms.mp4	113.20034010373638	113.808681237344	0.6083411336076097				
64.49658203125	0.2	132089	80	47	0	0	0	80	258	stimuli\Videos_short_600ms_horvertflip\80.stroke_with_sharp_stick_all_over_the_hand_short_horvertflip_short_600ms.mp4	80.stroke_with_sharp_stick_all_over_the_hand_short_horvertflip_short_600ms.mp4	114.00034749347104	114.6086598892216	0.608312395750545				
65.29638671875	0.2	133727	81	47	0	0	0	81	233	stimuli\Videos_short_600ms_horvertflip\58.single_slap_with_pencil_short_horvertflip_short_600ms.mp4	58.single_slap_with_pencil_short_horvertflip_short_600ms.mp4	114.80029887370983	115.40861361540738	0.6083147416975407				
66.0966796875	0.2	135366	82	47	0	0	0	82	307	stimuli\Videos_short_600ms_vertflip\43.touch_top_to_bottom_with_sharp_wooden_stick_short_vertflip_short_600ms.mp4	43.touch_top_to_bottom_with_sharp_wooden_stick_short_vertflip_short_600ms.mp4	115.60030714317328	116.2086177794663	0.6083106362930266				
66.896484375	0.2	137004	83	47	0	0	0	83	33	stimuli\Videos_short_600ms\4.repeated_tap_with_finger_slow_short_short_600ms.mp4	4.repeated_tap_with_finger_slow_short_short_600ms.mp4	116.4002813963998	117.00859789756214	0.608316501162335				
67.6962890625	0.2	138642	84	47	0	0	0	84	328	stimuli\Videos_short_600ms_vertflip\62.touch_top_to_bottom_with_scissors_short_vertflip_short_600ms.mp4	62.touch_top_to_bottom_with_scissors_short_vertflip_short_600ms.mp4	117.20026356719973	117.80857860214384	0.6083150349440984				
68.49658203125	0.2	140281	85	47	0	0	0	85	204	stimuli\Videos_short_600ms_horvertflip\31.hand_grabbing_wrist_short_horvertflip_short_600ms.mp4	31.hand_grabbing_wrist_short_horvertflip_short_600ms.mp4	118.0002392866445	118.6085534418562	0.6083141552117013				
69.29638671875	0.2	141919	86	47	0	0	1	86	379	stimuli\Targets_short_600ms_vertflip\chopstick-silver-tap_short_horvertflip_short_600ms.mp4	chopstick-silver-tap_short_horvertflip_short_600ms.mp4	118.80022556284894	119.40850922074604	0.6082836578971182				
70.09619140625	0.2	143557	87	47	0	0	0	87	101	stimuli\Videos_short_600ms_horflip\2.single_touch_with_finger_short_horflip_short_600ms.mp4	2.single_touch_with_finger_short_horflip_short_600ms.mp4	119.60019512418148	120.20851250507258	0.6083173808910942				
70.896484375	0.2	145196	88	47	0	0	0	88	292	stimuli\Videos_short_600ms_vertflip\3.single_push_with_finger_short_vertflip_short_600ms.mp4	3.single_push_with_finger_short_vertflip_short_600ms.mp4	120.400176415249	121.00846593801543	0.6082895227664267				
71.6962890625	0.2	146834	89	47	0	0	0	89	95	stimuli\Videos_short_600ms_horflip\14.repeated_touch_with_pencil_short_horflip_short_600ms.mp4	14.repeated_touch_with_pencil_short_horflip_short_600ms.mp4	121.20015506712662	121.80846922234196	0.6083141552153393				
72.49609375	0.2	148472	90	47	0	0	0	90	34	stimuli\Videos_short_600ms\40.repeated_push_with_finger_short_short_600ms.mp4	40.repeated_push_with_finger_short_short_600ms.mp4	122.00013049332848	122.60845139313824	0.6083208998097689				
73.29638671875	0.2	150111	91	47	0	0	0	91	313	stimuli\Videos_short_600ms_vertflip\49.repeated_slap_with_hand_short_vertflip_short_600ms.mp4	49.repeated_slap_with_hand_short_vertflip_short_600ms.mp4	122.80012849927152	123.408434150424	0.6083056511524774				
74.09619140625	0.2	151749	92	47	0	0	0	92	1	stimuli\Videos_short_600ms\10.single_touch_with_knife_short_short_600ms.mp4	10.single_touch_with_knife_short_short_600ms.mp4	123.60009072951652	124.20840957662584	0.6083188471093308				
74.89599609375	0.2	153387	93	47	0	0	0	93	211	stimuli\Videos_short_600ms_horvertflip\38.double_slap_with_pencil_short_horvertflip_short_600ms.mp4	38.double_slap_with_pencil_short_horvertflip_short_600ms.mp4	124.40007055436944	125.00838822850346	0.6083176741340139				
75.6962890625	0.2	155026	94	47	0	0	0	94	176	stimuli\Videos_short_600ms_horflip\88.repeated_stroke_with_plastic_brush_short_horflip_short_600ms.mp4	88.repeated_stroke_with_plastic_brush_short_horflip_short_600ms.mp4	125.2000509657082	125.80836893308516	0.6083179673769337	5.0	5.0	6.410475124746881	1.0
91.27099609375	0.2	186923	95	47	1	0	0	0	59	stimuli\Videos_short_600ms\63.stroke_top_to_bottom_with_screwdriver_short_short_600ms.mp4	63.stroke_top_to_bottom_with_screwdriver_short_short_600ms.mp4	167.17395024714278	167.78224563477488	0.6082953876320971				
92.07080078125	0.2	188561	96	47	1	0	0	1	170	stimuli\Videos_short_600ms_horflip\82.repeated_touch_with_cotton_bud_short_horflip_short_600ms.mp4	82.repeated_touch_with_cotton_bud_short_horflip_short_600ms.mp4	167.97393857605493	168.58225067856256	0.6083121025076252				
92.87060546875	0.2	190199	97	47	1	0	0	2	181	stimuli\Videos_short_600ms_horvertflip\10.single_touch_with_knife_short_horvertflip_short_600ms.mp4	10.single_touch_with_knife_short_horvertflip_short_600ms.mp4	168.7739084306304	169.38223255611956	0.6083241254891618				
93.6708984375	0.2	191838	98	47	1	0	0	3	174	stimuli\Videos_short_600ms_horflip\86.touch_top_to_bottom_with_hair_brush_short_horflip_short_600ms.mp4	86.touch_top_to_bottom_with_hair_brush_short_horflip_short_600ms.mp4	169.57388561628977	170.18221414043	0.6083285241402336				
94.470703125	0.2	193476	99	47	1	0	0	4	88	stimuli\Videos_short_600ms\9.single_touch_with_hammer_short_short_600ms.mp4	9.single_touch_with_hammer_short_short_600ms.mp4	170.3738704262796	170.9821819423014	0.6083115160217858				
95.2705078125	0.2	195114	100	47	1	0	0	5	71	stimuli\Videos_short_600ms\74.fingers_walking_from_top_to_bottom_short_short_600ms.mp4	74.fingers_walking_from_top_to_bottom_short_short_600ms.mp4	171.17384497274907	171.78216440634424	0.6083194335951703				
96.07080078125	0.2	196753	101	47	1	0	0	6	275	stimuli\Videos_short_600ms_vertflip\14.repeated_touch_with_pencil_short_vertflip_short_600ms.mp4	14.repeated_touch_with_pencil_short_vertflip_short_600ms.mp4	171.97382333138376	172.58214188525017	0.6083185538664111				
96.87060546875	0.2	198391	102	47	1	0	0	7	312	stimuli\Videos_short_600ms_vertflip\48.single_slap_with_hand_short_vertflip_short_600ms.mp4	48.single_slap_with_hand_short_vertflip_short_600ms.mp4	172.7738011035326	173.38211789793422	0.6083167944016168				
97.67041015625	0.2	200029	103	47	1	0	0	8	172	stimuli\Videos_short_600ms_horflip\84.single_touch_with_cotton_bud_short_horflip_short_600ms.mp4	84.single_touch_with_cotton_bud_short_horflip_short_600ms.mp4	173.5737818081143	174.18209918900538	0.6083173808910942				
98.470703125	0.2	201668	104	47	1	0	0	9	159	stimuli\Videos_short_600ms_horflip\72.(short)stroke_with_finger_all_over_the_hand_short_horflip_short_600ms.mp4	72.(short)stroke_with_finger_all_over_the_hand_short_horflip_short_600ms.mp4	174.37374843701036	174.98207373547484	0.6083252984644787				
99.2705078125	0.2	203306	105	47	1	0	0	10	47	stimuli\Videos_short_600ms\52.touch_top_to_bottom_with_hammer_short_short_600ms.mp4	52.touch_top_to_bottom_with_hammer_short_short_600ms.mp4	175.1737144794206	175.78205502654237	0.6083405471217702				
100.0703125	0.2	204944	106	47	1	0	0	11	8	stimuli\Videos_short_600ms\17.repeated_touch_with_rolling_pin_short_short_600ms.mp4	17.repeated_touch_with_rolling_pin_short_short_600ms.mp4	175.97369342454112	176.5820351446382	0.6083417200970871				
100.87060546875	0.2	206583	107	47	1	0	0	12	152	stimuli\Videos_short_600ms_horflip\66.stroke_top_to_bottom_with_sponge_short_horflip_short_600ms.mp4	66.stroke_top_to_bottom_with_sponge_short_horflip_short_600ms.mp4	176.7736823399391	177.38201555597698	0.6083332160378632				
101.67041015625	0.2	208221	108	47	1	0	0	13	140	stimuli\Videos_short_600ms_horflip\55.touch_top_to_bottom_with_nail_file_short_horflip_short_600ms.mp4	55.touch_top_to_bottom_with_nail_file_short_horflip_short_600ms.mp4	177.5736501418105	178.18199391461167	0.6083437728011631				
102.47021484375	0.2	209859	109	47	1	0	1	14	360	stimuli\Targets_short_600ms\brush-stroke_short_short_600ms.mp4	brush-stroke_short_short_600ms.mp4	178.37364374910248	178.9819705137852	0.6083267646827153				
103.2705078125	0.2	211498	110	47	1	0	0	15	338	stimuli\Videos_short_600ms_vertflip\71.single_stroke_with_finger_top_to_bottom_short_vertflip_short_600ms.mp4	71.single_stroke_with_finger_top_to_bottom_short_vertflip_short_600ms.mp4	179.1736584699247	179.78194857917697	0.6082901092522661				
104.0703125	0.2	213136	111	47	1	0	1	16	376	stimuli\Targets_short_600ms_horvertflip\hand-pinch_short_vertflip_short_600ms.mp4	hand-pinch_short_vertflip_short_600ms.mp4	179.9736160082757	180.5819275242975	0.6083115160217858				
104.8701171875	0.2	214774	112	47	1	0	0	17	154	stimuli\Videos_short_600ms_horflip\68.stroke_top_to_bottom_with_shawl_short_horflip_short_600ms.mp4	68.stroke_top_to_bottom_with_shawl_short_horflip_short_600ms.mp4	180.77360081826555	181.3819099883403	0.60830917007479				
105.67041015625	0.2	216413	113	47	1	0	0	18	183	stimuli\Videos_short_600ms_horvertflip\12.repeated_touch_with_nail_file_short_horvertflip_short_600ms.mp4	12.repeated_touch_with_nail_file_short_horvertflip_short_600ms.mp4	181.5735721390556	182.18189098616497	0.6083188471093308				
106.47021484375	0.2	218051	114	47	1	0	1	19	363	stimuli\Targets_short_600ms\finger-tap_short_short_600ms.mp4	finger-tap_short_short_600ms.mp4	182.37355020444735	182.981862306955	0.6083121025076252				
107.27001953125	0.2	219689	115	47	1	0	0	20	126	stimuli\Videos_short_600ms_horflip\42.single_slap_with_plastic_whisk_short_horflip_short_600ms.mp4	42.single_slap_with_plastic_whisk_short_horflip_short_600ms.mp4	183.1735291495679	183.781848876406	0.60831972683809				
108.0703125	0.2	221328	116	47	1	0	0	21	346	stimuli\Videos_short_600ms_vertflip\79.long_with_soft_brush_all_over_the_hand_short_vertflip_short_600ms.mp4	79.long_with_soft_brush_all_over_the_hand_short_vertflip_short_600ms.mp4	183.97350926766376	184.5818254755795	0.6083162079157773				
108.8701171875	0.2	222966	117	47	1	0	0	22	136	stimuli\Videos_short_600ms_horflip\51.repeated_touch_with_hammer_short_horflip_short_600ms.mp4	51.repeated_touch_with_hammer_short_horflip_short_600ms.mp4	184.7734882127843	185.38180852611185	0.6083203133275674				
109.669921875	0.2	224604	118	47	1	0	0	23	26	stimuli\Videos_short_600ms\33.scratch_top_to_bottom_with_scissors_short_short_600ms.mp4	33.scratch_top_to_bottom_with_scissors_short_short_600ms.mp4	185.5734671579048	186.18178483203883	0.6083176741340139				
110.47021484375	0.2	226243	119	47	1	0	0	24	325	stimuli\Videos_short_600ms_vertflip\6.single_touch_with_flat_hand_short_vertflip_short_600ms.mp4	6.single_touch_with_flat_hand_short_vertflip_short_600ms.mp4	186.37344434356783	186.981770815004	0.6083264714361576				
111.27001953125	0.2	227881	120	47	1	0	0	25	116	stimuli\Videos_short_600ms_horflip\33.scratch_top_to_bottom_with_scissors_short_horflip_short_600ms.mp4	33.scratch_top_to_bottom_with_scissors_short_horflip_short_600ms.mp4	187.1734241684171	187.7817400830936	0.6083159146764956				
112.0703125	0.2	229520	121	47	1	0	0	26	125	stimuli\Videos_short_600ms_horflip\41.injection_with_blunt_syringe_short_horflip_short_600ms.mp4	41.injection_with_blunt_syringe_short_horflip_short_600ms.mp4	187.97340545948828	188.5817199079429	0.608314448454621				
112.8701171875	0.2	231158	122	47	1	0	0	27	263	stimuli\Videos_short_600ms_horvertflip\85.touch_top_to_bottom_with_fabric_short_horvertflip_short_600ms.mp4	85.touch_top_to_bottom_with_fabric_short_horvertflip_short_600ms.mp4	188.7733808856865	189.38170002603871	0.6083191403522505				
113.669921875	0.2	232796	123	47	1	0	0	28	221	stimuli\Videos_short_600ms_horvertflip\47.(long)scratching_with_finger_nails_short_horvertflip_short_600ms.mp4	47.(long)scratching_with_finger_nails_short_horvertflip_short_600ms.mp4	189.57336071053945	190.1816792644022	0.6083185538627731				
114.47021484375	0.2	234435	124	47	1	0	1	29	372	stimuli\Targets_short_600ms_horvertflip\brush-stroke_short_vertflip_short_600ms.mp4	brush-stroke_short_vertflip_short_600ms.mp4	190.37334874620865	190.9816579162798	0.608309170071152				
115.27001953125	0.2	236073	125	47	1	0	0	30	210	stimuli\Videos_short_600ms_horvertflip\37.single_stab_with_nail_file_short_horvertflip_short_600ms.mp4	37.single_stab_with_nail_file_short_horvertflip_short_600ms.mp4	191.17332036024163	191.78163598167157	0.6083156214299379				
116.06982421875	0.2	237711	126	47	1	0	0	31	336	stimuli\Videos_short_600ms_vertflip\7.repeated_touch_with_hairbrush_short_vertflip_short_600ms.mp4	7.repeated_touch_with_hairbrush_short_vertflip_short_600ms.mp4	191.9732937337394	192.5816158065245	0.6083220727850858				
116.8701171875	0.2	239350	127	47	1	0	0	32	321	stimuli\Videos_short_600ms_vertflip\56.repeated_touch_with_nail_file_short_vertflip_short_600ms.mp4	56.repeated_touch_with_nail_file_short_vertflip_short_600ms.mp4	192.77325361803744	193.3815932854268	0.6083396673893731				
117.669921875	0.2	240988	128	47	1	0	0	33	296	stimuli\Videos_short_600ms_vertflip\33.scratch_top_to_bottom_with_scissors_short_vertflip_short_600ms.mp4	33.scratch_top_to_bottom_with_scissors_short_vertflip_short_600ms.mp4	193.57323139018263	194.1815754562267	0.6083440660440829				
118.4697265625	0.2	242626	129	47	1	0	0	34	273	stimuli\Videos_short_600ms_vertflip\12.repeated_touch_with_nail_file_short_vertflip_short_600ms.mp4	12.repeated_touch_with_nail_file_short_vertflip_short_600ms.mp4	194.3732422988396	194.981552935129	0.6083106362893886				
119.27001953125	0.2	244265	130	47	1	0	0	35	108	stimuli\Videos_short_600ms_horflip\26.single_touch_with_a_blunt_syringe_short_horflip_short_600ms.mp4	26.single_touch_with_a_blunt_syringe_short_horflip_short_600ms.mp4	195.17321772503783	195.78153774512248	0.6083200200846477				
120.06982421875	0.2	245903	131	47	1	0	0	36	262	stimuli\Videos_short_600ms_horvertflip\84.single_touch_with_cotton_bud_short_horvertflip_short_600ms.mp4	84.single_touch_with_cotton_bud_short_horvertflip_short_600ms.mp4	195.973223355315	196.58151786321469	0.6082945078997				
120.86962890625	0.2	247541	132	47	1	0	0	37	226	stimuli\Videos_short_600ms_horvertflip\51.repeated_touch_with_hammer_short_horvertflip_short_600ms.mp4	51.repeated_touch_with_hammer_short_horvertflip_short_600ms.mp4	196.7731720963602	197.3814648448024	0.6082927484421816				
121.669921875	0.2	249180	133	47	1	0	0	38	79	stimuli\Videos_short_600ms\81.single_stroke_top_to_bottom_with_cotton_pad_short_short_600ms.mp4	81.single_stroke_top_to_bottom_with_cotton_pad_short_short_600ms.mp4	197.5731522144561	198.18146842237184	0.6083162079157773				
122.4697265625	0.2	250818	134	47	1	0	0	39	345	stimuli\Videos_short_600ms_vertflip\78.single_stroke_top_to_bottom_with_soft_brush_short_vertflip_short_600ms.mp4	78.single_stroke_top_to_bottom_with_soft_brush_short_vertflip_short_600ms.mp4	198.3731326257948	198.98144678100653	0.6083141552117013				
123.26953125	0.2	252456	135	47	1	0	0	40	173	stimuli\Videos_short_600ms_horflip\85.touch_top_to_bottom_with_fabric_short_horflip_short_600ms.mp4	85.touch_top_to_bottom_with_fabric_short_horflip_short_600ms.mp4	199.1731130371336	199.78142924504937	0.6083162079157773				
124.06982421875	0.2	254095	136	47	1	0	0	41	308	stimuli\Videos_short_600ms_vertflip\44.pushing_top_to_bottom_with_finger_short_vertflip_short_600ms.mp4	44.pushing_top_to_bottom_with_finger_short_vertflip_short_600ms.mp4	199.97309374171527	200.58140613746585	0.608312395750545				
124.86962890625	0.2	255733	137	47	1	0	0	42	327	stimuli\Videos_short_600ms_vertflip\61.single_hit_with_rolling_pin_short_vertflip_short_600ms.mp4	61.single_hit_with_rolling_pin_short_vertflip_short_600ms.mp4	200.7730703408888	201.38138654880456	0.6083162079157773				
125.66943359375	0.2	257371	138	47	1	0	0	43	276	stimuli\Videos_short_600ms_vertflip\15.single_stroke_top_to_bottom_with_a_plastic_whisk_short_vertflip_short_600ms.mp4	15.single_stroke_top_to_bottom_with_a_plastic_whisk_short_vertflip_short_600ms.mp4	201.5730651211561	202.18136461419635	0.6082994930402492				
126.4697265625	0.2	259010	139	47	1	0	1	44	378	stimuli\Targets_short_600ms_vertflip\brush-stroke_short_horvertflip_short_600ms.mp4	brush-stroke_short_horvertflip_short_600ms.mp4	202.3730302838339	202.98134209309865	0.6083118092647055				
127.26953125	0.2	260648	140	47	1	0	0	45	337	stimuli\Videos_short_600ms_vertflip\70.(long)stroke_with_finger_all_over_the_hand_short_vertflip_short_600ms.mp4	70.(long)stroke_with_finger_all_over_the_hand_short_vertflip_short_600ms.mp4	203.17302535734416	203.78132162470865	0.6082962673644943				
128.0693359375	0.2	262286	141	47	1	0	0	46	320	stimuli\Videos_short_600ms_vertflip\55.touch_top_to_bottom_with_nail_file_short_vertflip_short_600ms.mp4	55.touch_top_to_bottom_with_nail_file_short_vertflip_short_600ms.mp4	203.9730043024647	204.58130115631505	0.6082968538503337				
128.86962890625	0.2	263925	142	47	1	0	0	47	52	stimuli\Videos_short_600ms\57.single_touch_with_nail_file_short_short_600ms.mp4	57.single_touch_with_nail_file_short_short_600ms.mp4	204.7729627205481	205.3812792217068	0.6083165011586971				
129.66943359375	0.2	265563	143	47	1	0	0	48	117	stimuli\Videos_short_600ms_horflip\34.repeated_punch_with_hand_short_horflip_short_600ms.mp4	34.repeated_punch_with_hand_short_horflip_short_600ms.mp4	205.5729463575626	206.1812602195314	0.6083138619687816				
130.46923828125	0.2	267201	144	47	1	0	0	49	323	stimuli\Videos_short_600ms_vertflip\58.single_slap_with_pencil_short_vertflip_short_600ms.mp4	58.single_slap_with_pencil_short_vertflip_short_600ms.mp4	206.37290418915657	206.98123505924377	0.6083308700872294				
131.26953125	0.2	268840	145	47	1	0	0	50	60	stimuli\Videos_short_600ms\64.repeated_touch_with_screwdriver_short_short_600ms.mp4	64.repeated_touch_with_screwdriver_short_short_600ms.mp4	207.1729098194301	207.78121693680075	0.608307117370714				
132.0693359375	0.2	270478	146	47	1	0	0	51	65	stimuli\Videos_short_600ms\69.stroke_with_soft_sock_short_short_600ms.mp4	69.stroke_with_soft_sock_short_short_600ms.mp4	207.97287791454437	208.58119412246015	0.6083162079157773				
132.86962890625	0.2	272117	147	47	1	0	0	52	282	stimuli\Videos_short_600ms_vertflip\20.single_touch_with_screwdriver_short_vertflip_short_600ms.mp4	20.single_touch_with_screwdriver_short_vertflip_short_600ms.mp4	208.77285246101383	209.38117336082723	0.6083208998134069				
133.66943359375	0.2	273755	148	47	1	0	0	53	343	stimuli\Videos_short_600ms_vertflip\76.tickle_with_fingers_from_top_to_bottom_short_vertflip_short_600ms.mp4	76.tickle_with_fingers_from_top_to_bottom_short_vertflip_short_600ms.mp4	209.57283756424656	210.18115230594776	0.6083147417011787				
134.46923828125	0.2	275393	149	47	1	0	1	54	383	stimuli\Targets_short_600ms_vertflip\hand-stroke_short_horvertflip_short_600ms.mp4	hand-stroke_short_horvertflip_short_600ms.mp4	210.37283498370743	210.98113183755413	0.6082968538466957				
135.26953125	0.2	277032	150	47	1	0	0	55	124	stimuli\Videos_short_600ms_horflip\40.repeated_push_with_finger_short_horflip_short_600ms.mp4	40.repeated_push_with_finger_short_horflip_short_600ms.mp4	211.1728057180117	211.78111488808645	0.60830917007479				
136.0693359375	0.2	278670	151	47	1	0	0	56	289	stimuli\Videos_short_600ms_vertflip\27.single_push_with_a_plastic_whisk_short_vertflip_short_600ms.mp4	27.single_push_with_a_plastic_whisk_short_vertflip_short_600ms.mp4	211.9727732266365	212.5810917805029	0.6083185538664111				
136.869140625	0.2	280308	152	47	1	0	0	57	225	stimuli\Videos_short_600ms_horvertflip\50.single_(long)hard_push_with_thumb_short_horvertflip_short_600ms.mp4	50.single_(long)hard_push_with_thumb_short_horvertflip_short_600ms.mp4	212.77276742041795	213.38107541751745	0.6083079970994731				
137.66943359375	0.2	281947	153	47	1	0	0	58	318	stimuli\Videos_short_600ms_vertflip\53.touch_top_to_bottom_with_knife_short_vertflip_short_600ms.mp4	53.touch_top_to_bottom_with_knife_short_vertflip_short_600ms.mp4	213.5727311168812	214.18104351263173	0.608312395750545				
138.46923828125	0.2	283585	154	47	1	0	0	59	137	stimuli\Videos_short_600ms_horflip\52.touch_top_to_bottom_with_hammer_short_horflip_short_600ms.mp4	52.touch_top_to_bottom_with_hammer_short_horflip_short_600ms.mp4	214.37271064848755	214.98103477397672	0.6083241254891618				
139.26904296875	0.2	285223	155	47	1	0	0	60	355	stimuli\Videos_short_600ms_vertflip\87.single_stroke_top_to_bottom_with_plastic_brush_short_vertflip_short_600ms.mp4	87.single_stroke_top_to_bottom_with_plastic_brush_short_vertflip_short_600ms.mp4	215.1726907665834	215.7810069744992	0.6083162079157773				
140.0693359375	0.2	286862	156	47	1	0	0	61	186	stimuli\Videos_short_600ms_horvertflip\15.single_stroke_top_to_bottom_with_a_plastic_whisk_short_horvertflip_short_600ms.mp4	15.single_stroke_top_to_bottom_with_a_plastic_whisk_short_horvertflip_short_600ms.mp4	215.97266824548933	216.5809950101684	0.6083267646790773				
140.869140625	0.2	288500	157	47	1	0	0	62	83	stimuli\Videos_short_600ms\85.touch_top_to_bottom_with_fabric_short_short_600ms.mp4	85.touch_top_to_bottom_with_fabric_short_short_600ms.mp4	216.77264895007104	217.38096339852564	0.608314448454621				
141.6689453125	0.2	290138	158	47	1	0	0	63	244	stimuli\Videos_short_600ms_horvertflip\68.stroke_top_to_bottom_with_shawl_short_horvertflip_short_600ms.mp4	68.stroke_top_to_bottom_with_shawl_short_horvertflip_short_600ms.mp4	217.57262496275507	218.1809438098644	0.6083188471093308				
142.46923828125	0.2	291777	159	47	1	0	0	64	250	stimuli\Videos_short_600ms_horvertflip\73.single_stroke_with_flat_hand_short_horvertflip_short_600ms.mp4	73.single_stroke_with_flat_hand_short_horvertflip_short_600ms.mp4	218.37262414167344	218.98092070228088	0.608296560607414				
143.26904296875	0.2	293415	160	47	1	0	0	65	245	stimuli\Videos_short_600ms_horvertflip\69.stroke_with_soft_sock_short_horvertflip_short_600ms.mp4	69.stroke_with_soft_sock_short_horvertflip_short_600ms.mp4	219.1725857854326	219.78090257983783	0.6083167944052548				
144.06884765625	0.2	295053	161	47	1	0	0	66	50	stimuli\Videos_short_600ms\55.touch_top_to_bottom_with_nail_file_short_short_600ms.mp4	55.touch_top_to_bottom_with_nail_file_short_short_600ms.mp4	219.97256590352845	220.5808791790114	0.6083132754829421				
144.869140625	0.2	296692	162	47	1	0	0	67	169	stimuli\Videos_short_600ms_horflip\81.single_stroke_top_to_bottom_with_cotton_pad_short_horflip_short_600ms.mp4	81.single_stroke_top_to_bottom_with_cotton_pad_short_horflip_short_600ms.mp4	220.7725451418919	221.38085988359308	0.6083147417011787				
145.6689453125	0.2	298330	163	47	1	0	0	68	353	stimuli\Videos_short_600ms_vertflip\85.touch_top_to_bottom_with_fabric_short_vertflip_short_600ms.mp4	85.touch_top_to_bottom_with_fabric_short_vertflip_short_600ms.mp4	221.572522034312	222.18083912195652	0.6083170876445365				
146.46875	0.2	299968	164	47	1	0	0	69	16	stimuli\Videos_short_600ms\24.single_stroke_top_to_bottom_with_a_spoon_short_short_600ms.mp4	24.single_stroke_top_to_bottom_with_a_spoon_short_short_600ms.mp4	222.37250860375937	222.9808171873483	0.6083085835889506				
147.26904296875	0.2	301607	165	47	1	0	0	70	193	stimuli\Videos_short_600ms_horvertflip\21.repeated_touch_with_metal_chopstick_short_horvertflip_short_600ms.mp4	21.repeated_touch_with_metal_chopstick_short_horvertflip_short_600ms.mp4	223.17247435292663	223.7807961324688	0.608321779542166				
148.06884765625	0.2	303245	166	47	1	0	0	71	143	stimuli\Videos_short_600ms_horflip\58.single_slap_with_pencil_short_horflip_short_600ms.mp4	58.single_slap_with_pencil_short_horflip_short_600ms.mp4	223.9724600426489	224.58077478434643	0.6083147416975407				
148.86865234375	0.2	304883	167	47	1	0	0	72	329	stimuli\Videos_short_600ms_vertflip\63.stroke_top_to_bottom_with_screwdriver_short_vertflip_short_600ms.mp4	63.stroke_top_to_bottom_with_screwdriver_short_vertflip_short_600ms.mp4	224.77243341614303	225.38075372946696	0.6083203133239294				
149.6689453125	0.2	306522	168	47	1	0	0	73	58	stimuli\Videos_short_600ms\62.touch_top_to_bottom_with_scissors_short_short_600ms.mp4	62.touch_top_to_bottom_with_scissors_short_short_600ms.mp4	225.57242057207984	226.1807370732422	0.608316501162335				
150.46875	0.2	308160	169	47	1	0	1	74	374	stimuli\Targets_short_600ms_horvertflip\chopstickwood-tap_short_vertflip_short_600ms.mp4	chopstickwood-tap_short_vertflip_short_600ms.mp4	226.37250508484067	226.9807148453874	0.6082097605467425				
151.26904296875	0.2	309799	170	47	1	0	0	75	265	stimuli\Videos_short_600ms_horvertflip\87.single_stroke_top_to_bottom_with_plastic_brush_short_horvertflip_short_600ms.mp4	87.single_stroke_top_to_bottom_with_plastic_brush_short_horvertflip_short_600ms.mp4	227.17237289069817	227.78068763239935	0.6083147417011787				
152.06884765625	0.2	311437	171	47	1	0	0	76	342	stimuli\Videos_short_600ms_vertflip\75.(long)stroke_with_fingers_all_over_the_hand_short_vertflip_short_600ms.mp4	75.(long)stroke_with_fingers_all_over_the_hand_short_vertflip_short_600ms.mp4	227.9723421587878	228.58064399777504	0.608301838987245				
152.86865234375	0.2	313075	172	47	1	0	0	77	49	stimuli\Videos_short_600ms\54.repeated_touch_with_knife_short_short_600ms.mp4	54.repeated_touch_with_knife_short_short_600ms.mp4	228.7723325404004	229.3806455226404	0.6083129822400224				
153.6689453125	0.2	314714	173	47	1	0	0	78	182	stimuli\Videos_short_600ms_horvertflip\11.single_touch_with_lighter_short_horvertflip_short_600ms.mp4	11.single_touch_with_lighter_short_horvertflip_short_600ms.mp4	229.57231265849623	230.18062827992617	0.6083156214299379				
154.46875	0.2	316352	174	47	1	0	0	79	165	stimuli\Videos_short_600ms_horflip\78.single_stroke_top_to_bottom_with_soft_brush_short_horflip_short_600ms.mp4	78.single_stroke_top_to_bottom_with_soft_brush_short_horflip_short_600ms.mp4	230.37228691172277	230.980608398022	0.6083214862992463				
155.2685546875	0.2	317990	175	47	1	0	0	80	311	stimuli\Videos_short_600ms_vertflip\47.(long)scratching_with_finger_nails_short_vertflip_short_600ms.mp4	47.(long)scratching_with_finger_nails_short_vertflip_short_600ms.mp4	231.1722684960332	231.78059584720177	0.6083273511685547				
156.06884765625	0.2	319629	176	47	1	0	0	81	5	stimuli\Videos_short_600ms\14.repeated_touch_with_pencil_short_short_600ms.mp4	14.repeated_touch_with_pencil_short_short_600ms.mp4	231.97224949386143	232.5805654085343	0.6083159146728576				
156.86865234375	0.2	321267	177	47	1	0	0	82	283	stimuli\Videos_short_600ms_vertflip\21.repeated_touch_with_metal_chopstick_short_vertflip_short_600ms.mp4	21.repeated_touch_with_metal_chopstick_short_vertflip_short_600ms.mp4	232.7722263862779	233.38054494014068	0.6083185538627731				
157.66845703125	0.2	322905	178	47	1	0	0	83	161	stimuli\Videos_short_600ms_horflip\74.fingers_walking_from_top_to_bottom_short_horflip_short_600ms.mp4	74.fingers_walking_from_top_to_bottom_short_horflip_short_600ms.mp4	233.57220445166968	234.18052271228953	0.6083182606198534				
158.46875	0.2	324544	179	47	1	0	0	84	314	stimuli\Videos_short_600ms_vertflip\5.repeated_tap_with_finger_moving_from_top_to_bottom_short_vertflip_short_600ms.mp4	5.repeated_tap_with_finger_moving_from_top_to_bottom_short_vertflip_short_600ms.mp4	234.3721857427372	234.9805007776813	0.6083150349440984				
159.2685546875	0.2	326182	180	47	1	0	0	85	257	stimuli\Videos_short_600ms_horvertflip\8.single_touch_with_hairbrush_short_horvertflip_short_600ms.mp4	8.single_touch_with_hairbrush_short_horvertflip_short_600ms.mp4	235.1721641013719	235.780479136316	0.6083150349440984				
160.068359375	0.2	327820	181	47	1	0	0	86	252	stimuli\Videos_short_600ms_horvertflip\75.(long)stroke_with_fingers_all_over_the_hand_short_horvertflip_short_600ms.mp4	75.(long)stroke_with_fingers_all_over_the_hand_short_horvertflip_short_600ms.mp4	235.97214451271063	236.58045984089767	0.6083153281870182				
160.86865234375	0.2	329459	182	47	1	0	0	87	160	stimuli\Videos_short_600ms_horflip\73.single_stroke_with_flat_hand_short_horflip_short_600ms.mp4	73.single_stroke_with_flat_hand_short_horflip_short_600ms.mp4	236.77211935242303	237.38043937250404	0.6083200200810097				
161.66845703125	0.2	331097	183	47	1	0	0	88	334	stimuli\Videos_short_600ms_vertflip\68.stroke_top_to_bottom_with_shawl_short_vertflip_short_600ms.mp4	68.stroke_top_to_bottom_with_shawl_short_vertflip_short_600ms.mp4	237.57210592187403	238.1804174378958	0.6083115160217858				
162.46826171875	0.2	332735	184	47	1	0	0	89	37	stimuli\Videos_short_600ms\43.touch_top_to_bottom_with_sharp_wooden_stick_short_short_600ms.mp4	43.touch_top_to_bottom_with_sharp_wooden_stick_short_short_600ms.mp4	238.37205319670463	238.98039696950215	0.6083437727975252				
163.2685546875	0.2	334374	185	47	1	0	0	90	113	stimuli\Videos_short_600ms_horflip\30.finger_pulling_back_another_finger_short_horflip_short_600ms.mp4	30.finger_pulling_back_another_finger_short_horflip_short_600ms.mp4	239.17205501481297	239.78037532813687	0.6083203133239294				
164.068359375	0.2	336012	186	47	1	0	0	91	20	stimuli\Videos_short_600ms\28.single_injection_with_sharp_needle_short_short_600ms.mp4	28.single_injection_with_sharp_needle_short_short_600ms.mp4	239.97203483966587	240.58035368677156	0.6083188471056928				
164.8681640625	0.2	337650	187	47	1	0	0	92	319	stimuli\Videos_short_600ms_vertflip\54.repeated_touch_with_knife_short_vertflip_short_600ms.mp4	54.repeated_touch_with_knife_short_vertflip_short_600ms.mp4	240.77203343209476	241.38033761703264	0.6083041849378787				
165.66845703125	0.2	339289	188	47	1	0	0	93	166	stimuli\Videos_short_600ms_horflip\79.long_with_soft_brush_all_over_the_hand_short_horflip_short_600ms.mp4	79.long_with_soft_brush_all_over_the_hand_short_horflip_short_600ms.mp4	241.572014429923	242.18031362972033	0.6082991997973295				
166.46826171875	0.2	340927	189	47	1	0	0	94	134	stimuli\Videos_short_600ms_horflip\5.repeated_tap_with_finger_moving_from_top_to_bottom_short_horflip_short_600ms.mp4	5.repeated_tap_with_finger_moving_from_top_to_bottom_short_horflip_short_600ms.mp4	242.3719839912519	242.9802934545696	0.6083094633177097				
167.26806640625	0.2	342565	190	47	1	0	0	95	220	stimuli\Videos_short_600ms_horvertflip\46.scratching_top_to_bottom_with_finger_nails_short_horvertflip_short_600ms.mp4	46.scratching_top_to_bottom_with_finger_nails_short_horvertflip_short_600ms.mp4	243.17195355258443	243.78026565509208	0.6083121025076252				
168.068359375	0.2	344204	191	47	1	0	0	96	24	stimuli\Videos_short_600ms\31.hand_grabbing_wrist_short_short_600ms.mp4	31.hand_grabbing_wrist_short_short_600ms.mp4	243.9719330841908	244.58022377992893	0.6082906957381056	7.0	6.0	4.5324989971049945	0.0
207.18359375	0.2	424312	192	47	2	0	0	0	341	stimuli\Videos_short_600ms_vertflip\74.fingers_walking_from_top_to_bottom_short_vertflip_short_600ms.mp4	74.fingers_walking_from_top_to_bottom_short_vertflip_short_600ms.mp4	283.0875783253214	283.6958845629597	0.6083062376383168				
207.9833984375	0.2	425950	193	47	2	0	0	1	163	stimuli\Videos_short_600ms_horflip\76.tickle_with_fingers_from_top_to_bottom_short_horflip_short_600ms.mp4	76.tickle_with_fingers_from_top_to_bottom_short_horflip_short_600ms.mp4	283.88754730016444	284.49585940267207	0.6083121025076252				
208.78369140625	0.2	427589	194	47	2	0	0	2	291	stimuli\Videos_short_600ms_vertflip\29.single_pinch_with_tweezers_short_vertflip_short_600ms.mp4	29.single_pinch_with_tweezers_short_vertflip_short_600ms.mp4	284.68753504259075	285.29584567888014	0.6083106362893886				
209.58349609375	0.2	429227	195	47	2	0	0	3	87	stimuli\Videos_short_600ms\89.single_touch_with_plastic_brush_short_short_600ms.mp4	89.single_touch_with_plastic_brush_short_short_600ms.mp4	285.4875037241909	286.0958178794026	0.6083141552117013				
210.3837890625	0.2	430866	196	47	2	0	0	4	254	stimuli\Videos_short_600ms_horvertflip\77.tapping_with_all_fingers_short_horvertflip_short_600ms.mp4	77.tapping_with_all_fingers_short_horvertflip_short_600ms.mp4	286.2874820828256	286.8958340664394	0.6083519836138294				
211.18359375	0.2	432504	197	47	2	0	0	5	144	stimuli\Videos_short_600ms_horflip\59.single_push_with_long_side_pencil_short_horflip_short_600ms.mp4	59.single_push_with_long_side_pencil_short_horflip_short_600ms.mp4	287.08746366713603	287.6957784088372	0.6083147417011787				
211.9833984375	0.2	434142	198	47	2	0	0	6	212	stimuli\Videos_short_600ms_horvertflip\39.single_stab_with_scissors_short_horvertflip_short_600ms.mp4	39.single_stab_with_scissors_short_horvertflip_short_600ms.mp4	287.8874414392849	288.495758820176	0.6083173808910942				
212.78369140625	0.2	435781	199	47	2	0	0	7	111	stimuli\Videos_short_600ms_horflip\29.single_pinch_with_tweezers_short_horflip_short_600ms.mp4	29.single_pinch_with_tweezers_short_horflip_short_600ms.mp4	288.6874192114301	289.2957374720536	0.6083182606234914				
213.58349609375	0.2	437419	200	47	2	0	0	8	21	stimuli\Videos_short_600ms\29.single_pinch_with_tweezers_short_short_600ms.mp4	29.single_pinch_with_tweezers_short_short_600ms.mp4	289.48739962276886	290.0957137779842	0.6083141552153393				
214.38330078125	0.2	439057	201	47	2	0	0	9	121	stimuli\Videos_short_600ms_horflip\38.double_slap_with_pencil_short_horflip_short_600ms.mp4	38.double_slap_with_pencil_short_horflip_short_600ms.mp4	290.28737768816063	290.8956921366189	0.608314448458259				
215.18359375	0.2	440696	202	47	2	0	0	10	97	stimuli\Videos_short_600ms_horflip\16.repeated_touch_with_plastic_brush_short_horflip_short_600ms.mp4	16.repeated_touch_with_plastic_brush_short_horflip_short_600ms.mp4	291.0873613251788	291.6956722547111	0.6083109295323084				
215.9833984375	0.2	442334	203	47	2	0	0	11	175	stimuli\Videos_short_600ms_horflip\87.single_stroke_top_to_bottom_with_plastic_brush_short_horflip_short_600ms.mp4	87.single_stroke_top_to_bottom_with_plastic_brush_short_horflip_short_600ms.mp4	291.8873396838135	292.4956509065887	0.6083112227752281				
216.783203125	0.2	443972	204	47	2	0	0	12	197	stimuli\Videos_short_600ms_horvertflip\25.single_touch_with_stanley_knife_short_horvertflip_short_600ms.mp4	25.single_touch_with_stanley_knife_short_horvertflip_short_600ms.mp4	292.6873139370364	293.2956295584663	0.6083156214299379				
217.58349609375	0.2	445611	205	47	2	0	0	13	10	stimuli\Videos_short_600ms\19.single_touch_with_rolling_pin_short_short_600ms.mp4	19.single_touch_with_rolling_pin_short_short_600ms.mp4	293.48728936323823	294.0956085035905	0.6083191403522505				
218.38330078125	0.2	447249	206	47	2	0	0	14	272	stimuli\Videos_short_600ms_vertflip\11.single_touch_with_lighter_short_vertflip_short_600ms.mp4	11.single_touch_with_lighter_short_vertflip_short_600ms.mp4	294.28727417322807	294.8955871554681	0.6083129822400224				
219.18310546875	0.2	448887	207	47	2	0	0	15	303	stimuli\Videos_short_600ms_vertflip\4.repeated_tap_with_finger_slow_short_vertflip_short_600ms.mp4	4.repeated_tap_with_finger_slow_short_vertflip_short_600ms.mp4	295.08723523049775	295.6955751911337	0.6083399606359308				
219.9833984375	0.2	450526	208	47	2	0	0	16	130	stimuli\Videos_short_600ms_horflip\46.scratching_top_to_bottom_with_finger_nails_short_horflip_short_600ms.mp4	46.scratching_top_to_bottom_with_finger_nails_short_horflip_short_600ms.mp4	295.88728338107103	296.49554475246623	0.6082613713952014				
220.783203125	0.2	452164	209	47	2	0	0	17	224	stimuli\Videos_short_600ms_horvertflip\5.repeated_tap_with_finger_moving_from_top_to_bottom_short_horvertflip_short_600ms.mp4	5.repeated_tap_with_finger_moving_from_top_to_bottom_short_horvertflip_short_600ms.mp4	296.6872077829139	297.29552457731916	0.6083167944052548				
221.5830078125	0.2	453802	210	47	2	0	0	18	133	stimuli\Videos_short_600ms_horflip\49.repeated_slap_with_hand_short_horflip_short_600ms.mp4	49.repeated_slap_with_hand_short_horflip_short_600ms.mp4	297.4871911266855	298.09550234946437	0.6083112227788661				
222.38330078125	0.2	455441	211	47	2	0	0	19	149	stimuli\Videos_short_600ms_horflip\63.stroke_top_to_bottom_with_screwdriver_short_horflip_short_600ms.mp4	63.stroke_top_to_bottom_with_screwdriver_short_horflip_short_600ms.mp4	298.2871753501895	298.89546399322353	0.6082886430340295				
223.18310546875	0.2	457079	212	47	2	0	0	20	243	stimuli\Videos_short_600ms_horvertflip\67.single_touch_with_sponge_short_horvertflip_short_600ms.mp4	67.single_touch_with_sponge_short_horvertflip_short_600ms.mp4	299.08714432503257	299.69546170592366	0.6083173808910942				
223.98291015625	0.2	458717	213	47	2	0	0	21	238	stimuli\Videos_short_600ms_horvertflip\62.touch_top_to_bottom_with_scissors_short_horvertflip_short_600ms.mp4	62.touch_top_to_bottom_with_scissors_short_horvertflip_short_600ms.mp4	299.88712356339965	300.4954388915867	0.6083153281870182				
224.783203125	0.2	460356	214	47	2	0	0	22	119	stimuli\Videos_short_600ms_horflip\36.single_slap_with_full_hand_short_horflip_short_600ms.mp4	36.single_slap_with_full_hand_short_horflip_short_600ms.mp4	300.6871028017631	301.29541490427073	0.6083121025076252				
225.5830078125	0.2	461994	215	47	2	0	0	23	251	stimuli\Videos_short_600ms_horvertflip\74.fingers_walking_from_top_to_bottom_short_horvertflip_short_600ms.mp4	74.fingers_walking_from_top_to_bottom_short_horvertflip_short_600ms.mp4	301.48708291985895	302.0953988345318	0.6083159146728576				
226.3828125	0.2	463632	216	47	2	0	0	24	43	stimuli\Videos_short_600ms\49.repeated_slap_with_hand_short_short_600ms.mp4	49.repeated_slap_with_hand_short_short_600ms.mp4	302.28706157173656	302.89537777965234	0.6083162079157773				
227.18310546875	0.2	465271	217	47	2	0	0	25	157	stimuli\Videos_short_600ms_horflip\70.(long)stroke_with_finger_all_over_the_hand_short_horflip_short_600ms.mp4	70.(long)stroke_with_finger_all_over_the_hand_short_horflip_short_600ms.mp4	303.08703729118133	303.6953640558604	0.6083267646790773				
227.98291015625	0.2	466909	218	47	2	0	0	26	188	stimuli\Videos_short_600ms_horvertflip\17.repeated_touch_with_rolling_pin_short_horvertflip_short_600ms.mp4	17.repeated_touch_with_rolling_pin_short_horvertflip_short_600ms.mp4	303.88701623630186	304.49533566989703	0.6083194335951703				
228.78271484375	0.2	468547	219	47	2	0	0	27	129	stimuli\Videos_short_600ms_horflip\45.scratching_with_finger_nails_short_horflip_short_600ms.mp4	45.scratching_with_finger_nails_short_horflip_short_600ms.mp4	304.68699606115115	305.29532634475254	0.60833028360139				
229.5830078125	0.2	470186	220	47	2	0	0	28	123	stimuli\Videos_short_600ms_horflip\4.repeated_tap_with_finger_slow_short_horflip_short_600ms.mp4	4.repeated_tap_with_finger_slow_short_horflip_short_600ms.mp4	305.48697793870815	306.09529209391985	0.6083141552117013				
230.3828125	0.2	471824	221	47	2	0	0	29	231	stimuli\Videos_short_600ms_horvertflip\56.repeated_touch_with_nail_file_short_horvertflip_short_600ms.mp4	56.repeated_touch_with_nail_file_short_horvertflip_short_600ms.mp4	306.2869521919347	306.8952722120157	0.6083200200810097				
231.18310546875	0.2	473463	222	47	2	0	0	30	332	stimuli\Videos_short_600ms_vertflip\66.stroke_top_to_bottom_with_sponge_short_vertflip_short_600ms.mp4	66.stroke_top_to_bottom_with_sponge_short_vertflip_short_600ms.mp4	307.0869343627346	307.6952532098403	0.6083188471056928				
231.98291015625	0.2	475101	223	47	2	0	0	31	255	stimuli\Videos_short_600ms_horvertflip\78.single_stroke_top_to_bottom_with_soft_brush_short_horvertflip_short_600ms.mp4	78.single_stroke_top_to_bottom_with_soft_brush_short_horvertflip_short_600ms.mp4	307.8869121348798	308.4952280495527	0.6083159146728576				
232.78271484375	0.2	476739	224	47	2	0	0	32	70	stimuli\Videos_short_600ms\73.single_stroke_with_flat_hand_short_short_600ms.mp4	73.single_stroke_with_flat_hand_short_short_600ms.mp4	308.6868904935145	309.29520699467685	0.608316501162335				
233.5830078125	0.2	478378	225	47	2	0	1	33	368	stimuli\Targets_short_600ms_horflip\chopstickwood-tap_short_horflip_short_600ms.mp4	chopstickwood-tap_short_horflip_short_600ms.mp4	309.48687764945134	310.095185060065	0.6083074106136337				
234.3828125	0.2	480016	226	47	2	0	0	34	178	stimuli\Videos_short_600ms_horflip\9.single_touch_with_hammer_short_horflip_short_600ms.mp4	9.single_touch_with_hammer_short_horflip_short_600ms.mp4	310.2868486770021	310.8951625389709	0.6083138619687816				
235.1826171875	0.2	481654	227	47	2	0	0	35	249	stimuli\Videos_short_600ms_horvertflip\72.(short)stroke_with_finger_all_over_the_hand_short_horvertflip_short_600ms.mp4	72.(short)stroke_with_finger_all_over_the_hand_short_horvertflip_short_600ms.mp4	311.0868337802349	311.69514500301375	0.6083112227788661				
235.98291015625	0.2	483293	228	47	2	0	0	36	217	stimuli\Videos_short_600ms_horvertflip\43.touch_top_to_bottom_with_sharp_wooden_stick_short_horvertflip_short_600ms.mp4	43.touch_top_to_bottom_with_sharp_wooden_stick_short_horvertflip_short_600ms.mp4	311.88678633344534	312.49512248191604	0.6083361484706984				
236.78271484375	0.2	484931	229	47	2	0	0	37	167	stimuli\Videos_short_600ms_horflip\8.single_touch_with_hairbrush_short_horflip_short_600ms.mp4	8.single_touch_with_hairbrush_short_horflip_short_600ms.mp4	312.68677612857573	313.2951064121771	0.60833028360139				
237.58251953125	0.2	486569	230	47	2	0	0	38	139	stimuli\Videos_short_600ms_horflip\54.repeated_touch_with_knife_short_horflip_short_600ms.mp4	54.repeated_touch_with_knife_short_horflip_short_600ms.mp4	313.48676914938187	314.0950821316219	0.6083129822400224				
238.3828125	0.2	488208	231	47	2	0	0	39	127	stimuli\Videos_short_600ms_horflip\43.touch_top_to_bottom_with_sharp_wooden_stick_short_horflip_short_600ms.mp4	43.touch_top_to_bottom_with_sharp_wooden_stick_short_horflip_short_600ms.mp4	314.2867483877453	314.89503351185704	0.6082851241117169				
239.1826171875	0.2	489846	232	47	2	0	0	40	93	stimuli\Videos_short_600ms_horflip\12.repeated_touch_with_nail_file_short_horflip_short_600ms.mp4	12.repeated_touch_with_nail_file_short_horflip_short_600ms.mp4	315.0867214680002	315.69503650294064	0.6083150349404605				
239.982421875	0.2	491484	233	47	2	0	0	41	199	stimuli\Videos_short_600ms_horvertflip\27.single_push_with_a_plastic_whisk_short_horvertflip_short_600ms.mp4	27.single_push_with_a_plastic_whisk_short_horvertflip_short_600ms.mp4	315.8866992401454	316.49501310211417	0.6083138619687816				
240.78271484375	0.2	493123	234	47	2	0	0	42	290	stimuli\Videos_short_600ms_vertflip\28.single_injection_with_sharp_needle_short_vertflip_short_600ms.mp4	28.single_injection_with_sharp_needle_short_vertflip_short_600ms.mp4	316.6866814109453	317.2949940999388	0.6083126889934647				
241.58251953125	0.2	494761	235	47	2	0	0	43	229	stimuli\Videos_short_600ms_horvertflip\54.repeated_touch_with_knife_short_horvertflip_short_600ms.mp4	54.repeated_touch_with_knife_short_horvertflip_short_600ms.mp4	317.4866714993186	318.094977443714	0.6083059443953971				
242.38232421875	0.2	496399	236	47	2	0	0	44	120	stimuli\Videos_short_600ms_horflip\37.single_stab_with_nail_file_short_horflip_short_600ms.mp4	37.single_stab_with_nail_file_short_horflip_short_600ms.mp4	318.28663666199645	318.8949631334326	0.6083264714361576				
243.1826171875	0.2	498038	237	47	2	0	0	45	299	stimuli\Videos_short_600ms_vertflip\36.single_slap_with_full_hand_short_vertflip_short_600ms.mp4	36.single_slap_with_full_hand_short_vertflip_short_600ms.mp4	319.0866147273882	319.69493152178984	0.6083167944016168				
243.982421875	0.2	499676	238	47	2	0	0	46	148	stimuli\Videos_short_600ms_horflip\62.touch_top_to_bottom_with_scissors_short_horflip_short_600ms.mp4	62.touch_top_to_bottom_with_scissors_short_horflip_short_600ms.mp4	319.8865930860229	320.49492190340607	0.6083288173831534				
244.7822265625	0.2	501314	239	47	2	0	0	47	6	stimuli\Videos_short_600ms\15.single_stroke_top_to_bottom_with_a_plastic_whisk_short_short_600ms.mp4	15.single_stroke_top_to_bottom_with_a_plastic_whisk_short_short_600ms.mp4	320.68657467033336	321.29488970527746	0.6083150349440984				
245.58251953125	0.2	502953	240	47	2	0	0	48	56	stimuli\Videos_short_600ms\60.single_push_with_tip_of_pencil_short_short_600ms.mp4	60.single_push_with_tip_of_pencil_short_short_600ms.mp4	321.4865512695069	322.09486806391214	0.6083167944052548				
246.38232421875	0.2	504591	241	47	2	0	0	49	73	stimuli\Videos_short_600ms\76.tickle_with_fingers_from_top_to_bottom_short_short_600ms.mp4	76.tickle_with_fingers_from_top_to_bottom_short_short_600ms.mp4	322.2865310943598	322.89484876849383	0.6083176741340139				
247.18212890625	0.2	506229	242	47	2	0	0	50	356	stimuli\Videos_short_600ms_vertflip\88.repeated_stroke_with_plastic_brush_short_vertflip_short_600ms.mp4	88.repeated_stroke_with_plastic_brush_short_vertflip_short_600ms.mp4	323.0865091597516	323.69482654063904	0.6083173808874562				
247.982421875	0.2	507868	243	47	2	0	0	51	36	stimuli\Videos_short_600ms\42.single_slap_with_plastic_whisk_short_short_600ms.mp4	42.single_slap_with_plastic_whisk_short_short_600ms.mp4	323.8864904508191	324.494804019545	0.6083135687258618				
248.7822265625	0.2	509506	244	47	2	0	0	52	147	stimuli\Videos_short_600ms_horflip\61.single_hit_with_rolling_pin_short_horflip_short_600ms.mp4	61.single_hit_with_rolling_pin_short_horflip_short_600ms.mp4	324.68647320810487	325.2947826714226	0.6083094633177097				
249.58203125	0.2	511144	245	47	2	0	0	53	310	stimuli\Videos_short_600ms_vertflip\46.scratching_top_to_bottom_with_finger_nails_short_vertflip_short_600ms.mp4	46.scratching_top_to_bottom_with_finger_nails_short_vertflip_short_600ms.mp4	325.486441889705	326.0947613233002	0.6083194335951703				
250.38232421875	0.2	512783	246	47	2	0	1	54	370	stimuli\Targets_short_600ms_horflip\hand-pinch_short_horflip_short_600ms.mp4	hand-pinch_short_horflip_short_600ms.mp4	326.28642406050494	326.8947420278819	0.6083179673769337				
251.18212890625	0.2	514421	247	47	2	0	0	55	266	stimuli\Videos_short_600ms_horvertflip\88.repeated_stroke_with_plastic_brush_short_horvertflip_short_600ms.mp4	88.repeated_stroke_with_plastic_brush_short_horvertflip_short_600ms.mp4	327.08640300562547	327.69472243922064	0.6083194335951703				
251.982421875	0.2	516060	248	47	2	0	1	56	364	stimuli\Targets_short_600ms\hand-pinch_short_short_600ms.mp4	hand-pinch_short_short_600ms.mp4	327.886435321052	328.49469757217594	0.6082622511239606				
252.7822265625	0.2	517698	249	47	2	0	0	57	131	stimuli\Videos_short_600ms_horflip\47.(long)scratching_with_finger_nails_short_horflip_short_600ms.mp4	47.(long)scratching_with_finger_nails_short_horflip_short_600ms.mp4	328.68637614452746	329.29467417134947	0.6082980268220126				
253.58203125	0.2	519336	250	47	2	0	1	58	361	stimuli\Targets_short_600ms\chopstick-silver-tap_short_short_600ms.mp4	chopstick-silver-tap_short_short_600ms.mp4	329.486350397754	330.0946625002616	0.6083121025076252				
254.38232421875	0.2	520975	251	47	2	0	0	59	187	stimuli\Videos_short_600ms_horvertflip\16.repeated_touch_with_plastic_brush_short_horvertflip_short_600ms.mp4	16.repeated_touch_with_plastic_brush_short_horvertflip_short_600ms.mp4	330.2863234780052	330.8946103615781	0.6082868835728732				
255.18212890625	0.2	522613	252	47	2	0	0	60	222	stimuli\Videos_short_600ms_horvertflip\48.single_slap_with_hand_short_horvertflip_short_600ms.mp4	48.single_slap_with_hand_short_horvertflip_short_600ms.mp4	331.0863027163723	331.69458842696986	0.6082857105975563				
255.98193359375	0.2	524251	253	47	2	0	1	61	362	stimuli\Targets_short_600ms\chopstickwood-tap_short_short_600ms.mp4	chopstickwood-tap_short_short_600ms.mp4	331.88627696959884	332.49457822210024	0.6083012525014055				
256.7822265625	0.2	525890	254	47	2	0	0	62	192	stimuli\Videos_short_600ms_horvertflip\20.single_touch_with_screwdriver_short_horvertflip_short_600ms.mp4	20.single_touch_with_screwdriver_short_horvertflip_short_600ms.mp4	332.68625562147645	333.29457212263515	0.6083165011586971				
257.58203125	0.2	527528	255	47	2	0	0	63	317	stimuli\Videos_short_600ms_vertflip\52.touch_top_to_bottom_with_hammer_short_vertflip_short_600ms.mp4	52.touch_top_to_bottom_with_hammer_short_vertflip_short_600ms.mp4	333.4862316341605	334.0945525339739	0.6083208998134069				
258.3818359375	0.2	529166	256	47	2	0	1	64	365	stimuli\Targets_short_600ms\hand-stroke_short_short_600ms.mp4	hand-stroke_short_short_600ms.mp4	334.28621292523167	334.894536464235	0.6083235390033224				
259.18212890625	0.2	530805	257	47	2	0	0	65	53	stimuli\Videos_short_600ms\58.single_slap_with_pencil_short_short_600ms.mp4	58.single_slap_with_pencil_short_short_600ms.mp4	335.0861918703522	335.6945063188068	0.608314448454621				
259.98193359375	0.2	532443	258	47	2	0	0	66	285	stimuli\Videos_short_600ms_vertflip\23.single_push_with_a_spoon_short_vertflip_short_600ms.mp4	23.single_push_with_a_spoon_short_vertflip_short_600ms.mp4	335.8861667100646	336.4944858504168	0.6083191403522505				
260.78173828125	0.2	534081	259	47	2	0	0	67	86	stimuli\Videos_short_600ms\88.repeated_stroke_with_plastic_brush_short_short_600ms.mp4	88.repeated_stroke_with_plastic_brush_short_short_600ms.mp4	336.68614946735033	337.2944665549985	0.6083170876481745				
261.58203125	0.2	535720	260	47	2	0	0	68	306	stimuli\Videos_short_600ms_vertflip\42.single_slap_with_plastic_whisk_short_vertflip_short_600ms.mp4	42.single_slap_with_plastic_whisk_short_vertflip_short_600ms.mp4	337.48612694625626	338.0944472595802	0.6083203133239294				
262.3818359375	0.2	537358	261	47	2	0	0	69	55	stimuli\Videos_short_600ms\6.single_touch_with_flat_hand_short_short_600ms.mp4	6.single_touch_with_flat_hand_short_short_600ms.mp4	338.28610530489095	338.89442180604965	0.6083165011586971				
263.181640625	0.2	538996	262	47	2	0	0	70	94	stimuli\Videos_short_600ms_horflip\13.single_touch_with_pen_short_horflip_short_600ms.mp4	13.single_touch_with_pen_short_horflip_short_600ms.mp4	339.0860865959585	339.6944022173884	0.6083156214299379				
263.98193359375	0.2	540635	263	47	2	0	0	71	287	stimuli\Videos_short_600ms_vertflip\25.single_touch_with_stanley_knife_short_vertflip_short_600ms.mp4	25.single_touch_with_stanley_knife_short_vertflip_short_600ms.mp4	339.8860467734994	340.49437910980487	0.608332336305466				
264.78173828125	0.2	542273	264	47	2	0	0	72	153	stimuli\Videos_short_600ms_horflip\67.single_touch_with_sponge_short_horflip_short_600ms.mp4	67.single_touch_with_sponge_short_horflip_short_600ms.mp4	340.68604917809716	341.29435952114363	0.6083103430464689				
265.58154296875	0.2	543911	265	47	2	0	0	73	74	stimuli\Videos_short_600ms\77.tapping_with_all_fingers_short_short_600ms.mp4	77.tapping_with_all_fingers_short_short_600ms.mp4	341.4860272434853	342.0943378797783	0.6083106362930266				
266.3818359375	0.2	545550	266	47	2	0	0	74	151	stimuli\Videos_short_600ms_horflip\65.stroke_top_to_bottom_with_stanley_knife_short_horflip_short_600ms.mp4	65.stroke_top_to_bottom_with_stanley_knife_short_horflip_short_600ms.mp4	342.285996218332	342.89431711814177	0.6083208998097689				
267.181640625	0.2	547188	267	47	2	0	0	75	63	stimuli\Videos_short_600ms\67.single_touch_with_sponge_short_short_600ms.mp4	67.single_touch_with_sponge_short_short_600ms.mp4	343.08598014858944	343.69430134164577	0.6083211930563266				
267.9814453125	0.2	548826	268	47	2	0	0	76	171	stimuli\Videos_short_600ms_horflip\83.single_stroke_top_to_bottom_with_cotton_bud_short_horflip_short_600ms.mp4	83.single_stroke_top_to_bottom_with_cotton_bud_short_horflip_short_600ms.mp4	343.8859614396606	344.49427618135815	0.6083147416975407				
268.78173828125	0.2	550465	269	47	2	0	0	77	31	stimuli\Videos_short_600ms\38.double_slap_with_pencil_short_short_600ms.mp4	38.double_slap_with_pencil_short_short_600ms.mp4	344.68593862532	345.29426069810506	0.6083220727850858				
269.58154296875	0.2	552103	270	47	2	0	0	78	294	stimuli\Videos_short_600ms_vertflip\31.hand_grabbing_wrist_short_vertflip_short_600ms.mp4	31.hand_grabbing_wrist_short_vertflip_short_600ms.mp4	345.48591434476475	346.09423084592345	0.6083165011586971				
270.38134765625	0.2	553741	271	47	2	0	1	79	375	stimuli\Targets_short_600ms_horvertflip\finger-tap_short_vertflip_short_600ms.mp4	finger-tap_short_vertflip_short_600ms.mp4	346.28590472637734	346.89418515859506	0.6082804322177253				
271.181640625	0.2	555380	272	47	2	0	0	80	335	stimuli\Videos_short_600ms_vertflip\69.stroke_with_soft_sock_short_vertflip_short_600ms.mp4	69.stroke_with_soft_sock_short_vertflip_short_600ms.mp4	347.08587047554465	347.6941705550744	0.6083000795297266				
271.9814453125	0.2	557018	273	47	2	0	0	81	18	stimuli\Videos_short_600ms\26.single_touch_with_a_blunt_syringe_short_short_600ms.mp4	26.single_touch_with_a_blunt_syringe_short_short_600ms.mp4	347.8858508868834	348.4941679745316	0.6083170876481745				
272.78173828125	0.2	558657	274	47	2	0	0	82	196	stimuli\Videos_short_600ms_horvertflip\24.single_stroke_top_to_bottom_with_a_spoon_short_horvertflip_short_600ms.mp4	24.single_stroke_top_to_bottom_with_a_spoon_short_horvertflip_short_600ms.mp4	348.68582865903227	349.2941469196521	0.6083182606198534				
273.58154296875	0.2	560295	275	47	2	0	0	83	64	stimuli\Videos_short_600ms\68.stroke_top_to_bottom_with_shawl_short_short_600ms.mp4	68.stroke_top_to_bottom_with_shawl_short_short_600ms.mp4	349.48580936361395	350.09413143639904	0.6083220727850858				
274.38134765625	0.2	561933	276	47	2	0	0	84	138	stimuli\Videos_short_600ms_horflip\53.touch_top_to_bottom_with_knife_short_horflip_short_600ms.mp4	53.touch_top_to_bottom_with_knife_short_horflip_short_600ms.mp4	350.28578713575916	350.89410451665026	0.6083173808910942				
275.181640625	0.2	563572	277	47	2	0	0	85	324	stimuli\Videos_short_600ms_vertflip\59.single_push_with_long_side_pencil_short_vertflip_short_600ms.mp4	59.single_push_with_long_side_pencil_short_vertflip_short_600ms.mp4	351.08576314844686	351.69408316852787	0.6083200200810097				
275.9814453125	0.2	565210	278	47	2	0	0	86	99	stimuli\Videos_short_600ms_horflip\18.single_stroke_from_top_to_bottom_with_rolling_pin_short_horflip_short_600ms.mp4	18.single_stroke_from_top_to_bottom_with_rolling_pin_short_horflip_short_600ms.mp4	351.88574473276094	352.49406152716256	0.6083167944016168				
276.78125	0.2	566848	279	47	2	0	0	87	234	stimuli\Videos_short_600ms_horvertflip\59.single_push_with_long_side_pencil_short_horvertflip_short_600ms.mp4	59.single_push_with_long_side_pencil_short_horvertflip_short_600ms.mp4	352.68572338463855	353.29404223174424	0.6083188471056928				
277.58154296875	0.2	568487	280	47	2	0	0	88	28	stimuli\Videos_short_600ms\35.single_punch_with_hand_short_short_600ms.mp4	35.single_punch_with_hand_short_short_600ms.mp4	353.4857187513917	354.094020297136	0.6083015457443253				
278.38134765625	0.2	570125	281	47	2	0	0	89	77	stimuli\Videos_short_600ms\8.single_touch_with_hairbrush_short_short_600ms.mp4	8.single_touch_with_hairbrush_short_short_600ms.mp4	354.2857009221916	354.89399718955246	0.6082962673608563				
279.18115234375	0.2	571763	282	47	2	0	0	90	195	stimuli\Videos_short_600ms_horvertflip\23.single_push_with_a_spoon_short_horvertflip_short_600ms.mp4	23.single_push_with_a_spoon_short_horvertflip_short_600ms.mp4	355.0856408659347	355.69397818737707	0.6083373214423773				
279.9814453125	0.2	573402	283	47	2	0	0	91	112	stimuli\Videos_short_600ms_horflip\3.single_push_with_finger_short_horflip_short_600ms.mp4	3.single_push_with_finger_short_horflip_short_600ms.mp4	355.8856145326754	356.49395420006476	0.6083396673893731				
280.78125	0.2	575040	284	47	2	0	0	92	219	stimuli\Videos_short_600ms_horvertflip\45.scratching_with_finger_nails_short_horvertflip_short_600ms.mp4	45.scratching_with_finger_nails_short_horvertflip_short_600ms.mp4	356.68561488456544	357.2939331451853	0.6083182606198534				
281.5810546875	0.2	576678	285	47	2	0	0	93	215	stimuli\Videos_short_600ms_horvertflip\41.injection_with_blunt_syringe_short_horvertflip_short_600ms.mp4	41.injection_with_blunt_syringe_short_horvertflip_short_600ms.mp4	357.48559119049605	358.09391443625645	0.6083232457604026				
282.38134765625	0.2	578317	286	47	2	0	0	94	109	stimuli\Videos_short_600ms_horflip\27.single_push_with_a_plastic_whisk_short_horflip_short_600ms.mp4	27.single_push_with_a_plastic_whisk_short_horflip_short_600ms.mp4	358.28557453426765	358.89388956921175	0.6083150349440984				
283.18115234375	0.2	579955	287	47	2	0	0	95	302	stimuli\Videos_short_600ms_vertflip\39.single_stab_with_scissors_short_vertflip_short_600ms.mp4	39.single_stab_with_scissors_short_vertflip_short_600ms.mp4	359.08556139696157	359.69387144676875	0.6083100498071872				
283.98095703125	0.2	581593	288	47	2	0	0	96	205	stimuli\Videos_short_600ms_horvertflip\32.single_(long)pinch_with_fingers_short_horvertflip_short_600ms.mp4	32.single_(long)pinch_with_fingers_short_horvertflip_short_600ms.mp4	359.8855409285716	360.4938527378363	0.6083118092647055	7.0	7.0	4.528912336631038	1.0
324.22998046875	0.2	664023	289	47	3	0	0	0	274	stimuli\Videos_short_600ms_vertflip\13.single_touch_with_pen_short_vertflip_short_600ms.mp4	13.single_touch_with_pen_short_vertflip_short_600ms.mp4	400.13451428330154	400.7427753614502	0.6082610781486437				
325.02978515625	0.2	665661	290	47	3	0	0	1	104	stimuli\Videos_short_600ms_horflip\22.single_touch_with_metal_chopstick_short_horflip_short_600ms.mp4	22.single_touch_with_metal_chopstick_short_horflip_short_600ms.mp4	400.934440151359	401.54275929171126	0.6083191403522505				
325.82958984375	0.2	667299	291	47	3	0	0	2	213	stimuli\Videos_short_600ms_horvertflip\4.repeated_tap_with_finger_slow_short_horvertflip_short_600ms.mp4	4.repeated_tap_with_finger_slow_short_horvertflip_short_600ms.mp4	401.7344135248568	402.3427326652054	0.6083191403486126				
326.6298828125	0.2	668938	292	47	3	0	0	3	237	stimuli\Videos_short_600ms_horvertflip\61.single_hit_with_rolling_pin_short_horvertflip_short_600ms.mp4	61.single_hit_with_rolling_pin_short_horvertflip_short_600ms.mp4	402.53446783353866	403.1427121968154	0.6082443632767536				
327.4296875	0.2	670576	293	47	3	0	0	4	82	stimuli\Videos_short_600ms\84.single_touch_with_cotton_bud_short_short_600ms.mp4	84.single_touch_with_cotton_bud_short_short_600ms.mp4	403.3343450231878	403.9426899689606	0.608344945772842				
328.2294921875	0.2	672214	294	47	3	0	0	5	340	stimuli\Videos_short_600ms_vertflip\73.single_stroke_with_flat_hand_short_vertflip_short_600ms.mp4	73.single_stroke_with_flat_hand_short_vertflip_short_600ms.mp4	404.1343518264366	404.74266979381355	0.6083179673769337				
329.02978515625	0.2	673853	295	47	3	0	0	6	352	stimuli\Videos_short_600ms_vertflip\84.single_touch_with_cotton_bud_short_vertflip_short_600ms.mp4	84.single_touch_with_cotton_bud_short_vertflip_short_600ms.mp4	404.9343366364265	405.5426261591893	0.6082895227627887				
329.82958984375	0.2	675491	296	47	3	0	0	7	76	stimuli\Videos_short_600ms\79.long_with_soft_brush_all_over_the_hand_short_short_600ms.mp4	79.long_with_soft_brush_all_over_the_hand_short_short_600ms.mp4	405.73431968695513	406.3425992394441	0.6082795524889661				
330.62939453125	0.2	677129	297	47	3	0	0	8	223	stimuli\Videos_short_600ms_horvertflip\49.repeated_slap_with_hand_short_horvertflip_short_600ms.mp4	49.repeated_slap_with_hand_short_horvertflip_short_600ms.mp4	406.53429716586106	407.1425790642934	0.6082818984323239				
331.4296875	0.2	678768	298	47	3	0	0	9	48	stimuli\Videos_short_600ms\53.touch_top_to_bottom_with_knife_short_short_600ms.mp4	53.touch_top_to_bottom_with_knife_short_short_600ms.mp4	407.3342670204329	407.94255683644224	0.6082898160093464				
332.2294921875	0.2	680406	299	47	3	0	0	10	300	stimuli\Videos_short_600ms_vertflip\37.single_stab_with_nail_file_short_vertflip_short_600ms.mp4	37.single_stab_with_nail_file_short_vertflip_short_600ms.mp4	408.13424596555706	408.742548977516	0.6083030119589239				
333.02978515625	0.2	682045	300	47	3	0	0	11	19	stimuli\Videos_short_600ms\27.single_push_with_a_plastic_whisk_short_short_600ms.mp4	27.single_push_with_a_plastic_whisk_short_short_600ms.mp4	408.93422344445935	409.5425443442728	0.6083208998134069				
333.82958984375	0.2	683683	301	47	3	0	0	12	118	stimuli\Videos_short_600ms_horflip\35.single_punch_with_hand_short_horflip_short_600ms.mp4	35.single_punch_with_hand_short_horflip_short_600ms.mp4	409.73419945714704	410.3425297407484	0.60833028360139				
334.62939453125	0.2	685321	302	47	3	0	0	13	330	stimuli\Videos_short_600ms_vertflip\64.repeated_touch_with_screwdriver_short_vertflip_short_600ms.mp4	64.repeated_touch_with_screwdriver_short_vertflip_short_600ms.mp4	410.53417810902465	411.1425119115483	0.6083338025237026				
335.4296875	0.2	686960	303	47	3	0	0	14	208	stimuli\Videos_short_600ms_horvertflip\35.single_punch_with_hand_short_horvertflip_short_600ms.mp4	35.single_punch_with_hand_short_horvertflip_short_600ms.mp4	411.33415910684926	411.9424773674691	0.6083182606198534				
336.2294921875	0.2	688598	304	47	3	0	0	15	61	stimuli\Videos_short_600ms\65.stroke_top_to_bottom_with_stanley_knife_short_short_600ms.mp4	65.stroke_top_to_bottom_with_stanley_knife_short_short_600ms.mp4	412.13413746548395	412.7424659896242	0.6083285241402336				
337.029296875	0.2	690236	305	47	3	0	0	16	155	stimuli\Videos_short_600ms_horflip\69.stroke_with_soft_sock_short_horflip_short_600ms.mp4	69.stroke_with_soft_sock_short_horflip_short_600ms.mp4	412.9341164106045	413.54243232527733	0.6083159146728576				
337.82958984375	0.2	691875	306	47	3	0	1	17	371	stimuli\Targets_short_600ms_horflip\hand-stroke_short_horflip_short_600ms.mp4	hand-stroke_short_horflip_short_600ms.mp4	413.734095355725	414.3424115636444	0.6083162079194153				
338.62939453125	0.2	693513	307	47	3	0	0	18	236	stimuli\Videos_short_600ms_horvertflip\60.single_push_with_tip_of_pencil_short_horvertflip_short_600ms.mp4	60.single_push_with_tip_of_pencil_short_horvertflip_short_600ms.mp4	414.5340734211168	415.1423899222754	0.6083165011586971				
339.42919921875	0.2	695151	308	47	3	0	0	19	348	stimuli\Videos_short_600ms_vertflip\80.stroke_with_sharp_stick_all_over_the_hand_short_vertflip_short_600ms.mp4	80.stroke_with_sharp_stick_all_over_the_hand_short_vertflip_short_600ms.mp4	415.33405148650854	415.9423668146955	0.6083153281870182				
340.2294921875	0.2	696790	309	47	3	0	0	20	25	stimuli\Videos_short_600ms\32.single_(long)pinch_with_fingers_short_short_600ms.mp4	32.single_(long)pinch_with_fingers_short_short_600ms.mp4	416.1340321910902	416.7423454665732	0.6083132754829421				
341.029296875	0.2	698428	310	47	3	0	1	21	382	stimuli\Targets_short_600ms_vertflip\hand-pinch_short_horvertflip_short_600ms.mp4	hand-pinch_short_horvertflip_short_600ms.mp4	416.9339914889024	417.54232529142246	0.6083338025200646				
341.8291015625	0.2	700066	311	47	3	0	0	22	3	stimuli\Videos_short_600ms\12.repeated_touch_with_nail_file_short_short_600ms.mp4	12.repeated_touch_with_nail_file_short_short_600ms.mp4	417.7339880286272	418.34230687573654	0.6083188471093308				
342.62939453125	0.2	701705	312	47	3	0	0	23	46	stimuli\Videos_short_600ms\51.repeated_touch_with_hammer_short_short_600ms.mp4	51.repeated_touch_with_hammer_short_short_600ms.mp4	418.5339652142902	419.1422825951777	0.6083173808874562				
343.42919921875	0.2	703343	313	47	3	0	0	24	240	stimuli\Videos_short_600ms_horvertflip\64.repeated_touch_with_screwdriver_short_horvertflip_short_600ms.mp4	64.repeated_touch_with_screwdriver_short_horvertflip_short_600ms.mp4	419.33392803102106	419.9422650592205	0.6083370281994576				
344.22900390625	0.2	704981	314	47	3	0	0	25	69	stimuli\Videos_short_600ms\72.(short)stroke_with_finger_all_over_the_hand_short_short_600ms.mp4	72.(short)stroke_with_finger_all_over_the_hand_short_short_600ms.mp4	420.1339257437212	420.7422469367775	0.6083211930563266				
345.029296875	0.2	706620	315	47	3	0	0	26	248	stimuli\Videos_short_600ms_horvertflip\71.single_stroke_with_finger_top_to_bottom_short_horvertflip_short_600ms.mp4	71.single_stroke_with_finger_top_to_bottom_short_horvertflip_short_600ms.mp4	420.9339052753312	421.54221532513475	0.6083100498035492				
345.8291015625	0.2	708258	316	47	3	0	0	27	23	stimuli\Videos_short_600ms\30.finger_pulling_back_another_finger_short_short_600ms.mp4	30.finger_pulling_back_another_finger_short_short_600ms.mp4	421.7338883258599	422.34220306756106	0.6083147417011787				
346.62890625	0.2	709896	317	47	3	0	1	28	377	stimuli\Targets_short_600ms_horvertflip\hand-stroke_short_vertflip_short_600ms.mp4	hand-stroke_short_vertflip_short_600ms.mp4	422.5338590601641	423.14216207212667	0.6083030119625619				
347.42919921875	0.2	711535	318	47	3	0	0	29	98	stimuli\Videos_short_600ms_horflip\17.repeated_touch_with_rolling_pin_short_horflip_short_600ms.mp4	17.repeated_touch_with_rolling_pin_short_horflip_short_600ms.mp4	423.3338382985312	423.9421515740105	0.6083132754793041				
348.22900390625	0.2	713173	319	47	3	0	0	30	15	stimuli\Videos_short_600ms\23.single_push_with_a_spoon_short_short_600ms.mp4	23.single_push_with_a_spoon_short_short_600ms.mp4	424.1337899720129	424.7421360907574	0.6083461187445209				
349.02880859375	0.2	714811	320	47	3	0	0	31	84	stimuli\Videos_short_600ms\86.touch_top_to_bottom_with_hair_brush_short_short_600ms.mp4	86.touch_top_to_bottom_with_hair_brush_short_short_600ms.mp4	424.9337964820152	425.54211943453265	0.6083229525174829				
349.8291015625	0.2	716450	321	47	3	0	0	32	298	stimuli\Videos_short_600ms_vertflip\35.single_punch_with_hand_short_vertflip_short_600ms.mp4	35.single_punch_with_hand_short_vertflip_short_600ms.mp4	425.73377484064986	426.3421057107371	0.6083308700872294				
350.62890625	0.2	718088	322	47	3	0	0	33	216	stimuli\Videos_short_600ms_horvertflip\42.single_slap_with_plastic_whisk_short_horvertflip_short_600ms.mp4	42.single_slap_with_plastic_whisk_short_horvertflip_short_600ms.mp4	426.53375056009463	427.1420740990943	0.6083235389996844				
351.4287109375	0.2	719726	323	47	3	0	0	34	264	stimuli\Videos_short_600ms_horvertflip\86.touch_top_to_bottom_with_hair_brush_short_horvertflip_short_600ms.mp4	86.touch_top_to_bottom_with_hair_brush_short_horvertflip_short_600ms.mp4	427.3337306781869	427.9420545104331	0.6083238322462421				
352.22900390625	0.2	721365	324	47	3	0	0	35	267	stimuli\Videos_short_600ms_horvertflip\89.single_touch_with_plastic_brush_short_horvertflip_short_600ms.mp4	89.single_touch_with_plastic_brush_short_horvertflip_short_600ms.mp4	428.13370903682153	428.7420284704167	0.6083194335951703				
353.02880859375	0.2	723003	325	47	3	0	0	36	326	stimuli\Videos_short_600ms_vertflip\60.single_push_with_tip_of_pencil_short_vertflip_short_600ms.mp4	60.single_push_with_tip_of_pencil_short_vertflip_short_600ms.mp4	428.9336950197867	429.5420068290514	0.6083118092647055				
353.8291015625	0.2	724642	326	47	3	0	0	37	333	stimuli\Videos_short_600ms_vertflip\67.single_touch_with_sponge_short_vertflip_short_600ms.mp4	67.single_touch_with_sponge_short_vertflip_short_600ms.mp4	429.7336768973437	430.3419869471472	0.6083100498035492				
354.62890625	0.2	726280	327	47	3	0	0	38	9	stimuli\Videos_short_600ms\18.single_stroke_from_top_to_bottom_with_rolling_pin_short_short_600ms.mp4	18.single_stroke_from_top_to_bottom_with_rolling_pin_short_short_600ms.mp4	430.533644992458	431.14197146389415	0.6083264714361576				
355.4287109375	0.2	727918	328	47	3	0	0	39	179	stimuli\Videos_short_600ms_horflip\90.repeated_touch_with_sponge_short_horflip_short_600ms.mp4	90.repeated_touch_with_sponge_short_horflip_short_600ms.mp4	431.3336010645908	431.9419424914413	0.6083414268505294				
356.22900390625	0.2	729557	329	47	3	0	0	40	122	stimuli\Videos_short_600ms_horflip\39.single_stab_with_scissors_short_horflip_short_600ms.mp4	39.single_stab_with_scissors_short_horflip_short_600ms.mp4	432.1335767840319	432.7419211433189	0.6083443592870026				
357.02880859375	0.2	731195	330	47	3	0	0	41	357	stimuli\Videos_short_600ms_vertflip\89.single_touch_with_plastic_brush_short_vertflip_short_600ms.mp4	89.single_touch_with_plastic_brush_short_vertflip_short_600ms.mp4	432.93356745889105	433.5418997951965	0.608332336305466				
357.82861328125	0.2	732833	331	47	3	0	0	42	260	stimuli\Videos_short_600ms_horvertflip\82.repeated_touch_with_cotton_bud_short_horvertflip_short_600ms.mp4	82.repeated_touch_with_cotton_bud_short_horvertflip_short_600ms.mp4	433.7335340877871	434.3418810862677	0.6083469984805561				
358.62890625	0.2	734472	332	47	3	0	0	43	54	stimuli\Videos_short_600ms\59.single_push_with_long_side_pencil_short_short_600ms.mp4	59.single_push_with_long_side_pencil_short_short_600ms.mp4	434.53352916129734	435.1418568057088	0.6083276444114745				
359.4287109375	0.2	736110	333	47	3	0	0	44	189	stimuli\Videos_short_600ms_horvertflip\18.single_stroke_from_top_to_bottom_with_rolling_pin_short_horvertflip_short_600ms.mp4	18.single_stroke_from_top_to_bottom_with_rolling_pin_short_horvertflip_short_600ms.mp4	435.3335230618359	435.9418351643435	0.6083121025076252				
360.228515625	0.2	737748	334	47	3	0	0	45	230	stimuli\Videos_short_600ms_horvertflip\55.touch_top_to_bottom_with_nail_file_short_horvertflip_short_600ms.mp4	55.touch_top_to_bottom_with_nail_file_short_horvertflip_short_600ms.mp4	436.13350054073817	436.74181264324943	0.6083121025112632				
361.02880859375	0.2	739387	335	47	3	0	0	46	45	stimuli\Videos_short_600ms\50.single_(long)hard_push_with_thumb_short_short_600ms.mp4	50.single_(long)hard_push_with_thumb_short_short_600ms.mp4	436.93349532100547	437.5417968667498	0.6083015457443253				
361.82861328125	0.2	741025	336	47	3	0	0	47	90	stimuli\Videos_short_600ms_horflip\1.repeated_touch_with_finger_fast_short_horflip_short_600ms.mp4	1.repeated_touch_with_finger_fast_short_horflip_short_600ms.mp4	437.73345139313824	438.3417649618641	0.6083135687258618				
362.62841796875	0.2	742663	337	47	3	0	0	48	218	stimuli\Videos_short_600ms_horvertflip\44.pushing_top_to_bottom_with_finger_short_horvertflip_short_600ms.mp4	44.pushing_top_to_bottom_with_finger_short_horvertflip_short_600ms.mp4	438.533431804477	439.141747132664	0.6083153281870182				
363.4287109375	0.2	744302	338	47	3	0	0	49	68	stimuli\Videos_short_600ms\71.single_stroke_with_finger_top_to_bottom_short_short_600ms.mp4	71.single_stroke_with_finger_top_to_bottom_short_short_600ms.mp4	439.33340840365054	439.94172607778455	0.6083176741340139				
364.228515625	0.2	745940	339	47	3	0	1	50	381	stimuli\Targets_short_600ms_vertflip\finger-tap_short_horvertflip_short_600ms.mp4	finger-tap_short_horvertflip_short_600ms.mp4	440.13338705552815	440.7417064891233	0.6083194335951703				
365.0283203125	0.2	747578	340	47	3	0	0	51	12	stimuli\Videos_short_600ms\20.single_touch_with_screwdriver_short_short_600ms.mp4	20.single_touch_with_screwdriver_short_short_600ms.mp4	440.93336776010983	441.5416921788455	0.6083244187357195				
365.82861328125	0.2	749217	341	47	3	0	0	52	194	stimuli\Videos_short_600ms_horvertflip\22.single_touch_with_metal_chopstick_short_horvertflip_short_600ms.mp4	22.single_touch_with_metal_chopstick_short_horvertflip_short_600ms.mp4	441.73334523901576	442.34166174017446	0.6083165011586971				
366.62841796875	0.2	750855	342	47	3	0	0	53	162	stimuli\Videos_short_600ms_horflip\75.(long)stroke_with_fingers_all_over_the_hand_short_horflip_short_600ms.mp4	75.(long)stroke_with_fingers_all_over_the_hand_short_horflip_short_600ms.mp4	442.5333244773792	443.1416415650274	0.6083170876481745				
367.42822265625	0.2	752493	343	47	3	0	0	54	14	stimuli\Videos_short_600ms\22.single_touch_with_metal_chopstick_short_short_600ms.mp4	22.single_touch_with_metal_chopstick_short_short_600ms.mp4	443.3333037157463	443.9416205101479	0.6083167944016168				
368.228515625	0.2	754132	344	47	3	0	0	55	38	stimuli\Videos_short_600ms\44.pushing_top_to_bottom_with_finger_short_short_600ms.mp4	44.pushing_top_to_bottom_with_finger_short_short_600ms.mp4	444.1332806081627	444.7415991620255	0.6083185538627731				
369.0283203125	0.2	755770	345	47	3	0	0	56	304	stimuli\Videos_short_600ms_vertflip\40.repeated_push_with_finger_short_vertflip_short_600ms.mp4	40.repeated_push_with_finger_short_vertflip_short_600ms.mp4	444.9332601397691	445.5415763476849	0.6083162079157773				
369.828125	0.2	757408	346	47	3	0	0	57	158	stimuli\Videos_short_600ms_horflip\71.single_stroke_with_finger_top_to_bottom_short_horflip_short_600ms.mp4	71.single_stroke_with_finger_top_to_bottom_short_horflip_short_600ms.mp4	445.7332387916467	446.34155499956614	0.6083162079194153				
370.62841796875	0.2	759047	347	47	3	0	0	58	146	stimuli\Videos_short_600ms_horflip\60.single_push_with_tip_of_pencil_short_horflip_short_600ms.mp4	60.single_push_with_tip_of_pencil_short_horflip_short_600ms.mp4	446.5332200827179	447.1415315987397	0.6083115160217858				
371.42822265625	0.2	760685	348	47	3	0	0	59	110	stimuli\Videos_short_600ms_horflip\28.single_injection_with_sharp_needle_short_horflip_short_600ms.mp4	28.single_injection_with_sharp_needle_short_horflip_short_600ms.mp4	447.33324829273624	447.9415128898072	0.6082645970709564				
372.22802734375	0.2	762323	349	47	3	0	0	60	347	stimuli\Videos_short_600ms_vertflip\8.single_touch_with_hairbrush_short_vertflip_short_600ms.mp4	8.single_touch_with_hairbrush_short_vertflip_short_600ms.mp4	448.1331703486285	448.7414924214136	0.6083220727850858				
373.0283203125	0.2	763962	350	47	3	0	0	61	315	stimuli\Videos_short_600ms_vertflip\50.single_(long)hard_push_with_thumb_short_vertflip_short_600ms.mp4	50.single_(long)hard_push_with_thumb_short_vertflip_short_600ms.mp4	448.9331278869795	449.5414666746401	0.6083387876606139				
373.828125	0.2	765600	351	47	3	0	0	62	62	stimuli\Videos_short_600ms\66.stroke_top_to_bottom_with_sponge_short_short_600ms.mp4	66.stroke_top_to_bottom_with_sponge_short_short_600ms.mp4	449.7331519915897	450.3414482589542	0.6082962673644943				
374.62841796875	0.2	767239	352	47	3	0	0	63	297	stimuli\Videos_short_600ms_vertflip\34.repeated_punch_with_hand_short_vertflip_short_600ms.mp4	34.repeated_punch_with_hand_short_vertflip_short_600ms.mp4	450.5331162745388	451.1414269108318	0.6083106362930266				
375.42822265625	0.2	768877	353	47	3	0	0	64	359	stimuli\Videos_short_600ms_vertflip\90.repeated_touch_with_sponge_short_vertflip_short_600ms.mp4	90.repeated_touch_with_sponge_short_vertflip_short_600ms.mp4	451.3330878885754	451.94138503566865	0.6082971470932534				
376.22802734375	0.2	770515	354	47	3	0	0	65	132	stimuli\Videos_short_600ms_horflip\48.single_slap_with_hand_short_horflip_short_600ms.mp4	48.single_slap_with_hand_short_horflip_short_600ms.mp4	452.13307768370214	452.741386853777	0.60830917007479				
377.0283203125	0.2	772154	355	47	3	0	0	66	261	stimuli\Videos_short_600ms_horvertflip\83.single_stroke_top_to_bottom_with_cotton_bud_short_horvertflip_short_600ms.mp4	83.single_stroke_top_to_bottom_with_cotton_bud_short_horvertflip_short_600ms.mp4	452.9330466585489	453.5413599340318	0.6083132754829421				
377.828125	0.2	773792	356	47	3	0	0	67	80	stimuli\Videos_short_600ms\82.repeated_touch_with_cotton_bud_short_short_600ms.mp4	82.repeated_touch_with_cotton_bud_short_short_600ms.mp4	453.73302413745114	454.3413374129341	0.6083132754829421				
378.6279296875	0.2	775430	357	47	3	0	0	68	259	stimuli\Videos_short_600ms_horvertflip\81.single_stroke_top_to_bottom_with_cotton_pad_short_horvertflip_short_600ms.mp4	81.single_stroke_top_to_bottom_with_cotton_pad_short_horvertflip_short_600ms.mp4	454.5330024960858	455.1413187040016	0.6083162079157773				
379.42822265625	0.2	777069	358	47	3	0	0	69	316	stimuli\Videos_short_600ms_vertflip\51.repeated_touch_with_hammer_short_vertflip_short_600ms.mp4	51.repeated_touch_with_hammer_short_vertflip_short_600ms.mp4	455.3329817344529	455.9412958896646	0.6083141552117013				
380.22802734375	0.2	778707	359	47	3	0	0	70	309	stimuli\Videos_short_600ms_vertflip\45.scratching_with_finger_nails_short_vertflip_short_600ms.mp4	45.scratching_with_finger_nails_short_vertflip_short_600ms.mp4	456.1329580403799	456.7412792334362	0.6083211930563266				
381.02783203125	0.2	780345	360	47	3	0	0	71	96	stimuli\Videos_short_600ms_horflip\15.single_stroke_top_to_bottom_with_a_plastic_whisk_short_horflip_short_600ms.mp4	15.single_stroke_top_to_bottom_with_a_plastic_whisk_short_horflip_short_600ms.mp4	456.93293698550406	457.5412634569402	0.6083264714361576				
381.828125	0.2	781984	361	47	3	0	1	72	369	stimuli\Targets_short_600ms_horflip\finger-tap_short_horflip_short_600ms.mp4	finger-tap_short_horflip_short_600ms.mp4	457.7329159306246	458.3412338980015	0.6083179673769337				
382.6279296875	0.2	783622	362	47	3	0	0	73	105	stimuli\Videos_short_600ms_horflip\23.single_push_with_a_spoon_short_horflip_short_600ms.mp4	23.single_push_with_a_spoon_short_horflip_short_600ms.mp4	458.532895168988	459.1412125498791	0.6083173808910942				
383.427734375	0.2	785260	363	47	3	0	0	74	279	stimuli\Videos_short_600ms_vertflip\18.single_stroke_from_top_to_bottom_with_rolling_pin_short_vertflip_short_600ms.mp4	18.single_stroke_from_top_to_bottom_with_rolling_pin_short_vertflip_short_600ms.mp4	459.3328717681616	459.94119002878506	0.6083182606234914				
384.22802734375	0.2	786899	364	47	3	0	0	75	227	stimuli\Videos_short_600ms_horvertflip\52.touch_top_to_bottom_with_hammer_short_horvertflip_short_600ms.mp4	52.touch_top_to_bottom_with_hammer_short_horvertflip_short_600ms.mp4	460.13285100652865	460.7411683874161	0.6083173808874562				
385.02783203125	0.2	788537	365	47	3	0	0	76	106	stimuli\Videos_short_600ms_horflip\24.single_stroke_top_to_bottom_with_a_spoon_short_horflip_short_600ms.mp4	24.single_stroke_top_to_bottom_with_a_spoon_short_horflip_short_600ms.mp4	460.93283317732494	461.5411467460508	0.6083135687258618				
385.82763671875	0.2	790175	366	47	3	0	0	77	180	stimuli\Videos_short_600ms_horvertflip\1.repeated_touch_with_finger_fast_short_horvertflip_short_600ms.mp4	1.repeated_touch_with_finger_fast_short_horvertflip_short_600ms.mp4	461.7328050846045	462.3411245181997	0.6083194335951703				
386.6279296875	0.2	791814	367	47	3	0	0	78	232	stimuli\Videos_short_600ms_horvertflip\57.single_touch_with_nail_file_short_horvertflip_short_600ms.mp4	57.single_touch_with_nail_file_short_horvertflip_short_600ms.mp4	462.53278578918616	463.1411066889996	0.6083208998134069				
387.427734375	0.2	793452	368	47	3	0	0	79	35	stimuli\Videos_short_600ms\41.injection_with_blunt_syringe_short_short_600ms.mp4	41.injection_with_blunt_syringe_short_short_600ms.mp4	463.33273951537194	463.9410847543877	0.6083452390157618				
388.2275390625	0.2	795090	369	47	3	0	1	80	368	stimuli\Targets_short_600ms_horflip\chopstickwood-tap_short_horflip_short_600ms.mp4	chopstickwood-tap_short_horflip_short_600ms.mp4	464.132721099686	464.7410595941037	0.6083384944176942				
389.02783203125	0.2	796729	370	47	3	0	0	81	27	stimuli\Videos_short_600ms\34.repeated_punch_with_hand_short_short_600ms.mp4	34.repeated_punch_with_hand_short_short_600ms.mp4	464.932721744819	465.54104117841416	0.6083194335951703				
389.82763671875	0.2	798367	371	47	3	0	0	82	145	stimuli\Videos_short_600ms_horflip\6.single_touch_with_flat_hand_short_horflip_short_600ms.mp4	6.single_touch_with_flat_hand_short_horflip_short_600ms.mp4	465.7327033291331	466.34101689785894	0.6083135687258618				
390.62744140625	0.2	800005	372	47	3	0	0	83	168	stimuli\Videos_short_600ms_horflip\80.stroke_with_sharp_stick_all_over_the_hand_short_horflip_short_600ms.mp4	80.stroke_with_sharp_stick_all_over_the_hand_short_horflip_short_600ms.mp4	466.5327828567534	467.14099584297946	0.6082129862261354				
391.427734375	0.2	801644	373	47	3	0	0	84	51	stimuli\Videos_short_600ms\56.repeated_touch_with_nail_file_short_short_600ms.mp4	56.repeated_touch_with_nail_file_short_short_600ms.mp4	467.33266239234945	467.9409780137794	0.6083156214299379				
392.2275390625	0.2	803282	374	47	3	0	0	85	22	stimuli\Videos_short_600ms\3.single_push_with_finger_short_short_600ms.mp4	3.single_push_with_finger_short_short_600ms.mp4	468.13263840503714	468.7409508007877	0.608312395750545				
393.02734375	0.2	804920	375	47	3	0	0	86	322	stimuli\Videos_short_600ms_vertflip\57.single_touch_with_nail_file_short_vertflip_short_600ms.mp4	57.single_touch_with_nail_file_short_vertflip_short_600ms.mp4	468.9326287866498	469.5409338513164	0.6083050646666379				
