onset	duration	onsetsample	eventnumber	subjectnr	sequencenumber	blocksequencenumber	istarget	presentationnumber	stimnumber	stim	stimname	time_stimon	time_stimoff	stimdur	cresp	resp	rt	correct
19.31396484375	0.2	39555	0	59	0	0	0	0	179	stimuli\Videos_short_600ms_horflip\90.repeated_touch_with_sponge_short_horflip_short_600ms.mp4	90.repeated_touch_with_sponge_short_horflip_short_600ms.mp4	67.17770739244452	67.78591555656294	0.6082081641184232				
20.11376953125	0.2	41193	1	59	0	0	0	1	261	stimuli\Videos_short_600ms_horvertflip\83.single_stroke_top_to_bottom_with_cotton_bud_short_horvertflip_short_600ms.mp4	83.single_stroke_top_to_bottom_with_cotton_bud_short_horvertflip_short_600ms.mp4	67.97760047529164	68.58588840206949	0.608287926777848				
20.9140625	0.2	42832	2	59	0	0	0	2	218	stimuli\Videos_short_600ms_horvertflip\44.pushing_top_to_bottom_with_finger_short_horvertflip_short_600ms.mp4	44.pushing_top_to_bottom_with_finger_short_horvertflip_short_600ms.mp4	68.77757654649395	69.38587063141858	0.608294084924637				
21.7138671875	0.2	44470	3	59	0	0	0	3	280	stimuli\Videos_short_600ms_vertflip\19.single_touch_with_rolling_pin_short_vertflip_short_600ms.mp4	19.single_touch_with_rolling_pin_short_vertflip_short_600ms.mp4	69.57756552047931	70.185861071629	0.6082955511496948				
22.513671875	0.2	46108	4	59	0	0	0	4	12	stimuli\Videos_short_600ms\20.single_touch_with_screwdriver_short_short_600ms.mp4	20.single_touch_with_screwdriver_short_short_600ms.mp4	70.37754511062258	70.98584300773291	0.608297897110333				
23.31396484375	0.2	47747	5	59	0	0	0	5	63	stimuli\Videos_short_600ms\67.single_touch_with_sponge_short_short_600ms.mp4	67.single_touch_with_sponge_short_short_600ms.mp4	71.17752880619673	71.78582611681668	0.6082973106199461				
24.11376953125	0.2	49385	6	59	0	0	0	6	194	stimuli\Videos_short_600ms_horvertflip\22.single_touch_with_metal_chopstick_short_horvertflip_short_600ms.mp4	22.single_touch_with_metal_chopstick_short_horvertflip_short_600ms.mp4	71.97770780298742	72.58583972338783	0.6081319204004103				
24.91357421875	0.2	51023	7	59	0	0	0	7	146	stimuli\Videos_short_600ms_horflip\60.single_push_with_tip_of_pencil_short_horflip_short_600ms.mp4	60.single_push_with_tip_of_pencil_short_horflip_short_600ms.mp4	72.77747391071944	73.38581110266887	0.6083371919494311				
25.7138671875	0.2	52662	8	59	0	0	0	8	58	stimuli\Videos_short_600ms\62.touch_top_to_bottom_with_scissors_short_short_600ms.mp4	62.touch_top_to_bottom_with_scissors_short_short_600ms.mp4	73.57747285503729	74.18579479824302	0.6083219432057376				
26.513671875	0.2	54300	9	59	0	0	0	9	10	stimuli\Videos_short_600ms\19.single_touch_with_rolling_pin_short_short_600ms.mp4	19.single_touch_with_rolling_pin_short_short_600ms.mp4	74.37745743034657	74.98577673434693	0.6083193040003607				
27.31396484375	0.2	55939	10	59	0	0	0	10	152	stimuli\Videos_short_600ms_horflip\66.stroke_top_to_bottom_with_sponge_short_horflip_short_600ms.mp4	66.stroke_top_to_bottom_with_sponge_short_horflip_short_600ms.mp4	75.17744200565585	75.78575925694076	0.608317251284916				
28.11376953125	0.2	57577	11	59	0	0	0	11	286	stimuli\Videos_short_600ms_vertflip\24.single_stroke_top_to_bottom_with_a_spoon_short_vertflip_short_600ms.mp4	24.single_stroke_top_to_bottom_with_a_spoon_short_vertflip_short_600ms.mp4	75.97742276877898	76.5857417795346	0.608319010755622				
28.91357421875	0.2	59215	12	59	0	0	0	12	223	stimuli\Videos_short_600ms_horvertflip\49.repeated_slap_with_hand_short_horvertflip_short_600ms.mp4	49.repeated_slap_with_hand_short_horvertflip_short_600ms.mp4	76.77740851706858	77.38572870080407	0.6083201837354864				
29.7138671875	0.2	60854	13	59	0	0	0	13	107	stimuli\Videos_short_600ms_horflip\25.single_touch_with_stanley_knife_short_horflip_short_600ms.mp4	25.single_touch_with_stanley_knife_short_horflip_short_600ms.mp4	77.57738898694697	78.1857074112122	0.6083184242652351				
30.513671875	0.2	62492	14	59	0	0	0	14	71	stimuli\Videos_short_600ms\74.fingers_walking_from_top_to_bottom_short_short_600ms.mp4	74.fingers_walking_from_top_to_bottom_short_short_600ms.mp4	78.37733573364221	78.98569052029598	0.6083547866537629				
31.3134765625	0.2	64130	15	59	0	0	0	15	51	stimuli\Videos_short_600ms\56.repeated_touch_with_nail_file_short_short_600ms.mp4	56.repeated_touch_with_nail_file_short_short_600ms.mp4	79.17731239133445	79.78567304288981	0.6083606515553583				
32.11376953125	0.2	65769	16	59	0	0	0	16	95	stimuli\Videos_short_600ms_horflip\14.repeated_touch_with_pencil_short_horflip_short_600ms.mp4	14.repeated_touch_with_pencil_short_horflip_short_600ms.mp4	79.97731485459326	80.58566055064966	0.6083456960564035				
32.91357421875	0.2	67407	17	59	0	0	0	17	260	stimuli\Videos_short_600ms_horvertflip\82.repeated_touch_with_cotton_bud_short_horvertflip_short_600ms.mp4	82.repeated_touch_with_cotton_bud_short_horvertflip_short_600ms.mp4	80.77730529480368	81.38564219350837	0.6083368987046924				
33.71337890625	0.2	69045	18	59	0	0	0	18	45	stimuli\Videos_short_600ms\50.single_(long)hard_push_with_thumb_short_short_600ms.mp4	50.single_(long)hard_push_with_thumb_short_short_600ms.mp4	81.57729426878905	82.18562794179797	0.6083336730089286				
34.513671875	0.2	70684	19	59	0	0	1	19	368	stimuli\Targets_short_600ms_horflip\chopstickwood-tap_short_horflip_short_600ms.mp4	chopstickwood-tap_short_horflip_short_600ms.mp4	82.3772894009212	82.98560225353003	0.608312852608833				
35.3134765625	0.2	72322	20	59	0	0	0	20	89	stimuli\Videos_short_600ms\90.repeated_touch_with_sponge_short_short_600ms.mp4	90.repeated_touch_with_sponge_short_short_600ms.mp4	83.17771325734566	83.78559357347558	0.607880316129922				
36.11328125	0.2	73960	21	59	0	0	0	21	78	stimuli\Videos_short_600ms\80.stroke_with_sharp_stick_all_over_the_hand_short_short_600ms.mp4	80.stroke_with_sharp_stick_all_over_the_hand_short_short_600ms.mp4	83.97725737855944	84.58552947010321	0.6082720915437676				
36.91357421875	0.2	75599	22	59	0	0	0	22	197	stimuli\Videos_short_600ms_horvertflip\25.single_touch_with_stanley_knife_short_horvertflip_short_600ms.mp4	25.single_touch_with_stanley_knife_short_horvertflip_short_600ms.mp4	84.77725632287684	85.38555334025205	0.6082970173752074				
37.71337890625	0.2	77237	23	59	0	0	0	23	221	stimuli\Videos_short_600ms_horvertflip\47.(long)scratching_with_finger_nails_short_horvertflip_short_600ms.mp4	47.(long)scratching_with_finger_nails_short_horvertflip_short_600ms.mp4	85.577226529178	86.18552501277827	0.6082984836002652				
38.51318359375	0.2	78875	24	59	0	0	0	24	330	stimuli\Videos_short_600ms_vertflip\64.repeated_touch_with_screwdriver_short_vertflip_short_600ms.mp4	64.repeated_touch_with_screwdriver_short_vertflip_short_600ms.mp4	86.37720230713512	86.98550724212691	0.6083049349917928				
39.3134765625	0.2	80514	25	59	0	0	0	25	19	stimuli\Videos_short_600ms\27.single_push_with_a_plastic_whisk_short_short_600ms.mp4	27.single_push_with_a_plastic_whisk_short_short_600ms.mp4	87.1771868824444	87.7855123445911	0.6083254621466949				
40.11328125	0.2	82152	26	59	0	0	0	26	224	stimuli\Videos_short_600ms_horvertflip\5.repeated_tap_with_finger_moving_from_top_to_bottom_short_horvertflip_short_600ms.mp4	5.repeated_tap_with_finger_moving_from_top_to_bottom_short_horvertflip_short_600ms.mp4	87.97716764556753	88.58549955910621	0.6083319135386773				
40.9130859375	0.2	83790	27	59	0	0	0	27	193	stimuli\Videos_short_600ms_horvertflip\21.repeated_touch_with_metal_chopstick_short_horvertflip_short_600ms.mp4	21.repeated_touch_with_metal_chopstick_short_horvertflip_short_600ms.mp4	88.7771531006124	89.38547357759307	0.6083204769806798				
41.71337890625	0.2	85429	28	59	0	0	0	28	145	stimuli\Videos_short_600ms_horflip\6.single_touch_with_flat_hand_short_horflip_short_600ms.mp4	6.single_touch_with_flat_hand_short_horflip_short_600ms.mp4	89.57713708943129	90.18545815290236	0.6083210634710667				
42.51318359375	0.2	87067	29	59	0	0	0	29	154	stimuli\Videos_short_600ms_horflip\68.stroke_top_to_bottom_with_shawl_short_horflip_short_600ms.mp4	68.stroke_top_to_bottom_with_shawl_short_horflip_short_600ms.mp4	90.37710524301656	90.9854400890058	0.6083348459892477				
43.31298828125	0.2	88705	30	59	0	0	1	30	363	stimuli\Targets_short_600ms\finger-tap_short_short_600ms.mp4	finger-tap_short_short_600ms.mp4	91.17710037514873	91.78542466431507	0.6083242891663758				
44.11328125	0.2	90344	31	59	0	0	0	31	263	stimuli\Videos_short_600ms_horvertflip\85.touch_top_to_bottom_with_fabric_short_horvertflip_short_600ms.mp4	85.touch_top_to_bottom_with_fabric_short_horvertflip_short_600ms.mp4	91.97708758966336	92.585406600419	0.608319010755622				
44.9130859375	0.2	91982	32	59	0	0	0	32	56	stimuli\Videos_short_600ms\60.single_push_with_tip_of_pencil_short_short_600ms.mp4	60.single_push_with_tip_of_pencil_short_short_600ms.mp4	92.77704459993627	93.38538853652244	0.6083439365861523				
45.71337890625	0.2	93621	33	59	0	0	0	33	49	stimuli\Videos_short_600ms\54.repeated_touch_with_knife_short_short_600ms.mp4	54.repeated_touch_with_knife_short_short_600ms.mp4	93.57703298743128	94.18537164560666	0.6083386581753985				
46.51318359375	0.2	95259	34	59	0	0	0	34	162	stimuli\Videos_short_600ms_horflip\75.(long)stroke_with_fingers_all_over_the_hand_short_horflip_short_600ms.mp4	75.(long)stroke_with_fingers_all_over_the_hand_short_horflip_short_600ms.mp4	94.37701404380005	94.98535651416069	0.6083424703606397				
47.31298828125	0.2	96897	35	59	0	0	0	35	191	stimuli\Videos_short_600ms_horvertflip\2.single_touch_with_finger_short_horvertflip_short_600ms.mp4	2.single_touch_with_finger_short_horvertflip_short_600ms.mp4	95.17699392718804	95.78533932999972	0.6083454028116648				
48.11328125	0.2	98536	36	59	0	0	0	36	86	stimuli\Videos_short_600ms\88.repeated_stroke_with_plastic_brush_short_short_600ms.mp4	88.repeated_stroke_with_plastic_brush_short_short_600ms.mp4	95.97698026196758	96.58532097285844	0.6083407108908432				
48.9130859375	0.2	100174	37	59	0	0	0	37	341	stimuli\Videos_short_600ms_vertflip\74.fingers_walking_from_top_to_bottom_short_vertflip_short_600ms.mp4	74.fingers_walking_from_top_to_bottom_short_vertflip_short_600ms.mp4	96.77696952919814	97.38529000617882	0.6083204769806798				
49.712890625	0.2	101812	38	59	0	0	0	38	74	stimuli\Videos_short_600ms\77.tapping_with_all_fingers_short_short_600ms.mp4	77.tapping_with_all_fingers_short_short_600ms.mp4	97.57695762344838	98.18525317459807	0.6082955511496948				
50.51318359375	0.2	103451	39	59	0	0	0	39	273	stimuli\Videos_short_600ms_vertflip\12.repeated_touch_with_nail_file_short_vertflip_short_600ms.mp4	12.repeated_touch_with_nail_file_short_vertflip_short_600ms.mp4	98.37696037995192	98.9852248471243	0.6082644671723756				
51.31298828125	0.2	105089	40	59	0	0	0	40	142	stimuli\Videos_short_600ms_horflip\57.single_touch_with_nail_file_short_horflip_short_600ms.mp4	57.single_touch_with_nail_file_short_horflip_short_600ms.mp4	99.17694407552608	99.78521030216872	0.6082662266426269				
52.11279296875	0.2	106727	41	59	0	0	0	41	79	stimuli\Videos_short_600ms\81.single_stroke_top_to_bottom_with_cotton_pad_short_short_600ms.mp4	81.single_stroke_top_to_bottom_with_cotton_pad_short_short_600ms.mp4	99.97692835759015	100.58519223827216	0.6082638806819887				
52.9130859375	0.2	108366	42	59	0	0	0	42	171	stimuli\Videos_short_600ms_horflip\83.single_stroke_top_to_bottom_with_cotton_bud_short_horflip_short_600ms.mp4	83.single_stroke_top_to_bottom_with_cotton_bud_short_horflip_short_600ms.mp4	100.77690208283184	101.38519264881552	0.6082905659836797				
53.712890625	0.2	110004	43	59	0	0	0	43	26	stimuli\Videos_short_600ms\33.scratch_top_to_bottom_with_scissors_short_short_600ms.mp4	33.scratch_top_to_bottom_with_scissors_short_short_600ms.mp4	101.57688372569056	102.1851907133978	0.6083069877072376				
54.5126953125	0.2	111642	44	59	0	0	0	44	206	stimuli\Videos_short_600ms_horvertflip\33.scratch_top_to_bottom_with_scissors_short_horvertflip_short_600ms.mp4	33.scratch_top_to_bottom_with_scissors_short_horvertflip_short_600ms.mp4	102.37686859424502	102.98518027387354	0.608311679628514				
55.31298828125	0.2	113281	45	59	0	0	0	45	68	stimuli\Videos_short_600ms\71.single_stroke_with_finger_top_to_bottom_short_short_600ms.mp4	71.single_stroke_with_finger_top_to_bottom_short_short_600ms.mp4	103.17685434253464	103.78518244388717	0.6083281013525266				
56.11279296875	0.2	114919	46	59	0	0	0	46	307	stimuli\Videos_short_600ms_vertflip\43.touch_top_to_bottom_with_sharp_wooden_stick_short_vertflip_short_600ms.mp4	43.touch_top_to_bottom_with_sharp_wooden_stick_short_vertflip_short_600ms.mp4	103.97683833135352	104.58515558263844	0.608317251284916				
56.91259765625	0.2	116557	47	59	0	0	0	47	167	stimuli\Videos_short_600ms_horflip\8.single_touch_with_hairbrush_short_horflip_short_600ms.mp4	8.single_touch_with_hairbrush_short_horflip_short_600ms.mp4	104.7768176282516	105.38513693225195	0.6083193040003607				
57.712890625	0.2	118196	48	59	0	0	0	48	14	stimuli\Videos_short_600ms\22.single_touch_with_metal_chopstick_short_short_600ms.mp4	22.single_touch_with_metal_chopstick_short_short_600ms.mp4	105.57680015084544	106.18512004133618	0.6083198904907476				
58.5126953125	0.2	119834	49	59	0	0	0	49	0	stimuli\Videos_short_600ms\1.repeated_touch_with_finger_fast_short_short_600ms.mp4	1.repeated_touch_with_finger_fast_short_short_600ms.mp4	106.37678443290952	106.98510637611572	0.6083219432061924				
59.3125	0.2	121472	50	59	0	0	0	50	27	stimuli\Videos_short_600ms\34.repeated_punch_with_hand_short_short_600ms.mp4	34.repeated_punch_with_hand_short_short_600ms.mp4	107.17676636901342	107.78508655274892	0.6083201837354864				
60.11279296875	0.2	123111	51	59	0	0	0	51	299	stimuli\Videos_short_600ms_vertflip\36.single_slap_with_full_hand_short_vertflip_short_600ms.mp4	36.single_slap_with_full_hand_short_vertflip_short_600ms.mp4	107.97678056207452	108.58507318077363	0.6082926186991244				
60.91259765625	0.2	124749	52	59	0	0	0	52	255	stimuli\Videos_short_600ms_horvertflip\78.single_stroke_top_to_bottom_with_soft_brush_short_horvertflip_short_600ms.mp4	78.single_stroke_top_to_bottom_with_soft_brush_short_horvertflip_short_600ms.mp4	108.77670384916428	109.38505453038717	0.6083506812228734				
61.71240234375	0.2	126387	53	59	0	0	0	53	287	stimuli\Videos_short_600ms_vertflip\25.single_touch_with_stanley_knife_short_vertflip_short_600ms.mp4	25.single_touch_with_stanley_knife_short_vertflip_short_600ms.mp4	109.57667346897506	110.18503617324586	0.6083627042708031				
62.5126953125	0.2	128026	54	59	0	0	0	54	308	stimuli\Videos_short_600ms_vertflip\44.pushing_top_to_bottom_with_finger_short_vertflip_short_600ms.mp4	44.pushing_top_to_bottom_with_finger_short_vertflip_short_600ms.mp4	110.37667358627276	110.98501810934933	0.6083445230765392				
63.3125	0.2	129664	55	59	0	0	0	55	106	stimuli\Videos_short_600ms_horflip\24.single_stroke_top_to_bottom_with_a_spoon_short_horflip_short_600ms.mp4	24.single_stroke_top_to_bottom_with_a_spoon_short_horflip_short_600ms.mp4	111.17664848449476	111.78500239141384	0.608353906919092				
64.1123046875	0.2	131302	56	59	0	0	0	56	120	stimuli\Videos_short_600ms_horflip\37.single_stab_with_nail_file_short_horflip_short_600ms.mp4	37.single_stab_with_nail_file_short_horflip_short_600ms.mp4	111.97665212073387	112.58498725996787	0.6083351392339864				
64.91259765625	0.2	132941	57	59	0	0	0	57	356	stimuli\Videos_short_600ms_vertflip\88.repeated_stroke_with_plastic_brush_short_vertflip_short_600ms.mp4	88.repeated_stroke_with_plastic_brush_short_vertflip_short_600ms.mp4	112.77664050822888	113.38495189461264	0.6083113863837752				
65.71240234375	0.2	134579	58	59	0	0	1	58	369	stimuli\Targets_short_600ms_horflip\finger-tap_short_horflip_short_600ms.mp4	finger-tap_short_horflip_short_600ms.mp4	113.57664091877224	114.1849355901868	0.6082946714145692				
66.5126953125	0.2	136218	59	59	0	0	0	59	313	stimuli\Videos_short_600ms_vertflip\49.repeated_slap_with_hand_short_vertflip_short_600ms.mp4	49.repeated_slap_with_hand_short_vertflip_short_600ms.mp4	114.37661757646448	114.98489025449862	0.6082726780341545				
67.3125	0.2	137856	60	59	0	0	0	60	235	stimuli\Videos_short_600ms_horvertflip\6.single_touch_with_flat_hand_short_horvertflip_short_600ms.mp4	6.single_touch_with_flat_hand_short_horvertflip_short_600ms.mp4	115.1766044977344	115.78489858265856	0.6082940849241822				
68.1123046875	0.2	139494	61	59	0	0	0	61	268	stimuli\Videos_short_600ms_horvertflip\9.single_touch_with_hammer_short_horvertflip_short_600ms.mp4	9.single_touch_with_hammer_short_horvertflip_short_600ms.mp4	115.9765861405931	116.58488345121305	0.6082973106199461				
68.91259765625	0.2	141133	62	59	0	0	0	62	92	stimuli\Videos_short_600ms_horflip\11.single_touch_with_lighter_short_horflip_short_600ms.mp4	11.single_touch_with_lighter_short_horflip_short_600ms.mp4	116.77656485100078	117.38487330493354	0.6083084539327501				
69.71240234375	0.2	142771	63	59	0	0	0	63	62	stimuli\Videos_short_600ms\66.stroke_top_to_bottom_with_sponge_short_short_600ms.mp4	66.stroke_top_to_bottom_with_sponge_short_short_600ms.mp4	117.57655118578076	118.1848663843498	0.6083151985690165				
70.51220703125	0.2	144409	64	59	0	0	0	64	241	stimuli\Videos_short_600ms_horvertflip\65.stroke_top_to_bottom_with_stanley_knife_short_horvertflip_short_600ms.mp4	65.stroke_top_to_bottom_with_stanley_knife_short_horvertflip_short_600ms.mp4	118.37653370837415	118.984862982707	0.6083292743328457				
71.3125	0.2	146048	65	59	0	0	0	65	170	stimuli\Videos_short_600ms_horflip\82.repeated_touch_with_cotton_bud_short_horflip_short_600ms.mp4	82.repeated_touch_with_cotton_bud_short_horflip_short_600ms.mp4	119.17651652421318	119.78483876066456	0.6083222364513858				
72.1123046875	0.2	147686	66	59	0	0	0	66	17	stimuli\Videos_short_600ms\25.single_touch_with_stanley_knife_short_short_600ms.mp4	25.single_touch_with_stanley_knife_short_short_600ms.mp4	119.9764867305139	120.5848289076298	0.608342177115901				
72.912109375	0.2	149324	67	59	0	0	0	67	52	stimuli\Videos_short_600ms\57.single_touch_with_nail_file_short_short_600ms.mp4	57.single_touch_with_nail_file_short_short_600ms.mp4	120.7764932992036	121.38480175313634	0.6083084539327501				
73.71240234375	0.2	150963	68	59	0	0	0	68	54	stimuli\Videos_short_600ms\59.single_push_with_long_side_pencil_short_short_600ms.mp4	59.single_push_with_long_side_pencil_short_short_600ms.mp4	121.57647611504262	122.18478750142594	0.6083113863833205				
74.51220703125	0.2	152601	69	59	0	0	0	69	325	stimuli\Videos_short_600ms_vertflip\6.single_touch_with_flat_hand_short_vertflip_short_600ms.mp4	6.single_touch_with_flat_hand_short_vertflip_short_600ms.mp4	122.3764595173716	122.98477031726496	0.6083107998933883				
75.31201171875	0.2	154239	70	59	0	0	0	70	134	stimuli\Videos_short_600ms_horflip\5.repeated_tap_with_finger_moving_from_top_to_bottom_short_horflip_short_600ms.mp4	5.repeated_tap_with_finger_moving_from_top_to_bottom_short_horflip_short_600ms.mp4	123.176420046585	123.784753133104	0.6083330865189964				
76.1123046875	0.2	155878	71	59	0	0	0	71	165	stimuli\Videos_short_600ms_horflip\78.single_stroke_top_to_bottom_with_soft_brush_short_horflip_short_600ms.mp4	78.single_stroke_top_to_bottom_with_soft_brush_short_horflip_short_600ms.mp4	123.97637207169146	124.5847356556974	0.6083635840059287				
76.912109375	0.2	157516	72	59	0	0	0	72	184	stimuli\Videos_short_600ms_horvertflip\13.single_touch_with_pen_short_horvertflip_short_600ms.mp4	13.single_touch_with_pen_short_horvertflip_short_600ms.mp4	124.77635635375556	125.3847190580268	0.6083627042712578				
77.7119140625	0.2	159154	73	59	0	0	0	73	340	stimuli\Videos_short_600ms_vertflip\73.single_stroke_with_flat_hand_short_vertflip_short_600ms.mp4	73.single_stroke_with_flat_hand_short_vertflip_short_600ms.mp4	125.57633916959458	126.18470216711056	0.6083629975159965				
78.51220703125	0.2	160793	74	59	0	0	0	74	314	stimuli\Videos_short_600ms_vertflip\5.repeated_tap_with_finger_moving_from_top_to_bottom_short_vertflip_short_600ms.mp4	5.repeated_tap_with_finger_moving_from_top_to_bottom_short_vertflip_short_600ms.mp4	126.37634808424492	126.9846846897044	0.608336605459499				
79.31201171875	0.2	162431	75	59	0	0	1	75	383	stimuli\Targets_short_600ms_vertflip\hand-stroke_short_horvertflip_short_600ms.mp4	hand-stroke_short_horvertflip_short_600ms.mp4	127.17633881770053	127.78466809203336	0.6083292743328457				
80.11181640625	0.2	164069	76	59	0	0	0	76	37	stimuli\Videos_short_600ms\43.touch_top_to_bottom_with_sharp_wooden_stick_short_short_600ms.mp4	43.touch_top_to_bottom_with_sharp_wooden_stick_short_short_600ms.mp4	127.97632515248006	128.58464973489208	0.608324582412024				
80.912109375	0.2	165708	77	59	0	0	0	77	201	stimuli\Videos_short_600ms_horvertflip\29.single_pinch_with_tweezers_short_horvertflip_short_600ms.mp4	29.single_pinch_with_tweezers_short_horvertflip_short_600ms.mp4	128.776328495474	129.38464340079827	0.6083149053242778				
81.7119140625	0.2	167346	78	59	0	0	0	78	329	stimuli\Videos_short_600ms_vertflip\63.stroke_top_to_bottom_with_screwdriver_short_vertflip_short_600ms.mp4	63.stroke_top_to_bottom_with_screwdriver_short_vertflip_short_600ms.mp4	129.57630632614655	130.184575191995	0.6082688658484585				
82.51171875	0.2	168984	79	59	0	0	0	79	77	stimuli\Videos_short_600ms\8.single_touch_with_hairbrush_short_short_600ms.mp4	8.single_touch_with_hairbrush_short_short_600ms.mp4	130.3762809311238	130.9846063932705	0.6083254621466949				
83.31201171875	0.2	170623	80	59	0	0	0	80	159	stimuli\Videos_short_600ms_horflip\72.(short)stroke_with_finger_all_over_the_hand_short_horflip_short_600ms.mp4	72.(short)stroke_with_finger_all_over_the_hand_short_horflip_short_600ms.mp4	131.17626785239327	131.78456369678815	0.6082958443948883				
84.11181640625	0.2	172261	81	59	0	0	0	81	256	stimuli\Videos_short_600ms_horvertflip\79.long_with_soft_brush_all_over_the_hand_short_horvertflip_short_600ms.mp4	79.long_with_soft_brush_all_over_the_hand_short_horvertflip_short_600ms.mp4	131.97622896809708	132.58454885858782	0.6083198904907476				
84.912109375	0.2	173900	82	59	0	0	0	82	177	stimuli\Videos_short_600ms_horflip\89.single_touch_with_plastic_brush_short_horflip_short_600ms.mp4	89.single_touch_with_plastic_brush_short_horflip_short_600ms.mp4	132.77623319082613	133.38455484078713	0.6083216499609989				
85.7119140625	0.2	175538	83	59	0	0	0	83	140	stimuli\Videos_short_600ms_horflip\55.touch_top_to_bottom_with_nail_file_short_horflip_short_600ms.mp4	55.touch_top_to_bottom_with_nail_file_short_horflip_short_600ms.mp4	133.57621747289022	134.1845487999385	0.6083313270482904				
86.51171875	0.2	177176	84	59	0	0	0	84	236	stimuli\Videos_short_600ms_horvertflip\60.single_push_with_tip_of_pencil_short_horvertflip_short_600ms.mp4	60.single_push_with_tip_of_pencil_short_horvertflip_short_600ms.mp4	134.37620087521918	134.98451929948442	0.6083184242652351				
87.31201171875	0.2	178815	85	59	0	0	0	85	353	stimuli\Videos_short_600ms_vertflip\85.touch_top_to_bottom_with_fabric_short_vertflip_short_600ms.mp4	85.touch_top_to_bottom_with_fabric_short_vertflip_short_600ms.mp4	135.1761836910582	135.78450856671498	0.6083248756567627				
88.11181640625	0.2	180453	86	59	0	0	0	86	257	stimuli\Videos_short_600ms_horvertflip\8.single_touch_with_hairbrush_short_horvertflip_short_600ms.mp4	8.single_touch_with_hairbrush_short_horvertflip_short_600ms.mp4	135.97616504067173	136.58448698387792	0.6083219432061924				
88.91162109375	0.2	182091	87	59	0	0	0	87	59	stimuli\Videos_short_600ms\63.stroke_top_to_bottom_with_screwdriver_short_short_600ms.mp4	63.stroke_top_to_bottom_with_screwdriver_short_short_600ms.mp4	136.77614932273582	137.38447449163775	0.6083251689019562				
89.7119140625	0.2	183730	88	59	0	0	0	88	334	stimuli\Videos_short_600ms_vertflip\68.stroke_top_to_bottom_with_shawl_short_vertflip_short_600ms.mp4	68.stroke_top_to_bottom_with_shawl_short_vertflip_short_600ms.mp4	137.5761186493014	138.18445349529063	0.6083348459892477				
90.51171875	0.2	185368	89	59	0	0	0	89	125	stimuli\Videos_short_600ms_horflip\41.injection_with_blunt_syringe_short_horflip_short_600ms.mp4	41.injection_with_blunt_syringe_short_horflip_short_600ms.mp4	138.37611788686445	138.98443543139456	0.6083175445301094				
91.3115234375	0.2	187006	90	59	0	0	0	90	156	stimuli\Videos_short_600ms_horflip\7.repeated_touch_with_hairbrush_short_horflip_short_600ms.mp4	7.repeated_touch_with_hairbrush_short_horflip_short_600ms.mp4	139.1760851607146	139.78441912696871	0.6083339662541221				
92.11181640625	0.2	188645	91	59	0	0	0	91	296	stimuli\Videos_short_600ms_vertflip\33.scratch_top_to_bottom_with_scissors_short_vertflip_short_600ms.mp4	33.scratch_top_to_bottom_with_scissors_short_vertflip_short_600ms.mp4	139.97603865204655	140.58440252929768	0.6083638772511222				
92.91162109375	0.2	190283	92	59	0	0	0	92	109	stimuli\Videos_short_600ms_horflip\27.single_push_with_a_plastic_whisk_short_horflip_short_600ms.mp4	27.single_push_with_a_plastic_whisk_short_horflip_short_600ms.mp4	140.7760466869613	141.38438857083202	0.6083418838707075				
93.71142578125	0.2	191921	93	59	0	0	0	93	211	stimuli\Videos_short_600ms_horvertflip\38.double_slap_with_pencil_short_horvertflip_short_600ms.mp4	38.double_slap_with_pencil_short_horvertflip_short_600ms.mp4	141.5760060431944	142.18437050693592	0.6083644637415091	4.0	8.0	3.5448578450532295	0.0
133.85205078125	0.2	274129	94	59	1	0	0	0	1	stimuli\Videos_short_600ms\10.single_touch_with_knife_short_short_600ms.mp4	10.single_touch_with_knife_short_short_600ms.mp4	181.71686220736729	182.32520291825767	0.6083407108903884				
134.65185546875	0.2	275767	95	59	1	0	0	1	303	stimuli\Videos_short_600ms_vertflip\4.repeated_tap_with_finger_slow_short_vertflip_short_600ms.mp4	4.repeated_tap_with_finger_slow_short_vertflip_short_600ms.mp4	182.51684472996112	183.12518895979247	0.6083442298313457				
135.45166015625	0.2	277405	96	59	1	0	0	2	187	stimuli\Videos_short_600ms_horvertflip\16.repeated_touch_with_plastic_brush_short_horvertflip_short_600ms.mp4	16.repeated_touch_with_plastic_brush_short_horvertflip_short_600ms.mp4	183.3168342904364	183.9251717756315	0.6083374851950794				
136.251953125	0.2	279044	97	59	1	0	0	3	97	stimuli\Videos_short_600ms_horflip\16.repeated_touch_with_plastic_brush_short_horflip_short_600ms.mp4	16.repeated_touch_with_plastic_brush_short_horflip_short_600ms.mp4	184.11681974548085	184.72515429822488	0.6083345527440542				
137.0517578125	0.2	280682	98	59	1	0	1	4	373	stimuli\Targets_short_600ms_horvertflip\chopstick-silver-tap_short_vertflip_short_600ms.mp4	chopstick-silver-tap_short_vertflip_short_600ms.mp4	184.9168101856917	185.5251333018782	0.6083231161865115				
137.85205078125	0.2	282321	99	59	1	0	0	5	48	stimuli\Videos_short_600ms\53.touch_top_to_bottom_with_knife_short_short_600ms.mp4	53.touch_top_to_bottom_with_knife_short_short_600ms.mp4	185.7168105962346	186.32513048672536	0.6083198904907476				
138.65185546875	0.2	283959	100	59	1	0	0	6	226	stimuli\Videos_short_600ms_horvertflip\51.repeated_touch_with_hammer_short_horvertflip_short_600ms.mp4	51.repeated_touch_with_hammer_short_horvertflip_short_600ms.mp4	186.51678901339756	187.1251033322319	0.6083143188343456				
139.45166015625	0.2	285597	101	59	1	0	0	7	137	stimuli\Videos_short_600ms_horflip\52.touch_top_to_bottom_with_hammer_short_horflip_short_600ms.mp4	52.touch_top_to_bottom_with_hammer_short_horflip_short_600ms.mp4	187.31677006976588	187.9250436275356	0.6082735577697349				
140.251953125	0.2	287236	102	59	1	0	0	8	141	stimuli\Videos_short_600ms_horflip\56.repeated_touch_with_nail_file_short_horflip_short_600ms.mp4	56.repeated_touch_with_nail_file_short_horflip_short_600ms.mp4	188.1167543518304	188.72505635437165	0.6083020025412225				
141.0517578125	0.2	288874	103	59	1	0	0	9	250	stimuli\Videos_short_600ms_horvertflip\73.single_stroke_with_flat_hand_short_horvertflip_short_600ms.mp4	73.single_stroke_with_flat_hand_short_horvertflip_short_600ms.mp4	188.91673394197323	189.5250596973656	0.6083257553923431				
141.8515625	0.2	290512	104	59	1	0	0	10	355	stimuli\Videos_short_600ms_vertflip\87.single_stroke_top_to_bottom_with_plastic_brush_short_vertflip_short_600ms.mp4	87.single_stroke_top_to_bottom_with_plastic_brush_short_vertflip_short_600ms.mp4	189.7167173443022	190.32504749837065	0.608330154068426				
142.65185546875	0.2	292151	105	59	1	0	1	11	362	stimuli\Targets_short_600ms\chopstickwood-tap_short_short_600ms.mp4	chopstickwood-tap_short_short_600ms.mp4	190.5167030925918	191.1250303142092	0.6083272216174009				
143.45166015625	0.2	293789	106	59	1	0	0	12	5	stimuli\Videos_short_600ms\14.repeated_touch_with_pencil_short_short_600ms.mp4	14.repeated_touch_with_pencil_short_short_600ms.mp4	191.31706302159137	191.92500169349023	0.6079386718988644				
144.25146484375	0.2	295427	107	59	1	0	0	13	102	stimuli\Videos_short_600ms_horflip\20.single_touch_with_screwdriver_short_horflip_short_600ms.mp4	20.single_touch_with_screwdriver_short_horflip_short_600ms.mp4	192.1166707769853	192.7249883215154	0.6083175445301094				
145.0517578125	0.2	297066	108	59	1	0	0	14	332	stimuli\Videos_short_600ms_vertflip\66.stroke_top_to_bottom_with_sponge_short_vertflip_short_600ms.mp4	66.stroke_top_to_bottom_with_sponge_short_vertflip_short_600ms.mp4	192.91664479547217	193.5249726035795	0.6083278081073331				
145.8515625	0.2	298704	109	59	1	0	0	15	169	stimuli\Videos_short_600ms_horflip\81.single_stroke_top_to_bottom_with_cotton_pad_short_horflip_short_600ms.mp4	81.single_stroke_top_to_bottom_with_cotton_pad_short_horflip_short_600ms.mp4	193.71663934111348	194.32495453968295	0.6083151985694712				
146.6513671875	0.2	300342	110	59	1	0	0	16	111	stimuli\Videos_short_600ms_horflip\29.single_pinch_with_tweezers_short_horflip_short_600ms.mp4	29.single_pinch_with_tweezers_short_horflip_short_600ms.mp4	194.51661981099187	195.124942340688	0.6083225296961245				
147.45166015625	0.2	301981	111	59	1	0	0	17	331	stimuli\Videos_short_600ms_vertflip\65.stroke_top_to_bottom_with_stanley_knife_short_vertflip_short_600ms.mp4	65.stroke_top_to_bottom_with_stanley_knife_short_vertflip_short_600ms.mp4	195.31660995795755	195.9249210510961	0.6083110931385818				
148.25146484375	0.2	303619	112	59	1	0	0	18	228	stimuli\Videos_short_600ms_horvertflip\53.touch_top_to_bottom_with_knife_short_horvertflip_short_600ms.mp4	53.touch_top_to_bottom_with_knife_short_horvertflip_short_600ms.mp4	196.1165561181629	196.7249047466703	0.6083486285074287				
149.05126953125	0.2	305257	113	59	1	0	0	19	73	stimuli\Videos_short_600ms\76.tickle_with_fingers_from_top_to_bottom_short_short_600ms.mp4	76.tickle_with_fingers_from_top_to_bottom_short_short_600ms.mp4	196.91654509214823	197.524888442244	0.6083433500957653				
149.8515625	0.2	306896	114	59	1	0	0	20	276	stimuli\Videos_short_600ms_vertflip\15.single_stroke_top_to_bottom_with_a_plastic_whisk_short_vertflip_short_600ms.mp4	15.single_stroke_top_to_bottom_with_a_plastic_whisk_short_vertflip_short_600ms.mp4	197.71652878772193	198.3248759500043	0.6083471622823708				
150.6513671875	0.2	308534	115	59	1	0	0	21	28	stimuli\Videos_short_600ms\35.single_punch_with_hand_short_short_600ms.mp4	35.single_punch_with_hand_short_short_600ms.mp4	198.51651189680615	199.12485436716725	0.6083424703610945				
151.451171875	0.2	310172	116	59	1	0	0	22	72	stimuli\Videos_short_600ms\75.(long)stroke_with_fingers_all_over_the_hand_short_short_600ms.mp4	75.(long)stroke_with_fingers_all_over_the_hand_short_short_600ms.mp4	199.3164996978112	199.9248363032707	0.608336605459499				
152.25146484375	0.2	311811	117	59	1	0	0	23	230	stimuli\Videos_short_600ms_horvertflip\55.touch_top_to_bottom_with_nail_file_short_horvertflip_short_600ms.mp4	55.touch_top_to_bottom_with_nail_file_short_horvertflip_short_600ms.mp4	200.11649248398223	200.7247974189745	0.6083049349922476				
153.05126953125	0.2	313449	118	59	1	0	0	24	15	stimuli\Videos_short_600ms\23.single_push_with_a_spoon_short_short_600ms.mp4	23.single_push_with_a_spoon_short_short_600ms.mp4	200.9164967067113	201.52478639295987	0.6082896862485541				
153.85107421875	0.2	315087	119	59	1	0	0	25	21	stimuli\Videos_short_600ms\29.single_pinch_with_tweezers_short_short_600ms.mp4	29.single_pinch_with_tweezers_short_short_600ms.mp4	201.71646955221783	202.32475483978988	0.6082852875720164				
154.6513671875	0.2	316726	120	59	1	0	0	26	352	stimuli\Videos_short_600ms_vertflip\84.single_touch_with_cotton_bud_short_vertflip_short_600ms.mp4	84.single_touch_with_cotton_bud_short_vertflip_short_600ms.mp4	202.5164467964005	203.12474850569652	0.608301709296029				
155.451171875	0.2	318364	121	59	1	0	1	27	382	stimuli\Targets_short_600ms_vertflip\hand-pinch_short_horvertflip_short_600ms.mp4	hand-pinch_short_horvertflip_short_600ms.mp4	203.3164381163465	203.92473572021163	0.6082976038651395				
156.25146484375	0.2	320003	122	59	1	0	0	28	136	stimuli\Videos_short_600ms_horflip\51.repeated_touch_with_hammer_short_horflip_short_600ms.mp4	51.repeated_touch_with_hammer_short_horflip_short_600ms.mp4	204.11641946596	204.7247244009518	0.6083049349917928				
157.05126953125	0.2	321641	123	59	1	0	0	29	82	stimuli\Videos_short_600ms\84.single_touch_with_cotton_bud_short_short_600ms.mp4	84.single_touch_with_cotton_bud_short_short_600ms.mp4	204.91640433451403	205.5247171871229	0.608312852608833				
157.85107421875	0.2	323279	124	59	1	0	0	30	343	stimuli\Videos_short_600ms_vertflip\76.tickle_with_fingers_from_top_to_bottom_short_vertflip_short_600ms.mp4	76.tickle_with_fingers_from_top_to_bottom_short_vertflip_short_600ms.mp4	205.71638803008815	206.32471583819552	0.6083278081073331				
158.6513671875	0.2	324918	125	59	1	0	0	31	243	stimuli\Videos_short_600ms_horvertflip\67.single_touch_with_sponge_short_horvertflip_short_600ms.mp4	67.single_touch_with_sponge_short_horvertflip_short_600ms.mp4	206.5163805230145	207.1246895634372	0.6083090404226823				
159.451171875	0.2	326556	126	59	1	0	0	32	264	stimuli\Videos_short_600ms_horvertflip\86.touch_top_to_bottom_with_hair_brush_short_horvertflip_short_600ms.mp4	86.touch_top_to_bottom_with_hair_brush_short_horvertflip_short_600ms.mp4	207.316361872628	207.92468498881453	0.6083231161865115				
160.2509765625	0.2	328194	127	59	1	0	0	33	281	stimuli\Videos_short_600ms_vertflip\2.single_touch_with_finger_short_vertflip_short_600ms.mp4	2.single_touch_with_finger_short_vertflip_short_600ms.mp4	208.11633735733992	208.72465548836044	0.6083181310204964				
161.05126953125	0.2	329833	128	59	1	0	1	34	371	stimuli\Targets_short_600ms_horflip\hand-stroke_short_horflip_short_600ms.mp4	hand-stroke_short_horflip_short_600ms.mp4	208.91631900019863	209.52463977042453	0.6083207702258733				
161.85107421875	0.2	331471	129	59	1	0	0	35	18	stimuli\Videos_short_600ms\26.single_touch_with_a_blunt_syringe_short_short_600ms.mp4	26.single_touch_with_a_blunt_syringe_short_short_600ms.mp4	209.71628422133335	210.3246243457338	0.6083401244004563				
162.65087890625	0.2	333109	130	59	1	0	0	36	25	stimuli\Videos_short_600ms\32.single_(long)pinch_with_fingers_short_short_600ms.mp4	32.single_(long)pinch_with_fingers_short_short_600ms.mp4	210.51629342922843	211.12460774806277	0.6083143188343456				
163.451171875	0.2	334748	131	59	1	0	0	37	75	stimuli\Videos_short_600ms\78.single_stroke_top_to_bottom_with_soft_brush_short_short_600ms.mp4	78.single_stroke_top_to_bottom_with_soft_brush_short_short_600ms.mp4	211.3162313785715	211.92459115039173	0.6083597718202327				
164.2509765625	0.2	336386	132	59	1	0	0	38	234	stimuli\Videos_short_600ms_horvertflip\59.single_push_with_long_side_pencil_short_horvertflip_short_600ms.mp4	59.single_push_with_long_side_pencil_short_horvertflip_short_600ms.mp4	212.1162092092441	212.72457250000525	0.60836329076119				
165.05078125	0.2	338024	133	59	1	0	0	39	8	stimuli\Videos_short_600ms\17.repeated_touch_with_rolling_pin_short_short_600ms.mp4	17.repeated_touch_with_rolling_pin_short_short_600ms.mp4	212.91624920787172	213.52455766180492	0.6083084539332049				
165.85107421875	0.2	339663	134	59	1	0	1	40	364	stimuli\Targets_short_600ms\hand-pinch_short_short_600ms.mp4	hand-pinch_short_short_600ms.mp4	213.71619683430256	214.32453959790837	0.6083427636058332				
166.65087890625	0.2	341301	135	59	1	0	0	41	240	stimuli\Videos_short_600ms_horvertflip\64.repeated_touch_with_screwdriver_short_horvertflip_short_600ms.mp4	64.repeated_touch_with_screwdriver_short_horvertflip_short_600ms.mp4	214.5162063354428	215.1245238799725	0.6083175445296547				
167.45068359375	0.2	342939	136	59	1	0	0	42	212	stimuli\Videos_short_600ms_horvertflip\39.single_stab_with_scissors_short_horvertflip_short_600ms.mp4	39.single_stab_with_scissors_short_horvertflip_short_600ms.mp4	215.31617331604775	215.92447326587353	0.6082999498257777				
168.2509765625	0.2	344578	137	59	1	0	0	43	81	stimuli\Videos_short_600ms\83.single_stroke_top_to_bottom_with_cotton_bud_short_short_600ms.mp4	83.single_stroke_top_to_bottom_with_cotton_bud_short_short_600ms.mp4	216.1161816442077	216.72448511297443	0.608303468766735				
169.05078125	0.2	346216	138	59	1	0	0	44	348	stimuli\Videos_short_600ms_vertflip\80.stroke_with_sharp_stick_all_over_the_hand_short_vertflip_short_600ms.mp4	80.stroke_with_sharp_stick_all_over_the_hand_short_vertflip_short_600ms.mp4	216.91610845023797	217.52445414629483	0.6083456960568583				
169.8505859375	0.2	347854	139	59	1	0	0	45	39	stimuli\Videos_short_600ms\45.scratching_with_finger_nails_short_short_600ms.mp4	45.scratching_with_finger_nails_short_short_600ms.mp4	217.7161367190629	218.3244331499477	0.6082964308848204				
170.65087890625	0.2	349493	140	59	1	0	0	46	36	stimuli\Videos_short_600ms\42.single_slap_with_plastic_whisk_short_short_600ms.mp4	42.single_slap_with_plastic_whisk_short_short_600ms.mp4	218.51612012139185	219.12441537929635	0.6082952579045013				
171.45068359375	0.2	351131	141	59	1	0	0	47	277	stimuli\Videos_short_600ms_vertflip\16.repeated_touch_with_plastic_brush_short_vertflip_short_600ms.mp4	16.repeated_touch_with_plastic_brush_short_vertflip_short_600ms.mp4	219.3161032304756	219.9244072857327	0.608304055257122				
172.25048828125	0.2	352769	142	59	1	0	0	48	278	stimuli\Videos_short_600ms_vertflip\17.repeated_touch_with_rolling_pin_short_vertflip_short_600ms.mp4	17.repeated_touch_with_rolling_pin_short_vertflip_short_600ms.mp4	220.11608868552048	220.72438775561068	0.6082990700901973				
173.05078125	0.2	354408	143	59	1	0	0	49	3	stimuli\Videos_short_600ms\12.repeated_touch_with_nail_file_short_short_600ms.mp4	12.repeated_touch_with_nail_file_short_short_600ms.mp4	220.91607120811432	221.52439901622165	0.6083278081073331				
173.8505859375	0.2	356046	144	59	1	0	0	50	123	stimuli\Videos_short_600ms_horflip\4.repeated_tap_with_finger_slow_short_horflip_short_600ms.mp4	4.repeated_tap_with_finger_slow_short_horflip_short_600ms.mp4	221.71605695640392	222.32437244821813	0.60831549181421				
174.650390625	0.2	357684	145	59	1	0	0	51	103	stimuli\Videos_short_600ms_horflip\21.repeated_touch_with_metal_chopstick_short_horflip_short_600ms.mp4	21.repeated_touch_with_metal_chopstick_short_horflip_short_600ms.mp4	222.51603654654673	223.1243145029921	0.6082779564453631				
175.45068359375	0.2	359323	146	59	1	0	0	52	292	stimuli\Videos_short_600ms_vertflip\3.single_push_with_finger_short_vertflip_short_600ms.mp4	3.single_push_with_finger_short_vertflip_short_600ms.mp4	223.3160208286108	223.9243413055915	0.6083204769806798				
176.25048828125	0.2	360961	147	59	1	0	0	53	316	stimuli\Videos_short_600ms_vertflip\51.repeated_touch_with_hammer_short_vertflip_short_600ms.mp4	51.repeated_touch_with_hammer_short_vertflip_short_600ms.mp4	224.11600393769504	224.7243217754699	0.6083178377748482				
177.05078125	0.2	362600	148	59	1	0	0	54	359	stimuli\Videos_short_600ms_vertflip\90.repeated_touch_with_sponge_short_vertflip_short_600ms.mp4	90.repeated_touch_with_sponge_short_vertflip_short_600ms.mp4	224.91598616704368	225.52430635077917	0.6083201837354864				
177.8505859375	0.2	364238	149	59	1	0	0	55	294	stimuli\Videos_short_600ms_vertflip\31.hand_grabbing_wrist_short_vertflip_short_600ms.mp4	31.hand_grabbing_wrist_short_vertflip_short_600ms.mp4	225.71597396804873	226.32429033959852	0.6083163715497903				
178.650390625	0.2	365876	150	59	1	0	1	56	366	stimuli\Targets_short_600ms_horflip\brush-stroke_short_horflip_short_600ms.mp4	brush-stroke_short_horflip_short_600ms.mp4	226.51594036216375	227.1242746216626	0.6083342594988608				
179.45068359375	0.2	367515	151	59	1	0	0	57	185	stimuli\Videos_short_600ms_horvertflip\14.repeated_touch_with_pencil_short_horvertflip_short_600ms.mp4	14.repeated_touch_with_pencil_short_horvertflip_short_600ms.mp4	227.3159076360139	227.9242603699522	0.6083527339383181				
180.25048828125	0.2	369153	152	59	1	0	0	58	336	stimuli\Videos_short_600ms_vertflip\7.repeated_touch_with_hairbrush_short_vertflip_short_600ms.mp4	7.repeated_touch_with_hairbrush_short_vertflip_short_600ms.mp4	228.1158971964892	228.72423790738003	0.6083407108908432				
181.05029296875	0.2	370791	153	59	1	0	0	59	350	stimuli\Videos_short_600ms_vertflip\82.repeated_touch_with_cotton_bud_short_vertflip_short_600ms.mp4	82.repeated_touch_with_cotton_bud_short_vertflip_short_600ms.mp4	228.91588587722936	229.5242224826893	0.6083366054599537				
181.8505859375	0.2	372430	154	59	1	0	0	60	258	stimuli\Videos_short_600ms_horvertflip\80.stroke_with_sharp_stick_all_over_the_hand_short_horvertflip_short_600ms.mp4	80.stroke_with_sharp_stick_all_over_the_hand_short_horvertflip_short_600ms.mp4	229.71587514445991	230.32416101852232	0.6082858740624033				
182.650390625	0.2	374068	155	59	1	0	0	61	248	stimuli\Videos_short_600ms_horvertflip\71.single_stroke_with_finger_top_to_bottom_short_horvertflip_short_600ms.mp4	71.single_stroke_with_finger_top_to_bottom_short_horvertflip_short_600ms.mp4	230.51585092241703	231.12418518191637	0.6083342594993155				
183.4501953125	0.2	375706	156	59	1	0	0	62	262	stimuli\Videos_short_600ms_horvertflip\84.single_touch_with_cotton_bud_short_horvertflip_short_600ms.mp4	84.single_touch_with_cotton_bud_short_horvertflip_short_600ms.mp4	231.3158683411743	231.92417356941132	0.6083052282369863				
184.25048828125	0.2	377345	157	59	1	0	0	63	155	stimuli\Videos_short_600ms_horflip\69.stroke_with_soft_sock_short_horflip_short_600ms.mp4	69.stroke_with_soft_sock_short_horflip_short_600ms.mp4	232.11584675833728	232.72413292564443	0.608286167307142				
185.05029296875	0.2	378983	158	59	1	0	0	64	38	stimuli\Videos_short_600ms\44.pushing_top_to_bottom_with_finger_short_short_600ms.mp4	44.pushing_top_to_bottom_with_finger_short_short_600ms.mp4	232.9158228295396	233.52411603472865	0.6082932051890566				
185.85009765625	0.2	380621	159	59	1	0	0	65	304	stimuli\Videos_short_600ms_vertflip\40.repeated_push_with_finger_short_vertflip_short_600ms.mp4	40.repeated_push_with_finger_short_vertflip_short_600ms.mp4	233.71580153994728	234.32412055070245	0.6083190107551673				
186.650390625	0.2	382260	160	59	1	0	0	66	98	stimuli\Videos_short_600ms_horflip\17.repeated_touch_with_rolling_pin_short_horflip_short_600ms.mp4	17.repeated_touch_with_rolling_pin_short_horflip_short_600ms.mp4	234.51578963419752	235.1241104044234	0.6083207702258733				
187.4501953125	0.2	383898	161	59	1	0	0	67	317	stimuli\Videos_short_600ms_vertflip\52.touch_top_to_bottom_with_hammer_short_vertflip_short_600ms.mp4	52.touch_top_to_bottom_with_hammer_short_vertflip_short_600ms.mp4	235.3157701040759	235.9240709336368	0.6083008295609034				
188.25	0.2	385536	162	59	1	0	0	68	93	stimuli\Videos_short_600ms_horflip\12.repeated_touch_with_nail_file_short_horflip_short_600ms.mp4	12.repeated_touch_with_nail_file_short_horflip_short_600ms.mp4	236.1157537996496	236.7240813145122	0.6083275148625944				
189.05029296875	0.2	387175	163	59	1	0	0	69	105	stimuli\Videos_short_600ms_horflip\23.single_push_with_a_spoon_short_horflip_short_600ms.mp4	23.single_push_with_a_spoon_short_horflip_short_600ms.mp4	236.91573690873383	237.52406530333155	0.60832839459772				
189.85009765625	0.2	388813	164	59	1	0	0	70	337	stimuli\Videos_short_600ms_vertflip\70.(long)stroke_with_finger_all_over_the_hand_short_vertflip_short_600ms.mp4	70.(long)stroke_with_finger_all_over_the_hand_short_vertflip_short_600ms.mp4	237.7157000771531	238.3240419610238	0.6083418838707075				
190.64990234375	0.2	390451	165	59	1	0	0	71	158	stimuli\Videos_short_600ms_horflip\71.single_stroke_with_finger_top_to_bottom_short_horflip_short_600ms.mp4	71.single_stroke_with_finger_top_to_bottom_short_horflip_short_600ms.mp4	238.5157057661072	239.1240224309022	0.6083166647949838				
191.4501953125	0.2	392090	166	59	1	0	0	72	33	stimuli\Videos_short_600ms\4.repeated_tap_with_finger_slow_short_short_600ms.mp4	4.repeated_tap_with_finger_slow_short_short_600ms.mp4	239.31568887519143	239.92400583323115	0.6083169580397225				
192.25	0.2	393728	167	59	1	0	0	73	245	stimuli\Videos_short_600ms_horvertflip\69.stroke_with_soft_sock_short_horvertflip_short_600ms.mp4	69.stroke_with_soft_sock_short_horvertflip_short_600ms.mp4	240.1156713977848	240.7239930477458	0.6083216499609989				
193.0498046875	0.2	395366	168	59	1	0	0	74	283	stimuli\Videos_short_600ms_vertflip\21.repeated_touch_with_metal_chopstick_short_vertflip_short_600ms.mp4	21.repeated_touch_with_metal_chopstick_short_vertflip_short_600ms.mp4	240.91565538660416	241.5239735176242	0.6083181310200416				
193.85009765625	0.2	397005	169	59	1	0	0	75	227	stimuli\Videos_short_600ms_horvertflip\52.touch_top_to_bottom_with_hammer_short_horvertflip_short_600ms.mp4	52.touch_top_to_bottom_with_hammer_short_horvertflip_short_600ms.mp4	241.715632924032	242.3239592659138	0.6083263418818206				
194.64990234375	0.2	398643	170	59	1	0	0	76	293	stimuli\Videos_short_600ms_vertflip\30.finger_pulling_back_another_finger_short_vertflip_short_600ms.mp4	30.finger_pulling_back_another_finger_short_vertflip_short_600ms.mp4	242.5156438913973	243.1239397357922	0.6082958443948883				
195.4501953125	0.2	400282	171	59	1	0	0	77	151	stimuli\Videos_short_600ms_horflip\65.stroke_top_to_bottom_with_stanley_knife_short_horflip_short_600ms.mp4	65.stroke_top_to_bottom_with_stanley_knife_short_horflip_short_600ms.mp4	243.3155806677601	243.92392783004243	0.6083471622823708				
196.25	0.2	401920	172	59	1	0	0	78	2	stimuli\Videos_short_600ms\11.single_touch_with_lighter_short_short_600ms.mp4	11.single_touch_with_lighter_short_short_600ms.mp4	244.11556407008905	244.7239071269405	0.6083430568514814				
197.0498046875	0.2	403558	173	59	1	0	0	79	168	stimuli\Videos_short_600ms_horflip\80.stroke_with_sharp_stick_all_over_the_hand_short_horflip_short_600ms.mp4	80.stroke_with_sharp_stick_all_over_the_hand_short_horflip_short_600ms.mp4	244.91557151851384	245.52388935628915	0.6083178377753029				
197.85009765625	0.2	405197	174	59	1	0	0	80	323	stimuli\Videos_short_600ms_vertflip\58.single_slap_with_pencil_short_vertflip_short_600ms.mp4	58.single_slap_with_pencil_short_vertflip_short_600ms.mp4	245.71554113832465	246.32387451808836	0.6083333797637351				
198.64990234375	0.2	406835	175	59	1	0	0	81	87	stimuli\Videos_short_600ms\89.single_touch_with_plastic_brush_short_short_600ms.mp4	89.single_touch_with_plastic_brush_short_short_600ms.mp4	246.5155298190648	247.1238526420061	0.608322822941318				
199.44970703125	0.2	408473	176	59	1	0	0	82	252	stimuli\Videos_short_600ms_horvertflip\75.(long)stroke_with_fingers_all_over_the_hand_short_horvertflip_short_600ms.mp4	75.(long)stroke_with_fingers_all_over_the_hand_short_horvertflip_short_600ms.mp4	247.31552759040233	247.92379381704495	0.6082662266426269				
200.25	0.2	410112	177	59	1	0	0	83	11	stimuli\Videos_short_600ms\2.single_touch_with_finger_short_short_600ms.mp4	2.single_touch_with_finger_short_short_600ms.mp4	248.11550483458495	248.72379950599952	0.6082946714145692				
201.0498046875	0.2	411750	178	59	1	0	0	84	121	stimuli\Videos_short_600ms_horflip\38.double_slap_with_pencil_short_horflip_short_600ms.mp4	38.double_slap_with_pencil_short_horflip_short_600ms.mp4	248.91549615453096	249.5237635541539	0.608267399622946				
201.849609375	0.2	413388	179	59	1	0	0	85	160	stimuli\Videos_short_600ms_horflip\73.single_stroke_with_flat_hand_short_horflip_short_600ms.mp4	73.single_stroke_with_flat_hand_short_horflip_short_600ms.mp4	249.7154687067923	250.32377334853936	0.6083046417470541				
202.64990234375	0.2	415027	180	59	1	0	0	86	112	stimuli\Videos_short_600ms_horflip\3.single_push_with_finger_short_horflip_short_600ms.mp4	3.single_push_with_finger_short_horflip_short_600ms.mp4	250.5154524023665	251.1237538184173	0.6083014160508355				
203.44970703125	0.2	416665	181	59	1	0	0	87	354	stimuli\Videos_short_600ms_vertflip\86.touch_top_to_bottom_with_hair_brush_short_vertflip_short_600ms.mp4	86.touch_top_to_bottom_with_hair_brush_short_vertflip_short_600ms.mp4	251.3154346317151	251.9237618533325	0.6083272216174009				
204.24951171875	0.2	418303	182	59	1	0	0	88	297	stimuli\Videos_short_600ms_vertflip\34.repeated_punch_with_hand_short_vertflip_short_600ms.mp4	34.repeated_punch_with_hand_short_vertflip_short_600ms.mp4	252.11542272596537	252.72375082731787	0.6083281013525266				
205.0498046875	0.2	419942	183	59	1	0	0	89	91	stimuli\Videos_short_600ms_horflip\10.single_touch_with_knife_short_horflip_short_600ms.mp4	10.single_touch_with_knife_short_horflip_short_600ms.mp4	252.91540876750017	253.52372308633403	0.6083143188338909				
205.849609375	0.2	421580	184	59	1	0	0	90	270	stimuli\Videos_short_600ms_vertflip\1.repeated_touch_with_finger_fast_short_vertflip_short_600ms.mp4	1.repeated_touch_with_finger_fast_short_vertflip_short_600ms.mp4	253.7153851319472	254.32370443594755	0.6083193040003607				
206.6494140625	0.2	423218	185	59	1	0	0	91	204	stimuli\Videos_short_600ms_horvertflip\31.hand_grabbing_wrist_short_horvertflip_short_600ms.mp4	31.hand_grabbing_wrist_short_horvertflip_short_600ms.mp4	254.51536853427615	255.1236904774823	0.6083219432061924				
207.44970703125	0.2	424857	186	59	1	0	0	92	42	stimuli\Videos_short_600ms\48.single_slap_with_hand_short_short_600ms.mp4	48.single_slap_with_hand_short_short_600ms.mp4	255.31538155435737	255.92367270683096	0.6082911524736119				
208.24951171875	0.2	426495	187	59	1	0	0	93	143	stimuli\Videos_short_600ms_horflip\58.single_slap_with_pencil_short_horflip_short_600ms.mp4	58.single_slap_with_pencil_short_horflip_short_600ms.mp4	256.115355866089	256.7236552294248	0.6082993633358456				
209.04931640625	0.2	428133	188	59	1	0	0	94	190	stimuli\Videos_short_600ms_horvertflip\19.single_touch_with_rolling_pin_short_horvertflip_short_600ms.mp4	19.single_touch_with_rolling_pin_short_horvertflip_short_600ms.mp4	256.91532988457584	257.5236398047341	0.6083099201582627				
209.849609375	0.2	429772	189	59	1	0	0	95	124	stimuli\Videos_short_600ms_horflip\40.repeated_push_with_finger_short_horflip_short_600ms.mp4	40.repeated_push_with_finger_short_horflip_short_600ms.mp4	257.7153646047923	258.3236270192492	0.6082624144569309	6.0	2.0	2.29220639643745	0.0
244.59814453125	0.2	500937	190	59	2	0	0	0	208	stimuli\Videos_short_600ms_horvertflip\35.single_punch_with_hand_short_horvertflip_short_600ms.mp4	35.single_punch_with_hand_short_horvertflip_short_600ms.mp4	292.4646567845034	293.07287345272925	0.6082166682258503				
245.3984375	0.2	502576	191	59	2	0	0	1	47	stimuli\Videos_short_600ms\52.touch_top_to_bottom_with_hammer_short_short_600ms.mp4	52.touch_top_to_bottom_with_hammer_short_short_600ms.mp4	293.2645504538409	293.87288002141895	0.6083295675780391				
246.1982421875	0.2	504214	192	59	2	0	0	2	175	stimuli\Videos_short_600ms_horflip\87.single_stroke_top_to_bottom_with_plastic_brush_short_horflip_short_600ms.mp4	87.single_stroke_top_to_bottom_with_plastic_brush_short_horflip_short_600ms.mp4	294.06449338835	294.67282999380996	0.6083366054599537				
246.99853515625	0.2	505853	193	59	2	0	0	3	290	stimuli\Videos_short_600ms_vertflip\28.single_injection_with_sharp_needle_short_vertflip_short_600ms.mp4	28.single_injection_with_sharp_needle_short_vertflip_short_600ms.mp4	294.8644738582284	295.47280049335586	0.6083266351274688				
247.79833984375	0.2	507491	194	59	2	0	0	4	225	stimuli\Videos_short_600ms_horvertflip\50.single_(long)hard_push_with_thumb_short_horvertflip_short_600ms.mp4	50.single_(long)hard_push_with_thumb_short_horvertflip_short_600ms.mp4	295.66445902002806	296.2728088215158	0.6083498014877478				
248.59814453125	0.2	509129	195	59	2	0	0	5	127	stimuli\Videos_short_600ms_horflip\43.touch_top_to_bottom_with_sharp_wooden_stick_short_horflip_short_600ms.mp4	43.touch_top_to_bottom_with_sharp_wooden_stick_short_horflip_short_600ms.mp4	296.46442424116276	297.07280014146136	0.6083759002985971				
249.3984375	0.2	510768	196	59	2	0	1	6	361	stimuli\Targets_short_600ms\chopstick-silver-tap_short_short_600ms.mp4	chopstick-silver-tap_short_short_600ms.mp4	297.2644055907763	297.87279322087807	0.6083876301017881				
250.1982421875	0.2	512406	197	59	2	0	0	7	183	stimuli\Videos_short_600ms_horvertflip\12.repeated_touch_with_nail_file_short_horvertflip_short_600ms.mp4	12.repeated_touch_with_nail_file_short_horvertflip_short_600ms.mp4	298.0644209568177	298.672785127314	0.6083641704963156				
250.998046875	0.2	514044	198	59	2	0	0	8	94	stimuli\Videos_short_600ms_horflip\13.single_touch_with_pen_short_horflip_short_600ms.mp4	13.single_touch_with_pen_short_horflip_short_600ms.mp4	298.86444189451595	299.4727224901667	0.60828059565074				
251.79833984375	0.2	515683	199	59	2	0	0	9	282	stimuli\Videos_short_600ms_vertflip\20.single_touch_with_screwdriver_short_vertflip_short_600ms.mp4	20.single_touch_with_screwdriver_short_vertflip_short_600ms.mp4	299.6644229508843	300.27275809011826	0.6083351392339864				
252.59814453125	0.2	517321	200	59	2	0	0	10	22	stimuli\Videos_short_600ms\3.single_push_with_finger_short_short_600ms.mp4	3.single_push_with_finger_short_short_600ms.mp4	300.4644086991739	301.07272800317423	0.6083193040003607				
253.39794921875	0.2	518959	201	59	2	0	0	11	219	stimuli\Videos_short_600ms_horvertflip\45.scratching_with_finger_nails_short_horvertflip_short_600ms.mp4	45.scratching_with_finger_nails_short_horvertflip_short_600ms.mp4	301.2643706946128	301.87270935278775	0.6083386581749437				
254.1982421875	0.2	520598	202	59	2	0	0	12	139	stimuli\Videos_short_600ms_horflip\54.repeated_touch_with_knife_short_horflip_short_600ms.mp4	54.repeated_touch_with_knife_short_horflip_short_600ms.mp4	302.0643699321754	302.67269480783216	0.6083248756567627				
254.998046875	0.2	522236	203	59	2	0	0	13	328	stimuli\Videos_short_600ms_vertflip\62.touch_top_to_bottom_with_scissors_short_vertflip_short_600ms.mp4	62.touch_top_to_bottom_with_scissors_short_vertflip_short_600ms.mp4	302.86435802642563	303.4726770371808	0.6083190107551673				
255.7978515625	0.2	523874	204	59	2	0	0	14	203	stimuli\Videos_short_600ms_horvertflip\30.finger_pulling_back_another_finger_short_horvertflip_short_600ms.mp4	30.finger_pulling_back_another_finger_short_horvertflip_short_600ms.mp4	303.664314156963	304.27266102600015	0.6083468690371774				
256.59814453125	0.2	525513	205	59	2	0	0	15	279	stimuli\Videos_short_600ms_vertflip\18.single_stroke_from_top_to_bottom_with_rolling_pin_short_vertflip_short_600ms.mp4	18.single_stroke_from_top_to_bottom_with_rolling_pin_short_vertflip_short_600ms.mp4	304.46430870260474	305.0726420823685	0.6083333797637351				
257.39794921875	0.2	527151	206	59	2	0	0	16	41	stimuli\Videos_short_600ms\47.(long)scratching_with_finger_nails_short_short_600ms.mp4	47.(long)scratching_with_finger_nails_short_short_600ms.mp4	305.2642416667818	305.8726287103932	0.6083870436114012				
258.19775390625	0.2	528789	207	59	2	0	0	17	67	stimuli\Videos_short_600ms\70.(long)stroke_with_finger_all_over_the_hand_short_short_600ms.mp4	70.(long)stroke_with_finger_all_over_the_hand_short_short_600ms.mp4	306.06422946778684	306.67261123298704	0.6083817652001926				
258.998046875	0.2	530428	208	59	2	0	0	18	315	stimuli\Videos_short_600ms_vertflip\50.single_(long)hard_push_with_thumb_short_vertflip_short_600ms.mp4	50.single_(long)hard_push_with_thumb_short_vertflip_short_600ms.mp4	306.8642075917046	307.4725937555809	0.6083861638762755				
259.7978515625	0.2	532066	209	59	2	0	0	19	347	stimuli\Videos_short_600ms_vertflip\8.single_touch_with_hairbrush_short_vertflip_short_600ms.mp4	8.single_touch_with_hairbrush_short_vertflip_short_600ms.mp4	307.66419509946445	308.27255663075493	0.608361531290484				
260.59765625	0.2	533704	210	59	2	0	0	20	209	stimuli\Videos_short_600ms_horvertflip\36.single_slap_with_full_hand_short_horvertflip_short_600ms.mp4	36.single_slap_with_full_hand_short_horvertflip_short_600ms.mp4	308.4642213155739	309.07256026699406	0.6083389514201372				
261.39794921875	0.2	535343	211	59	2	0	0	21	166	stimuli\Videos_short_600ms_horflip\79.long_with_soft_brush_all_over_the_hand_short_horflip_short_600ms.mp4	79.long_with_soft_brush_all_over_the_hand_short_horflip_short_600ms.mp4	309.2642413735366	309.87251991647236	0.60827854293575				
262.19775390625	0.2	536981	212	59	2	0	0	22	220	stimuli\Videos_short_600ms_horvertflip\46.scratching_top_to_bottom_with_finger_nails_short_horvertflip_short_600ms.mp4	46.scratching_top_to_bottom_with_finger_nails_short_horvertflip_short_600ms.mp4	310.0642063014261	310.6725059580067	0.6082996565805843				
262.99755859375	0.2	538619	213	59	2	0	0	23	9	stimuli\Videos_short_600ms\18.single_stroke_from_top_to_bottom_with_rolling_pin_short_short_600ms.mp4	18.single_stroke_from_top_to_bottom_with_rolling_pin_short_short_600ms.mp4	310.86419322269603	311.47247968324837	0.6082864605523355				
263.7978515625	0.2	540258	214	59	2	0	0	24	210	stimuli\Videos_short_600ms_horvertflip\37.single_stab_with_nail_file_short_horvertflip_short_600ms.mp4	37.single_stab_with_nail_file_short_horvertflip_short_600ms.mp4	311.66417486555474	312.27249592902535	0.608321063470612				
264.59765625	0.2	541896	215	59	2	0	0	25	266	stimuli\Videos_short_600ms_horvertflip\88.repeated_stroke_with_plastic_brush_short_horvertflip_short_600ms.mp4	88.repeated_stroke_with_plastic_brush_short_horvertflip_short_600ms.mp4	312.46415621516826	313.07248343678566	0.6083272216174009				
265.3974609375	0.2	543534	216	59	2	0	0	26	85	stimuli\Videos_short_600ms\87.single_stroke_top_to_bottom_with_plastic_brush_short_short_600ms.mp4	87.single_stroke_top_to_bottom_with_plastic_brush_short_short_600ms.mp4	313.26413668504665	313.87246595937904	0.6083292743323909				
266.19775390625	0.2	545173	217	59	2	0	0	27	327	stimuli\Videos_short_600ms_vertflip\61.single_hit_with_rolling_pin_short_vertflip_short_600ms.mp4	61.single_hit_with_rolling_pin_short_vertflip_short_600ms.mp4	314.06412214009106	314.6724417373366	0.6083195972455542				
266.99755859375	0.2	546811	218	59	2	0	0	28	199	stimuli\Videos_short_600ms_horvertflip\27.single_push_with_a_plastic_whisk_short_horvertflip_short_600ms.mp4	27.single_push_with_a_plastic_whisk_short_horvertflip_short_600ms.mp4	314.8641034897046	315.47243188430184	0.6083283945972653				
267.7978515625	0.2	548450	219	59	2	0	0	29	172	stimuli\Videos_short_600ms_horflip\84.single_touch_with_cotton_bud_short_horflip_short_600ms.mp4	84.single_touch_with_cotton_bud_short_horflip_short_600ms.mp4	315.6640895312389	316.2724103014648	0.6083207702258733				
268.59765625	0.2	550088	220	59	2	0	0	30	53	stimuli\Videos_short_600ms\58.single_slap_with_pencil_short_short_600ms.mp4	58.single_slap_with_pencil_short_short_600ms.mp4	316.46407381330346	317.0723960497544	0.6083222364509311				
269.3974609375	0.2	551726	221	59	2	0	0	31	132	stimuli\Videos_short_600ms_horflip\48.single_slap_with_hand_short_horflip_short_600ms.mp4	48.single_slap_with_hand_short_horflip_short_600ms.mp4	317.2640490047702	317.87237563989765	0.6083266351274688				
270.19775390625	0.2	553365	222	59	2	0	0	32	269	stimuli\Videos_short_600ms_horvertflip\90.repeated_touch_with_sponge_short_horvertflip_short_600ms.mp4	90.repeated_touch_with_sponge_short_horvertflip_short_600ms.mp4	318.06402360974744	318.67236021520694	0.608336605459499				
270.99755859375	0.2	555003	223	59	2	0	0	33	7	stimuli\Videos_short_600ms\16.repeated_touch_with_plastic_brush_short_short_600ms.mp4	16.repeated_touch_with_plastic_brush_short_short_600ms.mp4	318.8640213810845	319.4723421513104	0.6083207702258733				
271.79736328125	0.2	556641	224	59	2	0	0	34	275	stimuli\Videos_short_600ms_vertflip\14.repeated_touch_with_pencil_short_vertflip_short_600ms.mp4	14.repeated_touch_with_pencil_short_vertflip_short_600ms.mp4	319.6639827900335	320.2723276063548	0.6083448163212779				
272.59765625	0.2	558280	225	59	2	0	0	35	213	stimuli\Videos_short_600ms_horvertflip\4.repeated_tap_with_finger_slow_short_horvertflip_short_600ms.mp4	4.repeated_tap_with_finger_slow_short_horvertflip_short_600ms.mp4	320.46394478547245	321.07230690325287	0.6083621177804162				
273.3974609375	0.2	559918	226	59	2	0	0	36	238	stimuli\Videos_short_600ms_horvertflip\62.touch_top_to_bottom_with_scissors_short_horvertflip_short_600ms.mp4	62.touch_top_to_bottom_with_scissors_short_horvertflip_short_600ms.mp4	321.26395604608297	321.8722894258467	0.6083333797637351				
274.197265625	0.2	561556	227	59	2	0	0	37	358	stimuli\Videos_short_600ms_vertflip\9.single_touch_with_hammer_short_vertflip_short_600ms.mp4	9.single_touch_with_hammer_short_vertflip_short_600ms.mp4	322.06393651596136	322.672274001156	0.6083374851946246				
274.99755859375	0.2	563195	228	59	2	0	0	38	135	stimuli\Videos_short_600ms_horflip\50.single_(long)hard_push_with_thumb_short_horflip_short_600ms.mp4	50.single_(long)hard_push_with_thumb_short_horflip_short_600ms.mp4	322.8640061323413	323.47223716957524	0.6082310372339634				
275.79736328125	0.2	564833	229	59	2	0	0	39	324	stimuli\Videos_short_600ms_vertflip\59.single_push_with_long_side_pencil_short_vertflip_short_600ms.mp4	59.single_push_with_long_side_pencil_short_vertflip_short_600ms.mp4	323.66392179505874	324.2722252638255	0.608303468766735				
276.59716796875	0.2	566471	230	59	2	0	0	40	131	stimuli\Videos_short_600ms_horflip\47.(long)scratching_with_finger_nails_short_horflip_short_600ms.mp4	47.(long)scratching_with_finger_nails_short_horflip_short_600ms.mp4	324.46395416931455	325.0722077864193	0.608253617104765				
277.3974609375	0.2	568110	231	59	2	0	0	41	200	stimuli\Videos_short_600ms_horvertflip\28.single_injection_with_sharp_needle_short_horvertflip_short_600ms.mp4	28.single_injection_with_sharp_needle_short_horvertflip_short_600ms.mp4	325.2638900659422	325.87219441444404	0.6083043485018607				
278.197265625	0.2	569748	232	59	2	0	0	42	88	stimuli\Videos_short_600ms\9.single_touch_with_hammer_short_short_600ms.mp4	9.single_touch_with_hammer_short_short_600ms.mp4	326.06386906959506	326.67214995849145	0.6082808888963882				
278.9970703125	0.2	571386	233	59	2	0	0	43	302	stimuli\Videos_short_600ms_vertflip\39.single_stab_with_scissors_short_vertflip_short_600ms.mp4	39.single_stab_with_scissors_short_vertflip_short_600ms.mp4	326.8638530584144	327.47214626360346	0.6082932051890566				
279.79736328125	0.2	573025	234	59	2	0	0	44	207	stimuli\Videos_short_600ms_horvertflip\34.repeated_punch_with_hand_short_horvertflip_short_600ms.mp4	34.repeated_punch_with_hand_short_horvertflip_short_600ms.mp4	327.66383646074337	328.2721589904395	0.6083225296961245				
280.59716796875	0.2	574663	235	59	2	0	0	45	305	stimuli\Videos_short_600ms_vertflip\41.injection_with_blunt_syringe_short_vertflip_short_600ms.mp4	41.injection_with_blunt_syringe_short_vertflip_short_600ms.mp4	328.46382074280746	329.0721432725036	0.6083225296961245				
281.39697265625	0.2	576301	236	59	2	0	0	46	60	stimuli\Videos_short_600ms\64.repeated_touch_with_screwdriver_short_short_600ms.mp4	64.repeated_touch_with_screwdriver_short_short_600ms.mp4	329.2638076640774	329.87212256940165	0.6083149053242778				
282.197265625	0.2	577940	237	59	2	0	0	47	84	stimuli\Videos_short_600ms\86.touch_top_to_bottom_with_hair_brush_short_short_600ms.mp4	86.touch_top_to_bottom_with_hair_brush_short_short_600ms.mp4	330.06378842720096	330.6721056784859	0.608317251284916				
282.9970703125	0.2	579578	238	59	2	0	0	48	4	stimuli\Videos_short_600ms\13.single_touch_with_pen_short_short_600ms.mp4	13.single_touch_with_pen_short_short_600ms.mp4	330.86377153628473	331.47208849432445	0.6083169580397225				
283.796875	0.2	581216	239	59	2	0	0	49	119	stimuli\Videos_short_600ms_horflip\36.single_slap_with_full_hand_short_horflip_short_600ms.mp4	36.single_slap_with_full_hand_short_horflip_short_600ms.mp4	331.66375141967274	332.2720707236731	0.6083193040003607				
284.59716796875	0.2	582855	240	59	2	0	0	50	249	stimuli\Videos_short_600ms_horvertflip\72.(short)stroke_with_finger_all_over_the_hand_short_horvertflip_short_600ms.mp4	72.(short)stroke_with_finger_all_over_the_hand_short_horvertflip_short_600ms.mp4	332.4637351152469	333.07205588547276	0.6083207702258733				
285.39697265625	0.2	584493	241	59	2	0	0	51	40	stimuli\Videos_short_600ms\46.scratching_top_to_bottom_with_finger_nails_short_short_600ms.mp4	46.scratching_top_to_bottom_with_finger_nails_short_short_600ms.mp4	333.2636742375703	333.8720378215762	0.6083635840059287				
286.19677734375	0.2	586131	242	59	2	0	0	52	128	stimuli\Videos_short_600ms_horflip\44.pushing_top_to_bottom_with_finger_short_horflip_short_600ms.mp4	44.pushing_top_to_bottom_with_finger_short_horflip_short_600ms.mp4	334.06366350480084	334.6720276752967	0.6083641704958609				
286.9970703125	0.2	587770	243	59	2	0	0	53	117	stimuli\Videos_short_600ms_horflip\34.repeated_punch_with_hand_short_horflip_short_600ms.mp4	34.repeated_punch_with_hand_short_horflip_short_600ms.mp4	334.8636633288538	335.472003746499	0.608340417645195				
287.796875	0.2	589408	244	59	2	0	0	54	267	stimuli\Videos_short_600ms_horvertflip\89.single_touch_with_plastic_brush_short_horvertflip_short_600ms.mp4	89.single_touch_with_plastic_brush_short_horvertflip_short_600ms.mp4	335.66365904747545	336.2719856826029	0.6083266351274688				
288.59716796875	0.2	591047	245	59	2	0	0	55	242	stimuli\Videos_short_600ms_horvertflip\66.stroke_top_to_bottom_with_sponge_short_horvertflip_short_600ms.mp4	66.stroke_top_to_bottom_with_sponge_short_horvertflip_short_600ms.mp4	336.4636075536414	337.0719746565883	0.608367102946886				
289.39697265625	0.2	592685	246	59	2	0	0	56	333	stimuli\Videos_short_600ms_vertflip\67.single_touch_with_sponge_short_vertflip_short_600ms.mp4	67.single_touch_with_sponge_short_vertflip_short_600ms.mp4	337.26359946007733	337.8719545399763	0.6083550798989563				
290.19677734375	0.2	594323	247	59	2	0	0	57	144	stimuli\Videos_short_600ms_horflip\59.single_push_with_long_side_pencil_short_horflip_short_600ms.mp4	59.single_push_with_long_side_pencil_short_horflip_short_600ms.mp4	338.0635978179048	338.67192415978707	0.6083263418822753				
290.9970703125	0.2	595962	248	59	2	0	0	58	306	stimuli\Videos_short_600ms_vertflip\42.single_slap_with_plastic_whisk_short_vertflip_short_600ms.mp4	42.single_slap_with_plastic_whisk_short_vertflip_short_600ms.mp4	338.8636052663296	339.47191547973307	0.6083102134034561				
291.796875	0.2	597600	249	59	2	0	0	59	338	stimuli\Videos_short_600ms_vertflip\71.single_stroke_with_finger_top_to_bottom_short_vertflip_short_600ms.mp4	71.single_stroke_with_finger_top_to_bottom_short_vertflip_short_600ms.mp4	339.6635954132953	340.27187923464226	0.6082838213469586				
292.5966796875	0.2	599238	250	59	2	0	0	60	309	stimuli\Videos_short_600ms_vertflip\45.scratching_with_finger_nails_short_vertflip_short_600ms.mp4	45.scratching_with_finger_nails_short_vertflip_short_600ms.mp4	340.46356679257633	341.0718253948471	0.6082586022707801				
293.39697265625	0.2	600877	251	59	2	0	0	61	239	stimuli\Videos_short_600ms_horvertflip\63.stroke_top_to_bottom_with_screwdriver_short_horvertflip_short_600ms.mp4	63.stroke_top_to_bottom_with_screwdriver_short_horvertflip_short_600ms.mp4	341.2635657368942	341.87183430949744	0.6082685726032651				
294.19677734375	0.2	602515	252	59	2	0	0	62	57	stimuli\Videos_short_600ms\61.single_hit_with_rolling_pin_short_short_600ms.mp4	61.single_hit_with_rolling_pin_short_short_600ms.mp4	342.06353564995015	342.6718443971281	0.6083087471779436				
294.99658203125	0.2	604153	253	59	2	0	0	63	150	stimuli\Videos_short_600ms_horflip\64.repeated_touch_with_screwdriver_short_horflip_short_600ms.mp4	64.repeated_touch_with_screwdriver_short_horflip_short_600ms.mp4	342.8635272631409	343.4718184156145	0.6082911524736119				
295.796875	0.2	605792	254	59	2	0	0	64	29	stimuli\Videos_short_600ms\36.single_slap_with_full_hand_short_short_600ms.mp4	36.single_slap_with_full_hand_short_short_600ms.mp4	343.6635024546081	344.2718191194026	0.6083166647945291				
296.5966796875	0.2	607430	255	59	2	0	1	65	380	stimuli\Targets_short_600ms_vertflip\chopstickwood-tap_short_horvertflip_short_600ms.mp4	chopstickwood-tap_short_horvertflip_short_600ms.mp4	344.463480871771	345.071808093388	0.6083272216169462				
297.396484375	0.2	609068	256	59	2	0	0	66	46	stimuli\Videos_short_600ms\51.repeated_touch_with_hammer_short_short_600ms.mp4	51.repeated_touch_with_hammer_short_short_600ms.mp4	345.2634487321111	345.8717853375706	0.608336605459499				
298.19677734375	0.2	610707	257	59	2	0	0	67	233	stimuli\Videos_short_600ms_horvertflip\58.single_slap_with_pencil_short_horvertflip_short_600ms.mp4	58.single_slap_with_pencil_short_horvertflip_short_600ms.mp4	346.06344884940927	346.67176756691924	0.6083187175099738				
298.99658203125	0.2	612345	258	59	2	0	0	68	129	stimuli\Videos_short_600ms_horflip\45.scratching_with_finger_nails_short_horflip_short_600ms.mp4	45.scratching_with_finger_nails_short_horflip_short_600ms.mp4	346.86343166524784	347.47175360845404	0.6083219432061924				
299.79638671875	0.2	613983	259	59	2	0	0	69	351	stimuli\Videos_short_600ms_vertflip\83.single_stroke_top_to_bottom_with_cotton_bud_short_vertflip_short_600ms.mp4	83.single_stroke_top_to_bottom_with_cotton_bud_short_vertflip_short_600ms.mp4	347.6634144810869	348.27173642429307	0.6083219432061924				
300.5966796875	0.2	615622	260	59	2	0	0	70	181	stimuli\Videos_short_600ms_horvertflip\10.single_touch_with_knife_short_horvertflip_short_600ms.mp4	10.single_touch_with_knife_short_horvertflip_short_600ms.mp4	348.46340052262167	349.07171572119114	0.6083151985694712				
301.396484375	0.2	617260	261	59	2	0	0	71	80	stimuli\Videos_short_600ms\82.repeated_touch_with_cotton_bud_short_short_600ms.mp4	82.repeated_touch_with_cotton_bud_short_short_600ms.mp4	349.2634009331646	349.8717017627255	0.6083008295609034				
302.1962890625	0.2	618898	262	59	2	0	0	72	247	stimuli\Videos_short_600ms_horvertflip\70.(long)stroke_with_finger_all_over_the_hand_short_horvertflip_short_600ms.mp4	70.(long)stroke_with_finger_all_over_the_hand_short_horvertflip_short_600ms.mp4	350.0633904936403	350.6716845785645	0.6082940849241822				
302.99658203125	0.2	620537	263	59	2	0	0	73	149	stimuli\Videos_short_600ms_horflip\63.stroke_top_to_bottom_with_screwdriver_short_horflip_short_600ms.mp4	63.stroke_top_to_bottom_with_screwdriver_short_horflip_short_600ms.mp4	350.86332316457174	351.47166563493283	0.6083424703610945				
303.79638671875	0.2	622175	264	59	2	0	0	74	108	stimuli\Videos_short_600ms_horflip\26.single_touch_with_a_blunt_syringe_short_horflip_short_600ms.mp4	26.single_touch_with_a_blunt_syringe_short_horflip_short_600ms.mp4	351.6633056871656	352.2716519697128	0.6083462825472452				
304.59619140625	0.2	623813	265	59	2	0	0	75	64	stimuli\Videos_short_600ms\68.stroke_top_to_bottom_with_shawl_short_short_600ms.mp4	68.stroke_top_to_bottom_with_shawl_short_short_600ms.mp4	352.4632987665823	353.0716336125711	0.608334845988793				
305.396484375	0.2	625452	266	59	2	0	0	76	182	stimuli\Videos_short_600ms_horvertflip\11.single_touch_with_lighter_short_horvertflip_short_600ms.mp4	11.single_touch_with_lighter_short_horvertflip_short_600ms.mp4	353.2632836351363	353.8716000066861	0.6083163715497903				
306.1962890625	0.2	627090	267	59	2	0	0	77	349	stimuli\Videos_short_600ms_vertflip\81.single_stroke_top_to_bottom_with_cotton_pad_short_vertflip_short_600ms.mp4	81.single_stroke_top_to_bottom_with_cotton_pad_short_vertflip_short_600ms.mp4	354.0632746618371	354.67157314543783	0.6082984836007199				
306.99658203125	0.2	628729	268	59	2	0	0	78	259	stimuli\Videos_short_600ms_horvertflip\81.single_stroke_top_to_bottom_with_cotton_pad_short_horvertflip_short_600ms.mp4	81.single_stroke_top_to_bottom_with_cotton_pad_short_horvertflip_short_600ms.mp4	354.86341260431846	355.4715371935922	0.608124589273757				
307.79638671875	0.2	630367	269	59	2	0	0	79	130	stimuli\Videos_short_600ms_horflip\46.scratching_top_to_bottom_with_finger_nails_short_horflip_short_600ms.mp4	46.scratching_top_to_bottom_with_finger_nails_short_horflip_short_600ms.mp4	355.663247917887	356.27154845420273	0.6083005363157099				
308.59619140625	0.2	632005	270	59	2	0	0	80	161	stimuli\Videos_short_600ms_horflip\74.fingers_walking_from_top_to_bottom_short_horflip_short_600ms.mp4	74.fingers_walking_from_top_to_bottom_short_horflip_short_600ms.mp4	356.46322985399047	357.07152423215985	0.6082943781693757				
309.396484375	0.2	633644	271	59	2	0	0	81	237	stimuli\Videos_short_600ms_horvertflip\61.single_hit_with_rolling_pin_short_horvertflip_short_600ms.mp4	61.single_hit_with_rolling_pin_short_horvertflip_short_600ms.mp4	357.2631669235984	357.87151437912553	0.6083474555271096				
310.1962890625	0.2	635282	272	59	2	0	0	82	118	stimuli\Videos_short_600ms_horflip\35.single_punch_with_hand_short_horflip_short_600ms.mp4	35.single_punch_with_hand_short_horflip_short_600ms.mp4	358.0631954856681	358.6715191883445	0.6083237026764436				
310.99609375	0.2	636920	273	59	2	0	0	83	55	stimuli\Videos_short_600ms\6.single_touch_with_flat_hand_short_short_600ms.mp4	6.single_touch_with_flat_hand_short_short_600ms.mp4	358.86318094071294	359.4715052298793	0.6083242891663758				
311.79638671875	0.2	638559	274	59	2	0	0	84	232	stimuli\Videos_short_600ms_horvertflip\57.single_touch_with_nail_file_short_horvertflip_short_600ms.mp4	57.single_touch_with_nail_file_short_horvertflip_short_600ms.mp4	359.66316023761055	360.2714900984338	0.6083298608232326				
312.59619140625	0.2	640197	275	59	2	0	0	85	101	stimuli\Videos_short_600ms_horflip\2.single_touch_with_finger_short_horflip_short_600ms.mp4	2.single_touch_with_finger_short_horflip_short_600ms.mp4	360.4631442264299	361.0714647034106	0.6083204769806798				
313.39599609375	0.2	641835	276	59	2	0	0	86	186	stimuli\Videos_short_600ms_horvertflip\15.single_stroke_top_to_bottom_with_a_plastic_whisk_short_horvertflip_short_600ms.mp4	15.single_stroke_top_to_bottom_with_a_plastic_whisk_short_horvertflip_short_600ms.mp4	361.2631343733956	361.8714478124943	0.6083134390987652				
314.1962890625	0.2	643474	277	59	2	0	0	87	6	stimuli\Videos_short_600ms\15.single_stroke_top_to_bottom_with_a_plastic_whisk_short_short_600ms.mp4	15.single_stroke_top_to_bottom_with_a_plastic_whisk_short_short_600ms.mp4	362.0630987147952	362.67143004184345	0.6083313270482904				
314.99609375	0.2	645112	278	59	2	0	0	88	147	stimuli\Videos_short_600ms_horflip\61.single_hit_with_rolling_pin_short_horflip_short_600ms.mp4	61.single_hit_with_rolling_pin_short_horflip_short_600ms.mp4	362.86309941858326	363.4714131509272	0.6083137323439587				
315.7958984375	0.2	646750	279	59	2	0	1	89	365	stimuli\Targets_short_600ms\hand-stroke_short_short_600ms.mp4	hand-stroke_short_short_600ms.mp4	363.66308809932343	364.271399192462	0.6083110931385818				
316.59619140625	0.2	648389	280	59	2	0	0	90	195	stimuli\Videos_short_600ms_horvertflip\23.single_push_with_a_spoon_short_horvertflip_short_600ms.mp4	23.single_push_with_a_spoon_short_horvertflip_short_600ms.mp4	364.4630345527735	365.0713793690952	0.6083448163217327				
317.39599609375	0.2	650027	281	59	2	0	0	91	157	stimuli\Videos_short_600ms_horflip\70.(long)stroke_with_finger_all_over_the_hand_short_horflip_short_600ms.mp4	70.(long)stroke_with_finger_all_over_the_hand_short_horflip_short_600ms.mp4	365.26304933232495	365.8713610119539	0.6083116796289687				
318.19580078125	0.2	651665	282	59	2	0	0	92	246	stimuli\Videos_short_600ms_horvertflip\7.repeated_touch_with_hairbrush_short_horvertflip_short_600ms.mp4	7.repeated_touch_with_hairbrush_short_horvertflip_short_600ms.mp4	366.0630025304117	366.6713479332234	0.6083454028116648	3.0	2.0	2.471131049168889	0.0
359.38623046875	0.2	736023	283	59	3	0	0	0	344	stimuli\Videos_short_600ms_vertflip\77.tapping_with_all_fingers_short_vertflip_short_600ms.mp4	77.tapping_with_all_fingers_short_vertflip_short_600ms.mp4	407.2537763367063	407.8621346423015	0.6083583055951749				
360.1865234375	0.2	737662	284	59	3	0	0	1	253	stimuli\Videos_short_600ms_horvertflip\76.tickle_with_fingers_from_top_to_bottom_short_horvertflip_short_600ms.mp4	76.tickle_with_fingers_from_top_to_bottom_short_horvertflip_short_600ms.mp4	408.05377792023	408.6621195108555	0.6083415906255141				
360.986328125	0.2	739300	285	59	3	0	0	2	99	stimuli\Videos_short_600ms_horflip\18.single_stroke_from_top_to_bottom_with_rolling_pin_short_horflip_short_600ms.mp4	18.single_stroke_from_top_to_bottom_with_rolling_pin_short_horflip_short_600ms.mp4	408.8537677739505	409.46210379292006	0.6083360189695668				
361.7861328125	0.2	740938	286	59	3	0	0	3	298	stimuli\Videos_short_600ms_vertflip\35.single_punch_with_hand_short_vertflip_short_600ms.mp4	35.single_punch_with_hand_short_vertflip_short_600ms.mp4	409.6537488303188	410.2620687208096	0.6083198904907476				
362.58642578125	0.2	742577	287	59	3	0	0	4	189	stimuli\Videos_short_600ms_horvertflip\18.single_stroke_from_top_to_bottom_with_rolling_pin_short_horvertflip_short_600ms.mp4	18.single_stroke_from_top_to_bottom_with_rolling_pin_short_horvertflip_short_600ms.mp4	410.4537556922537	411.0620233851214	0.6082676928676847				
363.38623046875	0.2	744215	288	59	3	0	0	5	188	stimuli\Videos_short_600ms_horvertflip\17.repeated_touch_with_rolling_pin_short_horvertflip_short_600ms.mp4	17.repeated_touch_with_rolling_pin_short_horvertflip_short_600ms.mp4	411.2537432000136	411.8620281943408	0.6082849943272777				
364.18603515625	0.2	745853	289	59	3	0	0	6	311	stimuli\Videos_short_600ms_vertflip\47.(long)scratching_with_finger_nails_short_vertflip_short_600ms.mp4	47.(long)scratching_with_finger_nails_short_vertflip_short_600ms.mp4	412.0536993305509	412.6620110101794	0.608311679628514				
364.986328125	0.2	747492	290	59	3	0	1	7	372	stimuli\Targets_short_600ms_horvertflip\brush-stroke_short_vertflip_short_600ms.mp4	brush-stroke_short_vertflip_short_600ms.mp4	412.8536991546039	413.4619920665482	0.6082929119443179				
365.7861328125	0.2	749130	291	59	3	0	0	8	339	stimuli\Videos_short_600ms_vertflip\72.(short)stroke_with_finger_all_over_the_hand_short_vertflip_short_600ms.mp4	72.(short)stroke_with_finger_all_over_the_hand_short_vertflip_short_600ms.mp4	413.6536813839525	414.2620065528545	0.6083251689019562				
366.5859375	0.2	750768	292	59	3	0	0	9	32	stimuli\Videos_short_600ms\39.single_stab_with_scissors_short_short_600ms.mp4	39.single_stab_with_scissors_short_short_600ms.mp4	414.4536668389974	415.0619849700174	0.6083181310200416				
367.38623046875	0.2	752407	293	59	3	0	0	10	173	stimuli\Videos_short_600ms_horflip\85.touch_top_to_bottom_with_fabric_short_horflip_short_600ms.mp4	85.touch_top_to_bottom_with_fabric_short_horflip_short_600ms.mp4	415.2536493615907	415.8619698385719	0.6083204769811346				
368.18603515625	0.2	754045	294	59	3	0	0	11	291	stimuli\Videos_short_600ms_vertflip\29.single_pinch_with_tweezers_short_vertflip_short_600ms.mp4	29.single_pinch_with_tweezers_short_vertflip_short_600ms.mp4	416.0536280719989	416.6619482557344	0.6083201837354864				
368.98583984375	0.2	755683	295	59	3	0	0	12	126	stimuli\Videos_short_600ms_horflip\42.single_slap_with_plastic_whisk_short_horflip_short_600ms.mp4	42.single_slap_with_plastic_whisk_short_horflip_short_600ms.mp4	416.85398682801815	417.461934004024	0.6079471760058368				
369.7861328125	0.2	757322	296	59	3	0	1	13	367	stimuli\Targets_short_600ms_horflip\chopstick-silver-tap_short_horflip_short_600ms.mp4	chopstick-silver-tap_short_horflip_short_600ms.mp4	417.6535954631472	418.2618701938968	0.6082747307495993				
370.5859375	0.2	758960	297	59	3	0	0	14	312	stimuli\Videos_short_600ms_vertflip\48.single_slap_with_hand_short_vertflip_short_600ms.mp4	48.single_slap_with_hand_short_vertflip_short_600ms.mp4	418.45358209117194	419.06190872629895	0.608326635127014				
371.3857421875	0.2	760598	298	59	3	0	0	15	114	stimuli\Videos_short_600ms_horflip\31.hand_grabbing_wrist_short_horflip_short_600ms.mp4	31.hand_grabbing_wrist_short_horflip_short_600ms.mp4	419.25356314754026	419.8618809853151	0.6083178377748482				
372.18603515625	0.2	762237	299	59	3	0	0	16	192	stimuli\Videos_short_600ms_horvertflip\20.single_touch_with_screwdriver_short_horvertflip_short_600ms.mp4	20.single_touch_with_screwdriver_short_horvertflip_short_600ms.mp4	420.0535459633793	420.66186497413446	0.6083190107551673				
372.98583984375	0.2	763875	300	59	3	0	0	17	202	stimuli\Videos_short_600ms_horvertflip\3.single_push_with_finger_short_horvertflip_short_600ms.mp4	3.single_push_with_finger_short_horvertflip_short_600ms.mp4	420.8535255535221	421.4618472034831	0.6083216499609989				
373.78564453125	0.2	765513	301	59	3	0	0	18	83	stimuli\Videos_short_600ms\85.touch_top_to_bottom_with_fabric_short_short_600ms.mp4	85.touch_top_to_bottom_with_fabric_short_short_600ms.mp4	421.6535107153218	422.26183529773334	0.6083245824115693				
374.5859375	0.2	767152	302	59	3	0	0	19	69	stimuli\Videos_short_600ms\72.(short)stroke_with_finger_all_over_the_hand_short_short_600ms.mp4	72.(short)stroke_with_finger_all_over_the_hand_short_short_600ms.mp4	422.45347447023096	423.0618104892005	0.6083360189695668				
375.3857421875	0.2	768790	303	59	3	0	0	20	153	stimuli\Videos_short_600ms_horflip\67.single_touch_with_sponge_short_horflip_short_600ms.mp4	67.single_touch_with_sponge_short_horflip_short_600ms.mp4	423.25345347388384	423.86179565099974	0.608342177115901				
376.185546875	0.2	770428	304	59	3	0	0	21	20	stimuli\Videos_short_600ms\28.single_injection_with_sharp_needle_short_short_600ms.mp4	28.single_injection_with_sharp_needle_short_short_600ms.mp4	424.0534433276043	424.6617778803484	0.6083345527440542				
376.98583984375	0.2	772067	305	59	3	0	0	22	115	stimuli\Videos_short_600ms_horflip\32.single_(long)pinch_with_fingers_short_horflip_short_600ms.mp4	32.single_(long)pinch_with_fingers_short_horflip_short_600ms.mp4	424.8534232109928	425.46173811631706	0.6083149053242778				
377.78564453125	0.2	773705	306	59	3	0	1	23	378	stimuli\Targets_short_600ms_vertflip\brush-stroke_short_horvertflip_short_600ms.mp4	brush-stroke_short_horvertflip_short_600ms.mp4	425.6534148241835	426.261705096922	0.6082902727384862				
378.58544921875	0.2	775343	307	59	3	0	0	24	272	stimuli\Videos_short_600ms_vertflip\11.single_touch_with_lighter_short_vertflip_short_600ms.mp4	11.single_touch_with_lighter_short_vertflip_short_600ms.mp4	426.45341699419714	427.0617037479946	0.608286753797529				
379.3857421875	0.2	776982	308	59	3	0	0	25	342	stimuli\Videos_short_600ms_vertflip\75.(long)stroke_with_fingers_all_over_the_hand_short_vertflip_short_600ms.mp4	75.(long)stroke_with_fingers_all_over_the_hand_short_vertflip_short_600ms.mp4	427.2533904261936	427.8617044517828	0.6083140255891522				
380.185546875	0.2	778620	309	59	3	0	0	26	23	stimuli\Videos_short_600ms\30.finger_pulling_back_another_finger_short_short_600ms.mp4	30.finger_pulling_back_another_finger_short_short_600ms.mp4	428.0533738285226	428.6616708458978	0.6082970173752074				
380.98583984375	0.2	780259	310	59	3	0	0	27	319	stimuli\Videos_short_600ms_vertflip\54.repeated_touch_with_knife_short_vertflip_short_600ms.mp4	54.repeated_touch_with_knife_short_vertflip_short_600ms.mp4	428.8533554713813	429.4616604063731	0.6083049349917928				
381.78564453125	0.2	781897	311	59	3	0	0	28	113	stimuli\Videos_short_600ms_horflip\30.finger_pulling_back_another_finger_short_horflip_short_600ms.mp4	30.finger_pulling_back_another_finger_short_horflip_short_600ms.mp4	429.65333946020064	430.2616596439361	0.6083201837354864				
382.58544921875	0.2	783535	312	59	3	0	0	29	244	stimuli\Videos_short_600ms_horvertflip\68.stroke_top_to_bottom_with_shawl_short_horvertflip_short_600ms.mp4	68.stroke_top_to_bottom_with_shawl_short_horvertflip_short_600ms.mp4	430.45332432875466	431.0616453922257	0.6083210634710667				
383.3857421875	0.2	785174	313	59	3	0	0	30	70	stimuli\Videos_short_600ms\73.single_stroke_with_flat_hand_short_short_600ms.mp4	73.single_stroke_with_flat_hand_short_short_600ms.mp4	431.25331447572034	431.8616246891238	0.6083102134034561				
384.185546875	0.2	786812	314	59	3	0	1	31	377	stimuli\Targets_short_600ms_horvertflip\hand-stroke_short_vertflip_short_600ms.mp4	hand-stroke_short_vertflip_short_600ms.mp4	432.0532887874524	432.6616083846979	0.6083195972455542				
384.9853515625	0.2	788450	315	59	3	0	0	32	163	stimuli\Videos_short_600ms_horflip\76.tickle_with_fingers_from_top_to_bottom_short_horflip_short_600ms.mp4	76.tickle_with_fingers_from_top_to_bottom_short_horflip_short_600ms.mp4	432.8532698438207	433.4615906140466	0.6083207702258733				
385.78564453125	0.2	790089	316	59	3	0	0	33	322	stimuli\Videos_short_600ms_vertflip\57.single_touch_with_nail_file_short_vertflip_short_600ms.mp4	57.single_touch_with_nail_file_short_vertflip_short_600ms.mp4	433.6532558853555	434.26155378246585	0.608297897110333				
386.58544921875	0.2	791727	317	59	3	0	0	34	288	stimuli\Videos_short_600ms_vertflip\26.single_touch_with_a_blunt_syringe_short_vertflip_short_600ms.mp4	26.single_touch_with_a_blunt_syringe_short_vertflip_short_600ms.mp4	434.45323782145897	435.0615577119497	0.6083198904907476				
387.38525390625	0.2	793365	318	59	3	0	0	35	254	stimuli\Videos_short_600ms_horvertflip\77.tapping_with_all_fingers_short_horvertflip_short_600ms.mp4	77.tapping_with_all_fingers_short_horvertflip_short_600ms.mp4	435.25321858458256	435.8615402345435	0.6083216499609989				
388.185546875	0.2	795004	319	59	3	0	0	36	335	stimuli\Videos_short_600ms_vertflip\69.stroke_with_soft_sock_short_vertflip_short_600ms.mp4	69.stroke_with_soft_sock_short_vertflip_short_600ms.mp4	436.05318351247206	436.6615236368725	0.6083401244004563				
388.9853515625	0.2	796642	320	59	3	0	0	37	216	stimuli\Videos_short_600ms_horvertflip\42.single_slap_with_plastic_whisk_short_horvertflip_short_600ms.mp4	42.single_slap_with_plastic_whisk_short_horvertflip_short_600ms.mp4	436.85317307294736	437.4615076256914	0.6083345527440542				
389.78515625	0.2	798280	321	59	3	0	0	38	133	stimuli\Videos_short_600ms_horflip\49.repeated_slap_with_hand_short_horflip_short_600ms.mp4	49.repeated_slap_with_hand_short_horflip_short_600ms.mp4	437.65314855765973	438.2614916145107	0.6083430568510266				
390.58544921875	0.2	799919	322	59	3	0	0	39	222	stimuli\Videos_short_600ms_horvertflip\48.single_slap_with_hand_short_horvertflip_short_600ms.mp4	48.single_slap_with_hand_short_horvertflip_short_600ms.mp4	438.45313811813503	439.061471791144	0.6083336730089286				
391.38525390625	0.2	801557	323	59	3	0	0	40	357	stimuli\Videos_short_600ms_vertflip\89.single_touch_with_plastic_brush_short_vertflip_short_600ms.mp4	89.single_touch_with_plastic_brush_short_vertflip_short_600ms.mp4	439.2530989405937	439.86145255426754	0.6083536136738985				
392.18505859375	0.2	803195	324	59	3	0	0	41	66	stimuli\Videos_short_600ms\7.repeated_touch_with_hairbrush_short_short_600ms.mp4	7.repeated_touch_with_hairbrush_short_short_600ms.mp4	440.05313014186913	440.6614242267933	0.6082940849241822				
392.9853515625	0.2	804834	325	59	3	0	0	42	176	stimuli\Videos_short_600ms_horflip\88.repeated_stroke_with_plastic_brush_short_horflip_short_600ms.mp4	88.repeated_stroke_with_plastic_brush_short_horflip_short_600ms.mp4	440.8530997616799	441.4614269832973	0.6083272216174009				
393.78515625	0.2	806472	326	59	3	0	0	43	300	stimuli\Videos_short_600ms_vertflip\37.single_stab_with_nail_file_short_vertflip_short_600ms.mp4	37.single_stab_with_nail_file_short_vertflip_short_600ms.mp4	441.65309753301744	442.2613919111868	0.6082943781693757				
394.5849609375	0.2	808110	327	59	3	0	0	44	285	stimuli\Videos_short_600ms_vertflip\23.single_push_with_a_spoon_short_vertflip_short_600ms.mp4	23.single_push_with_a_spoon_short_vertflip_short_600ms.mp4	442.45307331097456	443.0613715013301	0.6082981903555265				
395.38525390625	0.2	809749	328	59	3	0	0	45	178	stimuli\Videos_short_600ms_horflip\9.single_touch_with_hammer_short_horflip_short_600ms.mp4	9.single_touch_with_hammer_short_horflip_short_600ms.mp4	443.2530663903908	443.8613651672363	0.6082987768454586				
396.18505859375	0.2	811387	329	59	3	0	0	46	310	stimuli\Videos_short_600ms_vertflip\46.scratching_top_to_bottom_with_finger_nails_short_vertflip_short_600ms.mp4	46.scratching_top_to_bottom_with_finger_nails_short_vertflip_short_600ms.mp4	444.05302809258455	444.6613318545965	0.6083037620119285				
396.98486328125	0.2	813025	330	59	3	0	0	47	205	stimuli\Videos_short_600ms_horvertflip\32.single_(long)pinch_with_fingers_short_horvertflip_short_600ms.mp4	32.single_(long)pinch_with_fingers_short_horvertflip_short_600ms.mp4	444.85302908961785	445.46131613666057	0.6082870470427224				
397.78515625	0.2	814664	331	59	3	0	0	48	148	stimuli\Videos_short_600ms_horflip\62.touch_top_to_bottom_with_scissors_short_horflip_short_600ms.mp4	62.touch_top_to_bottom_with_scissors_short_horflip_short_600ms.mp4	445.653001348634	446.26130540389113	0.608304055257122				
398.5849609375	0.2	816302	332	59	3	0	0	49	215	stimuli\Videos_short_600ms_horvertflip\41.injection_with_blunt_syringe_short_horvertflip_short_600ms.mp4	41.injection_with_blunt_syringe_short_horvertflip_short_600ms.mp4	446.4529824050028	447.0613128523159	0.6083304473131648				
399.384765625	0.2	817940	333	59	3	0	0	50	104	stimuli\Videos_short_600ms_horflip\22.single_touch_with_metal_chopstick_short_horflip_short_600ms.mp4	22.single_touch_with_metal_chopstick_short_horflip_short_600ms.mp4	447.25296727355726	447.8612839383518	0.6083166647945291				
400.18505859375	0.2	819579	334	59	3	0	0	51	110	stimuli\Videos_short_600ms_horflip\28.single_injection_with_sharp_needle_short_horflip_short_600ms.mp4	28.single_injection_with_sharp_needle_short_horflip_short_600ms.mp4	448.05294745019046	448.6612664609456	0.6083190107551673				
400.98486328125	0.2	821217	335	59	3	0	0	52	116	stimuli\Videos_short_600ms_horflip\33.scratch_top_to_bottom_with_scissors_short_horflip_short_600ms.mp4	33.scratch_top_to_bottom_with_scissors_short_horflip_short_600ms.mp4	448.852928799804	449.461250449765	0.6083216499609989				
401.78515625	0.2	822856	336	59	3	0	0	53	30	stimuli\Videos_short_600ms\37.single_stab_with_nail_file_short_short_600ms.mp4	37.single_stab_with_nail_file_short_short_600ms.mp4	449.65291190888775	450.2612118587135	0.6082999498257777				
402.5849609375	0.2	824494	337	59	3	0	0	54	180	stimuli\Videos_short_600ms_horvertflip\1.repeated_touch_with_finger_fast_short_horvertflip_short_600ms.mp4	1.repeated_touch_with_finger_fast_short_horvertflip_short_600ms.mp4	450.45290880049015	451.06121373548194	0.6083049349917928				
403.384765625	0.2	826132	338	59	3	0	0	55	346	stimuli\Videos_short_600ms_vertflip\79.long_with_soft_brush_all_over_the_hand_short_vertflip_short_600ms.mp4	79.long_with_soft_brush_all_over_the_hand_short_vertflip_short_600ms.mp4	451.2528397119513	451.8611988972816	0.6083591853303005				
404.18505859375	0.2	827771	339	59	3	0	0	56	214	stimuli\Videos_short_600ms_horvertflip\40.repeated_push_with_finger_short_horvertflip_short_600ms.mp4	40.repeated_push_with_finger_short_horvertflip_short_600ms.mp4	452.0528823497848	452.6611817131202	0.6082993633353908				
404.98486328125	0.2	829409	340	59	3	0	0	57	301	stimuli\Videos_short_600ms_vertflip\38.double_slap_with_pencil_short_vertflip_short_600ms.mp4	38.double_slap_with_pencil_short_vertflip_short_600ms.mp4	452.8528229383333	453.461167754655	0.6083448163217327				
405.78466796875	0.2	831047	341	59	3	0	0	58	174	stimuli\Videos_short_600ms_horflip\86.touch_top_to_bottom_with_hair_brush_short_horflip_short_600ms.mp4	86.touch_top_to_bottom_with_hair_brush_short_horflip_short_600ms.mp4	453.652804581192	454.2611364947302	0.6083319135382226				
406.5849609375	0.2	832686	342	59	3	0	0	59	61	stimuli\Videos_short_600ms\65.stroke_top_to_bottom_with_stanley_knife_short_short_600ms.mp4	65.stroke_top_to_bottom_with_stanley_knife_short_short_600ms.mp4	454.4527950214029	455.0611330930874	0.6083380716845568				
407.384765625	0.2	834324	343	59	3	0	0	60	295	stimuli\Videos_short_600ms_vertflip\32.single_(long)pinch_with_fingers_short_vertflip_short_600ms.mp4	32.single_(long)pinch_with_fingers_short_vertflip_short_600ms.mp4	455.2527781304866	455.86108805064487	0.6083099201582627				
408.1845703125	0.2	835962	344	59	3	0	0	61	43	stimuli\Videos_short_600ms\49.repeated_slap_with_hand_short_short_600ms.mp4	49.repeated_slap_with_hand_short_short_600ms.mp4	456.0527676909619	456.66105121906367	0.6082835281017651				
408.98486328125	0.2	837601	345	59	3	0	0	62	138	stimuli\Videos_short_600ms_horflip\53.touch_top_to_bottom_with_knife_short_horflip_short_600ms.mp4	53.touch_top_to_bottom_with_knife_short_horflip_short_600ms.mp4	456.85276780826007	457.4610445917251	0.608276783465044				
409.78466796875	0.2	839239	346	59	3	0	0	63	50	stimuli\Videos_short_600ms\55.touch_top_to_bottom_with_nail_file_short_short_600ms.mp4	55.touch_top_to_bottom_with_nail_file_short_short_600ms.mp4	457.6527447591975	458.2610183169668	0.6082735577692802				
410.58447265625	0.2	840877	347	59	3	0	1	64	370	stimuli\Targets_short_600ms_horflip\hand-pinch_short_horflip_short_600ms.mp4	hand-pinch_short_horflip_short_600ms.mp4	458.4527351994084	459.0609996665803	0.6082644671719208				
411.384765625	0.2	842516	348	59	3	0	0	65	76	stimuli\Videos_short_600ms\79.long_with_soft_brush_all_over_the_hand_short_short_600ms.mp4	79.long_with_soft_brush_all_over_the_hand_short_short_600ms.mp4	459.25270716517934	459.86101503262216	0.608307867442818				
412.1845703125	0.2	844154	349	59	3	0	0	66	284	stimuli\Videos_short_600ms_vertflip\22.single_touch_with_metal_chopstick_short_vertflip_short_600ms.mp4	22.single_touch_with_metal_chopstick_short_vertflip_short_600ms.mp4	460.0526896877732	460.66099814170593	0.6083084539327501				
412.984375	0.2	845792	350	59	3	0	0	67	265	stimuli\Videos_short_600ms_horvertflip\87.single_stroke_top_to_bottom_with_plastic_brush_short_horvertflip_short_600ms.mp4	87.single_stroke_top_to_bottom_with_plastic_brush_short_horvertflip_short_600ms.mp4	460.85267338334734	461.4609897548971	0.6083163715497903				
413.78466796875	0.2	847431	351	59	3	0	0	68	65	stimuli\Videos_short_600ms\69.stroke_with_soft_sock_short_short_600ms.mp4	69.stroke_with_soft_sock_short_short_600ms.mp4	461.6526559059412	462.26098723298946	0.6083313270482904				
414.58447265625	0.2	849069	352	59	3	0	0	69	231	stimuli\Videos_short_600ms_horvertflip\56.repeated_touch_with_nail_file_short_horvertflip_short_600ms.mp4	56.repeated_touch_with_nail_file_short_horvertflip_short_600ms.mp4	462.4526381352898	463.0609589055157	0.6083207702258733				
415.38427734375	0.2	850707	353	59	3	0	0	70	274	stimuli\Videos_short_600ms_vertflip\13.single_touch_with_pen_short_vertflip_short_600ms.mp4	13.single_touch_with_pen_short_vertflip_short_600ms.mp4	463.2526256430501	463.8609393753941	0.6083137323439587				
416.1845703125	0.2	852346	354	59	3	0	0	71	35	stimuli\Videos_short_600ms\41.injection_with_blunt_syringe_short_short_600ms.mp4	41.injection_with_blunt_syringe_short_short_600ms.mp4	464.052618135976	464.66092277772304	0.6083046417470541				
416.984375	0.2	853984	355	59	3	0	0	72	229	stimuli\Videos_short_600ms_horvertflip\54.repeated_touch_with_knife_short_horvertflip_short_600ms.mp4	54.repeated_touch_with_knife_short_horvertflip_short_600ms.mp4	464.85259186121766	465.46090823276745	0.6083163715497903				
417.7841796875	0.2	855622	356	59	3	0	0	73	271	stimuli\Videos_short_600ms_vertflip\10.single_touch_with_knife_short_vertflip_short_600ms.mp4	10.single_touch_with_knife_short_vertflip_short_600ms.mp4	465.6525726243413	466.2608916350964	0.6083190107551673				
418.58447265625	0.2	857261	357	59	3	0	0	74	16	stimuli\Videos_short_600ms\24.single_stroke_top_to_bottom_with_a_spoon_short_short_600ms.mp4	24.single_stroke_top_to_bottom_with_a_spoon_short_short_600ms.mp4	466.4525533874644	467.0608762104057	0.608322822941318				
419.38427734375	0.2	858899	358	59	3	0	0	75	289	stimuli\Videos_short_600ms_vertflip\27.single_push_with_a_plastic_whisk_short_vertflip_short_600ms.mp4	27.single_push_with_a_plastic_whisk_short_vertflip_short_600ms.mp4	467.25249192329784	467.8608566802841	0.6083647569862478				
420.18408203125	0.2	860537	359	59	3	0	0	76	251	stimuli\Videos_short_600ms_horvertflip\74.fingers_walking_from_top_to_bottom_short_horvertflip_short_600ms.mp4	74.fingers_walking_from_top_to_bottom_short_horvertflip_short_600ms.mp4	468.05247473913687	468.6608383231428	0.6083635840059287				
420.984375	0.2	862176	360	59	3	0	0	77	198	stimuli\Videos_short_600ms_horvertflip\26.single_touch_with_a_blunt_syringe_short_horvertflip_short_600ms.mp4	26.single_touch_with_a_blunt_syringe_short_horvertflip_short_600ms.mp4	468.85247954835586	469.46082143222657	0.6083418838707075				
421.7841796875	0.2	863814	361	59	3	0	0	78	196	stimuli\Videos_short_600ms_horvertflip\24.single_stroke_top_to_bottom_with_a_spoon_short_horvertflip_short_600ms.mp4	24.single_stroke_top_to_bottom_with_a_spoon_short_horvertflip_short_600ms.mp4	469.6524688155864	470.2608027818401	0.6083339662536673				
422.58447265625	0.2	865453	362	59	3	0	0	79	345	stimuli\Videos_short_600ms_vertflip\78.single_stroke_top_to_bottom_with_soft_brush_short_vertflip_short_600ms.mp4	78.single_stroke_top_to_bottom_with_soft_brush_short_vertflip_short_600ms.mp4	470.4524574963266	471.0607882368845	0.6083307405579035				
423.38427734375	0.2	867091	363	59	3	0	0	80	217	stimuli\Videos_short_600ms_horvertflip\43.touch_top_to_bottom_with_sharp_wooden_stick_short_horvertflip_short_600ms.mp4	43.touch_top_to_bottom_with_sharp_wooden_stick_short_horvertflip_short_600ms.mp4	471.25244119190074	471.8607739851741	0.6083327932733482				
424.18408203125	0.2	868729	364	59	3	0	0	81	34	stimuli\Videos_short_600ms\40.repeated_push_with_finger_short_short_600ms.mp4	40.repeated_push_with_finger_short_short_600ms.mp4	472.0524207820435	472.6607283562412	0.6083075741976245				
424.984375	0.2	870368	365	59	3	0	0	82	320	stimuli\Videos_short_600ms_vertflip\55.touch_top_to_bottom_with_nail_file_short_vertflip_short_600ms.mp4	55.touch_top_to_bottom_with_nail_file_short_vertflip_short_600ms.mp4	472.8524165006656	473.4607217289026	0.6083052282369863				
425.7841796875	0.2	872006	366	59	3	0	0	83	31	stimuli\Videos_short_600ms\38.double_slap_with_pencil_short_short_600ms.mp4	38.double_slap_with_pencil_short_short_600ms.mp4	473.65240723412126	474.260722139446	0.6083149053247325				
426.583984375	0.2	873644	367	59	3	0	1	84	374	stimuli\Targets_short_600ms_horvertflip\chopstickwood-tap_short_vertflip_short_600ms.mp4	chopstickwood-tap_short_vertflip_short_600ms.mp4	474.4523838918139	475.0606858943552	0.6083020025412225				
427.38427734375	0.2	875283	368	59	3	0	0	85	96	stimuli\Videos_short_600ms_horflip\15.single_stroke_top_to_bottom_with_a_plastic_whisk_short_horflip_short_600ms.mp4	15.single_stroke_top_to_bottom_with_a_plastic_whisk_short_horflip_short_600ms.mp4	475.2523658279174	475.8606660709884	0.6083002430709712				
428.18408203125	0.2	876921	369	59	3	0	0	86	44	stimuli\Videos_short_600ms\5.repeated_tap_with_finger_moving_from_top_to_bottom_short_short_600ms.mp4	5.repeated_tap_with_finger_moving_from_top_to_bottom_short_short_600ms.mp4	476.0523474707761	476.6606738126584	0.6083263418822753				
428.98388671875	0.2	878559	370	59	3	0	0	87	24	stimuli\Videos_short_600ms\31.hand_grabbing_wrist_short_short_600ms.mp4	31.hand_grabbing_wrist_short_short_600ms.mp4	476.8523405501924	477.4606633731337	0.608322822941318				
429.7841796875	0.2	880198	371	59	3	0	0	88	100	stimuli\Videos_short_600ms_horflip\19.single_touch_with_rolling_pin_short_horflip_short_600ms.mp4	19.single_touch_with_rolling_pin_short_horflip_short_600ms.mp4	477.6523268849723	478.26063592539504	0.6083090404226823				
430.583984375	0.2	881836	372	59	3	0	1	89	381	stimuli\Targets_short_600ms_vertflip\finger-tap_short_horvertflip_short_600ms.mp4	finger-tap_short_horvertflip_short_600ms.mp4	478.4522991439885	479.0606166885186	0.6083175445301094				
431.3837890625	0.2	883474	373	59	3	0	0	90	326	stimuli\Videos_short_600ms_vertflip\60.single_push_with_tip_of_pencil_short_vertflip_short_600ms.mp4	60.single_push_with_tip_of_pencil_short_vertflip_short_600ms.mp4	479.252284012543	479.86059891786726	0.6083149053242778				
432.18408203125	0.2	885113	374	59	3	0	0	91	90	stimuli\Videos_short_600ms_horflip\1.repeated_touch_with_finger_fast_short_horflip_short_600ms.mp4	1.repeated_touch_with_finger_fast_short_horflip_short_600ms.mp4	480.0522650689113	480.66058349317655	0.6083184242652351				
