onset	duration	onsetsample	eventnumber	subjectnr	sequencenumber	blocksequencenumber	istarget	presentationnumber	stimnumber	stim	stimname	time_stimon	time_stimoff	stimdur	cresp	resp	rt	correct
13.55908203125	0.2	27769	0	1	0	0	0	0	213	stimuli\Videos_short_600ms_horvertflip\4.repeated_tap_with_finger_slow_short_horvertflip_short_600ms.mp4	4.repeated_tap_with_finger_slow_short_horvertflip_short_600ms.mp4	1699.103811991823	1699.7161265027753	0.6123145109522738	n/a	n/a	n/a	n/a
14.359375	0.2	29408	1	1	0	0	1	1	369	stimuli\Targets_short_600ms_horflip\finger-tap_short_horflip_short_600ms.mp4	finger-tap_short_horflip_short_600ms.mp4	1699.9077996672831	1700.516087618365	0.6082879510818202	n/a	n/a	n/a	n/a
15.1591796875	0.2	31046	2	1	0	0	0	2	73	stimuli\Videos_short_600ms\76.tickle_with_fingers_from_top_to_bottom_short_short_600ms.mp4	76.tickle_with_fingers_from_top_to_bottom_short_short_600ms.mp4	1700.7077704599883	1701.316063103005	0.608292643016739	n/a	n/a	n/a	n/a
15.958984375	0.2	32684	3	1	0	0	0	3	215	stimuli\Videos_short_600ms_horvertflip\41.injection_with_blunt_syringe_short_horvertflip_short_600ms.mp4	41.injection_with_blunt_syringe_short_horvertflip_short_600ms.mp4	1701.5077512230555	1702.1160488512528	0.608297628197306	n/a	n/a	n/a	n/a
16.75927734375	0.2	34323	4	1	0	0	1	4	363	stimuli\Targets_short_600ms\finger-tap_short_short_600ms.mp4	finger-tap_short_short_600ms.mp4	1702.3077343320897	1702.9160677362906	0.6083334042009483	n/a	n/a	n/a	n/a
17.55908203125	0.2	35961	5	1	0	0	0	5	220	stimuli\Videos_short_600ms_horvertflip\46.scratching_top_to_bottom_with_finger_nails_short_horvertflip_short_600ms.mp4	46.scratching_top_to_bottom_with_finger_nails_short_horvertflip_short_600ms.mp4	1703.1077218398132	1703.7160748914916	0.6083530516784776	n/a	n/a	n/a	n/a
18.35888671875	0.2	37599	6	1	0	0	0	6	332	stimuli\Videos_short_600ms_vertflip\66.stroke_top_to_bottom_with_sponge_short_vertflip_short_600ms.mp4	66.stroke_top_to_bottom_with_sponge_short_vertflip_short_600ms.mp4	1703.9077046556015	1704.5160509626237	0.6083463070217476	n/a	n/a	n/a	n/a
19.1591796875	0.2	39238	7	1	0	0	0	7	180	stimuli\Videos_short_600ms_horvertflip\1.repeated_touch_with_finger_fast_short_horvertflip_short_600ms.mp4	1.repeated_touch_with_finger_fast_short_horvertflip_short_600ms.mp4	1704.707688057882	1705.3160114917214	0.6083234338393595	n/a	n/a	n/a	n/a
19.96728515625	0.2	40893	8	1	0	0	0	8	261	stimuli\Videos_short_600ms_horvertflip\83.single_stroke_top_to_bottom_with_cotton_bud_short_horvertflip_short_600ms.mp4	83.single_stroke_top_to_bottom_with_cotton_bud_short_horvertflip_short_600ms.mp4	1705.5079960834073	1706.1159966534774	0.6080005700700895	n/a	n/a	n/a	n/a
20.767578125	0.2	42532	9	1	0	0	0	9	21	stimuli\Videos_short_600ms\29.single_pinch_with_tweezers_short_short_600ms.mp4	29.single_pinch_with_tweezers_short_short_600ms.mp4	1706.3160249810344	1706.924286833228	0.6082618521936638	n/a	n/a	n/a	n/a
21.5673828125	0.2	44170	10	1	0	0	0	10	316	stimuli\Videos_short_600ms_vertflip\51.repeated_touch_with_hammer_short_vertflip_short_600ms.mp4	51.repeated_touch_with_hammer_short_vertflip_short_600ms.mp4	1707.1159781789838	1707.724301319577	0.6083231405932565	n/a	n/a	n/a	n/a
22.3671875	0.2	45808	11	1	0	0	0	11	150	stimuli\Videos_short_600ms_horflip\64.repeated_touch_with_screwdriver_short_horflip_short_600ms.mp4	64.repeated_touch_with_screwdriver_short_horflip_short_600ms.mp4	1707.9159604082802	1708.5243090612698	0.6083486529896618	n/a	n/a	n/a	n/a
23.16748046875	0.2	47447	12	1	0	0	0	12	359	stimuli\Videos_short_600ms_vertflip\90.repeated_touch_with_sponge_short_vertflip_short_600ms.mp4	90.repeated_touch_with_sponge_short_vertflip_short_600ms.mp4	1708.7159429308226	1709.3242690038755	0.6083260730529219	n/a	n/a	n/a	n/a
23.96728515625	0.2	49085	13	1	0	0	0	13	298	stimuli\Videos_short_600ms_vertflip\35.single_punch_with_hand_short_vertflip_short_600ms.mp4	35.single_punch_with_hand_short_vertflip_short_600ms.mp4	1709.5159280925786	1710.1242541656316	0.6083260730529219	n/a	n/a	n/a	n/a
24.76708984375	0.2	50723	14	1	0	0	0	14	211	stimuli\Videos_short_600ms_horvertflip\38.double_slap_with_pencil_short_horvertflip_short_600ms.mp4	38.double_slap_with_pencil_short_horvertflip_short_600ms.mp4	1710.3159138408264	1710.9242337557148	0.6083199148883978	n/a	n/a	n/a	n/a
25.5673828125	0.2	52362	15	1	0	0	0	15	225	stimuli\Videos_short_600ms_horvertflip\50.single_(long)hard_push_with_thumb_short_horvertflip_short_600ms.mp4	50.single_(long)hard_push_with_thumb_short_horvertflip_short_600ms.mp4	1711.1158981228446	1711.7242186242247	0.6083205013801489	n/a	n/a	n/a	n/a
26.3671875	0.2	54000	16	1	0	0	1	16	379	stimuli\Targets_short_600ms_vertflip\chopstick-silver-tap_short_horvertflip_short_600ms.mp4	chopstick-silver-tap_short_horvertflip_short_600ms.mp4	1711.9158829913545	1712.5242026129972	0.6083196216427496	n/a	n/a	n/a	n/a
27.1669921875	0.2	55638	17	1	0	0	0	17	204	stimuli\Videos_short_600ms_horvertflip\31.hand_grabbing_wrist_short_horvertflip_short_600ms.mp4	31.hand_grabbing_wrist_short_horvertflip_short_600ms.mp4	1712.715866980127	1713.3241857220314	0.6083187419044407	n/a	n/a	n/a	n/a
27.96728515625	0.2	57277	18	1	0	0	0	18	134	stimuli\Videos_short_600ms_horflip\5.repeated_tap_with_finger_moving_from_top_to_bottom_short_horflip_short_600ms.mp4	5.repeated_tap_with_finger_moving_from_top_to_bottom_short_horflip_short_600ms.mp4	1713.5158495026694	1714.1241708837874	0.608321381118003	n/a	n/a	n/a	n/a
28.76708984375	0.2	58915	19	1	0	0	0	19	62	stimuli\Videos_short_600ms\66.stroke_top_to_bottom_with_sponge_short_short_600ms.mp4	66.stroke_top_to_bottom_with_sponge_short_short_600ms.mp4	1714.315848446984	1714.924157218527	0.6083087715428519	n/a	n/a	n/a	n/a
29.56689453125	0.2	60553	20	1	0	0	0	20	32	stimuli\Videos_short_600ms\39.single_stab_with_scissors_short_short_600ms.mp4	39.single_stab_with_scissors_short_short_600ms.mp4	1715.1158066301143	1715.7241406208072	0.6083339906926994	n/a	n/a	n/a	n/a
30.3671875	0.2	62192	21	1	0	0	0	21	119	stimuli\Videos_short_600ms_horflip\36.single_slap_with_full_hand_short_horflip_short_600ms.mp4	36.single_slap_with_full_hand_short_horflip_short_600ms.mp4	1715.915780355279	1716.5241260758094	0.6083457205304512	n/a	n/a	n/a	n/a
31.1669921875	0.2	63830	22	1	0	0	0	22	311	stimuli\Videos_short_600ms_vertflip\47.(long)scratching_with_finger_nails_short_vertflip_short_600ms.mp4	47.(long)scratching_with_finger_nails_short_vertflip_short_600ms.mp4	1716.7157754873965	1717.3241088915977	0.6083334042009483	n/a	n/a	n/a	n/a
31.966796875	0.2	65468	23	1	0	0	0	23	186	stimuli\Videos_short_600ms_horvertflip\15.single_stroke_top_to_bottom_with_a_plastic_whisk_short_horvertflip_short_600ms.mp4	15.single_stroke_top_to_bottom_with_a_plastic_whisk_short_horvertflip_short_600ms.mp4	1717.5157729654816	1718.1240952263374	0.6083222608558572	n/a	n/a	n/a	n/a
32.76708984375	0.2	67107	24	1	0	0	0	24	17	stimuli\Videos_short_600ms\25.single_touch_with_stanley_knife_short_short_600ms.mp4	25.single_touch_with_stanley_knife_short_short_600ms.mp4	1718.315769270583	1718.9240792151095	0.608309944526809	n/a	n/a	n/a	n/a
33.56689453125	0.2	68745	25	1	0	0	0	25	241	stimuli\Videos_short_600ms_horvertflip\65.stroke_top_to_bottom_with_stanley_knife_short_horvertflip_short_600ms.mp4	65.stroke_top_to_bottom_with_stanley_knife_short_horvertflip_short_600ms.mp4	1719.1157764257837	1719.7240632038815	0.6082867780978631	n/a	n/a	n/a	n/a
34.36669921875	0.2	70383	26	1	0	0	0	26	175	stimuli\Videos_short_600ms_horflip\87.single_stroke_top_to_bottom_with_plastic_brush_short_horflip_short_600ms.mp4	87.single_stroke_top_to_bottom_with_plastic_brush_short_horflip_short_600ms.mp4	1719.9157395940947	1720.5240272519304	0.6082876578357173	n/a	n/a	n/a	n/a
35.1669921875	0.2	72022	27	1	0	0	0	27	264	stimuli\Videos_short_600ms_horvertflip\86.touch_top_to_bottom_with_hair_brush_short_horvertflip_short_600ms.mp4	86.touch_top_to_bottom_with_hair_brush_short_horvertflip_short_600ms.mp4	1720.715712732767	1721.3240083082435	0.6082955754764043	n/a	n/a	n/a	n/a
35.966796875	0.2	73660	28	1	0	0	0	28	341	stimuli\Videos_short_600ms_vertflip\74.fingers_walking_from_top_to_bottom_short_vertflip_short_600ms.mp4	74.fingers_walking_from_top_to_bottom_short_vertflip_short_600ms.mp4	1721.5156976012777	1722.1240178094115	0.608320208134046	n/a	n/a	n/a	n/a
36.7666015625	0.2	75298	29	1	0	0	0	29	128	stimuli\Videos_short_600ms_horflip\44.pushing_top_to_bottom_with_finger_short_horflip_short_600ms.mp4	44.pushing_top_to_bottom_with_finger_short_horflip_short_600ms.mp4	1722.315680710312	1722.9240337619904	0.6083530516784776	n/a	n/a	n/a	n/a
37.56689453125	0.2	76937	30	1	0	0	0	30	9	stimuli\Videos_short_600ms\18.single_stroke_from_top_to_bottom_with_rolling_pin_short_short_600ms.mp4	18.single_stroke_from_top_to_bottom_with_rolling_pin_short_short_600ms.mp4	1723.1156702707567	1723.7239942910885	0.6083240203315654	n/a	n/a	n/a	n/a
38.36669921875	0.2	78575	31	1	0	0	0	31	266	stimuli\Videos_short_600ms_horvertflip\88.repeated_stroke_with_plastic_brush_short_horvertflip_short_600ms.mp4	88.repeated_stroke_with_plastic_brush_short_horvertflip_short_600ms.mp4	1723.9156566054962	1724.5239826785491	0.6083260730529219	n/a	n/a	n/a	n/a
39.17529296875	0.2	80231	32	1	0	0	0	32	65	stimuli\Videos_short_600ms\69.stroke_with_soft_sock_short_short_600ms.mp4	69.stroke_with_soft_sock_short_short_600ms.mp4	1724.715635022596	1725.3239566969596	0.6083216743636513	n/a	n/a	n/a	n/a
39.97509765625	0.2	81869	33	1	0	0	0	33	29	stimuli\Videos_short_600ms\36.single_slap_with_full_hand_short_short_600ms.mp4	36.single_slap_with_full_hand_short_short_600ms.mp4	1725.5239515944804	1726.1322495159245	0.6082979214438637	n/a	n/a	n/a	n/a
40.77490234375	0.2	83507	34	1	0	0	0	34	145	stimuli\Videos_short_600ms_horflip\6.single_touch_with_flat_hand_short_horflip_short_600ms.mp4	6.single_touch_with_flat_hand_short_horflip_short_600ms.mp4	1726.3239458468602	1726.9322358506638	0.6082900038036314	n/a	n/a	n/a	n/a
41.5751953125	0.2	85146	35	1	0	0	0	35	106	stimuli\Videos_short_600ms_horflip\24.single_stroke_top_to_bottom_with_a_spoon_short_horflip_short_600ms.mp4	24.single_stroke_top_to_bottom_with_a_spoon_short_horflip_short_600ms.mp4	1727.1239201585167	1727.7322453518318	0.6083251933150677	n/a	n/a	n/a	n/a
42.375	0.2	86784	36	1	0	0	0	36	109	stimuli\Videos_short_600ms_horflip\27.single_push_with_a_plastic_whisk_short_horflip_short_600ms.mp4	27.single_push_with_a_plastic_whisk_short_horflip_short_600ms.mp4	1727.9239062000106	1728.5322577854597	0.6083515854488724	n/a	n/a	n/a	n/a
43.1748046875	0.2	88422	37	1	0	0	0	37	90	stimuli\Videos_short_600ms_horflip\1.repeated_touch_with_finger_fast_short_horflip_short_600ms.mp4	1.repeated_touch_with_finger_fast_short_horflip_short_600ms.mp4	1728.723893707734	1729.332210983409	0.6083172756748354	n/a	n/a	n/a	n/a
43.97509765625	0.2	90061	38	1	0	0	0	38	290	stimuli\Videos_short_600ms_vertflip\28.single_injection_with_sharp_needle_short_vertflip_short_600ms.mp4	28.single_injection_with_sharp_needle_short_vertflip_short_600ms.mp4	1729.5238750572926	1730.1322040628047	0.6083290055121324	n/a	n/a	n/a	n/a
44.77490234375	0.2	91699	39	1	0	0	0	39	262	stimuli\Videos_short_600ms_horvertflip\84.single_touch_with_cotton_bud_short_horvertflip_short_600ms.mp4	84.single_touch_with_cotton_bud_short_horvertflip_short_600ms.mp4	1730.3238602190486	1730.9321786677074	0.6083184486587925	n/a	n/a	n/a	n/a
45.57470703125	0.2	93337	40	1	0	0	0	40	130	stimuli\Videos_short_600ms_horflip\46.scratching_top_to_bottom_with_finger_nails_short_horflip_short_600ms.mp4	46.scratching_top_to_bottom_with_finger_nails_short_horflip_short_600ms.mp4	1731.123867960741	1731.7321620699877	0.6082941092463443	n/a	n/a	n/a	n/a
46.375	0.2	94976	41	1	0	0	1	41	368	stimuli\Targets_short_600ms_horflip\chopstickwood-tap_short_horflip_short_600ms.mp4	chopstickwood-tap_short_horflip_short_600ms.mp4	1731.9238302493145	1732.5321498709568	0.6083196216422948	n/a	n/a	n/a	n/a
47.1748046875	0.2	96614	42	1	0	0	0	42	324	stimuli\Videos_short_600ms_vertflip\59.single_push_with_long_side_pencil_short_vertflip_short_600ms.mp4	59.single_push_with_long_side_pencil_short_vertflip_short_600ms.mp4	1732.7238148245788	1733.3321312205155	0.6083163959369813	n/a	n/a	n/a	n/a
47.974609375	0.2	98252	43	1	0	0	0	43	282	stimuli\Videos_short_600ms_vertflip\20.single_touch_with_screwdriver_short_vertflip_short_600ms.mp4	20.single_touch_with_screwdriver_short_vertflip_short_600ms.mp4	1733.5237967606297	1734.1321190214849	0.6083222608554024	n/a	n/a	n/a	n/a
48.77490234375	0.2	99891	44	1	0	0	0	44	350	stimuli\Videos_short_600ms_vertflip\82.repeated_touch_with_cotton_bud_short_vertflip_short_600ms.mp4	82.repeated_touch_with_cotton_bud_short_vertflip_short_600ms.mp4	1734.32376139517	1734.932103303503	0.6083419083329318	n/a	n/a	n/a	n/a
49.57470703125	0.2	101529	45	1	0	0	0	45	233	stimuli\Videos_short_600ms_horvertflip\58.single_slap_with_pencil_short_horvertflip_short_600ms.mp4	58.single_slap_with_pencil_short_horvertflip_short_600ms.mp4	1735.123750075877	1735.7320925707022	0.6083424948251377	n/a	n/a	n/a	n/a
50.37451171875	0.2	103167	46	1	0	0	0	46	246	stimuli\Videos_short_600ms_horvertflip\7.repeated_touch_with_hairbrush_short_horvertflip_short_600ms.mp4	7.repeated_touch_with_hairbrush_short_horvertflip_short_600ms.mp4	1735.9237290794686	1736.5320724540315	0.6083433745629918	n/a	n/a	n/a	n/a
51.1748046875	0.2	104806	47	1	0	0	1	47	383	stimuli\Targets_short_600ms_vertflip\hand-stroke_short_horvertflip_short_600ms.mp4	hand-stroke_short_horvertflip_short_600ms.mp4	1736.7237227453566	1737.332054683328	0.608331937971343	n/a	n/a	n/a	n/a
51.974609375	0.2	106444	48	1	0	0	0	48	13	stimuli\Videos_short_600ms\21.repeated_touch_with_metal_chopstick_short_short_600ms.mp4	21.repeated_touch_with_metal_chopstick_short_short_600ms.mp4	1737.5237043881611	1738.1320410180674	0.6083366299062618	n/a	n/a	n/a	n/a
52.7744140625	0.2	108082	49	1	0	0	0	49	255	stimuli\Videos_short_600ms_horvertflip\78.single_stroke_top_to_bottom_with_soft_brush_short_horvertflip_short_600ms.mp4	78.single_stroke_top_to_bottom_with_soft_brush_short_horvertflip_short_600ms.mp4	1738.3237546505138	1738.9320103445434	0.6082556940295945	n/a	n/a	n/a	n/a
53.57470703125	0.2	109721	50	1	0	0	0	50	97	stimuli\Videos_short_600ms_horflip\16.repeated_touch_with_plastic_brush_short_horflip_short_600ms.mp4	16.repeated_touch_with_plastic_brush_short_horflip_short_600ms.mp4	1739.123720751284	1739.7319878819048	0.6082671306207885	n/a	n/a	n/a	n/a
54.37451171875	0.2	111359	51	1	0	0	0	51	269	stimuli\Videos_short_600ms_horvertflip\90.repeated_touch_with_sponge_short_horvertflip_short_600ms.mp4	90.repeated_touch_with_sponge_short_horvertflip_short_600ms.mp4	1739.9236654451015	1740.5319800815632	0.6083146364617278	n/a	n/a	n/a	n/a
55.17431640625	0.2	112997	52	1	0	0	0	52	20	stimuli\Videos_short_600ms\28.single_injection_with_sharp_needle_short_short_600ms.mp4	28.single_injection_with_sharp_needle_short_short_600ms.mp4	1740.7236638029244	1741.331961137876	0.6082973349516578	n/a	n/a	n/a	n/a
55.974609375	0.2	114636	53	1	0	0	0	53	331	stimuli\Videos_short_600ms_vertflip\65.stroke_top_to_bottom_with_stanley_knife_short_vertflip_short_600ms.mp4	65.stroke_top_to_bottom_with_stanley_knife_short_vertflip_short_600ms.mp4	1741.5236580553042	1742.1319468861238	0.6082888308196743	n/a	n/a	n/a	n/a
56.7744140625	0.2	116274	54	1	0	0	0	54	254	stimuli\Videos_short_600ms_horvertflip\77.tapping_with_all_fingers_short_horvertflip_short_600ms.mp4	77.tapping_with_all_fingers_short_horvertflip_short_600ms.mp4	1742.3236309007311	1742.9319338073556	0.6083029066244308	n/a	n/a	n/a	n/a
57.57470703125	0.2	117913	55	1	0	0	0	55	231	stimuli\Videos_short_600ms_horvertflip\56.repeated_touch_with_nail_file_short_horvertflip_short_600ms.mp4	56.repeated_touch_with_nail_file_short_horvertflip_short_600ms.mp4	1743.1236172354706	1743.73194066931	0.6083234338393595	n/a	n/a	n/a	n/a
58.37451171875	0.2	119551	56	1	0	0	0	56	194	stimuli\Videos_short_600ms_horvertflip\22.single_touch_with_metal_chopstick_short_horvertflip_short_600ms.mp4	22.single_touch_with_metal_chopstick_short_horvertflip_short_600ms.mp4	1743.9236003445053	1744.531922018869	0.6083216743636513	n/a	n/a	n/a	n/a
59.17431640625	0.2	121189	57	1	0	0	1	57	371	stimuli\Targets_short_600ms_horflip\hand-stroke_short_horflip_short_600ms.mp4	hand-stroke_short_horflip_short_600ms.mp4	1744.7235846265237	1745.3319042481658	0.6083196216422948	n/a	n/a	n/a	n/a
59.974609375	0.2	122828	58	1	0	0	0	58	80	stimuli\Videos_short_600ms\82.repeated_touch_with_cotton_bud_short_short_600ms.mp4	82.repeated_touch_with_cotton_bud_short_short_600ms.mp4	1745.5235460353588	1746.1318905829053	0.6083445475464941	n/a	n/a	n/a	n/a
60.7744140625	0.2	124466	59	1	0	0	0	59	141	stimuli\Videos_short_600ms_horflip\56.repeated_touch_with_nail_file_short_horflip_short_600ms.mp4	56.repeated_touch_with_nail_file_short_horflip_short_600ms.mp4	1746.3235567095107	1746.93187222571	0.6083155161991272	n/a	n/a	n/a	n/a
61.57421875	0.2	126104	60	1	0	0	1	60	366	stimuli\Targets_short_600ms_horflip\brush-stroke_short_horflip_short_600ms.mp4	brush-stroke_short_horflip_short_600ms.mp4	1747.1235345401185	1747.7318582672035	0.6083237270854625	n/a	n/a	n/a	n/a
62.37451171875	0.2	127743	61	1	0	0	0	61	69	stimuli\Videos_short_600ms\72.(short)stroke_with_finger_all_over_the_hand_short_short_600ms.mp4	72.(short)stroke_with_finger_all_over_the_hand_short_short_600ms.mp4	1747.923524100563	1748.5318460681729	0.6083219676097542	n/a	n/a	n/a	n/a
63.17431640625	0.2	129381	62	1	0	0	0	62	38	stimuli\Videos_short_600ms\44.pushing_top_to_bottom_with_finger_short_short_600ms.mp4	44.pushing_top_to_bottom_with_finger_short_short_600ms.mp4	1748.7235133677625	1749.331831523175	0.6083181554126895	n/a	n/a	n/a	n/a
63.97412109375	0.2	131019	63	1	0	0	0	63	251	stimuli\Videos_short_600ms_horvertflip\74.fingers_walking_from_top_to_bottom_short_horvertflip_short_600ms.mp4	74.fingers_walking_from_top_to_bottom_short_horvertflip_short_600ms.mp4	1749.5234709644003	1750.1318210836198	0.6083501192192671	n/a	n/a	n/a	n/a
64.7744140625	0.2	132658	64	1	0	0	0	64	25	stimuli\Videos_short_600ms\32.single_(long)pinch_with_fingers_short_short_600ms.mp4	32.single_(long)pinch_with_fingers_short_short_600ms.mp4	1750.323462284321	1750.9318009669491	0.608338682628073	n/a	n/a	n/a	n/a
65.57421875	0.2	134296	65	1	0	0	0	65	318	stimuli\Videos_short_600ms_vertflip\53.touch_top_to_bottom_with_knife_short_vertflip_short_600ms.mp4	53.touch_top_to_bottom_with_knife_short_vertflip_short_600ms.mp4	1751.1235075614927	1751.731784662475	0.6082771009823773	n/a	n/a	n/a	n/a
66.3740234375	0.2	135934	66	1	0	0	0	66	129	stimuli\Videos_short_600ms_horflip\45.scratching_with_finger_nails_short_horflip_short_600ms.mp4	45.scratching_with_finger_nails_short_horflip_short_600ms.mp4	1751.9234340740627	1752.5317715837068	0.6083375096441159	n/a	n/a	n/a	n/a
67.17431640625	0.2	137573	67	1	0	0	0	67	292	stimuli\Videos_short_600ms_vertflip\3.single_push_with_finger_short_vertflip_short_600ms.mp4	3.single_push_with_finger_short_vertflip_short_600ms.mp4	1752.723433311623	1753.331754692741	0.608321381118003	n/a	n/a	n/a	n/a
67.97412109375	0.2	139211	68	1	0	0	0	68	349	stimuli\Videos_short_600ms_vertflip\81.single_stroke_top_to_bottom_with_cotton_pad_short_vertflip_short_600ms.mp4	81.single_stroke_top_to_bottom_with_cotton_pad_short_vertflip_short_600ms.mp4	1753.523448091218	1754.131715515085	0.6082674238668915	n/a	n/a	n/a	n/a
68.77392578125	0.2	140849	69	1	0	0	1	69	374	stimuli\Targets_short_600ms_horvertflip\chopstickwood-tap_short_vertflip_short_600ms.mp4	chopstickwood-tap_short_vertflip_short_600ms.mp4	1754.323412139267	1754.9317006768406	0.6082885375735714	n/a	n/a	n/a	n/a
69.57421875	0.2	142488	70	1	0	0	0	70	257	stimuli\Videos_short_600ms_horvertflip\8.single_touch_with_hairbrush_short_horvertflip_short_600ms.mp4	8.single_touch_with_hairbrush_short_horvertflip_short_600ms.mp4	1755.123400819974	1755.7316917035157	0.6082908835414855	n/a	n/a	n/a	n/a
70.3740234375	0.2	144126	71	1	0	0	0	71	197	stimuli\Videos_short_600ms_horvertflip\25.single_touch_with_stanley_knife_short_horvertflip_short_600ms.mp4	25.single_touch_with_stanley_knife_short_horvertflip_short_600ms.mp4	1755.9233719059253	1756.5316704138609	0.6082985079356149	n/a	n/a	n/a	n/a
71.173828125	0.2	145764	72	1	0	0	1	72	365	stimuli\Targets_short_600ms\hand-stroke_short_short_600ms.mp4	hand-stroke_short_short_600ms.mp4	1756.7233597068948	1757.3316807947667	0.6083210878719001	n/a	n/a	n/a	n/a
71.97412109375	0.2	147403	73	1	0	0	0	73	182	stimuli\Videos_short_600ms_horvertflip\11.single_touch_with_lighter_short_horvertflip_short_600ms.mp4	11.single_touch_with_lighter_short_horvertflip_short_600ms.mp4	1757.5233448686504	1758.1316416171103	0.6082967484599067	n/a	n/a	n/a	n/a
72.77392578125	0.2	149041	74	1	0	0	0	74	280	stimuli\Videos_short_600ms_vertflip\19.single_touch_with_rolling_pin_short_vertflip_short_600ms.mp4	19.single_touch_with_rolling_pin_short_vertflip_short_600ms.mp4	1758.3233273911933	1758.9316725252315	0.6083451340382453	n/a	n/a	n/a	n/a
73.57373046875	0.2	150679	75	1	0	0	0	75	11	stimuli\Videos_short_600ms\2.single_touch_with_finger_short_short_600ms.mp4	2.single_touch_with_finger_short_short_600ms.mp4	1759.1233110867192	1759.7316324678372	0.608321381118003	n/a	n/a	n/a	n/a
74.3740234375	0.2	152318	76	1	0	0	0	76	321	stimuli\Videos_short_600ms_vertflip\56.repeated_touch_with_nail_file_short_vertflip_short_600ms.mp4	56.repeated_touch_with_nail_file_short_vertflip_short_600ms.mp4	1759.9232959552296	1760.5316226147745	0.608326659544673	n/a	n/a	n/a	n/a
75.173828125	0.2	153956	77	1	0	0	0	77	126	stimuli\Videos_short_600ms_horflip\42.single_slap_with_plastic_whisk_short_horflip_short_600ms.mp4	42.single_slap_with_plastic_whisk_short_horflip_short_600ms.mp4	1760.723281996723	1761.3316104157434	0.6083284190203813	n/a	n/a	n/a	n/a
75.97412109375	0.2	155595	78	1	0	0	0	78	354	stimuli\Videos_short_600ms_vertflip\86.touch_top_to_bottom_with_hair_brush_short_vertflip_short_600ms.mp4	86.touch_top_to_bottom_with_hair_brush_short_vertflip_short_600ms.mp4	1761.5232645192657	1762.131588539597	0.6083240203315654	n/a	n/a	n/a	n/a
76.77392578125	0.2	157233	79	1	0	0	0	79	140	stimuli\Videos_short_600ms_horflip\55.touch_top_to_bottom_with_nail_file_short_horflip_short_600ms.mp4	55.touch_top_to_bottom_with_nail_file_short_horflip_short_600ms.mp4	1762.3232499742676	1762.931574581091	0.6083246068233166	n/a	n/a	n/a	n/a
77.57373046875	0.2	158871	80	1	0	0	0	80	188	stimuli\Videos_short_600ms_horvertflip\17.repeated_touch_with_rolling_pin_short_horvertflip_short_600ms.mp4	17.repeated_touch_with_rolling_pin_short_horvertflip_short_600ms.mp4	1763.123236309007	1763.731558569863	0.6083222608558572	n/a	n/a	n/a	n/a
78.3740234375	0.2	160510	81	1	0	0	0	81	3	stimuli\Videos_short_600ms\12.repeated_touch_with_nail_file_short_short_600ms.mp4	12.repeated_touch_with_nail_file_short_short_600ms.mp4	1763.9232024097778	1764.531542558635	0.6083401488572235	n/a	n/a	n/a	n/a
79.173828125	0.2	162148	82	1	0	0	0	82	170	stimuli\Videos_short_600ms_horflip\82.repeated_touch_with_cotton_bud_short_horflip_short_600ms.mp4	82.repeated_touch_with_cotton_bud_short_horflip_short_600ms.mp4	1764.7231861053035	1765.3315286001289	0.6083424948251377	n/a	n/a	n/a	n/a
79.9736328125	0.2	163786	83	1	0	0	0	83	116	stimuli\Videos_short_600ms_horflip\33.scratch_top_to_bottom_with_scissors_short_horflip_short_600ms.mp4	33.scratch_top_to_bottom_with_scissors_short_horflip_short_600ms.mp4	1765.5231797711915	1766.1315134686388	0.6083336974470512	n/a	n/a	n/a	n/a
80.77392578125	0.2	165425	84	1	0	0	0	84	139	stimuli\Videos_short_600ms_horflip\54.repeated_touch_with_knife_short_horflip_short_600ms.mp4	54.repeated_touch_with_knife_short_horflip_short_600ms.mp4	1766.323151150389	1766.931496870919	0.6083457205299965	n/a	n/a	n/a	n/a
81.57373046875	0.2	167063	85	1	0	0	0	85	86	stimuli\Videos_short_600ms\88.repeated_stroke_with_plastic_brush_short_short_600ms.mp4	88.repeated_stroke_with_plastic_brush_short_short_600ms.mp4	1767.1231462825067	1767.7314823259212	0.6083360434145106	n/a	n/a	n/a	n/a
82.37353515625	0.2	168701	86	1	0	0	0	86	122	stimuli\Videos_short_600ms_horflip\39.single_stab_with_scissors_short_horflip_short_600ms.mp4	39.single_stab_with_scissors_short_horflip_short_600ms.mp4	1767.9231631148227	1768.531466901185	0.6083037863622849	n/a	n/a	n/a	n/a
83.173828125	0.2	170340	87	1	0	0	0	87	19	stimuli\Videos_short_600ms\27.single_push_with_a_plastic_whisk_short_short_600ms.mp4	27.single_push_with_a_plastic_whisk_short_short_600ms.mp4	1768.7231409454307	1769.3314318289715	0.6082908835410308	n/a	n/a	n/a	n/a
83.9736328125	0.2	171978	88	1	0	0	0	88	108	stimuli\Videos_short_600ms_horflip\26.single_touch_with_a_blunt_syringe_short_horflip_short_600ms.mp4	26.single_touch_with_a_blunt_syringe_short_horflip_short_600ms.mp4	1769.523148687123	1770.131419923187	0.6082712360639562	n/a	n/a	n/a	n/a
84.7734375	0.2	173616	89	1	0	0	0	89	82	stimuli\Videos_short_600ms\84.single_touch_with_cotton_bud_short_short_600ms.mp4	84.single_touch_with_cotton_bud_short_short_600ms.mp4	1770.3231030580564	1770.9313989267785	0.6082958687220525	n/a	n/a	n/a	n/a
85.57373046875	0.2	175255	90	1	0	0	0	90	270	stimuli\Videos_short_600ms_vertflip\1.repeated_touch_with_finger_fast_short_vertflip_short_600ms.mp4	1.repeated_touch_with_finger_fast_short_vertflip_short_600ms.mp4	1771.1231078672895	1771.7313829155505	0.6082750482610209	n/a	n/a	n/a	n/a
86.37353515625	0.2	176893	91	1	0	0	0	91	267	stimuli\Videos_short_600ms_horvertflip\89.single_touch_with_plastic_brush_short_horvertflip_short_600ms.mp4	89.single_touch_with_plastic_brush_short_horvertflip_short_600ms.mp4	1771.923104172391	1772.5313715962577	0.6082674238664367	n/a	n/a	n/a	n/a
87.17333984375	0.2	178531	92	1	0	0	0	92	293	stimuli\Videos_short_600ms_vertflip\30.finger_pulling_back_another_finger_short_vertflip_short_600ms.mp4	30.finger_pulling_back_another_finger_short_vertflip_short_600ms.mp4	1772.723049159454	1773.3313620364402	0.6083128769860195	n/a	n/a	n/a	n/a
87.9736328125	0.2	180170	93	1	0	0	0	93	158	stimuli\Videos_short_600ms_horflip\71.single_stroke_with_finger_top_to_bottom_short_horflip_short_600ms.mp4	71.single_stroke_with_finger_top_to_bottom_short_horflip_short_600ms.mp4	1773.523040186129	1774.131368605149	0.6083284190199265	n/a	n/a	n/a	n/a
88.7734375	0.2	181808	94	1	0	0	0	94	93	stimuli\Videos_short_600ms_horflip\12.repeated_touch_with_nail_file_short_horflip_short_600ms.mp4	12.repeated_touch_with_nail_file_short_horflip_short_600ms.mp4	1774.3230253478846	1774.9313484884783	0.6083231405937113	n/a	n/a	n/a	n/a
89.5732421875	0.2	183446	95	1	0	0	0	95	46	stimuli\Videos_short_600ms\51.repeated_touch_with_hammer_short_short_600ms.mp4	51.repeated_touch_with_hammer_short_short_600ms.mp4	1775.1230266381667	1775.7313345299722	0.6083078918054525	n/a	n/a	n/a	n/a
90.37353515625	0.2	185085	96	1	0	0	0	96	66	stimuli\Videos_short_600ms\7.repeated_touch_with_hairbrush_short_short_600ms.mp4	7.repeated_touch_with_hairbrush_short_short_600ms.mp4	1775.922994205167	1776.5313135335637	0.6083193283966466	n/a	n/a	n/a	n/a
91.17333984375	0.2	186723	97	1	0	0	0	97	300	stimuli\Videos_short_600ms_vertflip\37.single_stab_with_nail_file_short_vertflip_short_600ms.mp4	37.single_stab_with_nail_file_short_vertflip_short_600ms.mp4	1776.7229784871852	1777.3312998683032	0.608321381118003	n/a	n/a	n/a	n/a
91.97314453125	0.2	188361	98	1	0	0	0	98	103	stimuli\Videos_short_600ms_horflip\21.repeated_touch_with_metal_chopstick_short_horflip_short_600ms.mp4	21.repeated_touch_with_metal_chopstick_short_horflip_short_600ms.mp4	1777.522963355695	1778.1312920679616	0.6083287122664842	9.0	9.0	2.080193964588034	1.0
125.29736328125	0.2	256609	99	1	1	0	0	0	342	stimuli\Videos_short_600ms_vertflip\75.(long)stroke_with_fingers_all_over_the_hand_short_vertflip_short_600ms.mp4	75.(long)stroke_with_fingers_all_over_the_hand_short_vertflip_short_600ms.mp4	1811.6472993369416	1812.2556441777335	0.6083448407921423	n/a	n/a	n/a	n/a
126.09716796875	0.2	258247	100	1	1	0	0	1	64	stimuli\Videos_short_600ms\68.stroke_top_to_bottom_with_shawl_short_short_600ms.mp4	68.stroke_top_to_bottom_with_shawl_short_short_600ms.mp4	1812.4472833257137	1813.05562787326	0.6083445475464941	n/a	n/a	n/a	n/a
126.8974609375	0.2	259886	101	1	1	0	0	2	112	stimuli\Videos_short_600ms_horflip\3.single_push_with_finger_short_horflip_short_600ms.mp4	3.single_push_with_finger_short_horflip_short_600ms.mp4	1813.2472728861585	1813.85561274177	0.6083398556115753	n/a	n/a	n/a	n/a
127.697265625	0.2	261524	102	1	1	0	0	3	329	stimuli\Videos_short_600ms_vertflip\63.stroke_top_to_bottom_with_screwdriver_short_vertflip_short_600ms.mp4	63.stroke_top_to_bottom_with_screwdriver_short_vertflip_short_600ms.mp4	1814.0472791616216	1814.6555952643123	0.6083161026908783	n/a	n/a	n/a	n/a
128.4970703125	0.2	263162	103	1	1	0	0	4	43	stimuli\Videos_short_600ms\49.repeated_slap_with_hand_short_short_600ms.mp4	49.repeated_slap_with_hand_short_short_600ms.mp4	1814.8472722410177	1815.4555613650832	0.6082891240657773	n/a	n/a	n/a	n/a
129.29736328125	0.2	264801	104	1	1	0	0	5	101	stimuli\Videos_short_600ms_horflip\2.single_touch_with_finger_short_horflip_short_600ms.mp4	2.single_touch_with_finger_short_horflip_short_600ms.mp4	1815.6472571095271	1816.25555151202	0.6082944024924473	n/a	n/a	n/a	n/a
130.09716796875	0.2	266439	105	1	1	0	0	6	47	stimuli\Videos_short_600ms\52.touch_top_to_bottom_with_hammer_short_short_600ms.mp4	52.touch_top_to_bottom_with_hammer_short_short_600ms.mp4	1816.4472328874135	1817.0555287561356	0.6082958687220525	n/a	n/a	n/a	n/a
130.89697265625	0.2	268077	106	1	1	0	0	7	344	stimuli\Videos_short_600ms_vertflip\77.tapping_with_all_fingers_short_vertflip_short_600ms.mp4	77.tapping_with_all_fingers_short_vertflip_short_600ms.mp4	1817.2472183424156	1817.855516263859	0.608297921443409	n/a	n/a	n/a	n/a
131.697265625	0.2	269716	107	1	1	0	1	8	378	stimuli\Targets_short_600ms_vertflip\brush-stroke_short_horvertflip_short_600ms.mp4	brush-stroke_short_horvertflip_short_600ms.mp4	1818.047201158204	1818.655514328436	0.6083131702316678	n/a	n/a	n/a	n/a
132.4970703125	0.2	271354	108	1	1	0	0	9	88	stimuli\Videos_short_600ms\9.single_touch_with_hammer_short_short_600ms.mp4	9.single_touch_with_hammer_short_short_600ms.mp4	1818.8471886659272	1819.455512393013	0.6083237270854625	n/a	n/a	n/a	n/a
133.296875	0.2	272992	109	1	1	0	0	10	159	stimuli\Videos_short_600ms_horflip\72.(short)stroke_with_finger_all_over_the_hand_short_horflip_short_600ms.mp4	72.(short)stroke_with_finger_all_over_the_hand_short_horflip_short_600ms.mp4	1819.6471732411917	1820.255497554769	0.6083243135772136	n/a	n/a	n/a	n/a
134.09716796875	0.2	274631	110	1	1	0	0	11	287	stimuli\Videos_short_600ms_vertflip\25.single_touch_with_stanley_knife_short_vertflip_short_600ms.mp4	25.single_touch_with_stanley_knife_short_vertflip_short_600ms.mp4	1820.4471575232096	1821.0554616028176	0.6083040796079331	n/a	n/a	n/a	n/a
134.89697265625	0.2	276269	111	1	1	0	0	12	173	stimuli\Videos_short_600ms_horflip\85.touch_top_to_bottom_with_fabric_short_horflip_short_600ms.mp4	85.touch_top_to_bottom_with_fabric_short_horflip_short_600ms.mp4	1821.2477922247012	1821.8554640660832	0.6076718413819435	n/a	n/a	n/a	n/a
135.69677734375	0.2	277907	112	1	1	0	0	13	271	stimuli\Videos_short_600ms_vertflip\10.single_touch_with_knife_short_vertflip_short_600ms.mp4	10.single_touch_with_knife_short_vertflip_short_600ms.mp4	1822.047170367381	1822.6554492278392	0.6082788604580855	n/a	n/a	n/a	n/a
136.4970703125	0.2	279546	113	1	1	0	0	14	353	stimuli\Videos_short_600ms_vertflip\85.touch_top_to_bottom_with_fabric_short_vertflip_short_600ms.mp4	85.touch_top_to_bottom_with_fabric_short_vertflip_short_600ms.mp4	1822.847115061199	1823.4554326301195	0.6083175689204836	n/a	n/a	n/a	n/a
137.296875	0.2	281184	114	1	1	0	0	15	55	stimuli\Videos_short_600ms\6.single_touch_with_flat_hand_short_short_600ms.mp4	6.single_touch_with_flat_hand_short_short_600ms.mp4	1823.6471151784972	1824.2554180851216	0.6083029066244308	n/a	n/a	n/a	n/a
138.0966796875	0.2	282822	115	1	1	0	0	16	183	stimuli\Videos_short_600ms_horvertflip\12.repeated_touch_with_nail_file_short_horvertflip_short_600ms.mp4	12.repeated_touch_with_nail_file_short_horvertflip_short_600ms.mp4	1824.4470836252349	1825.055404126615	0.6083205013801489	n/a	n/a	n/a	n/a
138.89697265625	0.2	284461	116	1	1	0	0	17	0	stimuli\Videos_short_600ms\1.repeated_touch_with_finger_fast_short_short_600ms.mp4	1.repeated_touch_with_finger_fast_short_short_600ms.mp4	1825.247043567841	1825.8553884086332	0.6083448407921423	n/a	n/a	n/a	n/a
139.69677734375	0.2	286099	117	1	1	0	0	18	67	stimuli\Videos_short_600ms\70.(long)stroke_with_finger_all_over_the_hand_short_short_600ms.mp4	70.(long)stroke_with_finger_all_over_the_hand_short_short_600ms.mp4	1826.0470944166857	1826.6553855934728	0.6082911767871337	n/a	n/a	n/a	n/a
140.4970703125	0.2	287738	118	1	1	0	0	19	303	stimuli\Videos_short_600ms_vertflip\4.repeated_tap_with_finger_slow_short_vertflip_short_600ms.mp4	4.repeated_tap_with_finger_slow_short_vertflip_short_600ms.mp4	1826.8470188765336	1827.455358438899	0.6083395623654724	n/a	n/a	n/a	n/a
141.296875	0.2	289376	119	1	1	0	0	20	131	stimuli\Videos_short_600ms_horflip\47.(long)scratching_with_finger_nails_short_horflip_short_600ms.mp4	47.(long)scratching_with_finger_nails_short_horflip_short_600ms.mp4	1827.647023392521	1828.2553424276716	0.6083190351505436	n/a	n/a	n/a	n/a
142.0966796875	0.2	291014	120	1	1	0	0	21	224	stimuli\Videos_short_600ms_horvertflip\5.repeated_tap_with_finger_moving_from_top_to_bottom_short_horvertflip_short_600ms.mp4	5.repeated_tap_with_finger_moving_from_top_to_bottom_short_horvertflip_short_600ms.mp4	1828.4470067948016	1829.0553272961815	0.6083205013801489	n/a	n/a	n/a	n/a
142.89697265625	0.2	292653	121	1	1	0	0	22	172	stimuli\Videos_short_600ms_horflip\84.single_touch_with_cotton_bud_short_horflip_short_600ms.mp4	84.single_touch_with_cotton_bud_short_horflip_short_600ms.mp4	1829.247004566132	1829.855393980306	0.608389414173871	n/a	n/a	n/a	n/a
143.69677734375	0.2	294291	122	1	1	0	0	23	6	stimuli\Videos_short_600ms\15.single_stroke_top_to_bottom_with_a_plastic_whisk_short_short_600ms.mp4	15.single_stroke_top_to_bottom_with_a_plastic_whisk_short_short_600ms.mp4	1830.046985622445	1830.655281491167	0.6082958687220525	n/a	n/a	n/a	n/a
144.49658203125	0.2	295929	123	1	1	0	0	24	12	stimuli\Videos_short_600ms\20.single_touch_with_screwdriver_short_short_600ms.mp4	20.single_touch_with_screwdriver_short_short_600ms.mp4	1830.8469722504303	1831.4552792624984	0.6083070120675984	n/a	n/a	n/a	n/a
145.296875	0.2	297568	124	1	1	0	0	25	72	stimuli\Videos_short_600ms\75.(long)stroke_with_fingers_all_over_the_hand_short_short_600ms.mp4	75.(long)stroke_with_fingers_all_over_the_hand_short_short_600ms.mp4	1831.6469483215628	1832.2552699959265	0.6083216743636513	n/a	n/a	n/a	n/a
146.0966796875	0.2	299206	125	1	1	0	0	26	242	stimuli\Videos_short_600ms_horvertflip\66.stroke_top_to_bottom_with_sponge_short_horvertflip_short_600ms.mp4	66.stroke_top_to_bottom_with_sponge_short_horvertflip_short_600ms.mp4	1832.4469434536804	1833.0552296452863	0.608286191606112	n/a	n/a	n/a	n/a
146.896484375	0.2	300844	126	1	1	0	0	27	294	stimuli\Videos_short_600ms_vertflip\31.hand_grabbing_wrist_short_vertflip_short_600ms.mp4	31.hand_grabbing_wrist_short_vertflip_short_600ms.mp4	1833.2469192315664	1833.855215100289	0.6082958687220525	n/a	n/a	n/a	n/a
147.69677734375	0.2	302483	127	1	1	0	0	28	100	stimuli\Videos_short_600ms_horflip\19.single_touch_with_rolling_pin_short_horflip_short_600ms.mp4	19.single_touch_with_rolling_pin_short_horflip_short_600ms.mp4	1834.0469008743712	1834.655229879883	0.6083290055121324	n/a	n/a	n/a	n/a
148.49658203125	0.2	304121	128	1	1	0	0	29	58	stimuli\Videos_short_600ms\62.touch_top_to_bottom_with_scissors_short_short_600ms.mp4	62.touch_top_to_bottom_with_scissors_short_short_600ms.mp4	1834.8468860361272	1835.4552124024256	0.6083263662985701	n/a	n/a	n/a	n/a
149.29638671875	0.2	305759	129	1	1	0	0	30	178	stimuli\Videos_short_600ms_horflip\9.single_touch_with_hammer_short_horflip_short_600ms.mp4	9.single_touch_with_hammer_short_horflip_short_600ms.mp4	1835.6468729573585	1836.2551937519847	0.6083207946262519	n/a	n/a	n/a	n/a
150.0966796875	0.2	307398	130	1	1	0	0	31	334	stimuli\Videos_short_600ms_vertflip\68.stroke_top_to_bottom_with_shawl_short_vertflip_short_600ms.mp4	68.stroke_top_to_bottom_with_shawl_short_vertflip_short_600ms.mp4	1836.4469757107329	1837.0551803799704	0.6082046692376935	n/a	n/a	n/a	n/a
150.896484375	0.2	309036	131	1	1	0	0	32	345	stimuli\Videos_short_600ms_vertflip\78.single_stroke_top_to_bottom_with_soft_brush_short_vertflip_short_600ms.mp4	78.single_stroke_top_to_bottom_with_soft_brush_short_vertflip_short_600ms.mp4	1837.246840934903	1837.8551649552344	0.6083240203311107	n/a	n/a	n/a	n/a
151.6962890625	0.2	310674	132	1	1	0	0	33	2	stimuli\Videos_short_600ms\11.single_touch_with_lighter_short_short_600ms.mp4	11.single_touch_with_lighter_short_short_600ms.mp4	1838.0468278561348	1838.6551492372523	0.6083213811175483	n/a	n/a	n/a	n/a
152.49658203125	0.2	312313	133	1	1	0	1	34	382	stimuli\Targets_short_600ms_vertflip\hand-pinch_short_horvertflip_short_600ms.mp4	hand-pinch_short_horvertflip_short_600ms.mp4	1838.8479426012143	1839.4551343990083	0.6071917977938028	n/a	n/a	n/a	n/a
153.29638671875	0.2	313951	134	1	1	0	0	35	124	stimuli\Videos_short_600ms_horflip\40.repeated_push_with_finger_short_horflip_short_600ms.mp4	40.repeated_push_with_finger_short_horflip_short_600ms.mp4	1839.6474840818776	1840.2551195607643	0.6076354788865501	n/a	n/a	n/a	n/a
154.09619140625	0.2	315589	135	1	1	0	1	36	362	stimuli\Targets_short_600ms\chopstickwood-tap_short_short_600ms.mp4	chopstickwood-tap_short_short_600ms.mp4	1840.4469120763656	1841.0551047225204	0.6081926461547482	n/a	n/a	n/a	n/a
154.896484375	0.2	317228	136	1	1	0	0	37	302	stimuli\Videos_short_600ms_vertflip\39.single_stab_with_scissors_short_vertflip_short_600ms.mp4	39.single_stab_with_scissors_short_vertflip_short_600ms.mp4	1841.2467494421728	1841.855090470768	0.6083410285955324	n/a	n/a	n/a	n/a
155.6962890625	0.2	318866	137	1	1	0	0	38	146	stimuli\Videos_short_600ms_horflip\60.single_push_with_tip_of_pencil_short_horflip_short_600ms.mp4	60.single_push_with_tip_of_pencil_short_horflip_short_600ms.mp4	1842.0467299119937	1842.6550770987535	0.6083471867600565	n/a	n/a	n/a	n/a
156.49609375	0.2	320504	138	1	1	0	0	39	189	stimuli\Videos_short_600ms_horvertflip\18.single_stroke_from_top_to_bottom_with_rolling_pin_short_horvertflip_short_600ms.mp4	18.single_stroke_from_top_to_bottom_with_rolling_pin_short_horvertflip_short_600ms.mp4	1842.846735600965	1843.455059621296	0.6083240203311107	n/a	n/a	n/a	n/a
157.29638671875	0.2	322143	139	1	1	0	0	40	190	stimuli\Videos_short_600ms_horvertflip\19.single_touch_with_rolling_pin_short_horvertflip_short_600ms.mp4	19.single_touch_with_rolling_pin_short_horvertflip_short_600ms.mp4	1843.64669847603	1844.255045369544	0.6083468935139535	n/a	n/a	n/a	n/a
158.09619140625	0.2	323781	140	1	1	0	0	41	153	stimuli\Videos_short_600ms_horflip\67.single_touch_with_sponge_short_horflip_short_600ms.mp4	67.single_touch_with_sponge_short_horflip_short_600ms.mp4	1844.4467117893955	1845.055030238054	0.6083184486583377	n/a	n/a	n/a	n/a
158.896484375	0.2	325420	141	1	1	0	0	42	94	stimuli\Videos_short_600ms_horflip\13.single_touch_with_pen_short_horflip_short_600ms.mp4	13.single_touch_with_pen_short_horflip_short_600ms.mp4	1845.246857943167	1845.8549951658408	0.6081372226735766	n/a	n/a	n/a	n/a
159.6962890625	0.2	327058	142	1	1	0	0	43	212	stimuli\Videos_short_600ms_horvertflip\39.single_stab_with_scissors_short_horvertflip_short_600ms.mp4	39.single_stab_with_scissors_short_horvertflip_short_600ms.mp4	1846.0466788872016	1846.6549782748752	0.608299387673469	n/a	n/a	n/a	n/a
160.49609375	0.2	328696	143	1	1	0	0	44	105	stimuli\Videos_short_600ms_horflip\23.single_push_with_a_spoon_short_horflip_short_600ms.mp4	23.single_push_with_a_spoon_short_horflip_short_600ms.mp4	1846.8466619962364	1847.454962850139	0.6083008539026196	n/a	n/a	n/a	n/a
161.3046875	0.2	330352	144	1	1	0	0	45	340	stimuli\Videos_short_600ms_vertflip\73.single_stroke_with_flat_hand_short_vertflip_short_600ms.mp4	73.single_stroke_with_flat_hand_short_vertflip_short_600ms.mp4	1847.6549744626784	1848.2633017087144	0.6083272460364242	n/a	n/a	n/a	n/a
162.1044921875	0.2	331990	145	1	1	0	0	46	162	stimuli\Videos_short_600ms_horflip\75.(long)stroke_with_fingers_all_over_the_hand_short_horflip_short_600ms.mp4	75.(long)stroke_with_fingers_all_over_the_hand_short_horflip_short_600ms.mp4	1848.4549954004376	1849.0632871637165	0.6082917632788849	n/a	n/a	n/a	n/a
162.904296875	0.2	333628	146	1	1	0	0	47	95	stimuli\Videos_short_600ms_horflip\14.repeated_touch_with_pencil_short_horflip_short_600ms.mp4	14.repeated_touch_with_pencil_short_horflip_short_600ms.mp4	1849.2549559295353	1849.863272911964	0.6083169824287324	n/a	n/a	n/a	n/a
163.70458984375	0.2	335267	147	1	1	0	0	48	193	stimuli\Videos_short_600ms_horvertflip\21.repeated_touch_with_metal_chopstick_short_horvertflip_short_600ms.mp4	21.repeated_touch_with_metal_chopstick_short_horvertflip_short_600ms.mp4	1850.0549410912913	1850.6632574872283	0.6083163959369813	n/a	n/a	n/a	n/a
164.50439453125	0.2	336905	148	1	1	0	0	49	167	stimuli\Videos_short_600ms_horflip\8.single_touch_with_hairbrush_short_horflip_short_600ms.mp4	8.single_touch_with_hairbrush_short_horflip_short_600ms.mp4	1850.8549417950812	1851.4632232947529	0.6082814996716479	n/a	n/a	n/a	n/a
165.30419921875	0.2	338543	149	1	1	0	0	50	335	stimuli\Videos_short_600ms_vertflip\69.stroke_with_soft_sock_short_vertflip_short_600ms.mp4	69.stroke_with_soft_sock_short_vertflip_short_600ms.mp4	1851.654914347262	1852.263201711852	0.608287364590069	n/a	n/a	n/a	n/a
166.1044921875	0.2	340182	150	1	1	0	0	51	276	stimuli\Videos_short_600ms_vertflip\15.single_stroke_top_to_bottom_with_a_plastic_whisk_short_vertflip_short_600ms.mp4	15.single_stroke_top_to_bottom_with_a_plastic_whisk_short_vertflip_short_600ms.mp4	1852.454891591378	1853.063208573807	0.6083169824291872	n/a	n/a	n/a	n/a
166.904296875	0.2	341820	151	1	1	0	0	52	195	stimuli\Videos_short_600ms_horvertflip\23.single_push_with_a_spoon_short_horvertflip_short_600ms.mp4	23.single_push_with_a_spoon_short_horvertflip_short_600ms.mp4	1853.254873234183	1853.863171742118	0.6082985079351602	n/a	n/a	n/a	n/a
167.7041015625	0.2	343458	152	1	1	0	0	53	260	stimuli\Videos_short_600ms_horvertflip\82.repeated_touch_with_cotton_bud_short_horvertflip_short_600ms.mp4	82.repeated_touch_with_cotton_bud_short_horvertflip_short_600ms.mp4	1854.0548595689224	1854.663186228467	0.608326659544673	n/a	n/a	n/a	n/a
168.50439453125	0.2	345097	153	1	1	0	0	54	272	stimuli\Videos_short_600ms_vertflip\11.single_touch_with_lighter_short_vertflip_short_600ms.mp4	11.single_touch_with_lighter_short_vertflip_short_600ms.mp4	1854.8548456104163	1855.463167578026	0.6083219676097542	n/a	n/a	n/a	n/a
169.30419921875	0.2	346735	154	1	1	0	0	55	338	stimuli\Videos_short_600ms_vertflip\71.single_stroke_with_finger_top_to_bottom_short_vertflip_short_600ms.mp4	71.single_stroke_with_finger_top_to_bottom_short_vertflip_short_600ms.mp4	1855.65483018568	1856.263157431717	0.6083272460368789	n/a	n/a	n/a	n/a
170.10400390625	0.2	348373	155	1	1	0	0	56	291	stimuli\Videos_short_600ms_vertflip\29.single_pinch_with_tweezers_short_vertflip_short_600ms.mp4	29.single_pinch_with_tweezers_short_vertflip_short_600ms.mp4	1856.454818279895	1857.0631379015376	0.6083196216422948	n/a	n/a	n/a	n/a
170.904296875	0.2	350012	156	1	1	0	0	57	222	stimuli\Videos_short_600ms_horvertflip\48.single_slap_with_hand_short_horvertflip_short_600ms.mp4	48.single_slap_with_hand_short_horvertflip_short_600ms.mp4	1857.254798163225	1857.8631245295232	0.6083263662985701	n/a	n/a	n/a	n/a
171.7041015625	0.2	351650	157	1	1	0	0	58	346	stimuli\Videos_short_600ms_vertflip\79.long_with_soft_brush_all_over_the_hand_short_vertflip_short_600ms.mp4	79.long_with_soft_brush_all_over_the_hand_short_vertflip_short_600ms.mp4	1858.0547836182263	1858.6631049993443	0.608321381118003	n/a	n/a	n/a	n/a
172.50439453125	0.2	353289	158	1	1	0	1	59	361	stimuli\Targets_short_600ms\chopstick-silver-tap_short_short_600ms.mp4	chopstick-silver-tap_short_short_600ms.mp4	1858.85476965972	1859.4630898678545	0.608320208134046	n/a	n/a	n/a	n/a
173.30419921875	0.2	354927	159	1	1	0	0	60	18	stimuli\Videos_short_600ms\26.single_touch_with_a_blunt_syringe_short_short_600ms.mp4	26.single_touch_with_a_blunt_syringe_short_short_600ms.mp4	1859.6547536484925	1860.2630773755775	0.6083237270854625	n/a	n/a	n/a	n/a
174.10400390625	0.2	356565	160	1	1	0	0	61	48	stimuli\Videos_short_600ms\53.touch_top_to_bottom_with_knife_short_short_600ms.mp4	53.touch_top_to_bottom_with_knife_short_short_600ms.mp4	1860.454739983232	1861.063061657596	0.6083216743636513	n/a	n/a	n/a	n/a
174.904296875	0.2	358204	161	1	1	0	0	62	132	stimuli\Videos_short_600ms_horflip\48.single_slap_with_hand_short_horflip_short_600ms.mp4	48.single_slap_with_hand_short_horflip_short_600ms.mp4	1861.25472573148	1861.863045939614	0.608320208134046	n/a	n/a	n/a	n/a
175.7041015625	0.2	359842	162	1	1	0	0	63	68	stimuli\Videos_short_600ms\71.single_stroke_with_finger_top_to_bottom_short_short_600ms.mp4	71.single_stroke_with_finger_top_to_bottom_short_short_600ms.mp4	1862.054685087594	1862.6630325675997	0.6083474800057047	n/a	n/a	n/a	n/a
176.50390625	0.2	361480	163	1	1	0	0	64	10	stimuli\Videos_short_600ms\19.single_touch_with_rolling_pin_short_short_600ms.mp4	19.single_touch_with_rolling_pin_short_short_600ms.mp4	1862.8546758210225	1863.463018022601	0.6083422015790347	n/a	n/a	n/a	n/a
177.30419921875	0.2	363119	164	1	1	0	0	65	315	stimuli\Videos_short_600ms_vertflip\50.single_(long)hard_push_with_thumb_short_vertflip_short_600ms.mp4	50.single_(long)hard_push_with_thumb_short_vertflip_short_600ms.mp4	1863.654653944876	1864.2630017181275	0.6083477732518077	n/a	n/a	n/a	n/a
178.10400390625	0.2	364757	165	1	1	0	0	66	229	stimuli\Videos_short_600ms_horvertflip\54.repeated_touch_with_knife_short_horvertflip_short_600ms.mp4	54.repeated_touch_with_knife_short_horvertflip_short_600ms.mp4	1864.4546643257816	1865.0629857069	0.608321381118003	n/a	n/a	n/a	n/a
178.90380859375	0.2	366395	166	1	1	0	0	67	235	stimuli\Videos_short_600ms_horvertflip\6.single_touch_with_flat_hand_short_horvertflip_short_600ms.mp4	6.single_touch_with_flat_hand_short_horvertflip_short_600ms.mp4	1865.254669721507	1865.8629714551475	0.6083017336404737	n/a	n/a	n/a	n/a
179.7041015625	0.2	368034	167	1	1	0	0	68	61	stimuli\Videos_short_600ms\65.stroke_top_to_bottom_with_stanley_knife_short_short_600ms.mp4	65.stroke_top_to_bottom_with_stanley_knife_short_short_600ms.mp4	1866.0546402209663	1866.6629507519851	0.6083105310185601	n/a	n/a	n/a	n/a
180.50390625	0.2	369672	168	1	1	0	0	69	50	stimuli\Videos_short_600ms\55.touch_top_to_bottom_with_nail_file_short_short_600ms.mp4	55.touch_top_to_bottom_with_nail_file_short_short_600ms.mp4	1866.85462772869	1867.462943831381	0.6083161026908783	n/a	n/a	n/a	n/a
181.3037109375	0.2	371310	169	1	1	0	0	70	118	stimuli\Videos_short_600ms_horflip\35.single_punch_with_hand_short_horflip_short_600ms.mp4	35.single_punch_with_hand_short_horflip_short_600ms.mp4	1867.6546099579864	1868.262911984873	0.6083020268865766	n/a	n/a	n/a	n/a
182.10400390625	0.2	372949	170	1	1	0	0	71	135	stimuli\Videos_short_600ms_horflip\50.single_(long)hard_push_with_thumb_short_horflip_short_600ms.mp4	50.single_(long)hard_push_with_thumb_short_horflip_short_600ms.mp4	1868.454588375086	1869.0628880560052	0.6082996809191172	n/a	n/a	n/a	n/a
182.90380859375	0.2	374587	171	1	1	0	0	72	309	stimuli\Videos_short_600ms_vertflip\45.scratching_with_finger_nails_short_vertflip_short_600ms.mp4	45.scratching_with_finger_nails_short_vertflip_short_600ms.mp4	1869.2545744165795	1869.8628987301572	0.6083243135776684	n/a	n/a	n/a	n/a
183.70361328125	0.2	376225	172	1	1	0	0	73	121	stimuli\Videos_short_600ms_horflip\38.double_slap_with_pencil_short_horflip_short_600ms.mp4	38.double_slap_with_pencil_short_horflip_short_600ms.mp4	1870.0545601648273	1870.6628809594536	0.6083207946262519	n/a	n/a	n/a	n/a
184.50390625	0.2	377864	173	1	1	0	0	74	283	stimuli\Videos_short_600ms_vertflip\21.repeated_touch_with_metal_chopstick_short_vertflip_short_600ms.mp4	21.repeated_touch_with_metal_chopstick_short_vertflip_short_600ms.mp4	1870.8545441536	1871.46287257262	0.6083284190203813	n/a	n/a	n/a	n/a
185.3037109375	0.2	379502	174	1	1	0	0	75	240	stimuli\Videos_short_600ms_horvertflip\64.repeated_touch_with_screwdriver_short_horvertflip_short_600ms.mp4	64.repeated_touch_with_screwdriver_short_horvertflip_short_600ms.mp4	1871.6545287288636	1872.2628506964736	0.6083219676097542	n/a	n/a	n/a	n/a
186.103515625	0.2	381140	175	1	1	0	0	76	227	stimuli\Videos_short_600ms_horvertflip\52.touch_top_to_bottom_with_hammer_short_horvertflip_short_600ms.mp4	52.touch_top_to_bottom_with_hammer_short_horvertflip_short_600ms.mp4	1872.45451242439	1873.0628472948208	0.6083348704305536	n/a	n/a	n/a	n/a
186.90380859375	0.2	382779	176	1	1	0	0	77	71	stimuli\Videos_short_600ms\74.fingers_walking_from_top_to_bottom_short_short_600ms.mp4	74.fingers_walking_from_top_to_bottom_short_short_600ms.mp4	1873.2544990523756	1873.862819847002	0.6083207946262519	n/a	n/a	n/a	n/a
187.70361328125	0.2	384417	177	1	1	0	0	78	265	stimuli\Videos_short_600ms_horvertflip\87.single_stroke_top_to_bottom_with_plastic_brush_short_horvertflip_short_600ms.mp4	87.single_stroke_top_to_bottom_with_plastic_brush_short_horvertflip_short_600ms.mp4	1874.0544836276397	1874.6628058884953	0.6083222608558572	n/a	n/a	n/a	n/a
188.50341796875	0.2	386055	178	1	1	0	1	79	360	stimuli\Targets_short_600ms\brush-stroke_short_short_600ms.mp4	brush-stroke_short_short_600ms.mp4	1874.854467323166	1875.4627904637596	0.6083231405937113	n/a	n/a	n/a	n/a
189.3037109375	0.2	387694	179	1	1	0	0	80	296	stimuli\Videos_short_600ms_vertflip\33.scratch_top_to_bottom_with_scissors_short_vertflip_short_600ms.mp4	33.scratch_top_to_bottom_with_scissors_short_vertflip_short_600ms.mp4	1875.6544551241352	1876.262773279548	0.6083181554126895	n/a	n/a	n/a	n/a
190.103515625	0.2	389332	180	1	1	0	0	81	337	stimuli\Videos_short_600ms_vertflip\70.(long)stroke_with_finger_all_over_the_hand_short_vertflip_short_600ms.mp4	70.(long)stroke_with_finger_all_over_the_hand_short_vertflip_short_600ms.mp4	1876.454419758676	1877.0627599075335	0.6083401488576783	n/a	n/a	n/a	n/a
190.90380859375	0.2	390971	181	1	1	0	0	82	333	stimuli\Videos_short_600ms_vertflip\67.single_touch_with_sponge_short_vertflip_short_600ms.mp4	67.single_touch_with_sponge_short_vertflip_short_600ms.mp4	1877.2544275003688	1877.862746828765	0.6083193283961918	n/a	n/a	n/a	n/a
191.70361328125	0.2	392609	182	1	1	0	0	83	144	stimuli\Videos_short_600ms_horflip\59.single_push_with_long_side_pencil_short_horflip_short_600ms.mp4	59.single_push_with_long_side_pencil_short_horflip_short_600ms.mp4	1878.0544053309764	1878.662730817537	0.608325486560716	n/a	n/a	n/a	n/a
192.50341796875	0.2	394247	183	1	1	0	0	84	120	stimuli\Videos_short_600ms_horflip\37.single_stab_with_nail_file_short_horflip_short_600ms.mp4	37.single_stab_with_nail_file_short_horflip_short_600ms.mp4	1878.8543690857791	1879.462715392801	0.6083463070222024	n/a	n/a	n/a	n/a
193.3037109375	0.2	395886	184	1	1	0	0	85	221	stimuli\Videos_short_600ms_horvertflip\47.(long)scratching_with_finger_nails_short_horvertflip_short_600ms.mp4	47.(long)scratching_with_finger_nails_short_horvertflip_short_600ms.mp4	1879.6543645111428	1880.2626987950816	0.6083342839388024	n/a	n/a	n/a	n/a
194.103515625	0.2	397524	185	1	1	0	0	86	216	stimuli\Videos_short_600ms_horvertflip\42.single_slap_with_plastic_whisk_short_horvertflip_short_600ms.mp4	42.single_slap_with_plastic_whisk_short_horvertflip_short_600ms.mp4	1880.4543666811628	1881.0626842500833	0.6083175689204836	n/a	n/a	n/a	n/a
194.9033203125	0.2	399162	186	1	1	0	0	87	22	stimuli\Videos_short_600ms\3.single_push_with_finger_short_short_600ms.mp4	3.single_push_with_finger_short_short_600ms.mp4	1881.254349790197	1881.8626726375448	0.6083228473476083	n/a	n/a	n/a	n/a
195.70361328125	0.2	400801	187	1	1	0	0	88	313	stimuli\Videos_short_600ms_vertflip\49.repeated_slap_with_hand_short_vertflip_short_600ms.mp4	49.repeated_slap_with_hand_short_vertflip_short_600ms.mp4	1882.0543326059856	1882.66263551261	0.6083029066244308	n/a	n/a	n/a	n/a
196.50341796875	0.2	402439	188	1	1	0	0	89	8	stimuli\Videos_short_600ms\17.repeated_touch_with_rolling_pin_short_short_600ms.mp4	17.repeated_touch_with_rolling_pin_short_short_600ms.mp4	1882.8543294975789	1883.4626153959389	0.608285898360009	n/a	n/a	n/a	n/a
197.30322265625	0.2	404077	189	1	1	0	0	90	273	stimuli\Videos_short_600ms_vertflip\12.repeated_touch_with_nail_file_short_vertflip_short_600ms.mp4	12.repeated_touch_with_nail_file_short_vertflip_short_600ms.mp4	1883.654303809235	1884.2626248971071	0.6083210878723548	n/a	n/a	n/a	n/a
198.103515625	0.2	405716	190	1	1	0	0	91	151	stimuli\Videos_short_600ms_horflip\65.stroke_top_to_bottom_with_stanley_knife_short_horflip_short_600ms.mp4	65.stroke_top_to_bottom_with_stanley_knife_short_horflip_short_600ms.mp4	1884.4542883844993	1885.062610645355	0.6083222608558572	n/a	n/a	n/a	n/a
198.9033203125	0.2	407354	191	1	1	0	0	92	127	stimuli\Videos_short_600ms_horflip\43.touch_top_to_bottom_with_sharp_wooden_stick_short_horflip_short_600ms.mp4	43.touch_top_to_bottom_with_sharp_wooden_stick_short_horflip_short_600ms.mp4	1885.254274132747	1885.8625961003568	0.6083219676097542	n/a	n/a	n/a	n/a
199.703125	0.2	408992	192	1	1	0	0	93	177	stimuli\Videos_short_600ms_horflip\89.single_touch_with_plastic_brush_short_horflip_short_600ms.mp4	89.single_touch_with_plastic_brush_short_horflip_short_600ms.mp4	1886.054257535027	1886.662588006769	0.6083304717417377	n/a	n/a	n/a	n/a
200.50341796875	0.2	410631	193	1	1	0	0	94	60	stimuli\Videos_short_600ms\64.repeated_touch_with_screwdriver_short_short_600ms.mp4	64.repeated_touch_with_screwdriver_short_short_600ms.mp4	1886.8542435765212	1887.4625626116715	0.6083190351505436	5.0	5.0	1.9397441194660132	1.0
232.060546875	0.2	475260	194	1	2	0	0	0	57	stimuli\Videos_short_600ms\61.single_hit_with_rolling_pin_short_short_600ms.mp4	61.single_hit_with_rolling_pin_short_short_600ms.mp4	1918.4119990956292	1919.0202976035648	0.6082985079356149	n/a	n/a	n/a	n/a
232.8603515625	0.2	476898	195	1	2	0	0	1	44	stimuli\Videos_short_600ms\5.repeated_tap_with_finger_moving_from_top_to_bottom_short_short_600ms.mp4	5.repeated_tap_with_finger_moving_from_top_to_bottom_short_short_600ms.mp4	1919.2122299974749	1919.8202622381057	0.608032240630564	n/a	n/a	n/a	n/a
233.66064453125	0.2	478537	196	1	2	0	0	2	91	stimuli\Videos_short_600ms_horflip\10.single_touch_with_knife_short_horflip_short_600ms.mp4	10.single_touch_with_knife_short_horflip_short_600ms.mp4	1920.0119497716637	1920.6202691000603	0.6083193283966466	n/a	n/a	n/a	n/a
234.46044921875	0.2	480175	197	1	2	0	0	3	5	stimuli\Videos_short_600ms\14.repeated_touch_with_pencil_short_short_600ms.mp4	14.repeated_touch_with_pencil_short_short_600ms.mp4	1920.81193346719	1921.420254555062	0.6083210878719001	n/a	n/a	n/a	n/a
235.2607421875	0.2	481814	198	1	2	0	0	4	35	stimuli\Videos_short_600ms\41.injection_with_blunt_syringe_short_short_600ms.mp4	41.injection_with_blunt_syringe_short_short_600ms.mp4	1921.611923614127	1922.2202385438345	0.6083149297078307	n/a	n/a	n/a	n/a
236.060546875	0.2	483452	199	1	2	0	0	5	152	stimuli\Videos_short_600ms_horflip\66.stroke_top_to_bottom_with_sponge_short_horflip_short_600ms.mp4	66.stroke_top_to_bottom_with_sponge_short_horflip_short_600ms.mp4	1922.4119076028992	1923.0202219461148	0.6083143432156248	n/a	n/a	n/a	n/a
236.8603515625	0.2	485090	200	1	2	0	0	6	237	stimuli\Videos_short_600ms_horvertflip\61.single_hit_with_rolling_pin_short_horvertflip_short_600ms.mp4	61.single_hit_with_rolling_pin_short_horvertflip_short_600ms.mp4	1923.2118907119336	1923.8202252891183	0.6083345771849054	n/a	n/a	n/a	n/a
237.66064453125	0.2	486729	201	1	2	0	0	7	285	stimuli\Videos_short_600ms_vertflip\23.single_push_with_a_spoon_short_vertflip_short_600ms.mp4	23.single_push_with_a_spoon_short_vertflip_short_600ms.mp4	1924.0118761669355	1924.6201928561184	0.6083166891830842	n/a	n/a	n/a	n/a
238.46044921875	0.2	488367	202	1	2	0	0	8	208	stimuli\Videos_short_600ms_horvertflip\35.single_punch_with_hand_short_horvertflip_short_600ms.mp4	35.single_punch_with_hand_short_horvertflip_short_600ms.mp4	1924.8118375757708	1925.4201765516443	0.6083389758737212	n/a	n/a	n/a	n/a
239.26025390625	0.2	490005	203	1	2	0	0	9	219	stimuli\Videos_short_600ms_horvertflip\45.scratching_with_finger_nails_short_horvertflip_short_600ms.mp4	45.scratching_with_finger_nails_short_horvertflip_short_600ms.mp4	1925.611843851234	1926.2201869325509	0.6083430813168889	n/a	n/a	n/a	n/a
240.060546875	0.2	491644	204	1	2	0	0	10	304	stimuli\Videos_short_600ms_vertflip\40.repeated_push_with_finger_short_vertflip_short_600ms.mp4	40.repeated_push_with_finger_short_vertflip_short_600ms.mp4	1926.4118128844632	1927.0201509805995	0.6083380961363218	n/a	n/a	n/a	n/a
240.8603515625	0.2	493282	205	1	2	0	0	11	336	stimuli\Videos_short_600ms_vertflip\7.repeated_touch_with_hairbrush_short_vertflip_short_600ms.mp4	7.repeated_touch_with_hairbrush_short_vertflip_short_600ms.mp4	1927.2117971664816	1927.8201358491096	0.608338682628073	n/a	n/a	n/a	n/a
241.66015625	0.2	494920	206	1	2	0	0	12	34	stimuli\Videos_short_600ms\40.repeated_push_with_finger_short_short_600ms.mp4	40.repeated_push_with_finger_short_short_600ms.mp4	1928.0117747038437	1928.6201177851603	0.6083430813168889	n/a	n/a	n/a	n/a
242.46044921875	0.2	496559	207	1	2	0	0	13	323	stimuli\Videos_short_600ms_vertflip\58.single_slap_with_pencil_short_vertflip_short_600ms.mp4	58.single_slap_with_pencil_short_vertflip_short_600ms.mp4	1928.8117592791075	1929.4201058793756	0.6083466002678506	n/a	n/a	n/a	n/a
243.26025390625	0.2	498197	208	1	2	0	0	14	355	stimuli\Videos_short_600ms_vertflip\87.single_stroke_top_to_bottom_with_plastic_brush_short_vertflip_short_600ms.mp4	87.single_stroke_top_to_bottom_with_plastic_brush_short_vertflip_short_600ms.mp4	1929.6117652613243	1930.2200907478857	0.6083254865611707	n/a	n/a	n/a	n/a
244.06005859375	0.2	499835	209	1	2	0	0	15	207	stimuli\Videos_short_600ms_horvertflip\34.repeated_punch_with_hand_short_horvertflip_short_600ms.mp4	34.repeated_punch_with_hand_short_horvertflip_short_600ms.mp4	1930.4117489568507	1931.0200756163952	0.608326659544673	n/a	n/a	n/a	n/a
244.8603515625	0.2	501474	210	1	2	0	0	16	149	stimuli\Videos_short_600ms_horflip\63.stroke_top_to_bottom_with_screwdriver_short_horflip_short_600ms.mp4	63.stroke_top_to_bottom_with_screwdriver_short_horflip_short_600ms.mp4	1931.2117437957224	1931.820041717166	0.6082979214438637	n/a	n/a	n/a	n/a
245.66015625	0.2	503112	211	1	2	0	0	17	113	stimuli\Videos_short_600ms_horflip\30.finger_pulling_back_another_finger_short_horflip_short_600ms.mp4	30.finger_pulling_back_another_finger_short_horflip_short_600ms.mp4	1932.0117324764296	1932.620021893741	0.6082894173114255	n/a	n/a	n/a	n/a
246.4599609375	0.2	504750	212	1	2	0	0	18	30	stimuli\Videos_short_600ms\37.single_stab_with_nail_file_short_short_600ms.mp4	37.single_stab_with_nail_file_short_short_600ms.mp4	1932.8117132394964	1933.4200319814008	0.6083187419044407	n/a	n/a	n/a	n/a
247.26025390625	0.2	506389	213	1	2	0	0	19	37	stimuli\Videos_short_600ms\43.touch_top_to_bottom_with_sharp_wooden_stick_short_short_600ms.mp4	43.touch_top_to_bottom_with_sharp_wooden_stick_short_short_600ms.mp4	1933.6117107175817	1934.2199892847937	0.6082785672119826	n/a	n/a	n/a	n/a
248.06005859375	0.2	508027	214	1	2	0	0	20	41	stimuli\Videos_short_600ms\47.(long)scratching_with_finger_nails_short_short_600ms.mp4	47.(long)scratching_with_finger_nails_short_short_600ms.mp4	1934.4116782845815	1935.0199747397955	0.6082964552138037	n/a	n/a	n/a	n/a
248.85986328125	0.2	509665	215	1	2	0	0	21	137	stimuli\Videos_short_600ms_horflip\52.touch_top_to_bottom_with_hammer_short_horflip_short_600ms.mp4	52.touch_top_to_bottom_with_hammer_short_horflip_short_600ms.mp4	1935.211661686862	1935.8199845342097	0.6083228473476083	n/a	n/a	n/a	n/a
249.66015625	0.2	511304	216	1	2	0	0	22	42	stimuli\Videos_short_600ms\48.single_slap_with_hand_short_short_600ms.mp4	48.single_slap_with_hand_short_short_600ms.mp4	1936.011650074323	1936.6199664702604	0.608316395937436	n/a	n/a	n/a	n/a
250.4599609375	0.2	512942	217	1	2	0	0	23	40	stimuli\Videos_short_600ms\46.scratching_top_to_bottom_with_finger_nails_short_short_600ms.mp4	46.scratching_top_to_bottom_with_finger_nails_short_short_600ms.mp4	1936.811631130636	1937.419960136148	0.6083290055121324	n/a	n/a	n/a	n/a
251.259765625	0.2	514580	218	1	2	0	0	24	339	stimuli\Videos_short_600ms_vertflip\72.(short)stroke_with_finger_all_over_the_hand_short_vertflip_short_600ms.mp4	72.(short)stroke_with_finger_all_over_the_hand_short_vertflip_short_600ms.mp4	1937.611616585638	1938.2199338613127	0.6083172756748354	n/a	n/a	n/a	n/a
252.06005859375	0.2	516219	219	1	2	0	0	25	53	stimuli\Videos_short_600ms\58.single_slap_with_pencil_short_short_600ms.mp4	58.single_slap_with_pencil_short_short_600ms.mp4	1938.4116020406395	1939.019918436577	0.608316395937436	n/a	n/a	n/a	n/a
252.85986328125	0.2	517857	220	1	2	0	0	26	327	stimuli\Videos_short_600ms_vertflip\61.single_hit_with_rolling_pin_short_vertflip_short_600ms.mp4	61.single_hit_with_rolling_pin_short_vertflip_short_600ms.mp4	1939.2115886686252	1939.8199033050869	0.6083146364617278	n/a	n/a	n/a	n/a
253.66015625	0.2	519496	221	1	2	0	0	27	133	stimuli\Videos_short_600ms_horflip\49.repeated_slap_with_hand_short_horflip_short_600ms.mp4	49.repeated_slap_with_hand_short_horflip_short_600ms.mp4	1940.0115720709057	1940.6198905195645	0.6083184486587925	n/a	n/a	n/a	n/a
254.4599609375	0.2	521134	222	1	2	0	0	28	328	stimuli\Videos_short_600ms_vertflip\62.touch_top_to_bottom_with_scissors_short_vertflip_short_600ms.mp4	62.touch_top_to_bottom_with_scissors_short_vertflip_short_600ms.mp4	1940.811558698891	1941.4198748015824	0.6083161026913331	n/a	n/a	n/a	n/a
255.259765625	0.2	522772	223	1	2	0	0	29	358	stimuli\Videos_short_600ms_vertflip\9.single_touch_with_hammer_short_vertflip_short_600ms.mp4	9.single_touch_with_hammer_short_vertflip_short_600ms.mp4	1941.611543567401	1942.2199136273432	0.6083700599424446	n/a	n/a	n/a	n/a
256.06005859375	0.2	524411	224	1	2	0	0	30	138	stimuli\Videos_short_600ms_horflip\53.touch_top_to_bottom_with_knife_short_horflip_short_600ms.mp4	53.touch_top_to_bottom_with_knife_short_horflip_short_600ms.mp4	1942.411507322204	1943.0198979093616	0.6083905871573734	n/a	n/a	n/a	n/a
256.85986328125	0.2	526049	225	1	2	0	0	31	83	stimuli\Videos_short_600ms\85.touch_top_to_bottom_with_fabric_short_short_600ms.mp4	85.touch_top_to_bottom_with_fabric_short_short_600ms.mp4	1943.2114857393035	1943.8198830711176	0.6083973318141034	n/a	n/a	n/a	n/a
257.65966796875	0.2	527687	226	1	2	0	0	32	252	stimuli\Videos_short_600ms_horvertflip\75.(long)stroke_with_fingers_all_over_the_hand_short_horvertflip_short_600ms.mp4	75.(long)stroke_with_fingers_all_over_the_hand_short_horvertflip_short_600ms.mp4	1944.0114926012584	1944.619870285595	0.608377684336574	n/a	n/a	n/a	n/a
258.4599609375	0.2	529326	227	1	2	0	0	33	96	stimuli\Videos_short_600ms_horflip\15.single_stroke_top_to_bottom_with_a_plastic_whisk_short_horflip_short_600ms.mp4	15.single_stroke_top_to_bottom_with_a_plastic_whisk_short_horflip_short_600ms.mp4	1944.811458408783	1945.4198501689243	0.6083917601413305	n/a	n/a	n/a	n/a
259.259765625	0.2	530964	228	1	2	0	1	34	364	stimuli\Targets_short_600ms\hand-pinch_short_short_600ms.mp4	hand-pinch_short_short_600ms.mp4	1945.611464391	1946.2198077655623	0.6083433745625371	n/a	n/a	n/a	n/a
260.0595703125	0.2	532602	229	1	2	0	0	35	36	stimuli\Videos_short_600ms\42.single_slap_with_plastic_whisk_short_short_600ms.mp4	42.single_slap_with_plastic_whisk_short_short_600ms.mp4	1946.4114624555768	1947.019803777418	0.6083413218411806	n/a	n/a	n/a	n/a
260.85986328125	0.2	534241	230	1	2	0	0	36	87	stimuli\Videos_short_600ms\89.single_touch_with_plastic_brush_short_short_600ms.mp4	89.single_touch_with_plastic_brush_short_short_600ms.mp4	1947.211445564611	1947.8197821945173	0.6083366299062618	n/a	n/a	n/a	n/a
261.65966796875	0.2	535879	231	1	2	0	0	37	192	stimuli\Videos_short_600ms_horvertflip\20.single_touch_with_screwdriver_short_horvertflip_short_600ms.mp4	20.single_touch_with_screwdriver_short_horvertflip_short_600ms.mp4	1948.0114257411865	1948.619735978959	0.6083102377724572	n/a	n/a	n/a	n/a
262.45947265625	0.2	537517	232	1	2	0	0	38	45	stimuli\Videos_short_600ms\50.single_(long)hard_push_with_thumb_short_short_600ms.mp4	50.single_(long)hard_push_with_thumb_short_short_600ms.mp4	1948.8114437464865	1949.4197082378937	0.6082644914072262	n/a	n/a	n/a	n/a
263.259765625	0.2	539156	233	1	2	0	0	39	263	stimuli\Videos_short_600ms_horvertflip\85.touch_top_to_bottom_with_fabric_short_horvertflip_short_600ms.mp4	85.touch_top_to_bottom_with_fabric_short_horvertflip_short_600ms.mp4	1949.6114060350596	1950.2197118741433	0.6083058390836413	n/a	n/a	n/a	n/a
264.0595703125	0.2	540794	234	1	2	0	0	40	187	stimuli\Videos_short_600ms_horvertflip\16.repeated_touch_with_plastic_brush_short_horvertflip_short_600ms.mp4	16.repeated_touch_with_plastic_brush_short_horvertflip_short_600ms.mp4	1950.411372429076	1951.019707006261	0.6083345771849054	n/a	n/a	n/a	n/a
264.859375	0.2	542432	235	1	2	0	0	41	202	stimuli\Videos_short_600ms_horvertflip\3.single_push_with_finger_short_horvertflip_short_600ms.mp4	3.single_push_with_finger_short_horvertflip_short_600ms.mp4	1951.2113555381104	1951.8196851301143	0.6083295920038836	n/a	n/a	n/a	n/a
265.65966796875	0.2	544071	236	1	2	0	0	42	136	stimuli\Videos_short_600ms_horflip\51.repeated_touch_with_hammer_short_horflip_short_600ms.mp4	51.repeated_touch_with_hammer_short_horflip_short_600ms.mp4	1952.0113450985557	1952.6196770365268	0.608331937971343	n/a	n/a	n/a	n/a
266.45947265625	0.2	545709	237	1	2	0	0	43	28	stimuli\Videos_short_600ms\35.single_punch_with_hand_short_short_600ms.mp4	35.single_punch_with_hand_short_short_600ms.mp4	1952.8113302603117	1953.4196525211669	0.6083222608554024	n/a	n/a	n/a	n/a
267.25927734375	0.2	547347	238	1	2	0	0	44	39	stimuli\Videos_short_600ms\45.scratching_with_finger_nails_short_short_600ms.mp4	45.scratching_with_finger_nails_short_short_600ms.mp4	1953.611316301805	1954.2196382694144	0.6083219676097542	n/a	n/a	n/a	n/a
268.0595703125	0.2	548986	239	1	2	0	0	45	104	stimuli\Videos_short_600ms_horflip\22.single_touch_with_metal_chopstick_short_horflip_short_600ms.mp4	22.single_touch_with_metal_chopstick_short_horflip_short_600ms.mp4	1954.4112991175937	1955.019619325728	0.6083202081345007	n/a	n/a	n/a	n/a
268.859375	0.2	550624	240	1	2	0	0	46	243	stimuli\Videos_short_600ms_horvertflip\67.single_touch_with_sponge_short_horvertflip_short_600ms.mp4	67.single_touch_with_sponge_short_horvertflip_short_600ms.mp4	1955.2112860388252	1955.819594810368	0.6083087715428519	n/a	n/a	n/a	n/a
269.6591796875	0.2	552262	241	1	2	0	0	47	23	stimuli\Videos_short_600ms\30.finger_pulling_back_another_finger_short_short_600ms.mp4	30.finger_pulling_back_another_finger_short_short_600ms.mp4	1956.0112712005807	1956.6195726409755	0.6083014403948255	n/a	n/a	n/a	n/a
270.45947265625	0.2	553901	242	1	2	0	0	48	307	stimuli\Videos_short_600ms_vertflip\43.touch_top_to_bottom_with_sharp_wooden_stick_short_vertflip_short_600ms.mp4	43.touch_top_to_bottom_with_sharp_wooden_stick_short_vertflip_short_600ms.mp4	1956.8118718855449	1957.4195501783377	0.6076782927925706	n/a	n/a	n/a	n/a
271.25927734375	0.2	555539	243	1	2	0	0	49	206	stimuli\Videos_short_600ms_horvertflip\33.scratch_top_to_bottom_with_scissors_short_horvertflip_short_600ms.mp4	33.scratch_top_to_bottom_with_scissors_short_horvertflip_short_600ms.mp4	1957.611291962393	1958.2195315278964	0.6082395655034816	n/a	n/a	n/a	n/a
272.0595703125	0.2	557178	244	1	2	0	0	50	1	stimuli\Videos_short_600ms\10.single_touch_with_knife_short_short_600ms.mp4	10.single_touch_with_knife_short_short_600ms.mp4	1958.411220234438	1959.0195026138476	0.608282379409502	n/a	n/a	n/a	n/a
272.859375	0.2	558816	245	1	2	0	0	51	278	stimuli\Videos_short_600ms_vertflip\17.repeated_touch_with_rolling_pin_short_vertflip_short_600ms.mp4	17.repeated_touch_with_rolling_pin_short_vertflip_short_600ms.mp4	1959.2111948393408	1959.8194783917336	0.6082835523930044	n/a	n/a	n/a	n/a
273.6591796875	0.2	560454	246	1	2	0	0	52	24	stimuli\Videos_short_600ms\31.hand_grabbing_wrist_short_short_600ms.mp4	31.hand_grabbing_wrist_short_short_600ms.mp4	1960.0111688577513	1960.61945270339	0.6082838456386526	n/a	n/a	n/a	n/a
274.45947265625	0.2	562093	247	1	2	0	0	53	75	stimuli\Videos_short_600ms\78.single_stroke_top_to_bottom_with_soft_brush_short_short_600ms.mp4	78.single_stroke_top_to_bottom_with_soft_brush_short_short_600ms.mp4	1960.8111809981328	1961.4194325867193	0.6082515885864268	n/a	n/a	n/a	n/a
275.25927734375	0.2	563731	248	1	2	0	0	54	223	stimuli\Videos_short_600ms_horvertflip\49.repeated_slap_with_hand_short_horvertflip_short_600ms.mp4	49.repeated_slap_with_hand_short_horvertflip_short_600ms.mp4	1961.611172611299	1962.2194338770016	0.6082612657023674	n/a	n/a	n/a	n/a
276.05908203125	0.2	565369	249	1	2	0	0	55	181	stimuli\Videos_short_600ms_horvertflip\10.single_touch_with_knife_short_horvertflip_short_600ms.mp4	10.single_touch_with_knife_short_horvertflip_short_600ms.mp4	1962.411155133842	1963.0194275428896	0.6082724090474585	n/a	n/a	n/a	n/a
276.859375	0.2	567008	250	1	2	0	0	56	319	stimuli\Videos_short_600ms_vertflip\54.repeated_touch_with_knife_short_vertflip_short_600ms.mp4	54.repeated_touch_with_knife_short_vertflip_short_600ms.mp4	1963.2111531984183	1963.819404493759	0.6082512953407786	n/a	n/a	n/a	n/a
277.6591796875	0.2	568646	251	1	2	0	0	57	98	stimuli\Videos_short_600ms_horflip\17.repeated_touch_with_rolling_pin_short_horflip_short_600ms.mp4	17.repeated_touch_with_rolling_pin_short_horflip_short_600ms.mp4	1964.011125457354	1964.6193887757772	0.6082633184232691	n/a	n/a	n/a	n/a
278.458984375	0.2	570284	252	1	2	0	0	58	81	stimuli\Videos_short_600ms\83.single_stroke_top_to_bottom_with_cotton_bud_short_short_600ms.mp4	83.single_stroke_top_to_bottom_with_cotton_bud_short_short_600ms.mp4	1964.811104460945	1965.4193727645495	0.6082683036047456	n/a	n/a	n/a	n/a
279.25927734375	0.2	571923	253	1	2	0	0	59	156	stimuli\Videos_short_600ms_horflip\7.repeated_touch_with_hairbrush_short_horflip_short_600ms.mp4	7.repeated_touch_with_hairbrush_short_horflip_short_600ms.mp4	1965.6110846375204	1966.2193590992892	0.608274461768815	n/a	n/a	n/a	n/a
280.05908203125	0.2	573561	254	1	2	0	0	60	210	stimuli\Videos_short_600ms_horvertflip\37.single_stab_with_nail_file_short_horvertflip_short_600ms.mp4	37.single_stab_with_nail_file_short_horvertflip_short_600ms.mp4	1966.4110891535072	1967.0193419150771	0.6082527615699291	n/a	n/a	n/a	n/a
280.85888671875	0.2	575199	255	1	2	0	0	61	16	stimuli\Videos_short_600ms\24.single_stroke_top_to_bottom_with_a_spoon_short_short_600ms.mp4	24.single_stroke_top_to_bottom_with_a_spoon_short_short_600ms.mp4	1967.2111314982192	1967.8193270768336	0.6081955786139588	n/a	n/a	n/a	n/a
281.6591796875	0.2	576838	256	1	2	0	0	62	59	stimuli\Videos_short_600ms\63.stroke_top_to_bottom_with_screwdriver_short_short_600ms.mp4	63.stroke_top_to_bottom_with_screwdriver_short_short_600ms.mp4	1968.0110415890176	1968.619311065606	0.6082694765882479	n/a	n/a	n/a	n/a
282.458984375	0.2	578476	257	1	2	0	0	63	56	stimuli\Videos_short_600ms\60.single_push_with_tip_of_pencil_short_short_600ms.mp4	60.single_push_with_tip_of_pencil_short_short_600ms.mp4	1968.8111188299952	1969.4192965206075	0.6081776906121377	n/a	n/a	n/a	n/a
283.2587890625	0.2	580114	258	1	2	0	0	64	295	stimuli\Videos_short_600ms_vertflip\32.single_(long)pinch_with_fingers_short_vertflip_short_600ms.mp4	32.single_(long)pinch_with_fingers_short_vertflip_short_600ms.mp4	1969.611007807086	1970.219281389118	0.6082735820318703	n/a	n/a	n/a	n/a
284.05908203125	0.2	581753	259	1	2	0	0	65	268	stimuli\Videos_short_600ms_horvertflip\9.single_touch_with_hammer_short_horvertflip_short_600ms.mp4	9.single_touch_with_hammer_short_horvertflip_short_600ms.mp4	1970.4110000067449	1971.0192671373652	0.6082671306203338	n/a	n/a	n/a	n/a
284.85888671875	0.2	583391	260	1	2	0	0	66	157	stimuli\Videos_short_600ms_horflip\70.(long)stroke_with_finger_all_over_the_hand_short_horflip_short_600ms.mp4	70.(long)stroke_with_finger_all_over_the_hand_short_horflip_short_600ms.mp4	1971.2109816495497	1971.8192525923669	0.6082709428173985	n/a	n/a	n/a	n/a
285.65869140625	0.2	585029	261	1	2	0	0	67	199	stimuli\Videos_short_600ms_horvertflip\27.single_push_with_a_plastic_whisk_short_horvertflip_short_600ms.mp4	27.single_push_with_a_plastic_whisk_short_horvertflip_short_600ms.mp4	1972.0109506827791	1972.619236874385	0.6082861916056572	n/a	n/a	n/a	n/a
286.458984375	0.2	586668	262	1	2	0	0	68	200	stimuli\Videos_short_600ms_horvertflip\28.single_injection_with_sharp_needle_short_horvertflip_short_600ms.mp4	28.single_injection_with_sharp_needle_short_horvertflip_short_600ms.mp4	1972.8109332053216	1973.4192214496495	0.6082882443279232	n/a	n/a	n/a	n/a
287.2587890625	0.2	588306	263	1	2	0	0	69	305	stimuli\Videos_short_600ms_vertflip\41.injection_with_blunt_syringe_short_vertflip_short_600ms.mp4	41.injection_with_blunt_syringe_short_vertflip_short_600ms.mp4	1973.6109107426837	1974.219205438421	0.6082946957376407	n/a	n/a	n/a	n/a
288.05859375	0.2	589944	264	1	2	0	0	70	256	stimuli\Videos_short_600ms_horvertflip\79.long_with_soft_brush_all_over_the_hand_short_horvertflip_short_600ms.mp4	79.long_with_soft_brush_all_over_the_hand_short_horvertflip_short_600ms.mp4	1974.410898836899	1975.0191914799152	0.6082926430162843	n/a	n/a	n/a	n/a
288.85888671875	0.2	591583	265	1	2	0	0	71	245	stimuli\Videos_short_600ms_horvertflip\69.stroke_with_soft_sock_short_horvertflip_short_600ms.mp4	69.stroke_with_soft_sock_short_horvertflip_short_600ms.mp4	1975.2108810661948	1975.81917458895	0.6082935227550479	n/a	n/a	n/a	n/a
289.65869140625	0.2	593221	266	1	2	0	0	72	247	stimuli\Videos_short_600ms_horvertflip\70.(long)stroke_with_finger_all_over_the_hand_short_horvertflip_short_600ms.mp4	70.(long)stroke_with_finger_all_over_the_hand_short_horvertflip_short_600ms.mp4	1976.010897898512	1976.6191641493945	0.6082662508824797	n/a	n/a	n/a	n/a
290.45849609375	0.2	594859	267	1	2	0	0	73	230	stimuli\Videos_short_600ms_horvertflip\55.touch_top_to_bottom_with_nail_file_short_horvertflip_short_600ms.mp4	55.touch_top_to_bottom_with_nail_file_short_horvertflip_short_600ms.mp4	1976.8108824737756	1977.419150484135	0.6082680103590974	n/a	n/a	n/a	n/a
291.2587890625	0.2	596498	268	1	2	0	0	74	166	stimuli\Videos_short_600ms_horflip\79.long_with_soft_brush_all_over_the_hand_short_horflip_short_600ms.mp4	79.long_with_soft_brush_all_over_the_hand_short_horflip_short_600ms.mp4	1977.6108652895637	1978.21912919448	0.6082639049163845	n/a	n/a	n/a	n/a
292.05859375	0.2	598136	269	1	2	0	0	75	325	stimuli\Videos_short_600ms_vertflip\6.single_touch_with_flat_hand_short_vertflip_short_600ms.mp4	6.single_touch_with_flat_hand_short_vertflip_short_600ms.mp4	1978.410847812107	1979.0191193414169	0.6082715293096044	n/a	n/a	n/a	n/a
292.85888671875	0.2	599775	270	1	2	0	0	76	4	stimuli\Videos_short_600ms\13.single_touch_with_pen_short_short_600ms.mp4	13.single_touch_with_pen_short_short_600ms.mp4	1979.2108403050104	1979.8190998112375	0.6082595062271139	n/a	n/a	n/a	n/a
293.65869140625	0.2	601413	271	1	2	0	0	77	299	stimuli\Videos_short_600ms_vertflip\36.single_slap_with_full_hand_short_vertflip_short_600ms.mp4	36.single_slap_with_full_hand_short_vertflip_short_600ms.mp4	1980.0108726793617	1980.6190843865015	0.6082117071400717	n/a	n/a	n/a	n/a
294.45849609375	0.2	603051	272	1	2	0	0	78	196	stimuli\Videos_short_600ms_horvertflip\24.single_stroke_top_to_bottom_with_a_spoon_short_horvertflip_short_600ms.mp4	24.single_stroke_top_to_bottom_with_a_spoon_short_horvertflip_short_600ms.mp4	1980.8108159069495	1981.419074533438	0.6082586264883503	n/a	n/a	n/a	n/a
295.2587890625	0.2	604690	273	1	2	0	0	79	310	stimuli\Videos_short_600ms_vertflip\46.scratching_top_to_bottom_with_finger_nails_short_vertflip_short_600ms.mp4	46.scratching_top_to_bottom_with_finger_nails_short_vertflip_short_600ms.mp4	1981.6108230621503	1982.2190550032592	0.6082319411088974	n/a	n/a	n/a	n/a
296.05859375	0.2	606328	274	1	2	0	0	80	301	stimuli\Videos_short_600ms_vertflip\38.double_slap_with_pencil_short_vertflip_short_600ms.mp4	38.double_slap_with_pencil_short_vertflip_short_600ms.mp4	1982.41076541	1983.0190460299336	0.6082806199337938	n/a	n/a	n/a	n/a
296.8583984375	0.2	607966	275	1	2	0	0	81	114	stimuli\Videos_short_600ms_horflip\31.hand_grabbing_wrist_short_horflip_short_600ms.mp4	31.hand_grabbing_wrist_short_horflip_short_600ms.mp4	1983.2107617151016	1983.8190552378564	0.6082935227550479	n/a	n/a	n/a	n/a
297.65869140625	0.2	609605	276	1	2	0	1	82	367	stimuli\Targets_short_600ms_horflip\chopstick-silver-tap_short_horflip_short_600ms.mp4	chopstick-silver-tap_short_horflip_short_600ms.mp4	1984.0107328010529	1984.6190201656427	0.608287364590069	n/a	n/a	n/a	n/a
298.45849609375	0.2	611243	277	1	2	0	0	83	147	stimuli\Videos_short_600ms_horflip\61.single_hit_with_rolling_pin_short_horflip_short_600ms.mp4	61.single_hit_with_rolling_pin_short_horflip_short_600ms.mp4	1984.8107194290387	1985.4190405169104	0.6083210878714453	n/a	n/a	n/a	n/a
299.25830078125	0.2	612881	278	1	2	0	0	84	107	stimuli\Videos_short_600ms_horflip\25.single_touch_with_stanley_knife_short_horflip_short_600ms.mp4	25.single_touch_with_stanley_knife_short_horflip_short_600ms.mp4	1985.6107045907936	1986.2190306638468	0.6083260730529219	n/a	n/a	n/a	n/a
300.05859375	0.2	614520	279	1	2	0	0	85	356	stimuli\Videos_short_600ms_vertflip\88.repeated_stroke_with_plastic_brush_short_vertflip_short_600ms.mp4	88.repeated_stroke_with_plastic_brush_short_vertflip_short_600ms.mp4	1986.4106900457964	1987.019013479636	0.6083234338393595	n/a	n/a	n/a	n/a
300.8583984375	0.2	616158	280	1	2	0	0	86	185	stimuli\Videos_short_600ms_horvertflip\14.repeated_touch_with_pencil_short_horvertflip_short_600ms.mp4	14.repeated_touch_with_pencil_short_horvertflip_short_600ms.mp4	1987.2106781400116	1987.8189526017804	0.608274461768815	n/a	n/a	n/a	n/a
301.658203125	0.2	617796	281	1	2	0	0	87	184	stimuli\Videos_short_600ms_horvertflip\13.single_touch_with_pen_short_horvertflip_short_600ms.mp4	13.single_touch_with_pen_short_horvertflip_short_600ms.mp4	1988.01064365429	1988.6189808706877	0.6083372163975582	n/a	n/a	n/a	n/a
302.45849609375	0.2	619435	282	1	2	0	0	88	176	stimuli\Videos_short_600ms_horflip\88.repeated_stroke_with_plastic_brush_short_horflip_short_600ms.mp4	88.repeated_stroke_with_plastic_brush_short_horflip_short_600ms.mp4	1988.8106220713896	1989.4189660324437	0.6083439610538335	n/a	n/a	n/a	n/a
303.25830078125	0.2	621073	283	1	2	0	0	89	15	stimuli\Videos_short_600ms\23.single_push_with_a_spoon_short_short_600ms.mp4	23.single_push_with_a_spoon_short_short_600ms.mp4	1989.6106424226573	1990.218951780692	0.6083093580346031	n/a	n/a	n/a	n/a
304.05810546875	0.2	622711	284	1	2	0	0	90	214	stimuli\Videos_short_600ms_horvertflip\40.repeated_push_with_finger_short_horvertflip_short_600ms.mp4	40.repeated_push_with_finger_short_horvertflip_short_600ms.mp4	1990.4106140951	1991.01893606271	0.608321967610209	n/a	n/a	n/a	n/a
304.8583984375	0.2	624350	285	1	2	0	0	91	168	stimuli\Videos_short_600ms_horflip\80.stroke_with_sharp_stick_all_over_the_hand_short_horflip_short_600ms.mp4	80.stroke_with_sharp_stick_all_over_the_hand_short_horflip_short_600ms.mp4	1991.2106080542335	1991.8189194649904	0.608311410756869	2.0	2.0	1.6544504322009743	1.0
336.8408203125	0.2	689850	286	1	3	0	0	0	357	stimuli\Videos_short_600ms_vertflip\89.single_touch_with_plastic_brush_short_vertflip_short_600ms.mp4	89.single_touch_with_plastic_brush_short_vertflip_short_600ms.mp4	2023.193308890307	2023.801646399951	0.6083375096441159	n/a	n/a	n/a	n/a
337.640625	0.2	691488	287	1	3	0	0	1	326	stimuli\Videos_short_600ms_vertflip\60.single_push_with_tip_of_pencil_short_vertflip_short_600ms.mp4	60.single_push_with_tip_of_pencil_short_vertflip_short_600ms.mp4	2023.9932864276689	2024.601631561707	0.6083451340382453	n/a	n/a	n/a	n/a
338.4404296875	0.2	693126	288	1	3	0	0	2	317	stimuli\Videos_short_600ms_vertflip\52.touch_top_to_bottom_with_hammer_short_vertflip_short_600ms.mp4	52.touch_top_to_bottom_with_hammer_short_vertflip_short_600ms.mp4	2024.793270709687	2025.4016170167097	0.6083463070226571	n/a	n/a	n/a	n/a
339.24072265625	0.2	694765	289	1	3	0	0	3	125	stimuli\Videos_short_600ms_horflip\41.injection_with_blunt_syringe_short_horflip_short_600ms.mp4	41.injection_with_blunt_syringe_short_horflip_short_600ms.mp4	2025.593255871443	2026.2016010054813	0.6083451340382453	n/a	n/a	n/a	n/a
340.04052734375	0.2	696403	290	1	3	0	0	4	102	stimuli\Videos_short_600ms_horflip\20.single_touch_with_screwdriver_short_horflip_short_600ms.mp4	20.single_touch_with_screwdriver_short_horflip_short_600ms.mp4	2026.3932744632348	2027.0015867537295	0.6083122904947231	n/a	n/a	n/a	n/a
340.84033203125	0.2	698041	291	1	3	0	0	5	279	stimuli\Videos_short_600ms_vertflip\18.single_stroke_from_top_to_bottom_with_rolling_pin_short_vertflip_short_600ms.mp4	18.single_stroke_from_top_to_bottom_with_rolling_pin_short_vertflip_short_600ms.mp4	2027.1932643169257	2027.8015663438127	0.6083020268870314	n/a	n/a	n/a	n/a
341.640625	0.2	699680	292	1	3	0	0	6	123	stimuli\Videos_short_600ms_horflip\4.repeated_tap_with_finger_slow_short_horflip_short_600ms.mp4	4.repeated_tap_with_finger_slow_short_horflip_short_600ms.mp4	2027.9932436137633	2028.6015380162553	0.6082944024919925	n/a	n/a	n/a	n/a
342.4404296875	0.2	701318	293	1	3	0	0	7	85	stimuli\Videos_short_600ms\87.single_stroke_top_to_bottom_with_plastic_brush_short_short_600ms.mp4	87.single_stroke_top_to_bottom_with_plastic_brush_short_short_600ms.mp4	2028.793219098404	2029.4015158468635	0.6082967484599067	n/a	n/a	n/a	n/a
343.240234375	0.2	702956	294	1	3	0	0	8	111	stimuli\Videos_short_600ms_horflip\29.single_pinch_with_tweezers_short_horflip_short_600ms.mp4	29.single_pinch_with_tweezers_short_horflip_short_600ms.mp4	2029.5932154035045	2030.2015259345235	0.6083105310190149	n/a	n/a	n/a	n/a
344.04052734375	0.2	704595	295	1	3	0	0	9	289	stimuli\Videos_short_600ms_vertflip\27.single_push_with_a_plastic_whisk_short_vertflip_short_600ms.mp4	27.single_push_with_a_plastic_whisk_short_vertflip_short_600ms.mp4	2030.39318766244	2031.0016131458633	0.6084254834231615	n/a	n/a	n/a	n/a
344.84033203125	0.2	706233	296	1	3	0	0	10	201	stimuli\Videos_short_600ms_horvertflip\29.single_pinch_with_tweezers_short_horvertflip_short_600ms.mp4	29.single_pinch_with_tweezers_short_horvertflip_short_600ms.mp4	2031.1931748769175	2031.8014956715433	0.6083207946257971	n/a	n/a	n/a	n/a
345.64013671875	0.2	707871	297	1	3	0	0	11	248	stimuli\Videos_short_600ms_horvertflip\71.single_stroke_with_finger_top_to_bottom_short_horvertflip_short_600ms.mp4	71.single_stroke_with_finger_top_to_bottom_short_horvertflip_short_600ms.mp4	2031.99315739946	2032.601484938742	0.6083275392820724	n/a	n/a	n/a	n/a
346.4404296875	0.2	709510	298	1	3	0	0	12	165	stimuli\Videos_short_600ms_horflip\78.single_stroke_top_to_bottom_with_soft_brush_short_horflip_short_600ms.mp4	78.single_stroke_top_to_bottom_with_soft_brush_short_horflip_short_600ms.mp4	2032.7931434409536	2033.4014642355796	0.6083207946257971	n/a	n/a	n/a	n/a
347.240234375	0.2	711148	299	1	3	0	0	13	236	stimuli\Videos_short_600ms_horvertflip\60.single_push_with_tip_of_pencil_short_horvertflip_short_600ms.mp4	60.single_push_with_tip_of_pencil_short_horvertflip_short_600ms.mp4	2033.5931259634965	2034.20144910409	0.6083231405937113	n/a	n/a	n/a	n/a
348.0400390625	0.2	712786	300	1	3	0	0	14	288	stimuli\Videos_short_600ms_vertflip\26.single_touch_with_a_blunt_syringe_short_vertflip_short_600ms.mp4	26.single_touch_with_a_blunt_syringe_short_vertflip_short_600ms.mp4	2034.3931134712193	2035.0014333861072	0.608319914887943	n/a	n/a	n/a	n/a
348.84033203125	0.2	714425	301	1	3	0	0	15	174	stimuli\Videos_short_600ms_horflip\86.touch_top_to_bottom_with_hair_brush_short_horflip_short_600ms.mp4	86.touch_top_to_bottom_with_hair_brush_short_horflip_short_600ms.mp4	2035.193095700516	2035.801420307339	0.6083246068228618	n/a	n/a	n/a	n/a
349.64013671875	0.2	716063	302	1	3	0	0	16	253	stimuli\Videos_short_600ms_horvertflip\76.tickle_with_fingers_from_top_to_bottom_short_horvertflip_short_600ms.mp4	76.tickle_with_fingers_from_top_to_bottom_short_horvertflip_short_600ms.mp4	2035.99308027578	2036.601401656898	0.608321381118003	n/a	n/a	n/a	n/a
350.43994140625	0.2	717701	303	1	3	0	0	17	161	stimuli\Videos_short_600ms_horflip\74.fingers_walking_from_top_to_bottom_short_horflip_short_600ms.mp4	74.fingers_walking_from_top_to_bottom_short_horflip_short_600ms.mp4	2036.7930639713068	2037.401386818654	0.6083228473471536	n/a	n/a	n/a	n/a
351.240234375	0.2	719340	304	1	3	0	0	18	330	stimuli\Videos_short_600ms_vertflip\64.repeated_touch_with_screwdriver_short_vertflip_short_600ms.mp4	64.repeated_touch_with_screwdriver_short_vertflip_short_600ms.mp4	2037.593044441127	2038.2013737398856	0.6083292987586901	n/a	n/a	n/a	n/a
352.0400390625	0.2	720978	305	1	3	0	0	19	274	stimuli\Videos_short_600ms_vertflip\13.single_touch_with_pen_short_vertflip_short_600ms.mp4	13.single_touch_with_pen_short_vertflip_short_600ms.mp4	2038.393035761048	2039.0013550894448	0.6083193283966466	n/a	n/a	n/a	n/a
352.83984375	0.2	722616	306	1	3	0	0	20	63	stimuli\Videos_short_600ms\67.single_touch_with_sponge_short_short_600ms.mp4	67.single_touch_with_sponge_short_short_600ms.mp4	2039.1929951171617	2039.8013396647084	0.6083445475469489	n/a	n/a	n/a	n/a
353.64013671875	0.2	724255	307	1	3	0	0	21	275	stimuli\Videos_short_600ms_vertflip\14.repeated_touch_with_pencil_short_vertflip_short_600ms.mp4	14.repeated_touch_with_pencil_short_vertflip_short_600ms.mp4	2039.9929855573448	2040.6014869914632	0.6085014341188071	n/a	n/a	n/a	n/a
354.43994140625	0.2	725893	308	1	3	0	0	22	54	stimuli\Videos_short_600ms\59.single_push_with_long_side_pencil_short_short_600ms.mp4	59.single_push_with_long_side_pencil_short_short_600ms.mp4	2040.7929853813969	2041.401311161204	0.6083257798072736	n/a	n/a	n/a	n/a
355.240234375	0.2	727532	309	1	3	0	0	23	234	stimuli\Videos_short_600ms_horvertflip\59.single_push_with_long_side_pencil_short_horvertflip_short_600ms.mp4	59.single_push_with_long_side_pencil_short_horvertflip_short_600ms.mp4	2041.5929769945633	2042.20129485673	0.6083178621665866	n/a	n/a	n/a	n/a
356.0400390625	0.2	729170	310	1	3	0	0	24	78	stimuli\Videos_short_600ms\80.stroke_with_sharp_stick_all_over_the_hand_short_short_600ms.mp4	80.stroke_with_sharp_stick_all_over_the_hand_short_short_600ms.mp4	2042.3929606900892	2043.0012700481248	0.6083093580355126	n/a	n/a	n/a	n/a
356.83984375	0.2	730808	311	1	3	0	0	25	306	stimuli\Videos_short_600ms_vertflip\42.single_slap_with_plastic_whisk_short_vertflip_short_600ms.mp4	42.single_slap_with_plastic_whisk_short_vertflip_short_600ms.mp4	2043.1929508370267	2043.8012455327644	0.6082946957376407	n/a	n/a	n/a	n/a
357.64013671875	0.2	732447	312	1	3	0	0	26	92	stimuli\Videos_short_600ms_horflip\11.single_touch_with_lighter_short_horflip_short_600ms.mp4	11.single_touch_with_lighter_short_horflip_short_600ms.mp4	2043.99292896088	2044.6012474095387	0.6083184486587925	n/a	n/a	n/a	n/a
358.43994140625	0.2	734085	313	1	3	0	0	27	250	stimuli\Videos_short_600ms_horvertflip\73.single_stroke_with_flat_hand_short_horvertflip_short_600ms.mp4	73.single_stroke_with_flat_hand_short_horvertflip_short_600ms.mp4	2044.7929229200136	2045.401208525128	0.6082856051143608	n/a	n/a	n/a	n/a
359.23974609375	0.2	735723	314	1	3	0	0	28	51	stimuli\Videos_short_600ms\56.repeated_touch_with_nail_file_short_short_600ms.mp4	56.repeated_touch_with_nail_file_short_short_600ms.mp4	2045.592898404654	2046.201194273376	0.6082958687220525	n/a	n/a	n/a	n/a
360.0400390625	0.2	737362	315	1	3	0	0	29	89	stimuli\Videos_short_600ms\90.repeated_touch_with_sponge_short_short_600ms.mp4	90.repeated_touch_with_sponge_short_short_600ms.mp4	2046.3928809271963	2047.001205827266	0.6083249000694195	n/a	n/a	n/a	n/a
360.83984375	0.2	739000	316	1	3	0	0	30	148	stimuli\Videos_short_600ms_horflip\62.touch_top_to_bottom_with_scissors_short_horflip_short_600ms.mp4	62.touch_top_to_bottom_with_scissors_short_horflip_short_600ms.mp4	2047.1928663821984	2047.8011889362997	0.6083225541015054	n/a	n/a	n/a	n/a
361.6396484375	0.2	740638	317	1	3	0	0	31	160	stimuli\Videos_short_600ms_horflip\73.single_stroke_with_flat_hand_short_horflip_short_600ms.mp4	73.single_stroke_with_flat_hand_short_horflip_short_600ms.mp4	2047.9928494912328	2048.601181429204	0.608331937971343	n/a	n/a	n/a	n/a
362.43994140625	0.2	742277	318	1	3	0	0	32	308	stimuli\Videos_short_600ms_vertflip\44.pushing_top_to_bottom_with_finger_short_vertflip_short_600ms.mp4	44.pushing_top_to_bottom_with_finger_short_vertflip_short_600ms.mp4	2048.7928349462345	2049.401155740861	0.6083207946267066	n/a	n/a	n/a	n/a
363.23974609375	0.2	743915	319	1	3	0	0	33	297	stimuli\Videos_short_600ms_vertflip\34.repeated_punch_with_hand_short_vertflip_short_600ms.mp4	34.repeated_punch_with_hand_short_vertflip_short_600ms.mp4	2049.5928206944827	2050.201140316125	0.6083196216422948	n/a	n/a	n/a	n/a
364.03955078125	0.2	745553	320	1	3	0	0	34	155	stimuli\Videos_short_600ms_horflip\69.stroke_with_soft_sock_short_horflip_short_600ms.mp4	69.stroke_with_soft_sock_short_horflip_short_600ms.mp4	2050.392802630533	2051.00112694411	0.6083243135772136	n/a	n/a	n/a	n/a
364.83984375	0.2	747192	321	1	3	0	0	35	154	stimuli\Videos_short_600ms_horflip\68.stroke_top_to_bottom_with_shawl_short_horflip_short_600ms.mp4	68.stroke_top_to_bottom_with_shawl_short_horflip_short_600ms.mp4	2051.192792484224	2051.8011126923584	0.6083202081345007	n/a	n/a	n/a	n/a
365.6396484375	0.2	748830	322	1	3	0	0	36	352	stimuli\Videos_short_600ms_vertflip\84.single_touch_with_cotton_bud_short_vertflip_short_600ms.mp4	84.single_touch_with_cotton_bud_short_vertflip_short_600ms.mp4	2051.992762983683	2052.6010963878844	0.608333404201403	n/a	n/a	n/a	n/a
366.439453125	0.2	750468	323	1	3	0	0	37	249	stimuli\Videos_short_600ms_horvertflip\72.(short)stroke_with_finger_all_over_the_hand_short_horvertflip_short_600ms.mp4	72.(short)stroke_with_finger_all_over_the_hand_short_horvertflip_short_600ms.mp4	2052.7927631009816	2053.401082722624	0.6083196216422948	n/a	n/a	n/a	n/a
367.23974609375	0.2	752107	324	1	3	0	0	38	347	stimuli\Videos_short_600ms_vertflip\8.single_touch_with_hairbrush_short_vertflip_short_600ms.mp4	8.single_touch_with_hairbrush_short_vertflip_short_600ms.mp4	2053.592723336834	2054.2010649519207	0.6083416150868288	n/a	n/a	n/a	n/a
368.03955078125	0.2	753745	325	1	3	0	0	39	7	stimuli\Videos_short_600ms\16.repeated_touch_with_plastic_brush_short_short_600ms.mp4	16.repeated_touch_with_plastic_brush_short_short_600ms.mp4	2054.392702340425	2055.0010504069223	0.6083480664974559	n/a	n/a	n/a	n/a
368.83935546875	0.2	755383	326	1	3	0	0	40	203	stimuli\Videos_short_600ms_horvertflip\30.finger_pulling_back_another_finger_short_horvertflip_short_600ms.mp4	30.finger_pulling_back_another_finger_short_horvertflip_short_600ms.mp4	2055.1926980590342	2055.801034982187	0.6083369231528195	n/a	n/a	n/a	n/a
369.6396484375	0.2	757022	327	1	3	0	0	41	143	stimuli\Videos_short_600ms_horflip\58.single_slap_with_pencil_short_horflip_short_600ms.mp4	58.single_slap_with_pencil_short_horflip_short_600ms.mp4	2055.9928040381137	2056.601017797975	0.6082137598614281	n/a	n/a	n/a	n/a
370.439453125	0.2	758660	328	1	3	0	0	42	164	stimuli\Videos_short_600ms_horflip\77.tapping_with_all_fingers_short_horflip_short_600ms.mp4	77.tapping_with_all_fingers_short_horflip_short_600ms.mp4	2056.792693601697	2057.401003839469	0.6083102377724572	n/a	n/a	n/a	n/a
371.2392578125	0.2	760298	329	1	3	0	0	43	286	stimuli\Videos_short_600ms_vertflip\24.single_stroke_top_to_bottom_with_a_spoon_short_vertflip_short_600ms.mp4	24.single_stroke_top_to_bottom_with_a_spoon_short_vertflip_short_600ms.mp4	2057.5926673268605	2058.200964368567	0.6082970417064644	n/a	n/a	n/a	n/a
372.03955078125	0.2	761937	330	1	3	0	0	44	191	stimuli\Videos_short_600ms_horvertflip\2.single_touch_with_finger_short_horvertflip_short_600ms.mp4	2.single_touch_with_finger_short_horvertflip_short_600ms.mp4	2058.3926780010124	2059.000975042719	0.6082970417064644	n/a	n/a	n/a	n/a
372.83935546875	0.2	763575	331	1	3	0	0	45	77	stimuli\Videos_short_600ms\8.single_touch_with_hairbrush_short_short_600ms.mp4	8.single_touch_with_hairbrush_short_short_600ms.mp4	2059.1926153636823	2059.8009329326032	0.6083175689209384	n/a	n/a	n/a	n/a
373.6396484375	0.2	765214	332	1	3	0	0	46	322	stimuli\Videos_short_600ms_vertflip\57.single_touch_with_nail_file_short_vertflip_short_600ms.mp4	57.single_touch_with_nail_file_short_vertflip_short_600ms.mp4	2059.9926233986207	2060.6009192673428	0.6082958687220525	n/a	n/a	n/a	n/a
374.439453125	0.2	766852	333	1	3	0	0	47	26	stimuli\Videos_short_600ms\33.scratch_top_to_bottom_with_scissors_short_short_600ms.mp4	33.scratch_top_to_bottom_with_scissors_short_short_600ms.mp4	2060.792590672375	2061.4009293550025	0.6083386826276183	n/a	n/a	n/a	n/a
375.2392578125	0.2	768490	334	1	3	0	0	48	217	stimuli\Videos_short_600ms_horvertflip\43.touch_top_to_bottom_with_sharp_wooden_stick_short_horvertflip_short_600ms.mp4	43.touch_top_to_bottom_with_sharp_wooden_stick_short_horvertflip_short_600ms.mp4	2061.592589030198	2062.2009136370207	0.6083246068228618	n/a	n/a	n/a	n/a
376.03955078125	0.2	770129	335	1	3	0	0	49	320	stimuli\Videos_short_600ms_vertflip\55.touch_top_to_bottom_with_nail_file_short_vertflip_short_600ms.mp4	55.touch_top_to_bottom_with_nail_file_short_vertflip_short_600ms.mp4	2062.392576244675	2063.000899385268	0.6083231405928018	n/a	n/a	n/a	n/a
376.83935546875	0.2	771767	336	1	3	0	0	50	348	stimuli\Videos_short_600ms_vertflip\80.stroke_with_sharp_stick_all_over_the_hand_short_vertflip_short_600ms.mp4	80.stroke_with_sharp_stick_all_over_the_hand_short_vertflip_short_600ms.mp4	2063.192557594234	2063.800893051156	0.60833545692185	n/a	n/a	n/a	n/a
377.63916015625	0.2	773405	337	1	3	0	1	51	375	stimuli\Targets_short_600ms_horvertflip\finger-tap_short_vertflip_short_600ms.mp4	finger-tap_short_vertflip_short_600ms.mp4	2063.9925424627436	2064.6008656033373	0.6083231405937113	n/a	n/a	n/a	n/a
378.439453125	0.2	775044	338	1	3	0	0	52	79	stimuli\Videos_short_600ms\81.single_stroke_top_to_bottom_with_cotton_pad_short_short_600ms.mp4	81.single_stroke_top_to_bottom_with_cotton_pad_short_short_600ms.mp4	2064.792528210992	2065.4008504718468	0.6083222608549477	n/a	n/a	n/a	n/a
379.2392578125	0.2	776682	339	1	3	0	0	53	232	stimuli\Videos_short_600ms_horvertflip\57.single_touch_with_nail_file_short_horvertflip_short_600ms.mp4	57.single_touch_with_nail_file_short_horvertflip_short_600ms.mp4	2065.5925142524848	2066.200833874128	0.6083196216432043	n/a	n/a	n/a	n/a
380.0390625	0.2	778320	340	1	3	0	0	54	110	stimuli\Videos_short_600ms_horflip\28.single_injection_with_sharp_needle_short_horflip_short_600ms.mp4	28.single_injection_with_sharp_needle_short_horflip_short_600ms.mp4	2066.3924982412573	2067.000818156146	0.6083199148888525	n/a	n/a	n/a	n/a
380.83935546875	0.2	779959	341	1	3	0	0	55	115	stimuli\Videos_short_600ms_horflip\32.single_(long)pinch_with_fingers_short_horflip_short_600ms.mp4	32.single_(long)pinch_with_fingers_short_horflip_short_600ms.mp4	2067.1924857489803	2067.8008053706235	0.6083196216432043	n/a	n/a	n/a	n/a
381.63916015625	0.2	781597	342	1	3	0	0	56	99	stimuli\Videos_short_600ms_horflip\18.single_stroke_from_top_to_bottom_with_rolling_pin_short_horflip_short_600ms.mp4	18.single_stroke_from_top_to_bottom_with_rolling_pin_short_horflip_short_600ms.mp4	2067.9924700309984	2068.6007884796572	0.6083184486587925	n/a	n/a	n/a	n/a
382.43896484375	0.2	783235	343	1	3	0	0	57	312	stimuli\Videos_short_600ms_vertflip\48.single_slap_with_hand_short_vertflip_short_600ms.mp4	48.single_slap_with_hand_short_vertflip_short_600ms.mp4	2068.792436131769	2069.4007727616754	0.6083366299062618	n/a	n/a	n/a	n/a
383.2392578125	0.2	784874	344	1	3	0	0	58	70	stimuli\Videos_short_600ms\73.single_stroke_with_flat_hand_short_short_600ms.mp4	73.single_stroke_with_flat_hand_short_short_600ms.mp4	2069.5924289179193	2070.2007593896615	0.6083304717421925	n/a	n/a	n/a	n/a
384.0390625	0.2	786512	345	1	3	0	0	59	179	stimuli\Videos_short_600ms_horflip\90.repeated_touch_with_sponge_short_horflip_short_600ms.mp4	90.repeated_touch_with_sponge_short_horflip_short_600ms.mp4	2070.392395898428	2071.0007430851874	0.6083471867596018	n/a	n/a	n/a	n/a
384.8388671875	0.2	788150	346	1	3	0	0	60	74	stimuli\Videos_short_600ms\77.tapping_with_all_fingers_short_short_600ms.mp4	77.tapping_with_all_fingers_short_short_600ms.mp4	2071.192384872381	2071.8007267807134	0.608341908332477	n/a	n/a	n/a	n/a
385.63916015625	0.2	789789	347	1	3	0	0	61	351	stimuli\Videos_short_600ms_vertflip\83.single_stroke_top_to_bottom_with_cotton_bud_short_vertflip_short_600ms.mp4	83.single_stroke_top_to_bottom_with_cotton_bud_short_vertflip_short_600ms.mp4	2071.9923934938106	2072.600712235716	0.6083187419053502	n/a	n/a	n/a	n/a
386.43896484375	0.2	791427	348	1	3	0	0	62	76	stimuli\Videos_short_600ms\79.long_with_soft_brush_all_over_the_hand_short_short_600ms.mp4	79.long_with_soft_brush_all_over_the_hand_short_short_600ms.mp4	2072.792405340947	2073.4006938785205	0.6082885375735714	n/a	n/a	n/a	n/a
387.23876953125	0.2	793065	349	1	3	0	0	63	258	stimuli\Videos_short_600ms_horvertflip\80.stroke_with_sharp_stick_all_over_the_hand_short_horvertflip_short_600ms.mp4	80.stroke_with_sharp_stick_all_over_the_hand_short_horvertflip_short_600ms.mp4	2073.592370561979	2074.200662618504	0.6082920565249879	n/a	n/a	n/a	n/a
388.0390625	0.2	794704	350	1	3	0	0	64	244	stimuli\Videos_short_600ms_horvertflip\68.stroke_top_to_bottom_with_shawl_short_horvertflip_short_600ms.mp4	68.stroke_top_to_bottom_with_shawl_short_horvertflip_short_600ms.mp4	2074.392337835733	2075.000650712719	0.6083128769860195	n/a	n/a	n/a	n/a
388.8388671875	0.2	796342	351	1	3	0	0	65	314	stimuli\Videos_short_600ms_vertflip\5.repeated_tap_with_finger_moving_from_top_to_bottom_short_vertflip_short_600ms.mp4	5.repeated_tap_with_finger_moving_from_top_to_bottom_short_vertflip_short_600ms.mp4	2075.1923288624075	2075.8006470178207	0.6083181554131443	n/a	n/a	n/a	n/a
389.638671875	0.2	797980	352	1	3	0	0	66	218	stimuli\Videos_short_600ms_horvertflip\44.pushing_top_to_bottom_with_finger_short_horvertflip_short_600ms.mp4	44.pushing_top_to_bottom_with_finger_short_horvertflip_short_600ms.mp4	2075.9924832270653	2076.6006239686903	0.6081407416249931	n/a	n/a	n/a	n/a
390.43896484375	0.2	799619	353	1	3	0	0	67	277	stimuli\Videos_short_600ms_vertflip\16.repeated_touch_with_plastic_brush_short_vertflip_short_600ms.mp4	16.repeated_touch_with_plastic_brush_short_vertflip_short_600ms.mp4	2076.792299772412	2077.4006252589725	0.608325486560716	n/a	n/a	n/a	n/a
391.23876953125	0.2	801257	354	1	3	0	0	68	205	stimuli\Videos_short_600ms_horvertflip\32.single_(long)pinch_with_fingers_short_horvertflip_short_600ms.mp4	32.single_(long)pinch_with_fingers_short_horvertflip_short_600ms.mp4	2077.592283174692	2078.2005878407917	0.6083046660996843	n/a	n/a	n/a	n/a
392.03857421875	0.2	802895	355	1	3	0	0	69	84	stimuli\Videos_short_600ms\86.touch_top_to_bottom_with_hair_brush_short_short_600ms.mp4	86.touch_top_to_bottom_with_hair_brush_short_short_600ms.mp4	2078.392266870218	2079.000588251336	0.608321381118003	n/a	n/a	n/a	n/a
392.8388671875	0.2	804534	356	1	3	0	0	70	49	stimuli\Videos_short_600ms\54.repeated_touch_with_knife_short_short_600ms.mp4	54.repeated_touch_with_knife_short_short_600ms.mp4	2079.192252031974	2079.8005731198464	0.6083210878723548	n/a	n/a	n/a	n/a
393.638671875	0.2	806172	357	1	3	0	0	71	259	stimuli\Videos_short_600ms_horvertflip\81.single_stroke_top_to_bottom_with_cotton_pad_short_horvertflip_short_600ms.mp4	81.single_stroke_top_to_bottom_with_cotton_pad_short_horvertflip_short_600ms.mp4	2079.992235727501	2080.600557108618	0.6083213811170936	n/a	n/a	n/a	n/a
394.43896484375	0.2	807811	358	1	3	0	1	72	380	stimuli\Targets_short_600ms_vertflip\chopstickwood-tap_short_horvertflip_short_600ms.mp4	chopstickwood-tap_short_horvertflip_short_600ms.mp4	2080.7921933241387	2081.400540510899	0.6083471867605112	n/a	n/a	n/a	n/a
