onset	duration	onsetsample	eventnumber	subjectnr	sequencenumber	blocksequencenumber	istarget	presentationnumber	stimnumber	stim	stimname	time_stimon	time_stimoff	stimdur	cresp	resp	rt	correct
15.603515625	0.2	31956	0	11	0	0	0	0	141	stimuli\Videos_short_600ms_horflip\56.repeated_touch_with_nail_file_short_horflip_short_600ms.mp4	56.repeated_touch_with_nail_file_short_horflip_short_600ms.mp4	164.88028448215687	165.48861537667517	0.6083308945183035				
16.4033203125	0.2	33594	1	11	0	0	1	1	371	stimuli\Targets_short_600ms_horflip\hand-stroke_short_horflip_short_600ms.mp4	hand-stroke_short_horflip_short_600ms.mp4	165.68029040569172	166.28858171222987	0.608291306538149				
17.203125	0.2	35232	2	11	0	0	0	2	303	stimuli\Videos_short_600ms_vertflip\4.repeated_tap_with_finger_slow_short_vertflip_short_600ms.mp4	4.repeated_tap_with_finger_slow_short_vertflip_short_600ms.mp4	166.4802834264774	167.08855801809068	0.6082745916132808				
18.00341796875	0.2	36871	3	11	0	0	0	3	150	stimuli\Videos_short_600ms_horflip\64.repeated_touch_with_screwdriver_short_horflip_short_600ms.mp4	64.repeated_touch_with_screwdriver_short_horflip_short_600ms.mp4	167.2802216105797	167.88854576047925	0.6083241498995449				
18.80322265625	0.2	38509	4	11	0	0	0	4	35	stimuli\Videos_short_600ms\41.injection_with_blunt_syringe_short_short_600ms.mp4	41.injection_with_blunt_syringe_short_short_600ms.mp4	168.0802020218607	168.6885232393172	0.6083212174564778				
19.60302734375	0.2	40147	5	11	0	0	0	5	4	stimuli\Videos_short_600ms\13.single_touch_with_pen_short_short_600ms.mp4	13.single_touch_with_pen_short_short_600ms.mp4	168.8802149832586	169.48850716952984	0.6082921862712283				
20.4033203125	0.2	41786	6	11	0	0	0	6	168	stimuli\Videos_short_600ms_horflip\80.stroke_with_sharp_stick_all_over_the_hand_short_horflip_short_600ms.mp4	80.stroke_with_sharp_stick_all_over_the_hand_short_horflip_short_600ms.mp4	169.68053995658806	170.2884864078335	0.6079464512454251				
21.203125	0.2	43424	7	11	0	0	0	7	188	stimuli\Videos_short_600ms_horvertflip\17.repeated_touch_with_rolling_pin_short_horvertflip_short_600ms.mp4	17.repeated_touch_with_rolling_pin_short_horvertflip_short_600ms.mp4	170.48011422451827	171.08846623262593	0.6083520081076585				
22.0029296875	0.2	45062	8	11	0	0	0	8	175	stimuli\Videos_short_600ms_horflip\87.single_stroke_top_to_bottom_with_plastic_brush_short_horflip_short_600ms.mp4	87.single_stroke_top_to_bottom_with_plastic_brush_short_horflip_short_600ms.mp4	171.2801955118373	171.8884454709298	0.6082499590925181				
22.80322265625	0.2	46701	9	11	0	0	0	9	134	stimuli\Videos_short_600ms_horflip\5.repeated_tap_with_finger_moving_from_top_to_bottom_short_horflip_short_600ms.mp4	5.repeated_tap_with_finger_moving_from_top_to_bottom_short_horflip_short_600ms.mp4	172.0801518770861	172.68842705518796	0.6082751781018487				
23.60302734375	0.2	48339	10	11	0	0	0	10	198	stimuli\Videos_short_600ms_horvertflip\26.single_touch_with_a_blunt_syringe_short_horvertflip_short_600ms.mp4	26.single_touch_with_a_blunt_syringe_short_horvertflip_short_600ms.mp4	172.8801020842045	173.48841010566753	0.6083080214630172				
24.40283203125	0.2	49977	11	11	0	0	0	11	297	stimuli\Videos_short_600ms_vertflip\34.repeated_punch_with_hand_short_vertflip_short_600ms.mp4	34.repeated_punch_with_hand_short_vertflip_short_600ms.mp4	173.68069566930944	174.2883852385512	0.6076895692417565				
25.203125	0.2	51616	12	11	0	0	0	12	128	stimuli\Videos_short_600ms_horflip\44.pushing_top_to_bottom_with_finger_short_horflip_short_600ms.mp4	44.pushing_top_to_bottom_with_finger_short_horflip_short_600ms.mp4	174.48009428390606	175.08834424299857	0.6082499590925181				
26.0029296875	0.2	53254	13	11	0	0	0	13	189	stimuli\Videos_short_600ms_horvertflip\18.single_stroke_from_top_to_bottom_with_rolling_pin_short_horvertflip_short_600ms.mp4	18.single_stroke_from_top_to_bottom_with_rolling_pin_short_horvertflip_short_600ms.mp4	175.2801007939297	175.88832553401244	0.6082247400827328				
26.802734375	0.2	54892	14	11	0	0	0	14	202	stimuli\Videos_short_600ms_horvertflip\3.single_push_with_finger_short_horvertflip_short_600ms.mp4	3.single_push_with_finger_short_horvertflip_short_600ms.mp4	176.08012020670185	176.68828923036835	0.6081690236665054				
27.60302734375	0.2	56531	15	11	0	0	0	15	133	stimuli\Videos_short_600ms_horflip\49.repeated_slap_with_hand_short_horflip_short_600ms.mp4	49.repeated_slap_with_hand_short_horflip_short_600ms.mp4	176.88001440415974	177.4883159742485	0.60830157008877				
28.40283203125	0.2	58169	16	11	0	0	0	16	20	stimuli\Videos_short_600ms\28.single_injection_with_sharp_needle_short_short_600ms.mp4	28.single_injection_with_sharp_needle_short_short_600ms.mp4	177.68000713170113	178.28829521255238	0.6082880808512527				
29.20263671875	0.2	59807	17	11	0	0	0	17	102	stimuli\Videos_short_600ms_horflip\20.single_touch_with_screwdriver_short_horflip_short_600ms.mp4	20.single_touch_with_screwdriver_short_horflip_short_600ms.mp4	178.48002801069515	179.08828178196336	0.6082537712682097				
30.0029296875	0.2	61446	18	11	0	0	1	18	383	stimuli\Targets_short_600ms_vertflip\hand-stroke_short_horvertflip_short_600ms.mp4	hand-stroke_short_horvertflip_short_600ms.mp4	179.27996678128602	179.8882554486254	0.6082886673393659				
30.802734375	0.2	63084	19	11	0	0	0	19	109	stimuli\Videos_short_600ms_horflip\27.single_push_with_a_plastic_whisk_short_horflip_short_600ms.mp4	27.single_push_with_a_plastic_whisk_short_horflip_short_600ms.mp4	180.07991288298444	180.68823791261684	0.6083250296323968				
31.60302734375	0.2	64723	20	11	0	0	0	20	201	stimuli\Videos_short_600ms_horvertflip\29.single_pinch_with_tweezers_short_horvertflip_short_600ms.mp4	29.single_pinch_with_tweezers_short_horvertflip_short_600ms.mp4	180.87995487556785	181.488217444165	0.6082625685971834				
32.40283203125	0.2	66361	21	11	0	0	0	21	301	stimuli\Videos_short_600ms_vertflip\38.double_slap_with_pencil_short_vertflip_short_600ms.mp4	38.double_slap_with_pencil_short_vertflip_short_600ms.mp4	181.67987458527932	182.28819638922417	0.6083218039448184				
33.20263671875	0.2	67999	22	11	0	0	0	22	268	stimuli\Videos_short_600ms_horvertflip\9.single_touch_with_hammer_short_horvertflip_short_600ms.mp4	9.single_touch_with_hammer_short_horvertflip_short_600ms.mp4	182.4798555830489	183.08817738699372	0.6083218039448184				
34.0029296875	0.2	69638	23	11	0	0	1	23	378	stimuli\Targets_short_600ms_vertflip\brush-stroke_short_horvertflip_short_600ms.mp4	brush-stroke_short_horvertflip_short_600ms.mp4	183.279845964636	183.8881586780076	0.6083127133715607				
34.802734375	0.2	71276	24	11	0	0	0	24	33	stimuli\Videos_short_600ms\4.repeated_tap_with_finger_slow_short_short_600ms.mp4	4.repeated_tap_with_finger_slow_short_short_600ms.mp4	184.0798187515652	184.6881370365786	0.6083182850134108				
35.6025390625	0.2	72914	25	11	0	0	0	25	263	stimuli\Videos_short_600ms_horvertflip\85.touch_top_to_bottom_with_fabric_short_horvertflip_short_600ms.mp4	85.touch_top_to_bottom_with_fabric_short_horvertflip_short_600ms.mp4	184.87982907376457	185.48811715461537	0.608288080850798				
36.40283203125	0.2	74553	26	11	0	0	1	26	362	stimuli\Targets_short_600ms\chopstickwood-tap_short_short_600ms.mp4	chopstickwood-tap_short_short_600ms.mp4	185.67977693492867	186.28810343078248	0.6083264958538166				
37.20263671875	0.2	76191	27	11	0	0	0	27	9	stimuli\Videos_short_600ms\18.single_stroke_from_top_to_bottom_with_rolling_pin_short_short_600ms.mp4	18.single_stroke_from_top_to_bottom_with_rolling_pin_short_short_600ms.mp4	186.47973769884177	187.0880823758416	0.6083446769998773				
38.00244140625	0.2	77829	28	11	0	0	0	28	238	stimuli\Videos_short_600ms_horvertflip\62.touch_top_to_bottom_with_scissors_short_horvertflip_short_600ms.mp4	62.touch_top_to_bottom_with_scissors_short_horvertflip_short_600ms.mp4	187.27971869661133	187.8880633736112	0.6083446769998773				
38.802734375	0.2	79468	29	11	0	0	0	29	195	stimuli\Videos_short_600ms_horvertflip\23.single_push_with_a_spoon_short_horvertflip_short_600ms.mp4	23.single_push_with_a_spoon_short_horvertflip_short_600ms.mp4	188.07971259712983	188.68804789031265	0.6083352931827903				
39.6025390625	0.2	81106	30	11	0	0	0	30	252	stimuli\Videos_short_600ms_horvertflip\75.(long)stroke_with_fingers_all_over_the_hand_short_horvertflip_short_600ms.mp4	75.(long)stroke_with_fingers_all_over_the_hand_short_horvertflip_short_600ms.mp4	188.8797064976484	189.48802155697467	0.6083150593262872				
40.40234375	0.2	82744	31	11	0	0	0	31	114	stimuli\Videos_short_600ms_horflip\31.hand_grabbing_wrist_short_horflip_short_600ms.mp4	31.hand_grabbing_wrist_short_horflip_short_600ms.mp4	189.6796965859912	190.28800138176712	0.6083047957758936				
41.20263671875	0.2	84383	32	11	0	0	0	32	228	stimuli\Videos_short_600ms_horvertflip\53.touch_top_to_bottom_with_knife_short_horvertflip_short_600ms.mp4	53.touch_top_to_bottom_with_knife_short_horvertflip_short_600ms.mp4	190.47971306632053	191.0879861917124	0.608273125391861				
42.00244140625	0.2	86021	33	11	0	0	0	33	66	stimuli\Videos_short_600ms\7.repeated_touch_with_hairbrush_short_short_600ms.mp4	7.repeated_touch_with_hairbrush_short_short_600ms.mp4	191.27968380053971	191.887965136772	0.6082813362322668				
42.80224609375	0.2	87659	34	11	0	0	0	34	147	stimuli\Videos_short_600ms_horflip\61.single_hit_with_rolling_pin_short_horflip_short_600ms.mp4	61.single_hit_with_rolling_pin_short_horflip_short_600ms.mp4	192.07966626453117	192.68794760076295	0.608281336231812				
43.6025390625	0.2	89298	35	11	0	0	0	35	58	stimuli\Videos_short_600ms\62.touch_top_to_bottom_with_scissors_short_short_600ms.mp4	62.touch_top_to_bottom_with_scissors_short_short_600ms.mp4	192.8796094337863	193.4879294782654	0.6083200444791146				
44.40234375	0.2	90936	36	11	0	0	0	36	157	stimuli\Videos_short_600ms_horflip\70.(long)stroke_with_finger_all_over_the_hand_short_horflip_short_600ms.mp4	70.(long)stroke_with_finger_all_over_the_hand_short_horflip_short_600ms.mp4	193.6795863261359	194.28791780714255	0.608331481006644				
45.2021484375	0.2	92574	37	11	0	0	0	37	123	stimuli\Videos_short_600ms_horflip\4.repeated_tap_with_finger_slow_short_horflip_short_600ms.mp4	4.repeated_tap_with_finger_slow_short_horflip_short_600ms.mp4	194.4795687901269	195.087890887316	0.6083220971891024				
46.00244140625	0.2	94213	38	11	0	0	0	38	24	stimuli\Videos_short_600ms\31.hand_grabbing_wrist_short_short_600ms.mp4	31.hand_grabbing_wrist_short_short_600ms.mp4	195.27954920140792	195.8878718850856	0.6083226836776703				
46.80224609375	0.2	95851	39	11	0	0	0	39	256	stimuli\Videos_short_600ms_horvertflip\79.long_with_soft_brush_all_over_the_hand_short_horvertflip_short_600ms.mp4	79.long_with_soft_brush_all_over_the_hand_short_horvertflip_short_600ms.mp4	196.0795301991775	196.6878505369009	0.6083203377233986				
47.60205078125	0.2	97489	40	11	0	0	0	40	350	stimuli\Videos_short_600ms_vertflip\82.repeated_touch_with_cotton_bud_short_vertflip_short_600ms.mp4	82.repeated_touch_with_cotton_bud_short_vertflip_short_600ms.mp4	196.8795284983603	197.48783241440333	0.6083039160430417				
48.40234375	0.2	99128	41	11	0	0	0	41	183	stimuli\Videos_short_600ms_horvertflip\12.repeated_touch_with_nail_file_short_horvertflip_short_600ms.mp4	12.repeated_touch_with_nail_file_short_horvertflip_short_600ms.mp4	197.6794913149838	198.28781077297435	0.6083194579905467				
49.2021484375	0.2	100766	42	11	0	0	0	42	277	stimuli\Videos_short_600ms_vertflip\16.repeated_touch_with_plastic_brush_short_vertflip_short_600ms.mp4	16.repeated_touch_with_plastic_brush_short_vertflip_short_600ms.mp4	198.4795338940553	199.08779558291965	0.6082616888643315				
50.001953125	0.2	102404	43	11	0	0	0	43	39	stimuli\Videos_short_600ms\45.scratching_with_finger_nails_short_short_600ms.mp4	45.scratching_with_finger_nails_short_short_600ms.mp4	199.27945888216436	199.88777628744492	0.6083174052805589				
50.80224609375	0.2	104043	44	11	0	0	0	44	94	stimuli\Videos_short_600ms_horflip\13.single_touch_with_pen_short_horflip_short_600ms.mp4	13.single_touch_with_pen_short_horflip_short_600ms.mp4	200.07941730012317	200.68775581899308	0.608338518869914				
51.60205078125	0.2	105681	45	11	0	0	0	45	225	stimuli\Videos_short_600ms_horvertflip\50.single_(long)hard_push_with_thumb_short_horvertflip_short_600ms.mp4	50.single_(long)hard_push_with_thumb_short_horvertflip_short_600ms.mp4	200.8794378858729	201.48773711000695	0.6082992241340435				
52.40234375	0.2	107320	46	11	0	0	0	46	312	stimuli\Videos_short_600ms_vertflip\48.single_slap_with_hand_short_vertflip_short_600ms.mp4	48.single_slap_with_hand_short_vertflip_short_600ms.mp4	201.67939513085457	202.2877186942651	0.6083235634105222				
53.2021484375	0.2	108958	47	11	0	0	0	47	32	stimuli\Videos_short_600ms\39.single_stab_with_scissors_short_short_600ms.mp4	39.single_stab_with_scissors_short_short_600ms.mp4	202.47938228675412	203.0876993987904	0.6083171120362749				
54.001953125	0.2	110596	48	11	0	0	0	48	262	stimuli\Videos_short_600ms_horvertflip\84.single_touch_with_cotton_bud_short_horvertflip_short_600ms.mp4	84.single_touch_with_cotton_bud_short_horvertflip_short_600ms.mp4	203.2793849846016	203.8876798100714	0.608294825469784				
54.80224609375	0.2	112235	49	11	0	0	0	49	154	stimuli\Videos_short_600ms_horflip\68.stroke_top_to_bottom_with_shawl_short_horflip_short_600ms.mp4	68.stroke_top_to_bottom_with_shawl_short_horflip_short_600ms.mp4	204.0793862162277	204.68765582268816	0.6082696064604534				
55.60205078125	0.2	113873	50	11	0	0	0	50	71	stimuli\Videos_short_600ms\74.fingers_walking_from_top_to_bottom_short_short_600ms.mp4	74.fingers_walking_from_top_to_bottom_short_short_600ms.mp4	204.8793431679651	205.4876497232067	0.6083065552415974				
56.40185546875	0.2	115511	51	11	0	0	0	51	10	stimuli\Videos_short_600ms\19.single_touch_with_rolling_pin_short_short_600ms.mp4	19.single_touch_with_rolling_pin_short_short_600ms.mp4	205.6793317900865	206.2875975843708	0.608265794284307				
57.2021484375	0.2	117150	52	11	0	0	0	52	162	stimuli\Videos_short_600ms_horflip\75.(long)stroke_with_fingers_all_over_the_hand_short_horflip_short_600ms.mp4	75.(long)stroke_with_fingers_all_over_the_hand_short_horflip_short_600ms.mp4	206.47928258369348	207.0876093727916	0.6083267890981006				
58.001953125	0.2	118788	53	11	0	0	0	53	51	stimuli\Videos_short_600ms\56.repeated_touch_with_nail_file_short_short_600ms.mp4	56.repeated_touch_with_nail_file_short_short_600ms.mp4	207.27927413825773	207.88758040025505	0.6083062619973134				
58.8017578125	0.2	120426	54	11	0	0	0	54	317	stimuli\Videos_short_600ms_vertflip\52.touch_top_to_bottom_with_hammer_short_vertflip_short_600ms.mp4	52.touch_top_to_bottom_with_hammer_short_vertflip_short_600ms.mp4	208.0792434062555	208.68756638317743	0.6083229769219543				
59.60205078125	0.2	122065	55	11	0	0	0	55	286	stimuli\Videos_short_600ms_vertflip\24.single_stroke_top_to_bottom_with_a_spoon_short_vertflip_short_600ms.mp4	24.single_stroke_top_to_bottom_with_a_spoon_short_vertflip_short_600ms.mp4	208.87928803803743	209.48754884716843	0.6082608091310249				
60.40185546875	0.2	123703	56	11	0	0	0	56	308	stimuli\Videos_short_600ms_vertflip\44.pushing_top_to_bottom_with_finger_short_vertflip_short_600ms.mp4	44.pushing_top_to_bottom_with_finger_short_vertflip_short_600ms.mp4	209.67926610336372	210.28753424360275	0.6082681402390335				
61.20166015625	0.2	125341	57	11	0	0	0	57	26	stimuli\Videos_short_600ms\33.scratch_top_to_bottom_with_scissors_short_short_600ms.mp4	33.scratch_top_to_bottom_with_scissors_short_short_600ms.mp4	210.47925648495084	211.08751054946333	0.6082540645124936				
62.001953125	0.2	126980	58	11	0	0	0	58	165	stimuli\Videos_short_600ms_horflip\78.single_stroke_top_to_bottom_with_soft_brush_short_horflip_short_600ms.mp4	78.single_stroke_top_to_bottom_with_soft_brush_short_horflip_short_600ms.mp4	211.2791879244346	211.8875029837609	0.6083150593262872				
62.8017578125	0.2	128618	59	11	0	0	0	59	120	stimuli\Videos_short_600ms_horflip\37.single_stab_with_nail_file_short_horflip_short_600ms.mp4	37.single_stab_with_nail_file_short_horflip_short_600ms.mp4	212.07916657624943	212.68746931931537	0.6083027430659058				
63.6015625	0.2	130256	60	11	0	0	0	60	345	stimuli\Videos_short_600ms_vertflip\78.single_stroke_top_to_bottom_with_soft_brush_short_vertflip_short_600ms.mp4	78.single_stroke_top_to_bottom_with_soft_brush_short_vertflip_short_600ms.mp4	212.87912792665156	213.48745236979497	0.6083244431433741				
64.40185546875	0.2	131895	61	11	0	0	0	61	163	stimuli\Videos_short_600ms_horflip\76.tickle_with_fingers_from_top_to_bottom_short_horflip_short_600ms.mp4	76.tickle_with_fingers_from_top_to_bottom_short_horflip_short_600ms.mp4	213.67911244335255	214.28743336756452	0.6083209242119665				
65.20166015625	0.2	133533	62	11	0	0	0	62	16	stimuli\Videos_short_600ms\24.single_stroke_top_to_bottom_with_a_spoon_short_short_600ms.mp4	24.single_stroke_top_to_bottom_with_a_spoon_short_short_600ms.mp4	214.47909461409927	215.08741524506695	0.6083206309676825				
66.00146484375	0.2	135171	63	11	0	0	0	63	73	stimuli\Videos_short_600ms\76.tickle_with_fingers_from_top_to_bottom_short_short_600ms.mp4	76.tickle_with_fingers_from_top_to_bottom_short_short_600ms.mp4	215.27907766457884	215.88739389688223	0.608316232303423				
66.8017578125	0.2	136810	64	11	0	0	1	64	382	stimuli\Targets_short_600ms_vertflip\hand-pinch_short_horvertflip_short_600ms.mp4	hand-pinch_short_horvertflip_short_600ms.mp4	216.07906628670025	216.68737460140756	0.6083083147073012				
67.6015625	0.2	138448	65	11	0	0	0	65	18	stimuli\Videos_short_600ms\26.single_touch_with_a_blunt_syringe_short_short_600ms.mp4	26.single_touch_with_a_blunt_syringe_short_short_600ms.mp4	216.87905754802023	217.48735589242145	0.6082983444011916				
68.4013671875	0.2	140086	66	11	0	0	0	66	144	stimuli\Videos_short_600ms_horflip\59.single_push_with_long_side_pencil_short_horflip_short_600ms.mp4	59.single_push_with_long_side_pencil_short_horflip_short_600ms.mp4	217.67909866087075	218.28733601045815	0.6082373495873981				
69.20166015625	0.2	141725	67	11	0	0	0	67	248	stimuli\Videos_short_600ms_horvertflip\71.single_stroke_with_finger_top_to_bottom_short_horvertflip_short_600ms.mp4	71.single_stroke_with_finger_top_to_bottom_short_horvertflip_short_600ms.mp4	218.4790189570708	219.08731260956347	0.6082936524926481				
70.00146484375	0.2	143363	68	11	0	0	0	68	0	stimuli\Videos_short_600ms\1.repeated_touch_with_finger_fast_short_short_600ms.mp4	1.repeated_touch_with_finger_fast_short_short_600ms.mp4	219.27895978037168	219.8872962465316	0.6083364661599262				
70.80126953125	0.2	145001	69	11	0	0	0	69	341	stimuli\Videos_short_600ms_vertflip\74.fingers_walking_from_top_to_bottom_short_vertflip_short_600ms.mp4	74.fingers_walking_from_top_to_bottom_short_vertflip_short_600ms.mp4	220.07911936391793	220.6872602361318	0.6081408722138804				
71.6015625	0.2	146640	70	11	0	0	0	70	354	stimuli\Videos_short_600ms_vertflip\86.touch_top_to_bottom_with_hair_brush_short_vertflip_short_600ms.mp4	86.touch_top_to_bottom_with_hair_brush_short_vertflip_short_600ms.mp4	220.87900623026823	221.4872556028722	0.6082493726039502				
72.4013671875	0.2	148278	71	11	0	0	0	71	119	stimuli\Videos_short_600ms_horflip\36.single_slap_with_full_hand_short_horflip_short_600ms.mp4	36.single_slap_with_full_hand_short_horflip_short_600ms.mp4	221.67893092513305	222.2872465709479	0.6083156458148551				
73.20166015625	0.2	149917	72	11	0	0	0	72	78	stimuli\Videos_short_600ms\80.stroke_with_sharp_stick_all_over_the_hand_short_short_600ms.mp4	80.stroke_with_sharp_stick_all_over_the_hand_short_short_600ms.mp4	222.47904388283587	223.0872173051671	0.6081734223312196				
74.00146484375	0.2	151555	73	11	0	0	0	73	294	stimuli\Videos_short_600ms_vertflip\31.hand_grabbing_wrist_short_vertflip_short_600ms.mp4	31.hand_grabbing_wrist_short_vertflip_short_600ms.mp4	223.2789102220854	223.88720182186808	0.6082915997826603				
74.80126953125	0.2	153193	74	11	0	0	0	74	346	stimuli\Videos_short_600ms_vertflip\79.long_with_soft_brush_all_over_the_hand_short_vertflip_short_600ms.mp4	79.long_with_soft_brush_all_over_the_hand_short_vertflip_short_600ms.mp4	224.07888476848075	224.68718428585908	0.6082995173783274				
75.6015625	0.2	154832	75	11	0	0	1	75	376	stimuli\Targets_short_600ms_horvertflip\hand-pinch_short_vertflip_short_600ms.mp4	hand-pinch_short_vertflip_short_600ms.mp4	224.87902177221625	225.4871764269119	0.6081546546956815				
76.4013671875	0.2	156470	76	11	0	0	0	76	59	stimuli\Videos_short_600ms\63.stroke_top_to_bottom_with_screwdriver_short_short_600ms.mp4	63.stroke_top_to_bottom_with_screwdriver_short_short_600ms.mp4	225.67884823024133	226.2871495070858	0.608301276844486				
77.201171875	0.2	158108	77	11	0	0	1	77	373	stimuli\Targets_short_600ms_horvertflip\chopstick-silver-tap_short_vertflip_short_600ms.mp4	chopstick-silver-tap_short_vertflip_short_600ms.mp4	226.4788192577048	227.08712698592353	0.6083077282187332				
78.00146484375	0.2	159747	78	11	0	0	0	78	270	stimuli\Videos_short_600ms_vertflip\1.repeated_touch_with_finger_fast_short_vertflip_short_600ms.mp4	1.repeated_touch_with_finger_fast_short_vertflip_short_600ms.mp4	227.278785886504	227.88710886342596	0.6083229769219543				
78.80126953125	0.2	161385	79	11	0	0	0	79	275	stimuli\Videos_short_600ms_vertflip\14.repeated_touch_with_pencil_short_vertflip_short_600ms.mp4	14.repeated_touch_with_pencil_short_vertflip_short_600ms.mp4	228.0789583727992	228.68708927470695	0.6081309019077707				
79.60107421875	0.2	163023	80	11	0	0	0	80	181	stimuli\Videos_short_600ms_horvertflip\10.single_touch_with_knife_short_horvertflip_short_600ms.mp4	10.single_touch_with_knife_short_horvertflip_short_600ms.mp4	228.879001831604	229.487069685988	0.6080678543839895				
80.4013671875	0.2	164662	81	11	0	0	0	81	88	stimuli\Videos_short_600ms\9.single_touch_with_hammer_short_short_600ms.mp4	9.single_touch_with_hammer_short_short_600ms.mp4	229.67873063927848	230.2870515634904	0.6083209242119665				
81.201171875	0.2	166300	82	11	0	0	1	82	364	stimuli\Targets_short_600ms\hand-pinch_short_short_600ms.mp4	hand-pinch_short_short_600ms.mp4	230.47877732377037	231.08703138828287	0.6082540645124936				
82.0009765625	0.2	167938	83	11	0	0	0	83	220	stimuli\Videos_short_600ms_horvertflip\46.scratching_top_to_bottom_with_finger_nails_short_horvertflip_short_600ms.mp4	46.scratching_top_to_bottom_with_finger_nails_short_horvertflip_short_600ms.mp4	231.27866976176256	231.88701414551815	0.6083443837555933				
82.80126953125	0.2	169577	84	11	0	0	0	84	172	stimuli\Videos_short_600ms_horflip\84.single_touch_with_cotton_bud_short_horflip_short_600ms.mp4	84.single_touch_with_cotton_bud_short_horflip_short_600ms.mp4	232.0786510527764	232.68699602302055	0.6083449702441612				
83.60107421875	0.2	171215	85	11	0	0	0	85	230	stimuli\Videos_short_600ms_horvertflip\55.touch_top_to_bottom_with_nail_file_short_horvertflip_short_600ms.mp4	55.touch_top_to_bottom_with_nail_file_short_horvertflip_short_600ms.mp4	232.8786575627996	233.4869776072792	0.6083200444795693				
84.40087890625	0.2	172853	86	11	0	0	0	86	227	stimuli\Videos_short_600ms_horvertflip\52.touch_top_to_bottom_with_hammer_short_horvertflip_short_600ms.mp4	52.touch_top_to_bottom_with_hammer_short_horvertflip_short_600ms.mp4	233.67894060219487	234.28694276985652	0.6080021676616525				
85.201171875	0.2	174492	87	11	0	0	0	87	53	stimuli\Videos_short_600ms\58.single_slap_with_pencil_short_short_600ms.mp4	58.single_slap_with_pencil_short_short_600ms.mp4	234.47876969941856	235.08692259464897	0.6081528952304325				
86.0009765625	0.2	176130	88	11	0	0	0	88	236	stimuli\Videos_short_600ms_horvertflip\60.single_push_with_tip_of_pencil_short_horvertflip_short_600ms.mp4	60.single_push_with_tip_of_pencil_short_horvertflip_short_600ms.mp4	235.2786891158862	235.88689890051	0.6082097846237957				
86.80078125	0.2	177768	89	11	0	0	0	89	96	stimuli\Videos_short_600ms_horflip\15.single_stroke_top_to_bottom_with_a_plastic_whisk_short_horflip_short_600ms.mp4	15.single_stroke_top_to_bottom_with_a_plastic_whisk_short_horflip_short_600ms.mp4	236.07862905945424	236.68687227392775	0.6082432144735321				
87.60107421875	0.2	179407	90	11	0	0	0	90	49	stimuli\Videos_short_600ms\54.repeated_touch_with_knife_short_short_600ms.mp4	54.repeated_touch_with_knife_short_short_600ms.mp4	236.87864495329495	237.48685503116303	0.6082100778680797				
88.40087890625	0.2	181045	91	11	0	0	0	91	68	stimuli\Videos_short_600ms\71.single_stroke_with_finger_top_to_bottom_short_short_600ms.mp4	71.single_stroke_with_finger_top_to_bottom_short_short_600ms.mp4	237.67853885750856	238.28683749515403	0.6082986376454755				
89.20068359375	0.2	182683	92	11	0	0	0	92	179	stimuli\Videos_short_600ms_horflip\90.repeated_touch_with_sponge_short_horflip_short_600ms.mp4	90.repeated_touch_with_sponge_short_horflip_short_600ms.mp4	238.47852190798812	239.08685016330764	0.6083282553195204				
90.0009765625	0.2	184322	93	11	0	0	0	93	62	stimuli\Videos_short_600ms\66.stroke_top_to_bottom_with_sponge_short_short_600ms.mp4	66.stroke_top_to_bottom_with_sponge_short_short_600ms.mp4	239.27853750858455	239.88683438676435	0.6082968781797717				
90.80078125	0.2	185960	94	11	0	0	0	94	265	stimuli\Videos_short_600ms_horvertflip\87.single_stroke_top_to_bottom_with_plastic_brush_short_horvertflip_short_600ms.mp4	87.single_stroke_top_to_bottom_with_plastic_brush_short_horvertflip_short_600ms.mp4	240.0784850765044	240.6868156777782	0.6083306012737921				
91.60107421875	0.2	187599	95	11	0	0	0	95	250	stimuli\Videos_short_600ms_horvertflip\73.single_stroke_with_flat_hand_short_horvertflip_short_600ms.mp4	73.single_stroke_with_flat_hand_short_horvertflip_short_600ms.mp4	240.87846372831973	241.48678670524217	0.608322976922409				
92.40087890625	0.2	189237	96	11	0	0	0	96	339	stimuli\Videos_short_600ms_vertflip\72.(short)stroke_with_finger_all_over_the_hand_short_vertflip_short_600ms.mp4	72.(short)stroke_with_finger_all_over_the_hand_short_vertflip_short_600ms.mp4	241.67850865334592	242.2867668232784	0.6082581699324692				
93.20068359375	0.2	190875	97	11	0	0	0	97	41	stimuli\Videos_short_600ms\47.(long)scratching_with_finger_nails_short_short_600ms.mp4	47.(long)scratching_with_finger_nails_short_short_600ms.mp4	242.4784312955003	243.08674811429273	0.6083168187924457	8.0	8.0	1.8622778161279712	1.0
131.6162109375	0.2	269550	98	11	1	0	0	0	253	stimuli\Videos_short_600ms_horvertflip\76.tickle_with_fingers_from_top_to_bottom_short_horvertflip_short_600ms.mp4	76.tickle_with_fingers_from_top_to_bottom_short_horvertflip_short_600ms.mp4	280.8941912996761	281.50251163739995	0.6083203377238533				
132.416015625	0.2	271188	99	11	1	0	0	1	3	stimuli\Videos_short_600ms\12.repeated_touch_with_nail_file_short_short_600ms.mp4	12.repeated_touch_with_nail_file_short_short_600ms.mp4	281.6942593910021	282.3024908757038	0.6082314847017187				
133.21630859375	0.2	272827	100	11	1	0	0	2	337	stimuli\Videos_short_600ms_vertflip\70.(long)stroke_with_finger_all_over_the_hand_short_vertflip_short_600ms.mp4	70.(long)stroke_with_finger_all_over_the_hand_short_vertflip_short_600ms.mp4	282.4941694236518	283.1024756856491	0.6083062619973134				
134.01611328125	0.2	274465	101	11	1	0	0	3	69	stimuli\Videos_short_600ms\72.(short)stroke_with_finger_all_over_the_hand_short_short_600ms.mp4	72.(short)stroke_with_finger_all_over_the_hand_short_short_600ms.mp4	283.2941941148215	283.90244554013543	0.6082514253139379				
134.81591796875	0.2	276103	102	11	1	0	0	4	247	stimuli\Videos_short_600ms_horvertflip\70.(long)stroke_with_finger_all_over_the_hand_short_horvertflip_short_600ms.mp4	70.(long)stroke_with_finger_all_over_the_hand_short_horvertflip_short_600ms.mp4	284.0941270205267	284.702428590615	0.6083015700883152				
135.6162109375	0.2	277742	103	11	1	0	1	5	361	stimuli\Targets_short_600ms\chopstick-silver-tap_short_short_600ms.mp4	chopstick-silver-tap_short_short_600ms.mp4	284.8940927695926	285.5024107613617	0.6083179917691268				
136.416015625	0.2	279380	104	11	1	0	0	6	264	stimuli\Videos_short_600ms_horvertflip\86.touch_top_to_bottom_with_hair_brush_short_horvertflip_short_600ms.mp4	86.touch_top_to_bottom_with_hair_brush_short_horvertflip_short_600ms.mp4	285.6942242016862	286.30238882668846	0.6081646250022459				
137.2158203125	0.2	281018	105	11	1	0	0	7	164	stimuli\Videos_short_600ms_horflip\77.tapping_with_all_fingers_short_horflip_short_600ms.mp4	77.tapping_with_all_fingers_short_horflip_short_600ms.mp4	286.4942433212145	287.1023724636566	0.608129142442067				
138.01611328125	0.2	282657	106	11	1	0	0	8	89	stimuli\Videos_short_600ms\90.repeated_touch_with_sponge_short_short_600ms.mp4	90.repeated_touch_with_sponge_short_short_600ms.mp4	287.294171828255	287.90235228844904	0.6081804601940348				
138.81591796875	0.2	284295	107	11	1	0	0	9	269	stimuli\Videos_short_600ms_horvertflip\90.repeated_touch_with_sponge_short_horvertflip_short_600ms.mp4	90.repeated_touch_with_sponge_short_horvertflip_short_600ms.mp4	288.0940475513221	288.7023315267529	0.6082839754308225				
139.61572265625	0.2	285933	108	11	1	0	0	10	85	stimuli\Videos_short_600ms\87.single_stroke_top_to_bottom_with_plastic_brush_short_short_600ms.mp4	87.single_stroke_top_to_bottom_with_plastic_brush_short_short_600ms.mp4	288.8940701897818	289.50228290684845	0.6082127170666354				
140.416015625	0.2	287572	109	11	1	0	0	11	304	stimuli\Videos_short_600ms_vertflip\40.repeated_push_with_finger_short_vertflip_short_600ms.mp4	40.repeated_push_with_finger_short_vertflip_short_600ms.mp4	289.6939664399497	290.30229586824635	0.6083294282966563				
141.2158203125	0.2	289210	110	11	1	0	0	12	158	stimuli\Videos_short_600ms_horflip\71.single_stroke_with_finger_top_to_bottom_short_horflip_short_600ms.mp4	71.single_stroke_with_finger_top_to_bottom_short_horflip_short_600ms.mp4	290.4939958230284	291.1023061904457	0.6083103674172889				
142.015625	0.2	290848	111	11	1	0	0	13	356	stimuli\Videos_short_600ms_vertflip\88.repeated_stroke_with_plastic_brush_short_vertflip_short_600ms.mp4	88.repeated_stroke_with_plastic_brush_short_vertflip_short_600ms.mp4	291.29398063297367	291.9022408556166	0.6082602226429117				
142.81591796875	0.2	292487	112	11	1	0	0	14	136	stimuli\Videos_short_600ms_horflip\51.repeated_touch_with_hammer_short_horflip_short_600ms.mp4	51.repeated_touch_with_hammer_short_horflip_short_600ms.mp4	292.09395517936855	292.7022148155229	0.6082596361543438				
143.61572265625	0.2	294125	113	11	1	0	0	15	259	stimuli\Videos_short_600ms_horvertflip\81.single_stroke_top_to_bottom_with_cotton_pad_short_horvertflip_short_600ms.mp4	81.single_stroke_top_to_bottom_with_cotton_pad_short_horvertflip_short_600ms.mp4	292.89394233526855	293.50224683780016	0.6083045025316096				
144.416015625	0.2	295764	114	11	1	0	0	16	309	stimuli\Videos_short_600ms_vertflip\45.scratching_with_finger_nails_short_vertflip_short_600ms.mp4	45.scratching_with_finger_nails_short_vertflip_short_600ms.mp4	293.6942544058488	294.30219939087283	0.6079449850240053				
145.2158203125	0.2	297402	115	11	1	0	0	17	325	stimuli\Videos_short_600ms_vertflip\6.single_touch_with_flat_hand_short_vertflip_short_600ms.mp4	6.single_touch_with_flat_hand_short_vertflip_short_600ms.mp4	294.4939049172963	295.10218126837526	0.6082763510789846				
146.015625	0.2	299040	116	11	1	0	0	18	271	stimuli\Videos_short_600ms_vertflip\10.single_touch_with_knife_short_vertflip_short_600ms.mp4	10.single_touch_with_knife_short_vertflip_short_600ms.mp4	295.29391172056376	295.9021816202685	0.6082698997047373				
146.81591796875	0.2	300679	117	11	1	0	0	19	311	stimuli\Videos_short_600ms_vertflip\47.(long)scratching_with_finger_nails_short_vertflip_short_600ms.mp4	47.(long)scratching_with_finger_nails_short_vertflip_short_600ms.mp4	296.09382761809957	296.7021503017777	0.608322683678125				
147.61572265625	0.2	302317	118	11	1	0	0	20	27	stimuli\Videos_short_600ms\34.repeated_punch_with_hand_short_short_600ms.mp4	34.repeated_punch_with_hand_short_short_600ms.mp4	296.893814187511	297.50212543466114	0.6083112471501408				
148.41552734375	0.2	303955	119	11	1	0	0	21	329	stimuli\Videos_short_600ms_vertflip\63.stroke_top_to_bottom_with_screwdriver_short_vertflip_short_600ms.mp4	63.stroke_top_to_bottom_with_screwdriver_short_vertflip_short_600ms.mp4	297.6937916663487	298.302111417584	0.6083197512352854				
149.2158203125	0.2	305594	120	11	1	0	0	22	184	stimuli\Videos_short_600ms_horvertflip\13.single_touch_with_pen_short_horvertflip_short_600ms.mp4	13.single_touch_with_pen_short_horvertflip_short_600ms.mp4	298.4937720776297	299.1020877234446	0.6083156458148551				
150.015625	0.2	307232	121	11	1	0	0	23	77	stimuli\Videos_short_600ms\8.single_touch_with_hairbrush_short_short_600ms.mp4	8.single_touch_with_hairbrush_short_short_600ms.mp4	299.29379940799845	299.9020684279699	0.6082690199714307				
150.8154296875	0.2	308870	122	11	1	0	1	24	377	stimuli\Targets_short_600ms_horvertflip\hand-stroke_short_vertflip_short_600ms.mp4	hand-stroke_short_vertflip_short_600ms.mp4	300.0937765935919	300.7020488392509	0.6082722456590091				
151.61572265625	0.2	310509	123	11	1	0	0	25	159	stimuli\Videos_short_600ms_horflip\72.(short)stroke_with_finger_all_over_the_hand_short_horflip_short_600ms.mp4	72.(short)stroke_with_finger_all_over_the_hand_short_horflip_short_600ms.mp4	300.8937209358246	301.5020295437762	0.6083086079515851				
152.41552734375	0.2	312147	124	11	1	0	0	26	60	stimuli\Videos_short_600ms\64.repeated_touch_with_screwdriver_short_short_600ms.mp4	64.repeated_touch_with_screwdriver_short_short_600ms.mp4	301.6937186485193	302.30199089417783	0.6082722456585543				
153.21533203125	0.2	313785	125	11	1	0	0	27	338	stimuli\Videos_short_600ms_vertflip\71.single_stroke_with_finger_top_to_bottom_short_vertflip_short_600ms.mp4	71.single_stroke_with_finger_top_to_bottom_short_vertflip_short_600ms.mp4	302.49368175838663	303.1019921258039	0.6083103674172889				
154.015625	0.2	315424	126	11	1	0	0	28	197	stimuli\Videos_short_600ms_horvertflip\25.single_touch_with_stanley_knife_short_horvertflip_short_600ms.mp4	25.single_touch_with_stanley_knife_short_horvertflip_short_600ms.mp4	303.29368416298985	303.9019734168178	0.6082892538279339				
154.8154296875	0.2	317062	127	11	1	0	0	29	140	stimuli\Videos_short_600ms_horflip\55.touch_top_to_bottom_with_nail_file_short_horflip_short_600ms.mp4	55.touch_top_to_bottom_with_nail_file_short_horflip_short_600ms.mp4	304.09366867969084	304.7019550010764	0.608286321385549				
155.615234375	0.2	318700	128	11	1	0	1	30	379	stimuli\Targets_short_600ms_vertflip\chopstick-silver-tap_short_horvertflip_short_600ms.mp4	chopstick-silver-tap_short_horvertflip_short_600ms.mp4	304.8935960137542	305.5019327731584	0.6083367594042102				
156.41552734375	0.2	320339	129	11	1	0	0	31	75	stimuli\Videos_short_600ms\78.single_stroke_top_to_bottom_with_soft_brush_short_short_600ms.mp4	78.single_stroke_top_to_bottom_with_soft_brush_short_short_600ms.mp4	305.69361747923676	306.30191846283697	0.608300983600202				
157.21533203125	0.2	321977	130	11	1	0	0	32	219	stimuli\Videos_short_600ms_horvertflip\45.scratching_with_finger_nails_short_horvertflip_short_600ms.mp4	45.scratching_with_finger_nails_short_horvertflip_short_600ms.mp4	306.49361665815286	307.10191119037836	0.6082945322255				
158.01513671875	0.2	323615	131	11	1	0	0	33	330	stimuli\Videos_short_600ms_vertflip\64.repeated_touch_with_screwdriver_short_vertflip_short_600ms.mp4	64.repeated_touch_with_screwdriver_short_vertflip_short_600ms.mp4	307.2936422290554	307.90186990158145	0.6082276725260272				
158.8154296875	0.2	325254	132	11	1	0	0	34	105	stimuli\Videos_short_600ms_horflip\23.single_push_with_a_spoon_short_horflip_short_600ms.mp4	23.single_push_with_a_spoon_short_horflip_short_600ms.mp4	308.09357190907303	308.7018925400412	0.6083206309681373				
159.615234375	0.2	326892	133	11	1	0	0	35	22	stimuli\Videos_short_600ms\3.single_push_with_finger_short_short_600ms.mp4	3.single_push_with_finger_short_short_600ms.mp4	308.893571967722	309.5018389349834	0.6082669672614429				
160.4150390625	0.2	328530	134	11	1	0	0	36	178	stimuli\Videos_short_600ms_horflip\9.single_touch_with_hammer_short_horflip_short_600ms.mp4	9.single_touch_with_hammer_short_horflip_short_600ms.mp4	309.693596952136	310.30182169221916	0.6082247400831875				
161.21533203125	0.2	330169	135	11	1	0	0	37	190	stimuli\Videos_short_600ms_horvertflip\19.single_touch_with_rolling_pin_short_horvertflip_short_600ms.mp4	19.single_touch_with_rolling_pin_short_horvertflip_short_600ms.mp4	310.49354921196436	311.10180620892015	0.608256996955788				
162.01513671875	0.2	331807	136	11	1	0	0	38	56	stimuli\Videos_short_600ms\60.single_push_with_tip_of_pencil_short_short_600ms.mp4	60.single_push_with_tip_of_pencil_short_short_600ms.mp4	311.29345396621693	311.90178720668973	0.6083332404728026				
162.8154296875	0.2	333446	137	11	1	0	0	39	240	stimuli\Videos_short_600ms_horvertflip\64.repeated_touch_with_screwdriver_short_horvertflip_short_600ms.mp4	64.repeated_touch_with_screwdriver_short_horvertflip_short_600ms.mp4	312.0934918533803	312.70180808568375	0.608316232303423				
163.615234375	0.2	335084	138	11	1	0	0	40	208	stimuli\Videos_short_600ms_horvertflip\35.single_punch_with_hand_short_horvertflip_short_600ms.mp4	35.single_punch_with_hand_short_horvertflip_short_600ms.mp4	312.89343355641404	313.50174597654177	0.6083124201277315				
164.4150390625	0.2	336722	139	11	1	0	0	41	328	stimuli\Videos_short_600ms_vertflip\62.touch_top_to_bottom_with_scissors_short_vertflip_short_600ms.mp4	62.touch_top_to_bottom_with_scissors_short_vertflip_short_600ms.mp4	313.6934450515905	314.3017263878228	0.6082813362322668				
165.21533203125	0.2	338361	140	11	1	0	0	42	81	stimuli\Videos_short_600ms\83.single_stroke_top_to_bottom_with_cotton_bud_short_short_600ms.mp4	83.single_stroke_top_to_bottom_with_cotton_bud_short_short_600ms.mp4	314.49339115328894	315.1017085585695	0.6083174052805589				
166.01513671875	0.2	339999	141	11	1	0	0	43	167	stimuli\Videos_short_600ms_horflip\8.single_touch_with_hairbrush_short_horflip_short_600ms.mp4	8.single_touch_with_hairbrush_short_horflip_short_600ms.mp4	315.29365982371337	315.90169043607193	0.6080306123585615				
166.81494140625	0.2	341637	142	11	1	0	0	44	57	stimuli\Videos_short_600ms\61.single_hit_with_rolling_pin_short_short_600ms.mp4	61.single_hit_with_rolling_pin_short_short_600ms.mp4	316.0933584272252	316.7016702608644	0.6083118336391635				
167.615234375	0.2	343276	143	11	1	0	0	45	170	stimuli\Videos_short_600ms_horflip\82.repeated_touch_with_cotton_bud_short_horflip_short_600ms.mp4	82.repeated_touch_with_cotton_bud_short_horflip_short_600ms.mp4	316.8934054049614	317.5016509653897	0.6082455604282586				
168.4150390625	0.2	344914	144	11	1	0	0	46	349	stimuli\Videos_short_600ms_vertflip\81.single_stroke_top_to_bottom_with_cotton_pad_short_vertflip_short_600ms.mp4	81.single_stroke_top_to_bottom_with_cotton_pad_short_vertflip_short_600ms.mp4	317.693299309175	318.30163401586924	0.6083347066942224				
169.21484375	0.2	346552	145	11	1	0	0	47	72	stimuli\Videos_short_600ms\75.(long)stroke_with_fingers_all_over_the_hand_short_short_600ms.mp4	75.(long)stroke_with_fingers_all_over_the_hand_short_short_600ms.mp4	318.4932844123646	319.10163466100676	0.6083502486421821				
170.01513671875	0.2	348191	146	11	1	0	0	48	257	stimuli\Videos_short_600ms_horvertflip\8.single_touch_with_hairbrush_short_horvertflip_short_600ms.mp4	8.single_touch_with_hairbrush_short_horvertflip_short_600ms.mp4	319.2933337360555	319.901594545187	0.6082608091314796				
170.81494140625	0.2	349829	147	11	1	0	0	49	146	stimuli\Videos_short_600ms_horflip\60.single_push_with_tip_of_pencil_short_horflip_short_600ms.mp4	60.single_push_with_tip_of_pencil_short_horflip_short_600ms.mp4	320.09330300405327	320.7015884457055	0.6082854416522423				
171.61474609375	0.2	351467	148	11	1	0	0	50	80	stimuli\Videos_short_600ms\82.repeated_touch_with_cotton_bud_short_short_600ms.mp4	82.repeated_touch_with_cotton_bud_short_short_600ms.mp4	320.89327725720386	321.50155624748186	0.608278990277995				
172.4150390625	0.2	353106	149	11	1	0	0	51	121	stimuli\Videos_short_600ms_horflip\38.double_slap_with_pencil_short_horflip_short_600ms.mp4	38.double_slap_with_pencil_short_horflip_short_600ms.mp4	321.6932336224527	322.30154252364855	0.6083089011958691				
173.21484375	0.2	354744	150	11	1	0	0	52	226	stimuli\Videos_short_600ms_horvertflip\51.repeated_touch_with_hammer_short_horvertflip_short_600ms.mp4	51.repeated_touch_with_hammer_short_horvertflip_short_600ms.mp4	322.49326593797423	323.10151736328817	0.6082514253139379				
174.0146484375	0.2	356382	151	11	1	0	0	53	234	stimuli\Videos_short_600ms_horvertflip\59.single_push_with_long_side_pencil_short_horvertflip_short_600ms.mp4	59.single_push_with_long_side_pencil_short_horvertflip_short_600ms.mp4	323.29318388822	323.9014766609798	0.6082927727597962				
174.81494140625	0.2	358021	152	11	1	0	0	54	82	stimuli\Videos_short_600ms\84.single_touch_with_cotton_bud_short_short_600ms.mp4	84.single_touch_with_cotton_bud_short_short_600ms.mp4	324.0932437687052	324.70149079535486	0.6082470266496784				
175.61474609375	0.2	359659	153	11	1	0	0	55	92	stimuli\Videos_short_600ms_horflip\11.single_touch_with_lighter_short_horflip_short_600ms.mp4	11.single_touch_with_lighter_short_horflip_short_600ms.mp4	324.893152921622	325.50153425415965	0.6083813325376468				
176.41455078125	0.2	361297	154	11	1	0	0	56	334	stimuli\Videos_short_600ms_vertflip\68.stroke_top_to_bottom_with_shawl_short_vertflip_short_600ms.mp4	68.stroke_top_to_bottom_with_shawl_short_vertflip_short_600ms.mp4	325.69317673305886	326.30144370032076	0.6082669672618977				
177.21484375	0.2	362936	155	11	1	0	1	57	381	stimuli\Targets_short_600ms_vertflip\finger-tap_short_horvertflip_short_600ms.mp4	finger-tap_short_horvertflip_short_600ms.mp4	326.49313661723954	327.1014252845789	0.6082886673393659				
178.0146484375	0.2	364574	156	11	1	0	0	58	84	stimuli\Videos_short_600ms\86.touch_top_to_bottom_with_hair_brush_short_short_600ms.mp4	86.touch_top_to_bottom_with_hair_brush_short_short_600ms.mp4	327.2931269988262	327.90141566616603	0.6082886673398207				
178.814453125	0.2	366212	157	11	1	0	0	59	185	stimuli\Videos_short_600ms_horvertflip\14.repeated_touch_with_pencil_short_horvertflip_short_600ms.mp4	14.repeated_touch_with_pencil_short_horvertflip_short_600ms.mp4	328.09316752518816	328.70138552065237	0.6082179954642015				
179.61474609375	0.2	367851	158	11	1	0	0	60	7	stimuli\Videos_short_600ms\16.repeated_touch_with_plastic_brush_short_short_600ms.mp4	16.repeated_touch_with_plastic_brush_short_short_600ms.mp4	328.893113040398	329.5013688643762	0.6082558239781974				
180.41455078125	0.2	369489	159	11	1	0	0	61	14	stimuli\Videos_short_600ms\22.single_touch_with_metal_chopstick_short_short_600ms.mp4	22.single_touch_with_metal_chopstick_short_short_600ms.mp4	329.69308025568535	330.30135074187865	0.6082704861933053				
181.21435546875	0.2	371127	160	11	1	0	1	62	366	stimuli\Targets_short_600ms_horflip\brush-stroke_short_horflip_short_600ms.mp4	brush-stroke_short_horflip_short_600ms.mp4	330.49301081543626	331.1013282207168	0.6083174052805589				
182.0146484375	0.2	372766	161	11	1	0	0	63	313	stimuli\Videos_short_600ms_vertflip\49.repeated_slap_with_hand_short_vertflip_short_600ms.mp4	49.repeated_slap_with_hand_short_vertflip_short_600ms.mp4	331.2930252430556	331.90131215092924	0.6082869078736621				
182.814453125	0.2	374404	162	11	1	0	0	64	347	stimuli\Videos_short_600ms_vertflip\8.single_touch_with_hairbrush_short_vertflip_short_600ms.mp4	8.single_touch_with_hairbrush_short_vertflip_short_600ms.mp4	332.09297632990683	332.70129256221026	0.608316232303423				
183.61474609375	0.2	376043	163	11	1	0	0	65	67	stimuli\Videos_short_600ms\70.(long)stroke_with_finger_all_over_the_hand_short_short_600ms.mp4	70.(long)stroke_with_finger_all_over_the_hand_short_short_600ms.mp4	332.8929388532856	333.50127297349127	0.6083341202056545				
184.41455078125	0.2	377681	164	11	1	0	0	66	48	stimuli\Videos_short_600ms\53.touch_top_to_bottom_with_knife_short_short_600ms.mp4	53.touch_top_to_bottom_with_knife_short_short_600ms.mp4	333.69291515914665	334.3012548509937	0.6083396918470498				
185.21435546875	0.2	379319	165	11	1	0	0	67	235	stimuli\Videos_short_600ms_horvertflip\6.single_touch_with_flat_hand_short_horvertflip_short_600ms.mp4	6.single_touch_with_flat_hand_short_horvertflip_short_600ms.mp4	334.4929694679904	335.1012390744504	0.6082696064599986				
186.0146484375	0.2	380958	166	11	1	0	0	68	357	stimuli\Videos_short_600ms_vertflip\89.single_touch_with_plastic_brush_short_vertflip_short_600ms.mp4	89.single_touch_with_plastic_brush_short_vertflip_short_600ms.mp4	335.292894456099	335.90121508706716	0.6083206309681373				
186.814453125	0.2	382596	167	11	1	0	0	69	30	stimuli\Videos_short_600ms\37.single_stab_with_nail_file_short_short_600ms.mp4	37.single_stab_with_nail_file_short_short_600ms.mp4	336.0928833714647	336.70118787399633	0.6083045025316096				
187.6142578125	0.2	384234	168	11	1	0	0	70	241	stimuli\Videos_short_600ms_horvertflip\65.stroke_top_to_bottom_with_stanley_knife_short_horvertflip_short_600ms.mp4	65.stroke_top_to_bottom_with_stanley_knife_short_horvertflip_short_600ms.mp4	336.8928995585502	337.50118500020244	0.6082854416522423				
188.41455078125	0.2	385873	169	11	1	0	0	71	283	stimuli\Videos_short_600ms_vertflip\21.repeated_touch_with_metal_chopstick_short_vertflip_short_600ms.mp4	21.repeated_touch_with_metal_chopstick_short_vertflip_short_600ms.mp4	337.69292894162845	338.30115866686447	0.6082297252360149				
189.21435546875	0.2	387511	170	11	1	0	1	72	374	stimuli\Targets_short_600ms_horvertflip\chopstickwood-tap_short_vertflip_short_600ms.mp4	chopstickwood-tap_short_vertflip_short_600ms.mp4	338.4928539297375	339.1011170848233	0.6082631550857514				
190.01416015625	0.2	389149	171	11	1	0	0	73	52	stimuli\Videos_short_600ms\57.single_touch_with_nail_file_short_short_600ms.mp4	57.single_touch_with_nail_file_short_short_600ms.mp4	339.2929182088874	339.90111860969364	0.608200400806254				
190.814453125	0.2	390788	172	11	1	0	0	74	63	stimuli\Videos_short_600ms\67.single_touch_with_sponge_short_short_600ms.mp4	67.single_touch_with_sponge_short_short_600ms.mp4	340.0930364449878	340.7010799600953	0.6080435151075108				
191.6142578125	0.2	392426	173	11	1	0	0	75	156	stimuli\Videos_short_600ms_horflip\7.repeated_touch_with_hairbrush_short_horflip_short_600ms.mp4	7.repeated_touch_with_hairbrush_short_horflip_short_600ms.mp4	340.8927828473202	341.5010855903856	0.6083027430654511				
192.4140625	0.2	394064	174	11	1	0	0	76	79	stimuli\Videos_short_600ms\81.single_stroke_top_to_bottom_with_cotton_pad_short_short_600ms.mp4	81.single_stroke_top_to_bottom_with_cotton_pad_short_short_600ms.mp4	341.6928048992909	342.30106570842236	0.6082608091314796				
193.21435546875	0.2	395703	175	11	1	0	0	77	276	stimuli\Videos_short_600ms_vertflip\15.single_stroke_top_to_bottom_with_a_plastic_whisk_short_vertflip_short_600ms.mp4	15.single_stroke_top_to_bottom_with_a_plastic_whisk_short_vertflip_short_600ms.mp4	342.4927307671328	343.1010560900095	0.6083253228766807				
194.01416015625	0.2	397341	176	11	1	0	0	78	103	stimuli\Videos_short_600ms_horflip\21.repeated_touch_with_metal_chopstick_short_horflip_short_600ms.mp4	21.repeated_touch_with_metal_chopstick_short_horflip_short_600ms.mp4	343.29271029868096	343.90102682422867	0.608316525547707				
194.81396484375	0.2	398979	177	11	1	0	0	79	101	stimuli\Videos_short_600ms_horflip\2.single_touch_with_finger_short_horflip_short_600ms.mp4	2.single_touch_with_finger_short_horflip_short_600ms.mp4	344.0927144627499	344.70100752875396	0.6082930660040802				
195.6142578125	0.2	400618	178	11	1	0	1	80	360	stimuli\Targets_short_600ms\brush-stroke_short_short_600ms.mp4	brush-stroke_short_short_600ms.mp4	344.8927071902913	345.5009873535464	0.6082801632551309				
196.4140625	0.2	402256	179	11	1	0	0	81	95	stimuli\Videos_short_600ms_horflip\14.repeated_touch_with_pencil_short_horflip_short_600ms.mp4	14.repeated_touch_with_pencil_short_horflip_short_600ms.mp4	345.6926632622958	346.30097274998025	0.608309487684437				
197.2138671875	0.2	403894	180	11	1	0	1	82	375	stimuli\Targets_short_600ms_horvertflip\finger-tap_short_vertflip_short_600ms.mp4	finger-tap_short_vertflip_short_600ms.mp4	346.49274630908076	347.10095110855127	0.6082047994705135				
198.01416015625	0.2	405533	181	11	1	0	0	83	138	stimuli\Videos_short_600ms_horflip\53.touch_top_to_bottom_with_knife_short_horflip_short_600ms.mp4	53.touch_top_to_bottom_with_knife_short_horflip_short_600ms.mp4	347.2926721769227	347.9009315198323	0.608259342909605				
198.81396484375	0.2	407171	182	11	1	0	1	84	370	stimuli\Targets_short_600ms_horflip\hand-pinch_short_horflip_short_600ms.mp4	hand-pinch_short_horflip_short_600ms.mp4	348.09265698686795	348.7009139838233	0.6082569969553333				
199.61376953125	0.2	408809	183	11	1	0	0	85	353	stimuli\Videos_short_600ms_vertflip\85.touch_top_to_bottom_with_fabric_short_vertflip_short_600ms.mp4	85.touch_top_to_bottom_with_fabric_short_vertflip_short_600ms.mp4	348.89263124001855	349.50089410186	0.6082628618414674				
200.4140625	0.2	410448	184	11	1	0	0	86	299	stimuli\Videos_short_600ms_vertflip\36.single_slap_with_full_hand_short_vertflip_short_600ms.mp4	36.single_slap_with_full_hand_short_vertflip_short_600ms.mp4	349.6929503484621	350.30087568611816	0.60792533765607				
201.2138671875	0.2	412086	185	11	1	0	0	87	296	stimuli\Videos_short_600ms_vertflip\33.scratch_top_to_bottom_with_scissors_short_vertflip_short_600ms.mp4	33.scratch_top_to_bottom_with_scissors_short_vertflip_short_600ms.mp4	350.49263634246927	351.1008558041549	0.6082194616856214				
202.01416015625	0.2	413725	186	11	1	0	0	88	290	stimuli\Videos_short_600ms_vertflip\28.single_injection_with_sharp_needle_short_vertflip_short_600ms.mp4	28.single_injection_with_sharp_needle_short_vertflip_short_600ms.mp4	351.2925173439339	351.9008365086802	0.6083191647462627				
202.81396484375	0.2	415363	187	11	1	0	0	89	91	stimuli\Videos_short_600ms_horflip\10.single_touch_with_knife_short_horflip_short_600ms.mp4	10.single_touch_with_knife_short_horflip_short_600ms.mp4	352.0925291323547	352.7008172132055	0.608288080850798				
203.61376953125	0.2	417001	188	11	1	0	0	90	320	stimuli\Videos_short_600ms_vertflip\55.touch_top_to_bottom_with_nail_file_short_vertflip_short_600ms.mp4	55.touch_top_to_bottom_with_nail_file_short_vertflip_short_600ms.mp4	352.8925110098571	353.5008058353269	0.608294825469784				
204.4140625	0.2	418640	189	11	1	0	0	91	211	stimuli\Videos_short_600ms_horvertflip\38.double_slap_with_pencil_short_horvertflip_short_600ms.mp4	38.double_slap_with_pencil_short_horvertflip_short_600ms.mp4	353.6924972860238	354.30075868164386	0.6082613956200476				
205.2138671875	0.2	420278	190	11	1	0	0	92	97	stimuli\Videos_short_600ms_horflip\16.repeated_touch_with_plastic_brush_short_horflip_short_600ms.mp4	16.repeated_touch_with_plastic_brush_short_horflip_short_600ms.mp4	354.4924844419238	355.10076313895706	0.6082786970332563				
206.013671875	0.2	421916	191	11	1	0	0	93	351	stimuli\Videos_short_600ms_vertflip\83.single_stroke_top_to_bottom_with_cotton_bud_short_vertflip_short_600ms.mp4	83.single_stroke_top_to_bottom_with_cotton_bud_short_vertflip_short_600ms.mp4	355.2924249719804	355.90071979745017	0.608294825469784				
206.81396484375	0.2	423555	192	11	1	0	0	94	272	stimuli\Videos_short_600ms_vertflip\11.single_touch_with_lighter_short_vertflip_short_600ms.mp4	11.single_touch_with_lighter_short_vertflip_short_600ms.mp4	356.09240039810857	356.70075181972743	0.6083514216188632				
207.61376953125	0.2	425193	193	11	1	0	0	95	267	stimuli\Videos_short_600ms_horvertflip\89.single_touch_with_plastic_brush_short_horvertflip_short_600ms.mp4	89.single_touch_with_plastic_brush_short_horvertflip_short_600ms.mp4	356.89246350428084	357.5007163958162	0.6082528915353578				
208.41357421875	0.2	426831	194	11	1	0	0	96	177	stimuli\Videos_short_600ms_horflip\89.single_touch_with_plastic_brush_short_horflip_short_600ms.mp4	89.single_touch_with_plastic_brush_short_horflip_short_600ms.mp4	357.6924107789564	358.3006956341201	0.6082848551636744				
209.2138671875	0.2	428470	195	11	1	0	0	97	324	stimuli\Videos_short_600ms_vertflip\59.single_push_with_long_side_pencil_short_vertflip_short_600ms.mp4	59.single_push_with_long_side_pencil_short_vertflip_short_600ms.mp4	358.49239529565784	359.1006657818507	0.6082704861928505				
210.013671875	0.2	430108	196	11	1	0	0	98	76	stimuli\Videos_short_600ms\79.long_with_soft_brush_all_over_the_hand_short_short_600ms.mp4	79.long_with_soft_brush_all_over_the_hand_short_short_600ms.mp4	359.2923736542284	359.90065880263637	0.6082851484079583	9.0	9.0	1.598648847579625	1.0
240.94580078125	0.2	493457	197	11	2	0	0	0	2	stimuli\Videos_short_600ms\11.single_touch_with_lighter_short_short_600ms.mp4	11.single_touch_with_lighter_short_short_600ms.mp4	390.224934210642	390.8332519091669	0.6083176985248429				
241.74609375	0.2	495096	198	11	2	0	0	1	19	stimuli\Videos_short_600ms\27.single_push_with_a_plastic_whisk_short_short_600ms.mp4	27.single_push_with_a_plastic_whisk_short_short_600ms.mp4	391.0249410139095	391.6332384785783	0.6082974646687944				
242.5458984375	0.2	496734	199	11	2	0	0	2	245	stimuli\Videos_short_600ms_horvertflip\69.stroke_with_soft_sock_short_horvertflip_short_600ms.mp4	69.stroke_with_soft_sock_short_horvertflip_short_600ms.mp4	391.82489004805075	392.4332174236378	0.6083273755871232				
243.345703125	0.2	498372	200	11	2	0	0	3	110	stimuli\Videos_short_600ms_horflip\28.single_injection_with_sharp_needle_short_horflip_short_600ms.mp4	28.single_injection_with_sharp_needle_short_horflip_short_600ms.mp4	392.6249273487256	393.233194315987	0.6082669672614429				
244.14599609375	0.2	500011	201	11	2	0	1	4	380	stimuli\Targets_short_600ms_vertflip\chopstickwood-tap_short_horvertflip_short_600ms.mp4	chopstickwood-tap_short_horvertflip_short_600ms.mp4	393.42493415199306	394.03318117864274	0.6082470266496784				
244.94580078125	0.2	501649	202	11	2	0	0	5	90	stimuli\Videos_short_600ms_horflip\1.repeated_touch_with_finger_fast_short_horflip_short_600ms.mp4	1.repeated_touch_with_finger_fast_short_horflip_short_600ms.mp4	394.2248617793007	394.8331516196176	0.6082898403169565				
245.74560546875	0.2	503287	203	11	2	0	0	6	261	stimuli\Videos_short_600ms_horvertflip\83.single_stroke_top_to_bottom_with_cotton_bud_short_horvertflip_short_600ms.mp4	83.single_stroke_top_to_bottom_with_cotton_bud_short_horvertflip_short_600ms.mp4	395.024889696158	395.63314757284616	0.6082578766881852				
246.5458984375	0.2	504926	204	11	2	0	0	7	212	stimuli\Videos_short_600ms_horvertflip\39.single_stab_with_scissors_short_horvertflip_short_600ms.mp4	39.single_stab_with_scissors_short_horvertflip_short_600ms.mp4	395.824816736977	396.4331191867982	0.6083024498211671				
247.345703125	0.2	506564	205	11	2	0	0	8	358	stimuli\Videos_short_600ms_vertflip\9.single_touch_with_hammer_short_vertflip_short_600ms.mp4	9.single_touch_with_hammer_short_vertflip_short_600ms.mp4	396.6247525751246	397.2330520925034	0.6082995173787822				
248.14599609375	0.2	508203	206	11	2	0	0	9	112	stimuli\Videos_short_600ms_horflip\3.single_push_with_finger_short_horflip_short_600ms.mp4	3.single_push_with_finger_short_horflip_short_600ms.mp4	397.42550803108134	398.0330800093602	0.6075719782788838				
248.94580078125	0.2	509841	207	11	2	0	0	10	142	stimuli\Videos_short_600ms_horflip\57.single_touch_with_nail_file_short_horflip_short_600ms.mp4	57.single_touch_with_nail_file_short_horflip_short_600ms.mp4	398.2251215937477	398.8330624733512	0.607940879603575				
249.74560546875	0.2	511479	208	11	2	0	0	11	215	stimuli\Videos_short_600ms_horvertflip\41.injection_with_blunt_syringe_short_horvertflip_short_600ms.mp4	41.injection_with_blunt_syringe_short_horvertflip_short_600ms.mp4	399.0247515780943	399.6330396589451	0.608288080850798				
250.5458984375	0.2	513118	209	11	2	0	0	12	118	stimuli\Videos_short_600ms_horflip\35.single_punch_with_hand_short_horflip_short_600ms.mp4	35.single_punch_with_hand_short_horflip_short_600ms.mp4	399.82469797303656	400.4330218296918	0.6083238566552609				
251.345703125	0.2	514756	210	11	2	0	0	13	273	stimuli\Videos_short_600ms_vertflip\12.repeated_touch_with_nail_file_short_vertflip_short_600ms.mp4	12.repeated_touch_with_nail_file_short_vertflip_short_600ms.mp4	400.62473937913137	401.23300370719426	0.6082643280628872				
252.1455078125	0.2	516394	211	11	2	0	0	14	12	stimuli\Videos_short_600ms\20.single_touch_with_screwdriver_short_short_600ms.mp4	20.single_touch_with_screwdriver_short_short_600ms.mp4	401.42467990918794	402.03298646442954	0.6083065552415974				
252.94580078125	0.2	518033	212	11	2	0	0	15	284	stimuli\Videos_short_600ms_vertflip\22.single_touch_with_metal_chopstick_short_vertflip_short_600ms.mp4	22.single_touch_with_metal_chopstick_short_vertflip_short_600ms.mp4	402.2246629596675	402.83296482300057	0.6083018633330539				
253.74560546875	0.2	519671	213	11	2	0	1	16	363	stimuli\Targets_short_600ms\finger-tap_short_short_600ms.mp4	finger-tap_short_short_600ms.mp4	403.02463779930713	403.6329481667244	0.6083103674172889				
254.54541015625	0.2	521309	214	11	2	0	0	17	25	stimuli\Videos_short_600ms\32.single_(long)pinch_with_fingers_short_short_600ms.mp4	32.single_(long)pinch_with_fingers_short_short_600ms.mp4	403.8246053078392	404.43292447258546	0.6083191647462627				
255.345703125	0.2	522948	215	11	2	0	0	18	319	stimuli\Videos_short_600ms_vertflip\54.repeated_touch_with_knife_short_vertflip_short_600ms.mp4	54.repeated_touch_with_knife_short_vertflip_short_600ms.mp4	404.6246235476342	405.23289139462895	0.6082678469947496				
256.1455078125	0.2	524586	216	11	2	0	0	19	173	stimuli\Videos_short_600ms_horflip\85.touch_top_to_bottom_with_fabric_short_horflip_short_600ms.mp4	85.touch_top_to_bottom_with_fabric_short_horflip_short_600ms.mp4	405.4245954548305	406.0328826559489	0.6082872011184008				
256.9453125	0.2	526224	217	11	2	0	0	20	107	stimuli\Videos_short_600ms_horflip\25.single_touch_with_stanley_knife_short_horflip_short_600ms.mp4	25.single_touch_with_stanley_knife_short_horflip_short_600ms.mp4	406.2246362744368	406.8328636537185	0.6082273792817432				
257.74560546875	0.2	527863	218	11	2	0	0	21	74	stimuli\Videos_short_600ms\77.tapping_with_all_fingers_short_short_600ms.mp4	77.tapping_with_all_fingers_short_short_600ms.mp4	407.02462255060345	407.6328531555723	0.6082306049688668				
258.54541015625	0.2	529501	219	11	2	0	0	22	124	stimuli\Videos_short_600ms_horflip\40.repeated_push_with_finger_short_horflip_short_600ms.mp4	40.repeated_push_with_finger_short_horflip_short_600ms.mp4	407.82450853722094	408.43283825876233	0.608329721541395				
259.34521484375	0.2	531139	220	11	2	0	0	23	169	stimuli\Videos_short_600ms_horflip\81.single_stroke_top_to_bottom_with_cotton_pad_short_horflip_short_600ms.mp4	81.single_stroke_top_to_bottom_with_cotton_pad_short_horflip_short_600ms.mp4	408.6245065431599	409.2328221889747	0.6083156458148551				
260.1455078125	0.2	532778	221	11	2	0	0	24	322	stimuli\Videos_short_600ms_vertflip\57.single_touch_with_nail_file_short_vertflip_short_600ms.mp4	57.single_touch_with_nail_file_short_vertflip_short_600ms.mp4	409.4244711192491	410.0327955623925	0.6083244431433741				
260.9453125	0.2	534416	222	11	2	0	0	25	160	stimuli\Videos_short_600ms_horflip\73.single_stroke_with_flat_hand_short_horflip_short_600ms.mp4	73.single_stroke_with_flat_hand_short_horflip_short_600ms.mp4	410.2244538764844	410.83277949260537	0.6083256161209647				
261.7451171875	0.2	536054	223	11	2	0	0	26	42	stimuli\Videos_short_600ms\48.single_slap_with_hand_short_short_600ms.mp4	48.single_slap_with_hand_short_short_600ms.mp4	411.02443340803256	411.6327584376645	0.608325029631942				
262.54541015625	0.2	537693	224	11	2	0	0	27	216	stimuli\Videos_short_600ms_horvertflip\42.single_slap_with_plastic_whisk_short_horvertflip_short_600ms.mp4	42.single_slap_with_plastic_whisk_short_horvertflip_short_600ms.mp4	411.82444871538473	412.4327400219231	0.6082913065383764				
263.34521484375	0.2	539331	225	11	2	0	0	28	126	stimuli\Videos_short_600ms_horflip\42.single_slap_with_plastic_whisk_short_horflip_short_600ms.mp4	42.single_slap_with_plastic_whisk_short_horflip_short_600ms.mp4	412.62441387796207	413.2327175007608	0.6083036227987577				
264.14501953125	0.2	540969	226	11	2	0	0	29	135	stimuli\Videos_short_600ms_horflip\50.single_(long)hard_push_with_thumb_short_horflip_short_600ms.mp4	50.single_(long)hard_push_with_thumb_short_horflip_short_600ms.mp4	413.4244244934057	414.0326984985304	0.6082740051247129				
264.9453125	0.2	542608	227	11	2	0	0	30	87	stimuli\Videos_short_600ms\89.single_touch_with_plastic_brush_short_short_600ms.mp4	89.single_touch_with_plastic_brush_short_short_600ms.mp4	414.22435827884374	414.8326809625214	0.6083226836776703				
265.7451171875	0.2	544246	228	11	2	0	0	31	145	stimuli\Videos_short_600ms_horflip\6.single_touch_with_flat_hand_short_horflip_short_600ms.mp4	6.single_touch_with_flat_hand_short_horflip_short_600ms.mp4	415.0243908876096	415.6326625467795	0.6082716591699864				
266.54541015625	0.2	545885	229	11	2	0	0	32	193	stimuli\Videos_short_600ms_horvertflip\21.repeated_touch_with_metal_chopstick_short_horvertflip_short_600ms.mp4	21.repeated_touch_with_metal_chopstick_short_horvertflip_short_600ms.mp4	415.8243199811386	416.4326409053506	0.6083209242119665				
267.34521484375	0.2	547523	230	11	2	0	0	33	70	stimuli\Videos_short_600ms\73.single_stroke_with_flat_hand_short_short_600ms.mp4	73.single_stroke_with_flat_hand_short_short_600ms.mp4	416.6242880761593	417.2326233693416	0.6083352931823356				
268.14501953125	0.2	549161	231	11	2	0	0	34	5	stimuli\Videos_short_600ms\14.repeated_touch_with_pencil_short_short_600ms.mp4	14.repeated_touch_with_pencil_short_short_600ms.mp4	417.4244074852368	418.0326005549354	0.6081930696987001				
268.9453125	0.2	550800	232	11	2	0	0	35	130	stimuli\Videos_short_600ms_horflip\46.scratching_top_to_bottom_with_finger_nails_short_horflip_short_600ms.mp4	46.scratching_top_to_bottom_with_finger_nails_short_horflip_short_600ms.mp4	418.2244189804128	418.8325824324379	0.60816345202511				
269.7451171875	0.2	552438	233	11	2	0	0	36	186	stimuli\Videos_short_600ms_horvertflip\15.single_stroke_top_to_bottom_with_a_plastic_whisk_short_horvertflip_short_600ms.mp4	15.single_stroke_top_to_bottom_with_a_plastic_whisk_short_horvertflip_short_600ms.mp4	419.0243322387501	419.632541143641	0.6082089048909438				
270.544921875	0.2	554076	234	11	2	0	0	37	207	stimuli\Videos_short_600ms_horvertflip\34.repeated_punch_with_hand_short_horvertflip_short_600ms.mp4	34.repeated_punch_with_hand_short_horvertflip_short_600ms.mp4	419.8241985779996	420.43252096843344	0.6083223904338411				
271.34521484375	0.2	555715	235	11	2	0	0	38	83	stimuli\Videos_short_600ms\85.touch_top_to_bottom_with_fabric_short_short_600ms.mp4	85.touch_top_to_bottom_with_fabric_short_short_600ms.mp4	420.6242059677561	421.2325116432648	0.6083056755087455				
272.14501953125	0.2	557353	236	11	2	0	0	39	246	stimuli\Videos_short_600ms_horvertflip\7.repeated_touch_with_hairbrush_short_horvertflip_short_600ms.mp4	7.repeated_touch_with_hairbrush_short_horvertflip_short_600ms.mp4	421.42418579254854	422.032482377484	0.6082965849354878				
272.94482421875	0.2	558991	237	11	2	0	0	40	199	stimuli\Videos_short_600ms_horvertflip\27.single_push_with_a_plastic_whisk_short_horvertflip_short_600ms.mp4	27.single_push_with_a_plastic_whisk_short_horvertflip_short_600ms.mp4	422.2241688430281	422.83249328617194	0.6083244431438288				
273.7451171875	0.2	560630	238	11	2	0	0	41	279	stimuli\Videos_short_600ms_vertflip\18.single_stroke_from_top_to_bottom_with_rolling_pin_short_vertflip_short_600ms.mp4	18.single_stroke_from_top_to_bottom_with_rolling_pin_short_vertflip_short_600ms.mp4	423.0241993990839	423.6324739906973	0.6082745916132808				
274.544921875	0.2	562268	239	11	2	0	0	42	34	stimuli\Videos_short_600ms\40.repeated_push_with_finger_short_short_600ms.mp4	40.repeated_push_with_finger_short_short_600ms.mp4	423.82412761288015	424.4324588006425	0.6083311877623601				
275.3447265625	0.2	563906	240	11	2	0	0	43	6	stimuli\Videos_short_600ms\15.single_stroke_top_to_bottom_with_a_plastic_whisk_short_short_600ms.mp4	15.single_stroke_top_to_bottom_with_a_plastic_whisk_short_short_600ms.mp4	424.6241769365706	425.23244038490066	0.6082634483300353				
276.14501953125	0.2	565545	241	11	2	0	0	44	40	stimuli\Videos_short_600ms\46.scratching_top_to_bottom_with_finger_nails_short_short_600ms.mp4	46.scratching_top_to_bottom_with_finger_nails_short_short_600ms.mp4	425.4241374072394	426.0324114123641	0.6082740051247129				
276.94482421875	0.2	567183	242	11	2	0	0	45	139	stimuli\Videos_short_600ms_horflip\54.repeated_touch_with_knife_short_horflip_short_600ms.mp4	54.repeated_touch_with_knife_short_horflip_short_600ms.mp4	426.22407119267746	426.8323938763551	0.6083226836776703				
277.74462890625	0.2	568821	243	11	2	0	0	46	291	stimuli\Videos_short_600ms_vertflip\29.single_pinch_with_tweezers_short_vertflip_short_600ms.mp4	29.single_pinch_with_tweezers_short_vertflip_short_600ms.mp4	427.0241158244594	427.632375167369	0.608259342909605				
278.544921875	0.2	570460	244	11	2	0	0	47	143	stimuli\Videos_short_600ms_horflip\58.single_slap_with_pencil_short_horflip_short_600ms.mp4	58.single_slap_with_pencil_short_horflip_short_600ms.mp4	427.82404667745413	428.43235645838286	0.608309780928721				
279.3447265625	0.2	572098	245	11	2	0	0	48	266	stimuli\Videos_short_600ms_horvertflip\88.repeated_stroke_with_plastic_brush_short_horvertflip_short_600ms.mp4	88.repeated_stroke_with_plastic_brush_short_horvertflip_short_600ms.mp4	428.6240138927419	429.2323374561525	0.6083235634105222				
280.14453125	0.2	573736	246	11	2	0	0	49	180	stimuli\Videos_short_600ms_horvertflip\1.repeated_touch_with_finger_fast_short_horvertflip_short_600ms.mp4	1.repeated_touch_with_finger_fast_short_horvertflip_short_600ms.mp4	429.4239987026872	430.0323190404106	0.6083203377233986				
280.94482421875	0.2	575375	247	11	2	0	0	50	327	stimuli\Videos_short_600ms_vertflip\61.single_hit_with_rolling_pin_short_vertflip_short_600ms.mp4	61.single_hit_with_rolling_pin_short_vertflip_short_600ms.mp4	430.2239606395774	430.83230003818016	0.6083393986027659				
281.74462890625	0.2	577013	248	11	2	0	0	51	64	stimuli\Videos_short_600ms\68.stroke_top_to_bottom_with_shawl_short_short_600ms.mp4	68.stroke_top_to_bottom_with_shawl_short_short_600ms.mp4	431.0240073240693	431.63227693052977	0.6082696064604534				
282.54443359375	0.2	578651	249	11	2	0	0	52	333	stimuli\Videos_short_600ms_vertflip\67.single_touch_with_sponge_short_vertflip_short_600ms.mp4	67.single_touch_with_sponge_short_vertflip_short_600ms.mp4	431.8239323121784	432.4322588080322	0.6083264958538166				
283.3447265625	0.2	580290	250	11	2	0	0	53	148	stimuli\Videos_short_600ms_horflip\62.touch_top_to_bottom_with_scissors_short_horflip_short_600ms.mp4	62.touch_top_to_bottom_with_scissors_short_horflip_short_600ms.mp4	432.6239584695695	433.2322430314889	0.6082845619193904				
284.14453125	0.2	581928	251	11	2	0	0	54	93	stimuli\Videos_short_600ms_horflip\12.repeated_touch_with_nail_file_short_horflip_short_600ms.mp4	12.repeated_touch_with_nail_file_short_horflip_short_600ms.mp4	433.4239567687528	434.0322222697928	0.6082655010400231				
284.9443359375	0.2	583566	252	11	2	0	0	55	251	stimuli\Videos_short_600ms_horvertflip\74.fingers_walking_from_top_to_bottom_short_horvertflip_short_600ms.mp4	74.fingers_walking_from_top_to_bottom_short_horvertflip_short_600ms.mp4	434.2239471503399	434.83217804855303	0.6082308982131508				
285.74462890625	0.2	585205	253	11	2	0	0	56	86	stimuli\Videos_short_600ms\88.repeated_stroke_with_plastic_brush_short_short_600ms.mp4	88.repeated_stroke_with_plastic_brush_short_short_600ms.mp4	435.02396216444777	435.6321819193777	0.6082197549299053				
286.54443359375	0.2	586843	254	11	2	0	0	57	278	stimuli\Videos_short_600ms_vertflip\17.repeated_touch_with_rolling_pin_short_vertflip_short_600ms.mp4	17.repeated_touch_with_rolling_pin_short_vertflip_short_600ms.mp4	435.8241076722679	436.4321374048936	0.6080297326257096				
287.3447265625	0.2	588482	255	11	2	0	0	58	343	stimuli\Videos_short_600ms_vertflip\76.tickle_with_fingers_from_top_to_bottom_short_vertflip_short_600ms.mp4	76.tickle_with_fingers_from_top_to_bottom_short_vertflip_short_600ms.mp4	436.62382885559055	437.23213834327544	0.6083094876848918				
288.14453125	0.2	590120	256	11	2	0	0	59	182	stimuli\Videos_short_600ms_horvertflip\11.single_touch_with_lighter_short_horvertflip_short_600ms.mp4	11.single_touch_with_lighter_short_horvertflip_short_600ms.mp4	437.4238034019859	438.0321070247842	0.608303622798303				
288.9443359375	0.2	591758	257	11	2	0	0	60	274	stimuli\Videos_short_600ms_vertflip\13.single_touch_with_pen_short_vertflip_short_600ms.mp4	13.single_touch_with_pen_short_vertflip_short_600ms.mp4	438.22380815254337	438.8321067901889	0.6082986376454755				
289.74462890625	0.2	593397	258	11	2	0	0	61	298	stimuli\Videos_short_600ms_vertflip\35.single_punch_with_hand_short_vertflip_short_600ms.mp4	35.single_punch_with_hand_short_vertflip_short_600ms.mp4	439.0238255126055	439.6320886676913	0.6082631550857514				
290.54443359375	0.2	595035	259	11	2	0	0	62	100	stimuli\Videos_short_600ms_horflip\19.single_touch_with_rolling_pin_short_horflip_short_600ms.mp4	19.single_touch_with_rolling_pin_short_horflip_short_600ms.mp4	439.8238191198798	440.43207465061414	0.6082555307343682				
291.34423828125	0.2	596673	260	11	2	0	0	63	166	stimuli\Videos_short_600ms_horflip\79.long_with_soft_brush_all_over_the_hand_short_horflip_short_600ms.mp4	79.long_with_soft_brush_all_over_the_hand_short_horflip_short_600ms.mp4	440.6237581837154	441.23205036998615	0.6082921862707735				
292.14453125	0.2	598312	261	11	2	0	0	64	214	stimuli\Videos_short_600ms_horvertflip\40.repeated_push_with_finger_short_horvertflip_short_600ms.mp4	40.repeated_push_with_finger_short_horvertflip_short_600ms.mp4	441.42370868407806	442.0320334204657	0.608324736387658				
292.9443359375	0.2	599950	262	11	2	0	0	65	55	stimuli\Videos_short_600ms\6.single_touch_with_flat_hand_short_short_600ms.mp4	6.single_touch_with_flat_hand_short_short_600ms.mp4	442.2236885088705	442.83201324525817	0.608324736387658				
293.744140625	0.2	601588	263	11	2	0	0	66	285	stimuli\Videos_short_600ms_vertflip\23.single_push_with_a_spoon_short_vertflip_short_600ms.mp4	23.single_push_with_a_spoon_short_vertflip_short_600ms.mp4	443.0236692133958	443.6319913105849	0.6083220971891024				
294.54443359375	0.2	603227	264	11	2	0	0	67	13	stimuli\Videos_short_600ms\21.repeated_touch_with_metal_chopstick_short_short_600ms.mp4	21.repeated_touch_with_metal_chopstick_short_short_600ms.mp4	443.8237361317442	444.4319726015988	0.6082364698545462				
295.34423828125	0.2	604865	265	11	2	0	0	68	149	stimuli\Videos_short_600ms_horflip\63.stroke_top_to_bottom_with_screwdriver_short_horflip_short_600ms.mp4	63.stroke_top_to_bottom_with_screwdriver_short_horflip_short_600ms.mp4	444.62366024012	445.23195535883406	0.6082951187140679				
296.14404296875	0.2	606503	266	11	2	0	1	69	369	stimuli\Targets_short_600ms_horflip\finger-tap_short_horflip_short_600ms.mp4	finger-tap_short_horflip_short_600ms.mp4	445.4236450500657	446.0319343038937	0.6082892538279339				
296.9443359375	0.2	608142	267	11	2	0	0	70	127	stimuli\Videos_short_600ms_horflip\43.touch_top_to_bottom_with_sharp_wooden_stick_short_horflip_short_600ms.mp4	43.touch_top_to_bottom_with_sharp_wooden_stick_short_horflip_short_600ms.mp4	446.2236093329102	446.83191500841895	0.6083056755087455				
297.744140625	0.2	609780	268	11	2	0	0	71	15	stimuli\Videos_short_600ms\23.single_push_with_a_spoon_short_short_600ms.mp4	23.single_push_with_a_spoon_short_short_600ms.mp4	447.0235489832339	447.6318968859214	0.6083479026874556				
298.5439453125	0.2	611418	269	11	2	0	0	72	111	stimuli\Videos_short_600ms_horflip\29.single_pinch_with_tweezers_short_horflip_short_600ms.mp4	29.single_pinch_with_tweezers_short_horflip_short_600ms.mp4	447.82361032994095	448.4318772972024	0.6082669672614429				
299.34423828125	0.2	613057	270	11	2	0	0	73	282	stimuli\Videos_short_600ms_vertflip\20.single_touch_with_screwdriver_short_vertflip_short_600ms.mp4	20.single_touch_with_screwdriver_short_vertflip_short_600ms.mp4	448.62354147618	449.23186064092624	0.6083191647462627				
300.14404296875	0.2	614695	271	11	2	0	0	74	191	stimuli\Videos_short_600ms_horvertflip\2.single_touch_with_finger_short_horvertflip_short_600ms.mp4	2.single_touch_with_finger_short_horvertflip_short_600ms.mp4	449.4235245266595	450.0318343075887	0.6083097809291758				
300.94384765625	0.2	616333	272	11	2	0	0	75	50	stimuli\Videos_short_600ms\55.touch_top_to_bottom_with_nail_file_short_short_600ms.mp4	55.touch_top_to_bottom_with_nail_file_short_short_600ms.mp4	450.2235882193209	450.83179976341034	0.6082115440894995				
301.744140625	0.2	617972	273	11	2	0	0	76	244	stimuli\Videos_short_600ms_horvertflip\68.stroke_top_to_bottom_with_shawl_short_horvertflip_short_600ms.mp4	68.stroke_top_to_bottom_with_shawl_short_horvertflip_short_600ms.mp4	451.02348183029017	451.6317942504179	0.6083124201277315				
302.5439453125	0.2	619610	274	11	2	0	0	77	254	stimuli\Videos_short_600ms_horvertflip\77.tapping_with_all_fingers_short_horvertflip_short_600ms.mp4	77.tapping_with_all_fingers_short_horvertflip_short_600ms.mp4	451.8235012430623	452.4317790603632	0.6082778173008592				
303.34375	0.2	621248	275	11	2	0	0	78	153	stimuli\Videos_short_600ms_horflip\67.single_touch_with_sponge_short_horflip_short_600ms.mp4	67.single_touch_with_sponge_short_horflip_short_600ms.mp4	452.62353825049286	453.2317371850777	0.6081989345848342				
304.14404296875	0.2	622887	276	11	2	0	0	79	203	stimuli\Videos_short_600ms_horvertflip\30.finger_pulling_back_another_finger_short_horvertflip_short_600ms.mp4	30.finger_pulling_back_another_finger_short_horvertflip_short_600ms.mp4	453.4234828859694	454.0317542518955	0.6082713659261572				
304.94384765625	0.2	624525	277	11	2	0	0	80	305	stimuli\Videos_short_600ms_vertflip\41.injection_with_blunt_syringe_short_vertflip_short_600ms.mp4	41.injection_with_blunt_syringe_short_vertflip_short_600ms.mp4	454.22340171594806	454.83172703882474	0.6083253228766807				
305.74365234375	0.2	626163	278	11	2	0	0	81	194	stimuli\Videos_short_600ms_horvertflip\22.single_touch_with_metal_chopstick_short_horvertflip_short_600ms.mp4	22.single_touch_with_metal_chopstick_short_horvertflip_short_600ms.mp4	455.023382127229	455.6317162474347	0.6083341202056545				
306.5439453125	0.2	627802	279	11	2	0	0	82	46	stimuli\Videos_short_600ms\51.repeated_touch_with_hammer_short_short_600ms.mp4	51.repeated_touch_with_hammer_short_short_600ms.mp4	455.823364004732	456.4316837559668	0.6083197512348306				
307.34375	0.2	629440	280	11	2	0	0	83	132	stimuli\Videos_short_600ms_horflip\48.single_slap_with_hand_short_horflip_short_600ms.mp4	48.single_slap_with_hand_short_horflip_short_600ms.mp4	456.6233631836476	457.23162047384767	0.608257290200072				
308.14404296875	0.2	631079	281	11	2	0	0	84	218	stimuli\Videos_short_600ms_horvertflip\44.pushing_top_to_bottom_with_finger_short_horvertflip_short_600ms.mp4	44.pushing_top_to_bottom_with_finger_short_horvertflip_short_600ms.mp4	457.42339168699345	458.0316466312388	0.6082549442453455				
308.94384765625	0.2	632717	282	11	2	0	0	85	176	stimuli\Videos_short_600ms_horflip\88.repeated_stroke_with_plastic_brush_short_horflip_short_600ms.mp4	88.repeated_stroke_with_plastic_brush_short_horflip_short_600ms.mp4	458.2233416008676	458.8316293884741	0.608287787606514				
309.74365234375	0.2	634355	283	11	2	0	0	86	213	stimuli\Videos_short_600ms_horvertflip\4.repeated_tap_with_finger_slow_short_horvertflip_short_600ms.mp4	4.repeated_tap_with_finger_slow_short_horvertflip_short_600ms.mp4	459.0232862363441	459.6316095065108	0.608323270166693				
310.5439453125	0.2	635994	284	11	2	0	0	87	321	stimuli\Videos_short_600ms_vertflip\56.repeated_touch_with_nail_file_short_vertflip_short_600ms.mp4	56.repeated_touch_with_nail_file_short_vertflip_short_600ms.mp4	459.8232854152602	460.4315899177918	0.6083045025316096				
311.34375	0.2	637632	285	11	2	0	0	88	318	stimuli\Videos_short_600ms_vertflip\53.touch_top_to_bottom_with_knife_short_vertflip_short_600ms.mp4	53.touch_top_to_bottom_with_knife_short_vertflip_short_600ms.mp4	460.6232262385611	461.23157179529426	0.6083455567331839				
312.1435546875	0.2	639270	286	11	2	0	0	89	174	stimuli\Videos_short_600ms_horflip\86.touch_top_to_bottom_with_hair_brush_short_horflip_short_600ms.mp4	86.touch_top_to_bottom_with_hair_brush_short_horflip_short_600ms.mp4	461.4232459445779	462.0315530863081	0.6083071417301653				
312.94384765625	0.2	640909	287	11	2	0	0	90	43	stimuli\Videos_short_600ms\49.repeated_slap_with_hand_short_short_600ms.mp4	49.repeated_slap_with_hand_short_short_600ms.mp4	462.2231867678788	462.83153496381055	0.6083481959317396				
313.74365234375	0.2	642547	288	11	2	0	0	91	115	stimuli\Videos_short_600ms_horflip\32.single_(long)pinch_with_fingers_short_horflip_short_600ms.mp4	32.single_(long)pinch_with_fingers_short_horflip_short_600ms.mp4	463.0232660024876	463.6315124426487	0.6082464401611105				
314.54345703125	0.2	644185	289	11	2	0	0	92	152	stimuli\Videos_short_600ms_horflip\66.stroke_top_to_bottom_with_sponge_short_horflip_short_600ms.mp4	66.stroke_top_to_bottom_with_sponge_short_horflip_short_600ms.mp4	463.8232197285379	464.4314916809526	0.6082719524147251	3.0	3.0	1.6582501643633805	1.0
347.52587890625	0.2	711733	290	11	3	0	0	0	287	stimuli\Videos_short_600ms_vertflip\25.single_touch_with_stanley_knife_short_vertflip_short_600ms.mp4	25.single_touch_with_stanley_knife_short_vertflip_short_600ms.mp4	496.80569163720065	497.4140345547348	0.6083429175341735				
348.32568359375	0.2	713371	291	11	3	0	0	1	289	stimuli\Videos_short_600ms_vertflip\27.single_push_with_a_plastic_whisk_short_vertflip_short_600ms.mp4	27.single_push_with_a_plastic_whisk_short_vertflip_short_600ms.mp4	497.60572043379034	498.214016138993	0.6082957052026359				
349.1259765625	0.2	715010	292	11	3	0	0	2	280	stimuli\Videos_short_600ms_vertflip\19.single_touch_with_rolling_pin_short_vertflip_short_600ms.mp4	19.single_touch_with_rolling_pin_short_vertflip_short_600ms.mp4	498.4057187329736	499.01399918947254	0.6082804564989601				
349.92578125	0.2	716648	293	11	3	0	0	3	117	stimuli\Videos_short_600ms_horflip\34.repeated_punch_with_hand_short_horflip_short_600ms.mp4	34.repeated_punch_with_hand_short_horflip_short_600ms.mp4	499.2056929861242	499.81397930750927	0.6082863213850942				
350.7255859375	0.2	718286	294	11	3	0	0	4	151	stimuli\Videos_short_600ms_horflip\65.stroke_top_to_bottom_with_stanley_knife_short_horflip_short_600ms.mp4	65.stroke_top_to_bottom_with_stanley_knife_short_horflip_short_600ms.mp4	500.0056710514509	500.6139676363864	0.6082965849354878				
351.52587890625	0.2	719925	295	11	3	0	0	5	116	stimuli\Videos_short_600ms_horflip\33.scratch_top_to_bottom_with_scissors_short_horflip_short_600ms.mp4	33.scratch_top_to_bottom_with_scissors_short_horflip_short_600ms.mp4	500.80562243154645	501.41393895709416	0.608316525547707				
352.32568359375	0.2	721563	296	11	3	0	0	6	38	stimuli\Videos_short_600ms\44.pushing_top_to_bottom_with_finger_short_short_600ms.mp4	44.pushing_top_to_bottom_with_finger_short_short_600ms.mp4	501.60560694824744	502.21389796154153	0.6082910132940924				
353.12548828125	0.2	723201	297	11	3	0	0	7	205	stimuli\Videos_short_600ms_horvertflip\32.single_(long)pinch_with_fingers_short_horvertflip_short_600ms.mp4	32.single_(long)pinch_with_fingers_short_horvertflip_short_600ms.mp4	502.4055835473528	503.0138956742362	0.6083121268834475				
353.92578125	0.2	724840	298	11	3	0	0	8	258	stimuli\Videos_short_600ms_horvertflip\80.stroke_with_sharp_stick_all_over_the_hand_short_horvertflip_short_600ms.mp4	80.stroke_with_sharp_stick_all_over_the_hand_short_horvertflip_short_600ms.mp4	503.20557451542845	503.81385526517215	0.6082807497436988				
354.7255859375	0.2	726478	299	11	3	0	0	9	192	stimuli\Videos_short_600ms_horvertflip\20.single_touch_with_screwdriver_short_horvertflip_short_600ms.mp4	20.single_touch_with_screwdriver_short_horvertflip_short_600ms.mp4	504.0056980299259	504.6138623616839	0.6081643317579619				
355.525390625	0.2	728116	300	11	3	0	0	10	232	stimuli\Videos_short_600ms_horvertflip\57.single_touch_with_nail_file_short_horvertflip_short_600ms.mp4	57.single_touch_with_nail_file_short_horvertflip_short_600ms.mp4	504.8055215555087	505.41386300682143	0.6083414513127536				
356.32568359375	0.2	729755	301	11	3	0	0	11	323	stimuli\Videos_short_600ms_vertflip\58.single_slap_with_pencil_short_vertflip_short_600ms.mp4	58.single_slap_with_pencil_short_vertflip_short_600ms.mp4	505.6055368628608	506.2138343275292	0.6082974646683397				
357.12548828125	0.2	731393	302	11	3	0	0	12	355	stimuli\Videos_short_600ms_vertflip\87.single_stroke_top_to_bottom_with_plastic_brush_short_vertflip_short_600ms.mp4	87.single_stroke_top_to_bottom_with_plastic_brush_short_vertflip_short_600ms.mp4	506.4055031984153	507.0138047685041	0.60830157008877				
357.92529296875	0.2	733031	303	11	3	0	0	13	45	stimuli\Videos_short_600ms\50.single_(long)hard_push_with_thumb_short_short_600ms.mp4	50.single_(long)hard_push_with_thumb_short_short_600ms.mp4	507.20546278935126	507.8138004284883	0.6083376391370621				
358.7255859375	0.2	734670	304	11	3	0	0	14	307	stimuli\Videos_short_600ms_vertflip\43.touch_top_to_bottom_with_sharp_wooden_stick_short_vertflip_short_600ms.mp4	43.touch_top_to_bottom_with_sharp_wooden_stick_short_vertflip_short_600ms.mp4	508.0054440803651	508.61376823026467	0.6083241498995449				
359.525390625	0.2	736308	305	11	3	0	0	15	302	stimuli\Videos_short_600ms_vertflip\39.single_stab_with_scissors_short_vertflip_short_600ms.mp4	39.single_stab_with_scissors_short_vertflip_short_600ms.mp4	508.8054901783689	509.41374482937	0.6082546510010616				
360.32568359375	0.2	737947	306	11	3	0	0	16	306	stimuli\Videos_short_600ms_vertflip\42.single_slap_with_plastic_whisk_short_vertflip_short_600ms.mp4	42.single_slap_with_plastic_whisk_short_vertflip_short_600ms.mp4	509.60545358148056	510.2137258271396	0.6082722456590091				
361.12548828125	0.2	739585	307	11	3	0	0	17	108	stimuli\Videos_short_600ms_horflip\26.single_touch_with_a_blunt_syringe_short_horflip_short_600ms.mp4	26.single_touch_with_a_blunt_syringe_short_horflip_short_600ms.mp4	510.4054175710808	511.01370829113057	0.6082907200498084				
361.92529296875	0.2	741223	308	11	3	0	0	18	310	stimuli\Videos_short_600ms_vertflip\46.scratching_top_to_bottom_with_finger_nails_short_vertflip_short_600ms.mp4	46.scratching_top_to_bottom_with_finger_nails_short_vertflip_short_600ms.mp4	511.205413817554	511.81368899565587	0.6082751781018487				
362.7255859375	0.2	742862	309	11	3	0	0	19	222	stimuli\Videos_short_600ms_horvertflip\48.single_slap_with_hand_short_horvertflip_short_600ms.mp4	48.single_slap_with_hand_short_horvertflip_short_600ms.mp4	512.0054097707825	512.6136691136926	0.6082593429100598				
363.525390625	0.2	744500	310	11	3	0	0	20	231	stimuli\Videos_short_600ms_horvertflip\56.repeated_touch_with_nail_file_short_horvertflip_short_600ms.mp4	56.repeated_touch_with_nail_file_short_horvertflip_short_600ms.mp4	512.805329480494	513.4136506979507	0.6083212174567052				
364.3251953125	0.2	746138	311	11	3	0	0	21	104	stimuli\Videos_short_600ms_horflip\22.single_touch_with_metal_chopstick_short_horflip_short_600ms.mp4	22.single_touch_with_metal_chopstick_short_horflip_short_600ms.mp4	513.6052981620032	514.2136343349189	0.6083361729156422				
365.12548828125	0.2	747777	312	11	3	0	0	22	223	stimuli\Videos_short_600ms_horvertflip\49.repeated_slap_with_hand_short_horvertflip_short_600ms.mp4	49.repeated_slap_with_hand_short_horvertflip_short_600ms.mp4	514.4052697759553	515.0136097610471	0.6083399850917885				
365.92529296875	0.2	749415	313	11	3	0	0	23	187	stimuli\Videos_short_600ms_horvertflip\16.repeated_touch_with_plastic_brush_short_horvertflip_short_600ms.mp4	16.repeated_touch_with_plastic_brush_short_horvertflip_short_600ms.mp4	515.2054023810265	515.8135863601519	0.6081839791254424				
366.72509765625	0.2	751053	314	11	3	0	0	24	342	stimuli\Videos_short_600ms_vertflip\75.(long)stroke_with_fingers_all_over_the_hand_short_vertflip_short_600ms.mp4	75.(long)stroke_with_fingers_all_over_the_hand_short_vertflip_short_600ms.mp4	516.0052716527189	516.6135667714329	0.6082951187140679				
367.525390625	0.2	752692	315	11	3	0	0	25	229	stimuli\Videos_short_600ms_horvertflip\54.repeated_touch_with_knife_short_horvertflip_short_600ms.mp4	54.repeated_touch_with_knife_short_horvertflip_short_600ms.mp4	516.8053022087747	517.4135600854629	0.6082578766881852				
368.3251953125	0.2	754330	316	11	3	0	0	26	344	stimuli\Videos_short_600ms_vertflip\77.tapping_with_all_fingers_short_vertflip_short_600ms.mp4	77.tapping_with_all_fingers_short_vertflip_short_600ms.mp4	517.6052793943682	518.2135182101774	0.6082388158092726				
369.125	0.2	755968	317	11	3	0	0	27	47	stimuli\Videos_short_600ms\52.touch_top_to_bottom_with_hammer_short_short_600ms.mp4	52.touch_top_to_bottom_with_hammer_short_short_600ms.mp4	518.4052149392719	519.0135118174517	0.6082968781797717				
369.92529296875	0.2	757607	318	11	3	0	1	28	372	stimuli\Targets_short_600ms_horvertflip\brush-stroke_short_vertflip_short_600ms.mp4	brush-stroke_short_vertflip_short_600ms.mp4	519.2052085465461	519.8134995598402	0.6082910132940924				
370.72509765625	0.2	759245	319	11	3	0	0	29	17	stimuli\Videos_short_600ms\25.single_touch_with_stanley_knife_short_short_600ms.mp4	25.single_touch_with_stanley_knife_short_short_600ms.mp4	520.0051569941988	520.6135078293296	0.6083508351307501				
371.52490234375	0.2	760883	320	11	3	0	0	30	131	stimuli\Videos_short_600ms_horflip\47.(long)scratching_with_finger_nails_short_horflip_short_600ms.mp4	47.(long)scratching_with_finger_nails_short_horflip_short_600ms.mp4	520.8051593988021	521.4134627283565	0.6083033295544737				
372.3251953125	0.2	762522	321	11	3	0	0	31	98	stimuli\Videos_short_600ms_horflip\17.repeated_touch_with_rolling_pin_short_horflip_short_600ms.mp4	17.repeated_touch_with_rolling_pin_short_horflip_short_600ms.mp4	521.6051600439396	522.2134378612404	0.6082778173008592				
373.125	0.2	764160	322	11	3	0	0	32	204	stimuli\Videos_short_600ms_horvertflip\31.hand_grabbing_wrist_short_horvertflip_short_600ms.mp4	31.hand_grabbing_wrist_short_horvertflip_short_600ms.mp4	522.4051304849145	523.0134294158047	0.6082989308902143				
373.9248046875	0.2	765798	323	11	3	0	0	33	210	stimuli\Videos_short_600ms_horvertflip\37.single_stab_with_nail_file_short_horvertflip_short_600ms.mp4	37.single_stab_with_nail_file_short_horvertflip_short_600ms.mp4	523.2051501909314	523.8134004432682	0.6082502523368021				
374.72509765625	0.2	767437	324	11	3	0	0	34	295	stimuli\Videos_short_600ms_vertflip\32.single_(long)pinch_with_fingers_short_vertflip_short_600ms.mp4	32.single_(long)pinch_with_fingers_short_vertflip_short_600ms.mp4	524.0050693141543	524.6133820275263	0.6083127133720154				
375.52490234375	0.2	769075	325	11	3	0	0	35	260	stimuli\Videos_short_600ms_horvertflip\82.repeated_touch_with_cotton_bud_short_horvertflip_short_600ms.mp4	82.repeated_touch_with_cotton_bud_short_horvertflip_short_600ms.mp4	524.8050635079171	525.4133606793416	0.6082971714245105				
376.32470703125	0.2	770713	326	11	3	0	0	36	113	stimuli\Videos_short_600ms_horflip\30.finger_pulling_back_another_finger_short_horflip_short_600ms.mp4	30.finger_pulling_back_another_finger_short_horflip_short_600ms.mp4	525.6050509570614	526.2133405041336	0.6082895470722178				
377.125	0.2	772352	327	11	3	0	0	37	11	stimuli\Videos_short_600ms\2.single_touch_with_finger_short_short_600ms.mp4	2.single_touch_with_finger_short_short_600ms.mp4	526.4049782911247	527.0133247275908	0.6083464364660358				
377.9248046875	0.2	773990	328	11	3	0	0	38	155	stimuli\Videos_short_600ms_horflip\69.stroke_with_soft_sock_short_horflip_short_600ms.mp4	69.stroke_with_soft_sock_short_horflip_short_600ms.mp4	527.2049818687051	527.8133042591389	0.6083223904338411				
378.724609375	0.2	775628	329	11	3	0	0	39	171	stimuli\Videos_short_600ms_horflip\83.single_stroke_top_to_bottom_with_cotton_bud_short_horflip_short_600ms.mp4	83.single_stroke_top_to_bottom_with_cotton_bud_short_horflip_short_600ms.mp4	528.0050361775488	528.6132823244652	0.6082461469163718				
379.52490234375	0.2	777267	330	11	3	0	0	40	61	stimuli\Videos_short_600ms\65.stroke_top_to_bottom_with_stanley_knife_short_short_600ms.mp4	65.stroke_top_to_bottom_with_stanley_knife_short_short_600ms.mp4	528.8049538345504	529.4132606830362	0.6083068484858813				
380.32470703125	0.2	778905	331	11	3	0	0	41	161	stimuli\Videos_short_600ms_horflip\74.fingers_walking_from_top_to_bottom_short_horflip_short_600ms.mp4	74.fingers_walking_from_top_to_bottom_short_horflip_short_600ms.mp4	529.6049125457535	530.2132481321805	0.6083355864270743				
381.125	0.2	780544	332	11	3	0	0	42	300	stimuli\Videos_short_600ms_vertflip\37.single_stab_with_nail_file_short_vertflip_short_600ms.mp4	37.single_stab_with_nail_file_short_vertflip_short_600ms.mp4	530.4049475004736	531.0132261975068	0.6082786970332563				
381.9248046875	0.2	782182	333	11	3	0	0	43	249	stimuli\Videos_short_600ms_horvertflip\72.(short)stroke_with_finger_all_over_the_hand_short_horvertflip_short_600ms.mp4	72.(short)stroke_with_finger_all_over_the_hand_short_horvertflip_short_600ms.mp4	531.2049490253439	531.8132101277197	0.6082611023757636				
382.73291015625	0.2	783837	334	11	3	0	0	44	326	stimuli\Videos_short_600ms_vertflip\60.single_push_with_tip_of_pencil_short_vertflip_short_600ms.mp4	60.single_push_with_tip_of_pencil_short_vertflip_short_600ms.mp4	532.0132033244518	532.6215216094656	0.6083182850138655				
383.533203125	0.2	785476	335	11	3	0	0	45	106	stimuli\Videos_short_600ms_horflip\24.single_stroke_top_to_bottom_with_a_spoon_short_horflip_short_600ms.mp4	24.single_stroke_top_to_bottom_with_a_spoon_short_horflip_short_600ms.mp4	532.8132423845923	533.4215029004795	0.6082605158871957				
384.3330078125	0.2	787114	336	11	3	0	0	46	352	stimuli\Videos_short_600ms_vertflip\84.single_touch_with_cotton_bud_short_vertflip_short_600ms.mp4	84.single_touch_with_cotton_bud_short_vertflip_short_600ms.mp4	533.6131603348381	534.2214827252715	0.6083223904333863				
385.1328125	0.2	788752	337	11	3	0	0	47	316	stimuli\Videos_short_600ms_vertflip\51.repeated_touch_with_hammer_short_vertflip_short_600ms.mp4	51.repeated_touch_with_hammer_short_vertflip_short_600ms.mp4	534.413141625852	535.0214625500639	0.6083209242119665				
385.93310546875	0.2	790391	338	11	3	0	0	48	239	stimuli\Videos_short_600ms_horvertflip\63.stroke_top_to_bottom_with_screwdriver_short_horvertflip_short_600ms.mp4	63.stroke_top_to_bottom_with_screwdriver_short_horvertflip_short_600ms.mp4	535.2131255560644	535.8214391491692	0.6083135931048673				
386.73291015625	0.2	792029	339	11	3	0	1	49	367	stimuli\Targets_short_600ms_horflip\chopstick-silver-tap_short_horflip_short_600ms.mp4	chopstick-silver-tap_short_horflip_short_600ms.mp4	536.0131514202112	536.6214227861374	0.6082713659261572				
387.53271484375	0.2	793667	340	11	3	0	0	50	200	stimuli\Videos_short_600ms_horvertflip\28.single_injection_with_sharp_needle_short_horvertflip_short_600ms.mp4	28.single_injection_with_sharp_needle_short_horvertflip_short_600ms.mp4	536.8131796303128	537.4214052501284	0.6082256198155847				
388.3330078125	0.2	795306	341	11	3	0	0	51	37	stimuli\Videos_short_600ms\43.touch_top_to_bottom_with_sharp_wooden_stick_short_short_600ms.mp4	43.touch_top_to_bottom_with_sharp_wooden_stick_short_short_600ms.mp4	537.6130506614713	538.2213578032015	0.6083071417301653				
389.1328125	0.2	796944	342	11	3	0	0	52	196	stimuli\Videos_short_600ms_horvertflip\24.single_stroke_top_to_bottom_with_a_spoon_short_horvertflip_short_600ms.mp4	24.single_stroke_top_to_bottom_with_a_spoon_short_horvertflip_short_600ms.mp4	538.4130920675657	539.0213402671925	0.6082481996268143				
389.9326171875	0.2	798582	343	11	3	0	0	53	8	stimuli\Videos_short_600ms\17.repeated_touch_with_rolling_pin_short_short_600ms.mp4	17.repeated_touch_with_rolling_pin_short_short_600ms.mp4	539.2130528314788	539.8213423785514	0.6082895470726726				
390.73291015625	0.2	800221	344	11	3	0	0	54	335	stimuli\Videos_short_600ms_vertflip\69.stroke_with_soft_sock_short_vertflip_short_600ms.mp4	69.stroke_with_soft_sock_short_vertflip_short_600ms.mp4	540.0130103697047	540.6213312939171	0.6083209242124212				
391.53271484375	0.2	801859	345	11	3	0	1	55	365	stimuli\Targets_short_600ms\hand-stroke_short_short_600ms.mp4	hand-stroke_short_short_600ms.mp4	540.8134221433461	541.4213105322206	0.6078883888744713				
392.33251953125	0.2	803497	346	11	3	0	0	56	242	stimuli\Videos_short_600ms_horvertflip\66.stroke_top_to_bottom_with_sponge_short_horvertflip_short_600ms.mp4	66.stroke_top_to_bottom_with_sponge_short_horvertflip_short_600ms.mp4	541.6130213370416	542.2212997408305	0.6082784037889724				
393.1328125	0.2	805136	347	11	3	0	0	57	292	stimuli\Videos_short_600ms_vertflip\3.single_push_with_finger_short_vertflip_short_600ms.mp4	3.single_push_with_finger_short_vertflip_short_600ms.mp4	542.4129516035478	543.021266662874	0.6083150593262872				
393.9326171875	0.2	806774	348	11	3	0	0	58	348	stimuli\Videos_short_600ms_vertflip\80.stroke_with_sharp_stick_all_over_the_hand_short_vertflip_short_600ms.mp4	80.stroke_with_sharp_stick_all_over_the_hand_short_vertflip_short_600ms.mp4	543.2129161796365	543.8212479538879	0.6083317742513827				
394.732421875	0.2	808412	349	11	3	0	1	59	368	stimuli\Targets_short_600ms_horflip\chopstickwood-tap_short_horflip_short_600ms.mp4	chopstickwood-tap_short_horflip_short_600ms.mp4	544.0129089071784	544.6212280719246	0.6083191647462627				
395.53271484375	0.2	810051	350	11	3	0	0	60	336	stimuli\Videos_short_600ms_vertflip\7.repeated_touch_with_hairbrush_short_vertflip_short_600ms.mp4	7.repeated_touch_with_hairbrush_short_vertflip_short_600ms.mp4	544.8129508997613	545.4212111224042	0.6082602226429117				
396.33251953125	0.2	811689	351	11	3	0	0	61	340	stimuli\Videos_short_600ms_vertflip\73.single_stroke_with_flat_hand_short_vertflip_short_600ms.mp4	73.single_stroke_with_flat_hand_short_vertflip_short_600ms.mp4	545.6129236866909	546.2211921201738	0.6082684334828627				
397.1328125	0.2	813328	352	11	3	0	0	62	288	stimuli\Videos_short_600ms_vertflip\26.single_touch_with_a_blunt_syringe_short_vertflip_short_600ms.mp4	26.single_touch_with_a_blunt_syringe_short_vertflip_short_600ms.mp4	546.4128560059071	547.0211725314548	0.608316525547707				
397.9326171875	0.2	814966	353	11	3	0	0	63	44	stimuli\Videos_short_600ms\5.repeated_tap_with_finger_moving_from_top_to_bottom_short_short_600ms.mp4	5.repeated_tap_with_finger_moving_from_top_to_bottom_short_short_600ms.mp4	547.2128167698202	547.8211523562472	0.6083355864270743				
398.732421875	0.2	816604	354	11	3	0	0	64	23	stimuli\Videos_short_600ms\30.finger_pulling_back_another_finger_short_short_600ms.mp4	30.finger_pulling_back_another_finger_short_short_600ms.mp4	548.0128165352248	548.6211336472611	0.6083171120362749				
399.53271484375	0.2	818243	355	11	3	0	0	65	209	stimuli\Videos_short_600ms_horvertflip\36.single_slap_with_full_hand_short_horvertflip_short_600ms.mp4	36.single_slap_with_full_hand_short_horvertflip_short_600ms.mp4	548.8127720207403	549.421112885565	0.6083408648246404				
400.33251953125	0.2	819881	356	11	3	0	0	66	315	stimuli\Videos_short_600ms_vertflip\50.single_(long)hard_push_with_thumb_short_vertflip_short_600ms.mp4	50.single_(long)hard_push_with_thumb_short_vertflip_short_600ms.mp4	549.6127735456107	550.2210927103574	0.6083191647467174				
401.13232421875	0.2	821519	357	11	3	0	0	67	122	stimuli\Videos_short_600ms_horflip\39.single_stab_with_scissors_short_horflip_short_600ms.mp4	39.single_stab_with_scissors_short_horflip_short_600ms.mp4	550.4127958908261	551.0210772270584	0.6082813362322668				
401.9326171875	0.2	823158	358	11	3	0	0	68	332	stimuli\Videos_short_600ms_vertflip\66.stroke_top_to_bottom_with_sponge_short_vertflip_short_600ms.mp4	66.stroke_top_to_bottom_with_sponge_short_vertflip_short_600ms.mp4	551.2127537222964	551.8210585180723	0.6083047957758936				
402.732421875	0.2	824796	359	11	3	0	0	69	206	stimuli\Videos_short_600ms_horvertflip\33.scratch_top_to_bottom_with_scissors_short_horvertflip_short_600ms.mp4	33.scratch_top_to_bottom_with_scissors_short_horvertflip_short_600ms.mp4	552.012779293199	552.6210175225197	0.6082382293207047				
403.5322265625	0.2	826434	360	11	3	0	0	70	125	stimuli\Videos_short_600ms_horflip\41.injection_with_blunt_syringe_short_horflip_short_600ms.mp4	41.injection_with_blunt_syringe_short_horflip_short_600ms.mp4	552.8126963637119	553.4209920689145	0.6082957052026359				
404.33251953125	0.2	828073	361	11	3	0	0	71	293	stimuli\Videos_short_600ms_vertflip\30.finger_pulling_back_another_finger_short_vertflip_short_600ms.mp4	30.finger_pulling_back_another_finger_short_vertflip_short_600ms.mp4	553.6126882115204	554.2210038573353	0.6083156458148551				
405.13232421875	0.2	829711	362	11	3	0	0	72	255	stimuli\Videos_short_600ms_horvertflip\78.single_stroke_top_to_bottom_with_soft_brush_short_horvertflip_short_600ms.mp4	78.single_stroke_top_to_bottom_with_soft_brush_short_horvertflip_short_600ms.mp4	554.4126607052058	555.0209816294177	0.6083209242119665				
405.93212890625	0.2	831349	363	11	3	0	0	73	217	stimuli\Videos_short_600ms_horvertflip\43.touch_top_to_bottom_with_sharp_wooden_stick_short_horvertflip_short_600ms.mp4	43.touch_top_to_bottom_with_sharp_wooden_stick_short_horvertflip_short_600ms.mp4	555.2126384772878	555.8209599879888	0.6083215107009892				
406.732421875	0.2	832988	364	11	3	0	0	74	65	stimuli\Videos_short_600ms\69.stroke_with_soft_sock_short_short_600ms.mp4	69.stroke_with_soft_sock_short_short_600ms.mp4	556.0126608225032	556.6209403992698	0.608279576766563				
407.5322265625	0.2	834626	365	11	3	0	0	75	224	stimuli\Videos_short_600ms_horvertflip\5.repeated_tap_with_finger_moving_from_top_to_bottom_short_horvertflip_short_600ms.mp4	5.repeated_tap_with_finger_moving_from_top_to_bottom_short_horvertflip_short_600ms.mp4	556.8126453392042	557.4209278484136	0.6082825092094026				
408.33203125	0.2	836264	366	11	3	0	0	76	314	stimuli\Videos_short_600ms_vertflip\5.repeated_tap_with_finger_moving_from_top_to_bottom_short_vertflip_short_600ms.mp4	5.repeated_tap_with_finger_moving_from_top_to_bottom_short_vertflip_short_600ms.mp4	557.6126471573189	558.2209047407632	0.608257583444356				
409.13232421875	0.2	837903	367	11	3	0	0	77	237	stimuli\Videos_short_600ms_horvertflip\61.single_hit_with_rolling_pin_short_horvertflip_short_600ms.mp4	61.single_hit_with_rolling_pin_short_horvertflip_short_600ms.mp4	558.4125809427569	559.0208816331128	0.608300690355918				
409.93212890625	0.2	839541	368	11	3	0	0	78	359	stimuli\Videos_short_600ms_vertflip\90.repeated_touch_with_sponge_short_vertflip_short_600ms.mp4	90.repeated_touch_with_sponge_short_vertflip_short_600ms.mp4	559.2125560756404	559.8208640971038	0.608308021463472				
410.73193359375	0.2	841179	369	11	3	0	1	79	377	stimuli\Targets_short_600ms_horvertflip\hand-stroke_short_vertflip_short_600ms.mp4	hand-stroke_short_vertflip_short_600ms.mp4	560.0125901506276	560.6208462678505	0.6082561172229362				
411.5322265625	0.2	842818	370	11	3	0	0	80	1	stimuli\Videos_short_600ms\10.single_touch_with_knife_short_short_600ms.mp4	10.single_touch_with_knife_short_short_600ms.mp4	560.8132807995948	561.4208255061544	0.6075447065595654				
412.33203125	0.2	844456	371	11	3	0	0	81	36	stimuli\Videos_short_600ms\42.single_slap_with_plastic_whisk_short_short_600ms.mp4	42.single_slap_with_plastic_whisk_short_short_600ms.mp4	561.613132769874	562.2208059174354	0.6076731475613997				
413.1318359375	0.2	846094	372	11	3	0	0	82	281	stimuli\Videos_short_600ms_vertflip\2.single_touch_with_finger_short_vertflip_short_600ms.mp4	2.single_touch_with_finger_short_vertflip_short_600ms.mp4	562.4127395879214	563.0207831030289	0.6080435151075108				
413.93212890625	0.2	847733	373	11	3	0	0	83	28	stimuli\Videos_short_600ms\35.single_punch_with_hand_short_short_600ms.mp4	35.single_punch_with_hand_short_short_600ms.mp4	563.2125736702983	563.8207664467532	0.6081927764548709				
414.73193359375	0.2	849371	374	11	3	0	0	84	129	stimuli\Videos_short_600ms_horflip\45.scratching_with_finger_nails_short_horflip_short_600ms.mp4	45.scratching_with_finger_nails_short_horflip_short_600ms.mp4	564.0125033503159	564.6207465647894	0.6082432144735321				
415.5322265625	0.2	851010	375	11	3	0	0	85	99	stimuli\Videos_short_600ms_horflip\18.single_stroke_from_top_to_bottom_with_rolling_pin_short_horflip_short_600ms.mp4	18.single_stroke_from_top_to_bottom_with_rolling_pin_short_horflip_short_600ms.mp4	564.8124254059821	565.4207284422923	0.6083030363101898				
