onset	duration	onsetsample	eventnumber	subjectnr	sequencenumber	blocksequencenumber	istarget	presentationnumber	stimnumber	stim	stimname	time_stimon	time_stimoff	stimdur	cresp	resp	rt	correct
32.14892578125	0.2	65841	0	39	0	0	0	0	297	stimuli\Videos_short_600ms_vertflip\34.repeated_punch_with_hand_short_vertflip_short_600ms.mp4	34.repeated_punch_with_hand_short_vertflip_short_600ms.mp4	218.2743136045692	218.88261360307345	0.6082999985042079				
32.94921875	0.2	67480	1	39	0	0	0	1	184	stimuli\Videos_short_600ms_horvertflip\13.single_touch_with_pen_short_horvertflip_short_600ms.mp4	13.single_touch_with_pen_short_horvertflip_short_600ms.mp4	219.0742820512146	219.68260111076052	0.60831905954592				
33.7490234375	0.2	69118	2	39	0	0	1	2	365	stimuli\Targets_short_600ms\hand-stroke_short_short_600ms.mp4	hand-stroke_short_short_600ms.mp4	219.87427366435625	220.48261090520327	0.6083372408470495				
34.54931640625	0.2	70757	3	39	0	0	0	3	163	stimuli\Videos_short_600ms_horflip\76.tickle_with_fingers_from_top_to_bottom_short_horflip_short_600ms.mp4	76.tickle_with_fingers_from_top_to_bottom_short_horflip_short_600ms.mp4	220.67425413412	221.28257700587437	0.6083228717543534				
35.34912109375	0.2	72395	4	39	0	0	0	4	280	stimuli\Videos_short_600ms_vertflip\19.single_touch_with_rolling_pin_short_vertflip_short_600ms.mp4	19.single_touch_with_rolling_pin_short_vertflip_short_600ms.mp4	221.4742513189508	222.08256510005455	0.6083137811037886				
36.14892578125	0.2	74033	5	39	0	0	0	5	320	stimuli\Videos_short_600ms_vertflip\55.touch_top_to_bottom_with_nail_file_short_vertflip_short_600ms.mp4	55.touch_top_to_bottom_with_nail_file_short_vertflip_short_600ms.mp4	222.27423560092305	222.88255378072836	0.6083181798053374				
36.94921875	0.2	75672	6	39	0	0	1	6	364	stimuli\Targets_short_600ms\hand-pinch_short_short_600ms.mp4	hand-pinch_short_short_600ms.mp4	223.0742286802988	223.68254686010417	0.6083181798053374				
37.7490234375	0.2	77310	7	39	0	0	0	7	21	stimuli\Videos_short_600ms\29.single_pinch_with_tweezers_short_short_600ms.mp4	29.single_pinch_with_tweezers_short_short_600ms.mp4	223.8742065108413	224.48255430857265	0.6083477977313123				
38.548828125	0.2	78948	8	39	0	0	1	8	367	stimuli\Targets_short_600ms_horflip\chopstick-silver-tap_short_horflip_short_600ms.mp4	chopstick-silver-tap_short_horflip_short_600ms.mp4	224.6742048686592	225.28254650820784	0.6083416395485983				
39.34912109375	0.2	80587	9	39	0	0	0	9	237	stimuli\Videos_short_600ms_horvertflip\61.single_hit_with_rolling_pin_short_horvertflip_short_600ms.mp4	61.single_hit_with_rolling_pin_short_horvertflip_short_600ms.mp4	225.4741882708909	226.08251290212593	0.6083246312350639				
40.14892578125	0.2	82225	10	39	0	0	0	10	288	stimuli\Videos_short_600ms_vertflip\26.single_touch_with_a_blunt_syringe_short_vertflip_short_600ms.mp4	26.single_touch_with_a_blunt_syringe_short_vertflip_short_600ms.mp4	226.27417900429236	226.8825012895527	0.6083222852603285				
40.94873046875	0.2	83863	11	39	0	0	0	11	286	stimuli\Videos_short_600ms_vertflip\24.single_stroke_top_to_bottom_with_a_spoon_short_vertflip_short_600ms.mp4	24.single_stroke_top_to_bottom_with_a_spoon_short_vertflip_short_600ms.mp4	227.0741629930176	227.68246123204153	0.6082982390239522				
41.7490234375	0.2	85502	12	39	0	0	0	12	224	stimuli\Videos_short_600ms_horvertflip\5.repeated_tap_with_finger_moving_from_top_to_bottom_short_horvertflip_short_600ms.mp4	5.repeated_tap_with_finger_moving_from_top_to_bottom_short_horvertflip_short_600ms.mp4	227.8741525534319	228.48249683220183	0.6083442787698914				
42.548828125	0.2	87140	13	39	0	0	0	13	51	stimuli\Videos_short_600ms\56.repeated_touch_with_nail_file_short_short_600ms.mp4	56.repeated_touch_with_nail_file_short_short_600ms.mp4	228.6741380083913	229.28245589494963	0.608317886558325				
43.3486328125	0.2	88778	14	39	0	0	0	14	154	stimuli\Videos_short_600ms_horflip\68.stroke_top_to_bottom_with_shawl_short_horflip_short_600ms.mp4	68.stroke_top_to_bottom_with_shawl_short_horflip_short_600ms.mp4	229.4741249295844	230.08245014731256	0.6083252177281793				
44.14892578125	0.2	90417	15	39	0	0	0	15	321	stimuli\Videos_short_600ms_vertflip\56.repeated_touch_with_nail_file_short_vertflip_short_600ms.mp4	56.repeated_touch_with_nail_file_short_vertflip_short_600ms.mp4	230.2741147832453	230.88243648201205	0.6083216987667583				
44.94873046875	0.2	92055	16	39	0	0	0	16	236	stimuli\Videos_short_600ms_horvertflip\60.single_push_with_tip_of_pencil_short_horvertflip_short_600ms.mp4	60.single_push_with_tip_of_pencil_short_horvertflip_short_600ms.mp4	231.0740741392401	231.68243220060913	0.6083580613690174				
45.74853515625	0.2	93693	17	39	0	0	0	17	285	stimuli\Videos_short_600ms_vertflip\23.single_push_with_a_spoon_short_vertflip_short_600ms.mp4	23.single_push_with_a_spoon_short_vertflip_short_600ms.mp4	231.8740900918656	232.4824094446581	0.6083193527924777				
46.548828125	0.2	95332	18	39	0	0	0	18	45	stimuli\Videos_short_600ms\50.single_(long)hard_push_with_thumb_short_short_600ms.mp4	50.single_(long)hard_push_with_thumb_short_short_600ms.mp4	232.67407613331852	233.282399591566	0.6083234582474688				
47.3486328125	0.2	96970	19	39	0	0	0	19	165	stimuli\Videos_short_600ms_horflip\78.single_stroke_top_to_bottom_with_soft_brush_short_horflip_short_600ms.mp4	78.single_stroke_top_to_bottom_with_soft_brush_short_horflip_short_600ms.mp4	233.4740674532131	234.08238680600607	0.6083193527929325				
48.1484375	0.2	98608	20	39	0	0	0	20	105	stimuli\Videos_short_600ms_horflip\23.single_push_with_a_spoon_short_horflip_short_600ms.mp4	23.single_push_with_a_spoon_short_horflip_short_600ms.mp4	234.27405613388737	234.8823757799269	0.6083196460394902				
48.94873046875	0.2	100247	21	39	0	0	0	21	31	stimuli\Videos_short_600ms\38.double_slap_with_pencil_short_short_600ms.mp4	38.double_slap_with_pencil_short_short_600ms.mp4	235.07404246858687	235.68236240787292	0.6083199392860479				
49.74853515625	0.2	101885	22	39	0	0	0	22	173	stimuli\Videos_short_600ms_horflip\85.touch_top_to_bottom_with_fabric_short_horflip_short_600ms.mp4	85.touch_top_to_bottom_with_fabric_short_horflip_short_600ms.mp4	235.87403349523493	236.4823510885467	0.6083175933117673				
50.54833984375	0.2	103523	23	39	0	0	0	23	9	stimuli\Videos_short_600ms\18.single_stroke_from_top_to_bottom_with_rolling_pin_short_short_600ms.mp4	18.single_stroke_from_top_to_bottom_with_rolling_pin_short_short_600ms.mp4	236.67402276240273	237.28233830298677	0.6083155405840444				
51.3486328125	0.2	105162	24	39	0	0	1	24	375	stimuli\Targets_short_600ms_horvertflip\finger-tap_short_vertflip_short_600ms.mp4	finger-tap_short_vertflip_short_600ms.mp4	237.4740111498295	238.0823284498947	0.6083173000652096				
52.1484375	0.2	106800	25	39	0	0	0	25	303	stimuli\Videos_short_600ms_vertflip\4.repeated_tap_with_finger_slow_short_vertflip_short_600ms.mp4	4.repeated_tap_with_finger_slow_short_vertflip_short_600ms.mp4	238.27397021257775	238.88232152927048	0.6083513166927332				
52.9482421875	0.2	108438	26	39	0	0	0	26	116	stimuli\Videos_short_600ms_horflip\33.scratch_top_to_bottom_with_scissors_short_horflip_short_600ms.mp4	33.scratch_top_to_bottom_with_scissors_short_horflip_short_600ms.mp4	239.07398205974823	239.68230698422985	0.6083249244816216				
53.74853515625	0.2	110077	27	39	0	0	0	27	218	stimuli\Videos_short_600ms_horvertflip\44.pushing_top_to_bottom_with_finger_short_horvertflip_short_600ms.mp4	44.pushing_top_to_bottom_with_finger_short_horvertflip_short_600ms.mp4	239.873974845877	240.48228979996793	0.608314954090929				
54.54833984375	0.2	111715	28	39	0	0	0	28	58	stimuli\Videos_short_600ms\62.touch_top_to_bottom_with_scissors_short_short_600ms.mp4	62.touch_top_to_bottom_with_scissors_short_short_600ms.mp4	240.67397027122703	241.28227965362885	0.6083093824017851				
55.3486328125	0.2	113354	29	39	0	0	0	29	101	stimuli\Videos_short_600ms_horflip\2.single_touch_with_finger_short_horflip_short_600ms.mp4	2.single_touch_with_finger_short_horflip_short_600ms.mp4	241.47392493527332	242.0822486867678	0.6083237514944813				
56.1484375	0.2	114992	30	39	0	0	0	30	129	stimuli\Videos_short_600ms_horflip\45.scratching_with_finger_nails_short_horflip_short_600ms.mp4	45.scratching_with_finger_nails_short_horflip_short_600ms.mp4	242.2739781302412	242.882262293419	0.6082841631778138				
56.9482421875	0.2	116630	31	39	0	0	0	31	254	stimuli\Videos_short_600ms_horvertflip\77.tapping_with_all_fingers_short_horvertflip_short_600ms.mp4	77.tapping_with_all_fingers_short_horvertflip_short_600ms.mp4	243.07393132805328	243.6822536133136	0.6083222852603285				
57.74853515625	0.2	118269	32	39	0	0	0	32	349	stimuli\Videos_short_600ms_vertflip\81.single_stroke_top_to_bottom_with_cotton_pad_short_vertflip_short_600ms.mp4	81.single_stroke_top_to_bottom_with_cotton_pad_short_vertflip_short_600ms.mp4	243.87391209106363	244.48223173710312	0.6083196460394902				
58.54833984375	0.2	119907	33	39	0	0	0	33	44	stimuli\Videos_short_600ms\5.repeated_tap_with_finger_moving_from_top_to_bottom_short_short_600ms.mp4	5.repeated_tap_with_finger_moving_from_top_to_bottom_short_short_600ms.mp4	244.67389901225715	245.2822207110239	0.6083216987667583				
59.34814453125	0.2	121545	34	39	0	0	1	34	382	stimuli\Targets_short_600ms_vertflip\hand-pinch_short_horvertflip_short_600ms.mp4	hand-pinch_short_horvertflip_short_600ms.mp4	245.47388915916463	246.08221056468483	0.6083214055202006				
60.1484375	0.2	123184	35	39	0	0	0	35	222	stimuli\Videos_short_600ms_horvertflip\48.single_slap_with_hand_short_horvertflip_short_600ms.mp4	48.single_slap_with_hand_short_horvertflip_short_600ms.mp4	246.2738757871111	246.88220716302203	0.6083313759108933				
60.9482421875	0.2	124822	36	39	0	0	0	36	103	stimuli\Videos_short_600ms_horflip\21.repeated_touch_with_metal_chopstick_short_horflip_short_600ms.mp4	21.repeated_touch_with_metal_chopstick_short_horflip_short_600ms.mp4	247.0738653475255	247.68218528681157	0.6083199392860479				
61.748046875	0.2	126460	37	39	0	0	0	37	216	stimuli\Videos_short_600ms_horvertflip\42.single_slap_with_plastic_whisk_short_horvertflip_short_600ms.mp4	42.single_slap_with_plastic_whisk_short_horvertflip_short_600ms.mp4	247.873851975472	248.48217396748532	0.608321992013316				
62.54833984375	0.2	128099	38	39	0	0	0	38	19	stimuli\Videos_short_600ms\27.single_push_with_a_plastic_whisk_short_short_600ms.mp4	27.single_push_with_a_plastic_whisk_short_short_600ms.mp4	248.6738415358859	249.28216235491257	0.6083208190266305				
63.34814453125	0.2	129737	39	39	0	0	0	39	114	stimuli\Videos_short_600ms_horflip\31.hand_grabbing_wrist_short_horflip_short_600ms.mp4	31.hand_grabbing_wrist_short_horflip_short_600ms.mp4	249.4738281638324	250.0821492761056	0.6083211122731882				
64.14794921875	0.2	131375	40	39	0	0	0	40	167	stimuli\Videos_short_600ms_horflip\8.single_touch_with_hairbrush_short_horflip_short_600ms.mp4	8.single_touch_with_hairbrush_short_horflip_short_600ms.mp4	250.2738150850255	250.88213766353283	0.608322578507341				
64.9482421875	0.2	133014	41	39	0	0	0	41	24	stimuli\Videos_short_600ms\31.hand_grabbing_wrist_short_short_600ms.mp4	31.hand_grabbing_wrist_short_short_600ms.mp4	251.0738093373884	251.68214863096273	0.6083392935743177				
65.748046875	0.2	134652	42	39	0	0	0	42	64	stimuli\Videos_short_600ms\68.stroke_top_to_bottom_with_shawl_short_short_600ms.mp4	68.stroke_top_to_bottom_with_shawl_short_short_600ms.mp4	251.87379127338636	252.48211854384223	0.6083272704559022				
66.5478515625	0.2	136290	43	39	0	0	0	43	106	stimuli\Videos_short_600ms_horflip\24.single_stroke_top_to_bottom_with_a_spoon_short_horflip_short_600ms.mp4	24.single_stroke_top_to_bottom_with_a_spoon_short_horflip_short_600ms.mp4	252.67376558496744	253.28210927724376	0.6083436922763212				
67.34814453125	0.2	137929	44	39	0	0	0	44	189	stimuli\Videos_short_600ms_horvertflip\18.single_stroke_from_top_to_bottom_with_rolling_pin_short_horvertflip_short_600ms.mp4	18.single_stroke_from_top_to_bottom_with_rolling_pin_short_horvertflip_short_600ms.mp4	253.47376980772103	254.0820982511641	0.6083284434430425				
68.14794921875	0.2	139567	45	39	0	0	0	45	210	stimuli\Videos_short_600ms_horvertflip\37.single_stab_with_nail_file_short_horvertflip_short_600ms.mp4	37.single_stab_with_nail_file_short_horvertflip_short_600ms.mp4	254.27382740139092	254.88208253313633	0.608255131745409				
68.94775390625	0.2	141205	46	39	0	0	0	46	127	stimuli\Videos_short_600ms_horflip\43.touch_top_to_bottom_with_sharp_wooden_stick_short_horflip_short_600ms.mp4	43.touch_top_to_bottom_with_sharp_wooden_stick_short_horflip_short_600ms.mp4	255.07374511634137	255.6820712138101	0.6083260974687619				
69.748046875	0.2	142844	47	39	0	0	0	47	15	stimuli\Videos_short_600ms\23.single_push_with_a_spoon_short_short_600ms.mp4	23.single_push_with_a_spoon_short_short_600ms.mp4	255.8737176684417	256.48208775292915	0.6083700844874329				
70.5478515625	0.2	144482	48	39	0	0	0	48	176	stimuli\Videos_short_600ms_horflip\88.repeated_stroke_with_plastic_brush_short_horflip_short_600ms.mp4	88.repeated_stroke_with_plastic_brush_short_horflip_short_600ms.mp4	256.6737251169102	257.2820649969781	0.6083398800678879				
71.34765625	0.2	146120	49	39	0	0	0	49	198	stimuli\Videos_short_600ms_horvertflip\26.single_touch_with_a_blunt_syringe_short_horvertflip_short_600ms.mp4	26.single_touch_with_a_blunt_syringe_short_horvertflip_short_600ms.mp4	257.473709692129	258.0820440005082	0.6083343083791988				
72.14794921875	0.2	147759	50	39	0	0	0	50	191	stimuli\Videos_short_600ms_horvertflip\2.single_touch_with_finger_short_horvertflip_short_600ms.mp4	2.single_touch_with_finger_short_horvertflip_short_600ms.mp4	258.27369690656906	258.882020364817	0.6083234582479236				
72.94775390625	0.2	149397	51	39	0	0	0	51	85	stimuli\Videos_short_600ms\87.single_stroke_top_to_bottom_with_plastic_brush_short_short_600ms.mp4	87.single_stroke_top_to_bottom_with_plastic_brush_short_short_600ms.mp4	259.0736852939963	259.6820228280899	0.6083375340936072				
73.748046875	0.2	151036	52	39	0	0	0	52	75	stimuli\Videos_short_600ms\78.single_stroke_top_to_bottom_with_soft_brush_short_short_600ms.mp4	78.single_stroke_top_to_bottom_with_soft_brush_short_short_600ms.mp4	259.87367426791707	260.4820027113601	0.6083284434430425				
74.5478515625	0.2	152674	53	39	0	0	0	53	102	stimuli\Videos_short_600ms_horflip\20.single_touch_with_screwdriver_short_horflip_short_600ms.mp4	20.single_touch_with_screwdriver_short_horflip_short_600ms.mp4	260.67377584860515	261.282009573335	0.608233724729871				
75.34765625	0.2	154312	54	39	0	0	0	54	337	stimuli\Videos_short_600ms_vertflip\70.(long)stroke_with_finger_all_over_the_hand_short_vertflip_short_600ms.mp4	70.(long)stroke_with_finger_all_over_the_hand_short_vertflip_short_600ms.mp4	261.4737750861632	262.08197508751255	0.6082000013493598				
76.14794921875	0.2	155951	55	39	0	0	1	55	379	stimuli\Targets_short_600ms_vertflip\chopstick-silver-tap_short_horvertflip_short_600ms.mp4	chopstick-silver-tap_short_horvertflip_short_600ms.mp4	262.273637084224	262.8819625951992	0.6083255109751917				
76.94775390625	0.2	157589	56	39	0	0	0	56	92	stimuli\Videos_short_600ms_horflip\11.single_touch_with_lighter_short_horflip_short_600ms.mp4	11.single_touch_with_lighter_short_horflip_short_600ms.mp4	263.07363075009334	263.6819609530171	0.608330202923753				
77.74755859375	0.2	159227	57	39	0	0	0	57	283	stimuli\Videos_short_600ms_vertflip\21.repeated_touch_with_metal_chopstick_short_vertflip_short_600ms.mp4	21.repeated_touch_with_metal_chopstick_short_vertflip_short_600ms.mp4	263.8736197240137	264.4819396633002	0.6083199392865026				
78.5478515625	0.2	160866	58	39	0	0	0	58	217	stimuli\Videos_short_600ms_horvertflip\43.touch_top_to_bottom_with_sharp_wooden_stick_short_horvertflip_short_600ms.mp4	43.touch_top_to_bottom_with_sharp_wooden_stick_short_horvertflip_short_600ms.mp4	264.6736057654666	265.28192658449325	0.6083208190266305				
79.34765625	0.2	162504	59	39	0	0	0	59	109	stimuli\Videos_short_600ms_horflip\27.single_push_with_a_plastic_whisk_short_horflip_short_600ms.mp4	27.single_push_with_a_plastic_whisk_short_horflip_short_600ms.mp4	265.4735938596468	266.0819143854269	0.6083205257800728				
80.1474609375	0.2	164142	60	39	0	0	0	60	63	stimuli\Videos_short_600ms\67.single_touch_with_sponge_short_short_600ms.mp4	67.single_touch_with_sponge_short_short_600ms.mp4	266.2735845930483	266.8819039458408	0.6083193527924777				
80.94775390625	0.2	165781	61	39	0	0	0	61	200	stimuli\Videos_short_600ms_horvertflip\28.single_injection_with_sharp_needle_short_horvertflip_short_600ms.mp4	28.single_injection_with_sharp_needle_short_horvertflip_short_600ms.mp4	267.07357884541125	267.6818905737873	0.6083117283760657				
81.74755859375	0.2	167419	62	39	0	0	0	62	53	stimuli\Videos_short_600ms\58.single_slap_with_pencil_short_short_600ms.mp4	58.single_slap_with_pencil_short_short_600ms.mp4	267.87356693959146	268.4818810139418	0.6083140743503463				
82.54736328125	0.2	169057	63	39	0	0	0	63	128	stimuli\Videos_short_600ms_horflip\44.pushing_top_to_bottom_with_finger_short_horflip_short_600ms.mp4	44.pushing_top_to_bottom_with_finger_short_horflip_short_600ms.mp4	268.6735233631184	269.28189491384	0.6083715507215857				
83.34765625	0.2	170696	64	39	0	0	0	64	234	stimuli\Videos_short_600ms_horvertflip\59.single_push_with_long_side_pencil_short_horvertflip_short_600ms.mp4	59.single_push_with_long_side_pencil_short_horvertflip_short_600ms.mp4	269.4735308115869	270.08186189425123	0.6083310826643356				
84.1474609375	0.2	172334	65	39	0	0	0	65	207	stimuli\Videos_short_600ms_horvertflip\34.repeated_punch_with_hand_short_horvertflip_short_600ms.mp4	34.repeated_punch_with_hand_short_horvertflip_short_600ms.mp4	270.2734992582323	270.88186904947315	0.6083697912408752				
84.947265625	0.2	173972	66	39	0	0	0	66	295	stimuli\Videos_short_600ms_vertflip\32.single_(long)pinch_with_fingers_short_vertflip_short_600ms.mp4	32.single_(long)pinch_with_fingers_short_vertflip_short_600ms.mp4	271.07351169189633	271.6818421880671	0.6083304961707654				
85.74755859375	0.2	175611	67	39	0	0	0	67	28	stimuli\Videos_short_600ms\35.single_punch_with_hand_short_short_600ms.mp4	35.single_punch_with_hand_short_short_600ms.mp4	271.87350007932355	272.4818223645839	0.6083222852603285				
86.54736328125	0.2	177249	68	39	0	0	0	68	90	stimuli\Videos_short_600ms_horflip\1.repeated_touch_with_finger_fast_short_horflip_short_600ms.mp4	1.repeated_touch_with_finger_fast_short_horflip_short_600ms.mp4	272.6734993168816	273.2817940369441	0.6082947200625313				
87.34716796875	0.2	178887	69	39	0	0	0	69	144	stimuli\Videos_short_600ms_horflip\59.single_push_with_long_side_pencil_short_horflip_short_600ms.mp4	59.single_push_with_long_side_pencil_short_horflip_short_600ms.mp4	273.47351526950706	274.0817973799576	0.6082821104505456				
88.1474609375	0.2	180526	70	39	0	0	0	70	94	stimuli\Videos_short_600ms_horflip\13.single_touch_with_pen_short_horflip_short_600ms.mp4	13.single_touch_with_pen_short_horflip_short_600ms.mp4	274.27349310005	274.8818142123232	0.6083211122731882				
88.947265625	0.2	182164	71	39	0	0	0	71	246	stimuli\Videos_short_600ms_horvertflip\7.repeated_touch_with_hairbrush_short_horvertflip_short_600ms.mp4	7.repeated_touch_with_hairbrush_short_horvertflip_short_600ms.mp4	275.07345011007055	275.6817723953309	0.6083222852603285				
89.7470703125	0.2	183802	72	39	0	0	0	72	84	stimuli\Videos_short_600ms\86.touch_top_to_bottom_with_hair_brush_short_short_600ms.mp4	86.touch_top_to_bottom_with_hair_brush_short_short_600ms.mp4	275.8734370312636	276.48176928691464	0.6083322556510211				
90.54736328125	0.2	185441	73	39	0	0	0	73	341	stimuli\Videos_short_600ms_vertflip\74.fingers_walking_from_top_to_bottom_short_vertflip_short_600ms.mp4	74.fingers_walking_from_top_to_bottom_short_vertflip_short_600ms.mp4	276.67343685531523	277.2817609000567	0.6083240447414937				
91.34716796875	0.2	187079	74	39	0	0	0	74	256	stimuli\Videos_short_600ms_horvertflip\79.long_with_soft_brush_all_over_the_hand_short_horvertflip_short_600ms.mp4	79.long_with_soft_brush_all_over_the_hand_short_horvertflip_short_600ms.mp4	277.47341527235176	278.08175104696465	0.6083357746128968				
92.1474609375	0.2	188718	75	39	0	0	0	75	192	stimuli\Videos_short_600ms_horvertflip\20.single_touch_with_screwdriver_short_horvertflip_short_600ms.mp4	20.single_touch_with_screwdriver_short_horvertflip_short_600ms.mp4	278.2734036597785	278.88174911153556	0.6083454517570317				
92.947265625	0.2	190356	76	39	0	0	0	76	213	stimuli\Videos_short_600ms_horvertflip\4.repeated_tap_with_finger_slow_short_horvertflip_short_600ms.mp4	4.repeated_tap_with_finger_slow_short_horvertflip_short_600ms.mp4	279.07339468642704	279.6817157987002	0.6083211122731882				
93.7470703125	0.2	191994	77	39	0	0	0	77	300	stimuli\Videos_short_600ms_vertflip\37.single_stab_with_nail_file_short_vertflip_short_600ms.mp4	37.single_stab_with_nail_file_short_vertflip_short_600ms.mp4	279.87338043463296	280.4817282323643	0.6083477977313123				
94.54736328125	0.2	193633	78	39	0	0	0	78	12	stimuli\Videos_short_600ms\20.single_touch_with_screwdriver_short_short_600ms.mp4	20.single_touch_with_screwdriver_short_short_600ms.mp4	280.6733729275152	281.28169316004823	0.6083202325330603				
95.34716796875	0.2	195271	79	39	0	0	0	79	82	stimuli\Videos_short_600ms\84.single_touch_with_cotton_bud_short_short_600ms.mp4	84.single_touch_with_cotton_bud_short_short_600ms.mp4	281.4733604352018	282.08168125422844	0.6083208190266305				
96.14697265625	0.2	196909	80	39	0	0	0	80	323	stimuli\Videos_short_600ms_vertflip\58.single_slap_with_pencil_short_vertflip_short_600ms.mp4	58.single_slap_with_pencil_short_vertflip_short_600ms.mp4	282.273348529382	282.8816725741235	0.6083240447414937				
96.947265625	0.2	198548	81	39	0	0	0	81	196	stimuli\Videos_short_600ms_horvertflip\24.single_stroke_top_to_bottom_with_a_spoon_short_horvertflip_short_600ms.mp4	24.single_stroke_top_to_bottom_with_a_spoon_short_horvertflip_short_600ms.mp4	283.0733336910944	283.6816606683037	0.6083269772093445				
97.7470703125	0.2	200186	82	39	0	0	0	82	201	stimuli\Videos_short_600ms_horvertflip\29.single_pinch_with_tweezers_short_horvertflip_short_600ms.mp4	29.single_pinch_with_tweezers_short_horvertflip_short_600ms.mp4	283.8733279434573	284.48164905573094	0.6083211122736429				
98.546875	0.2	201824	83	39	0	0	0	83	187	stimuli\Videos_short_600ms_horvertflip\16.repeated_touch_with_plastic_brush_short_horvertflip_short_600ms.mp4	16.repeated_touch_with_plastic_brush_short_horvertflip_short_600ms.mp4	284.6733125186761	285.28163978913244	0.6083272704563569				
99.34716796875	0.2	203463	84	39	0	0	0	84	339	stimuli\Videos_short_600ms_vertflip\72.(short)stroke_with_finger_all_over_the_hand_short_vertflip_short_600ms.mp4	72.(short)stroke_with_finger_all_over_the_hand_short_vertflip_short_600ms.mp4	285.4733009061033	286.0816284698062	0.6083275637029146				
100.14697265625	0.2	205101	85	39	0	0	0	85	160	stimuli\Videos_short_600ms_horflip\73.single_stroke_with_flat_hand_short_horflip_short_600ms.mp4	73.single_stroke_with_flat_hand_short_horflip_short_600ms.mp4	286.27341597614395	286.88161832346714	0.6082023473231857				
100.94677734375	0.2	206739	86	39	0	0	0	86	233	stimuli\Videos_short_600ms_horvertflip\58.single_slap_with_pencil_short_horvertflip_short_600ms.mp4	58.single_slap_with_pencil_short_horvertflip_short_600ms.mp4	287.0732917568034	287.68161668128505	0.6083249244816216				
101.7470703125	0.2	208378	87	39	0	0	0	87	137	stimuli\Videos_short_600ms_horflip\52.touch_top_to_bottom_with_hammer_short_horflip_short_600ms.mp4	52.touch_top_to_bottom_with_hammer_short_horflip_short_600ms.mp4	287.87328600916635	288.4815918726067	0.6083058634403642				
102.546875	0.2	210016	88	39	0	0	1	88	374	stimuli\Targets_short_600ms_horvertflip\chopstickwood-tap_short_vertflip_short_600ms.mp4	chopstickwood-tap_short_vertflip_short_600ms.mp4	288.6732573882796	289.2815538678228	0.6082964795432417				
103.3466796875	0.2	211654	89	39	0	0	0	89	0	stimuli\Videos_short_600ms\1.repeated_touch_with_finger_fast_short_short_600ms.mp4	1.repeated_touch_with_finger_fast_short_short_600ms.mp4	289.47324020401766	290.08156571499285	0.6083255109751917				
104.14697265625	0.2	213293	90	39	0	0	0	90	225	stimuli\Videos_short_600ms_horvertflip\50.single_(long)hard_push_with_thumb_short_horvertflip_short_600ms.mp4	50.single_(long)hard_push_with_thumb_short_horvertflip_short_600ms.mp4	290.27322917793845	290.88155234293936	0.6083231650009111				
104.94677734375	0.2	214931	91	39	0	0	0	91	352	stimuli\Videos_short_600ms_vertflip\84.single_touch_with_cotton_bud_short_vertflip_short_600ms.mp4	84.single_touch_with_cotton_bud_short_vertflip_short_600ms.mp4	291.0732023165324	291.68155333997856	0.6083510234461755				
105.74658203125	0.2	216569	92	39	0	0	0	92	157	stimuli\Videos_short_600ms_horflip\70.(long)stroke_with_finger_all_over_the_hand_short_horflip_short_600ms.mp4	70.(long)stroke_with_finger_all_over_the_hand_short_horflip_short_600ms.mp4	291.87320477980575	292.48153556922307	0.6083307894173231				
106.546875	0.2	218208	93	39	0	0	0	93	91	stimuli\Videos_short_600ms_horflip\10.single_touch_with_knife_short_horflip_short_600ms.mp4	10.single_touch_with_knife_short_horflip_short_600ms.mp4	292.6733195565994	293.28152512963743	0.6082055730380489				
107.3466796875	0.2	219846	94	39	0	0	0	94	324	stimuli\Videos_short_600ms_vertflip\59.single_push_with_long_side_pencil_short_vertflip_short_600ms.mp4	59.single_push_with_long_side_pencil_short_vertflip_short_600ms.mp4	293.47330061285675	294.0815102913498	0.60820967849304				
108.146484375	0.2	221484	95	39	0	0	0	95	253	stimuli\Videos_short_600ms_horvertflip\76.tickle_with_fingers_from_top_to_bottom_short_horvertflip_short_600ms.mp4	76.tickle_with_fingers_from_top_to_bottom_short_horvertflip_short_600ms.mp4	294.2731705285805	294.8815007315043	0.608330202923753				
108.94677734375	0.2	223123	96	39	0	0	0	96	142	stimuli\Videos_short_600ms_horflip\57.single_touch_with_nail_file_short_horflip_short_600ms.mp4	57.single_touch_with_nail_file_short_horflip_short_600ms.mp4	295.07315891600774	295.6814888256845	0.6083299096767405	7.0	7.0	2.02441396828317	1.0
146.220703125	0.2	299460	97	39	1	0	0	0	310	stimuli\Videos_short_600ms_vertflip\46.scratching_top_to_bottom_with_finger_nails_short_vertflip_short_600ms.mp4	46.scratching_top_to_bottom_with_finger_nails_short_vertflip_short_600ms.mp4	332.3476144520232	332.9559678214432	0.6083533694200014				
147.0205078125	0.2	301098	98	39	1	0	1	1	376	stimuli\Targets_short_600ms_horvertflip\hand-pinch_short_vertflip_short_600ms.mp4	hand-pinch_short_vertflip_short_600ms.mp4	333.14761838153026	333.7559433060119	0.6083249244816216				
147.8203125	0.2	302736	99	39	1	0	0	2	120	stimuli\Videos_short_600ms_horflip\37.single_stab_with_nail_file_short_horflip_short_600ms.mp4	37.single_stab_with_nail_file_short_horflip_short_600ms.mp4	333.9475988512936	334.5559228960351	0.6083240447414937				
148.62060546875	0.2	304375	100	39	1	0	0	3	312	stimuli\Videos_short_600ms_vertflip\48.single_slap_with_hand_short_vertflip_short_600ms.mp4	48.single_slap_with_hand_short_vertflip_short_600ms.mp4	334.74759251716296	335.3559153889173	0.6083228717543534				
149.42041015625	0.2	306013	101	39	1	0	0	4	248	stimuli\Videos_short_600ms_horvertflip\71.single_stroke_with_finger_top_to_bottom_short_horvertflip_short_600ms.mp4	71.single_stroke_with_finger_top_to_bottom_short_horvertflip_short_600ms.mp4	335.54757533290103	336.1559187319308	0.6083433990297635				
150.22021484375	0.2	307651	102	39	1	0	0	5	269	stimuli\Videos_short_600ms_horvertflip\90.repeated_touch_with_sponge_short_horvertflip_short_600ms.mp4	90.repeated_touch_with_sponge_short_horvertflip_short_600ms.mp4	336.34757046500454	336.9558889380569	0.6083184730523499				
151.0205078125	0.2	309290	103	39	1	0	0	6	177	stimuli\Videos_short_600ms_horflip\89.single_touch_with_plastic_brush_short_horflip_short_600ms.mp4	89.single_touch_with_plastic_brush_short_horflip_short_600ms.mp4	337.14755093476833	337.7558779119772	0.6083269772088897				
151.8203125	0.2	310928	104	39	1	0	0	7	245	stimuli\Videos_short_600ms_horvertflip\69.stroke_with_soft_sock_short_horvertflip_short_600ms.mp4	69.stroke_with_soft_sock_short_horvertflip_short_600ms.mp4	337.947538735702	338.5558674723916	0.6083287366896002				
152.6201171875	0.2	312566	105	39	1	0	0	8	11	stimuli\Videos_short_600ms\2.single_touch_with_finger_short_short_600ms.mp4	2.single_touch_with_finger_short_short_600ms.mp4	338.7475268298822	339.3558848912512	0.6083580613690174				
153.42041015625	0.2	314205	106	39	1	0	0	9	65	stimuli\Videos_short_600ms\69.stroke_with_soft_sock_short_short_600ms.mp4	69.stroke_with_soft_sock_short_short_600ms.mp4	339.54749410354043	340.155873278678	0.6083791751375429				
154.22021484375	0.2	315843	107	39	1	0	0	10	164	stimuli\Videos_short_600ms_horflip\77.tapping_with_all_fingers_short_horflip_short_600ms.mp4	77.tapping_with_all_fingers_short_horflip_short_600ms.mp4	340.3475047777233	340.9558308751921	0.6083260974687619				
155.02001953125	0.2	317481	108	39	1	0	0	11	146	stimuli\Videos_short_600ms_horflip\60.single_push_with_tip_of_pencil_short_horflip_short_600ms.mp4	60.single_push_with_tip_of_pencil_short_horflip_short_600ms.mp4	341.14752043710223	341.75581838287917	0.6082979457769397				
155.8203125	0.2	319120	109	39	1	0	0	12	174	stimuli\Videos_short_600ms_horflip\86.touch_top_to_bottom_with_hair_brush_short_horflip_short_600ms.mp4	86.touch_top_to_bottom_with_hair_brush_short_horflip_short_600ms.mp4	341.9474997338789	342.5558094095272	0.6083096756483428				
156.6201171875	0.2	320758	110	39	1	0	0	13	178	stimuli\Videos_short_600ms_horflip\9.single_touch_with_hammer_short_horflip_short_600ms.mp4	9.single_touch_with_hammer_short_horflip_short_600ms.mp4	342.7474793239021	343.3557972104609	0.6083178865587797				
157.419921875	0.2	322396	111	39	1	0	0	14	257	stimuli\Videos_short_600ms_horvertflip\8.single_touch_with_hairbrush_short_horvertflip_short_600ms.mp4	8.single_touch_with_hairbrush_short_horvertflip_short_600ms.mp4	343.54749175756615	344.1557844249005	0.6082926673343536				
158.22021484375	0.2	324035	112	39	1	0	0	15	46	stimuli\Videos_short_600ms\51.repeated_touch_with_hammer_short_short_600ms.mp4	51.repeated_touch_with_hammer_short_short_600ms.mp4	344.3474836639548	344.9557719325876	0.6082882686328048				
159.02001953125	0.2	325673	113	39	1	0	0	16	83	stimuli\Videos_short_600ms\85.touch_top_to_bottom_with_fabric_short_short_600ms.mp4	85.touch_top_to_bottom_with_fabric_short_short_600ms.mp4	345.1474485916383	345.7557597335208	0.6083111418824956				
159.81982421875	0.2	327311	114	39	1	0	0	17	2	stimuli\Videos_short_600ms\11.single_touch_with_lighter_short_short_600ms.mp4	11.single_touch_with_lighter_short_short_600ms.mp4	345.9474290614021	346.5557490006886	0.6083199392865026				
160.6201171875	0.2	328950	115	39	1	0	0	18	158	stimuli\Videos_short_600ms_horflip\71.single_stroke_with_finger_top_to_bottom_short_horflip_short_600ms.mp4	71.single_stroke_with_finger_top_to_bottom_short_horflip_short_600ms.mp4	346.74742096779073	347.3557379746089	0.6083170068181971				
161.419921875	0.2	330588	116	39	1	0	0	19	221	stimuli\Videos_short_600ms_horvertflip\47.(long)scratching_with_finger_nails_short_horvertflip_short_600ms.mp4	47.(long)scratching_with_finger_nails_short_horvertflip_short_600ms.mp4	347.5474037835288	348.15572724177673	0.6083234582479236				
162.2197265625	0.2	332226	117	39	1	0	0	20	172	stimuli\Videos_short_600ms_horflip\84.single_touch_with_cotton_bud_short_horflip_short_600ms.mp4	84.single_touch_with_cotton_bud_short_horflip_short_600ms.mp4	348.34739334394317	348.9557156292035	0.6083222852603285				
163.02001953125	0.2	333865	118	39	1	0	0	21	259	stimuli\Videos_short_600ms_horvertflip\81.single_stroke_top_to_bottom_with_cotton_pad_short_horvertflip_short_600ms.mp4	81.single_stroke_top_to_bottom_with_cotton_pad_short_horvertflip_short_600ms.mp4	349.14738876929323	349.75568231636817	0.6082935470749362				
163.81982421875	0.2	335503	119	39	1	0	0	22	180	stimuli\Videos_short_600ms_horvertflip\1.repeated_touch_with_finger_fast_short_horvertflip_short_600ms.mp4	1.repeated_touch_with_finger_fast_short_horvertflip_short_600ms.mp4	349.94737686347344	350.5556947500322	0.6083178865587797				
164.6201171875	0.2	337142	120	39	1	0	0	23	270	stimuli\Videos_short_600ms_vertflip\1.repeated_touch_with_finger_fast_short_vertflip_short_600ms.mp4	1.repeated_touch_with_finger_fast_short_vertflip_short_600ms.mp4	350.7473623184328	351.35567609953614	0.6083137811033339				
165.419921875	0.2	338780	121	39	1	0	0	24	316	stimuli\Videos_short_600ms_vertflip\51.repeated_touch_with_hammer_short_vertflip_short_600ms.mp4	51.repeated_touch_with_hammer_short_vertflip_short_600ms.mp4	351.547354518068	352.15568970618733	0.6083351881193266				
166.2197265625	0.2	340418	122	39	1	0	0	25	287	stimuli\Videos_short_600ms_vertflip\25.single_touch_with_stanley_knife_short_vertflip_short_600ms.mp4	25.single_touch_with_stanley_knife_short_vertflip_short_600ms.mp4	352.3473370405595	352.95565756633914	0.608320525779618				
167.02001953125	0.2	342057	123	39	1	0	0	26	351	stimuli\Videos_short_600ms_vertflip\83.single_stroke_top_to_bottom_with_cotton_bud_short_vertflip_short_600ms.mp4	83.single_stroke_top_to_bottom_with_cotton_bud_short_vertflip_short_600ms.mp4	353.14732102928474	353.7556521119491	0.6083310826643356				
167.81982421875	0.2	343695	124	39	1	0	0	27	7	stimuli\Videos_short_600ms\16.repeated_touch_with_plastic_brush_short_short_600ms.mp4	16.repeated_touch_with_plastic_brush_short_short_600ms.mp4	353.9473020855421	354.5556358074273	0.6083337218851739				
168.61962890625	0.2	345333	125	39	1	0	0	28	330	stimuli\Videos_short_600ms_vertflip\64.repeated_touch_with_screwdriver_short_vertflip_short_600ms.mp4	64.repeated_touch_with_screwdriver_short_vertflip_short_600ms.mp4	354.74728343504603	355.3556321125179	0.6083486774718949				
169.419921875	0.2	346972	126	39	1	0	0	29	60	stimuli\Videos_short_600ms\64.repeated_touch_with_screwdriver_short_short_600ms.mp4	64.repeated_touch_with_screwdriver_short_short_600ms.mp4	355.547260972342	356.15561346202185	0.6083524896798735				
170.2197265625	0.2	348610	127	39	1	0	0	30	54	stimuli\Videos_short_600ms\59.single_push_with_long_side_pencil_short_short_600ms.mp4	59.single_push_with_long_side_pencil_short_short_600ms.mp4	356.34724114885876	356.9555992102278	0.6083580613690174				
171.01953125	0.2	350248	128	39	1	0	0	31	356	stimuli\Videos_short_600ms_vertflip\88.repeated_stroke_with_plastic_brush_short_vertflip_short_600ms.mp4	88.repeated_stroke_with_plastic_brush_short_vertflip_short_600ms.mp4	357.14722191186956	357.7555870111614	0.6083650992918592				
171.81982421875	0.2	351887	129	39	1	0	0	32	260	stimuli\Videos_short_600ms_horvertflip\82.repeated_touch_with_cotton_bud_short_horvertflip_short_600ms.mp4	82.repeated_touch_with_cotton_bud_short_horvertflip_short_600ms.mp4	357.9472053141012	358.5555783310565	0.6083730169552837				
172.61962890625	0.2	353525	130	39	1	0	0	33	5	stimuli\Videos_short_600ms\14.repeated_touch_with_pencil_short_short_600ms.mp4	14.repeated_touch_with_pencil_short_short_600ms.mp4	358.74718255815014	359.355564372509	0.608381814358836				
173.41943359375	0.2	355163	131	39	1	0	0	34	229	stimuli\Videos_short_600ms_horvertflip\54.repeated_touch_with_knife_short_horvertflip_short_600ms.mp4	54.repeated_touch_with_knife_short_horvertflip_short_600ms.mp4	359.54716654687536	360.15555158694906	0.6083850400736992				
174.2197265625	0.2	356802	132	39	1	0	0	35	274	stimuli\Videos_short_600ms_vertflip\13.single_touch_with_pen_short_vertflip_short_600ms.mp4	13.single_touch_with_pen_short_vertflip_short_600ms.mp4	360.34717839404584	360.9555399743763	0.6083615803304383				
175.01953125	0.2	358440	133	39	1	0	0	36	273	stimuli\Videos_short_600ms_vertflip\12.repeated_touch_with_nail_file_short_vertflip_short_600ms.mp4	12.repeated_touch_with_nail_file_short_vertflip_short_600ms.mp4	361.1471509461462	361.7555280685565	0.6083771224102748				
175.8193359375	0.2	360078	134	39	1	0	0	37	308	stimuli\Videos_short_600ms_vertflip\44.pushing_top_to_bottom_with_finger_short_vertflip_short_600ms.mp4	44.pushing_top_to_bottom_with_finger_short_vertflip_short_600ms.mp4	361.947127310455	362.5555407954671	0.608413485012079				
176.61962890625	0.2	361717	135	39	1	0	0	38	185	stimuli\Videos_short_600ms_horvertflip\14.repeated_touch_with_pencil_short_horvertflip_short_600ms.mp4	14.repeated_touch_with_pencil_short_horvertflip_short_600ms.mp4	362.7471154046352	363.3555051366575	0.6083897320222604				
177.41943359375	0.2	363355	136	39	1	0	0	39	276	stimuli\Videos_short_600ms_vertflip\15.single_stroke_top_to_bottom_with_a_plastic_whisk_short_vertflip_short_600ms.mp4	15.single_stroke_top_to_bottom_with_a_plastic_whisk_short_vertflip_short_600ms.mp4	363.54711728141456	364.15549469707184	0.6083774156572872				
178.21923828125	0.2	364993	137	39	1	0	0	40	13	stimuli\Videos_short_600ms\21.repeated_touch_with_metal_chopstick_short_short_600ms.mp4	21.repeated_touch_with_metal_chopstick_short_short_600ms.mp4	364.3471086013096	364.95548513722633	0.6083765359167046				
179.01953125	0.2	366632	138	39	1	0	0	41	281	stimuli\Videos_short_600ms_vertflip\2.single_touch_with_finger_short_vertflip_short_600ms.mp4	2.single_touch_with_finger_short_vertflip_short_600ms.mp4	365.1470987482176	365.75544683919543	0.60834809097787				
179.8193359375	0.2	368270	139	39	1	0	0	42	17	stimuli\Videos_short_600ms\25.single_touch_with_stanley_knife_short_short_600ms.mp4	25.single_touch_with_stanley_knife_short_short_600ms.mp4	365.94708185720265	366.5554363996098	0.6083545424071417				
180.619140625	0.2	369908	140	39	1	0	0	43	32	stimuli\Videos_short_600ms\39.single_stab_with_scissors_short_short_600ms.mp4	39.single_stab_with_scissors_short_short_600ms.mp4	366.7470687783957	367.3554473670397	0.6083785886439728				
181.41943359375	0.2	371547	141	39	1	0	0	44	277	stimuli\Videos_short_600ms_vertflip\16.repeated_touch_with_plastic_brush_short_vertflip_short_600ms.mp4	16.repeated_touch_with_plastic_brush_short_vertflip_short_600ms.mp4	367.5470595117972	368.15543458147977	0.6083750696825518				
182.21923828125	0.2	373185	142	39	1	0	0	45	124	stimuli\Videos_short_600ms_horflip\40.repeated_push_with_finger_short_horflip_short_600ms.mp4	40.repeated_push_with_finger_short_horflip_short_600ms.mp4	368.3470476059774	368.9554282473491	0.6083806413716957				
183.01953125	0.2	374824	143	39	1	0	0	46	99	stimuli\Videos_short_600ms_horflip\18.single_stroke_from_top_to_bottom_with_rolling_pin_short_horflip_short_600ms.mp4	18.single_stroke_from_top_to_bottom_with_rolling_pin_short_horflip_short_600ms.mp4	369.1470348204175	369.7554263119205	0.6083914915029709				
183.8193359375	0.2	376462	144	39	1	0	0	47	30	stimuli\Videos_short_600ms\37.single_stab_with_nail_file_short_short_600ms.mp4	37.single_stab_with_nail_file_short_short_600ms.mp4	369.9470243808314	370.555408541165	0.6083841603335713				
184.619140625	0.2	378100	145	39	1	0	0	48	66	stimuli\Videos_short_600ms\7.repeated_touch_with_hairbrush_short_short_600ms.mp4	7.repeated_touch_with_hairbrush_short_short_600ms.mp4	370.74701247501207	371.3553922366432	0.6083797616311131				
185.41943359375	0.2	379739	146	39	1	0	0	49	61	stimuli\Videos_short_600ms\65.stroke_top_to_bottom_with_stanley_knife_short_short_600ms.mp4	65.stroke_top_to_bottom_with_stanley_knife_short_short_600ms.mp4	371.54700467464727	372.1553782780961	0.6083736034488538				
186.21923828125	0.2	381377	147	39	1	0	0	50	232	stimuli\Videos_short_600ms_horvertflip\57.single_touch_with_nail_file_short_horvertflip_short_600ms.mp4	57.single_touch_with_nail_file_short_horvertflip_short_600ms.mp4	372.3469904228532	372.95536637227633	0.6083759494231344				
187.01904296875	0.2	383015	148	39	1	0	0	51	107	stimuli\Videos_short_600ms_horflip\25.single_touch_with_stanley_knife_short_horflip_short_600ms.mp4	25.single_touch_with_stanley_knife_short_horflip_short_600ms.mp4	373.1469770507997	373.75535651918426	0.6083794683845554				
187.8193359375	0.2	384654	149	39	1	0	0	52	298	stimuli\Videos_short_600ms_vertflip\35.single_punch_with_hand_short_vertflip_short_600ms.mp4	35.single_punch_with_hand_short_vertflip_short_600ms.mp4	373.9469657314735	374.55534373362434	0.6083780021508574				
188.619140625	0.2	386292	150	39	1	0	0	53	220	stimuli\Videos_short_600ms_horvertflip\46.scratching_top_to_bottom_with_finger_nails_short_horvertflip_short_600ms.mp4	46.scratching_top_to_bottom_with_finger_nails_short_horvertflip_short_600ms.mp4	374.74695441214726	375.35532948183027	0.6083750696830066				
189.4189453125	0.2	387930	151	39	1	0	0	54	122	stimuli\Videos_short_600ms_horflip\39.single_stab_with_scissors_short_horflip_short_600ms.mp4	39.single_stab_with_scissors_short_horflip_short_600ms.mp4	375.5469483712636	376.1553210949719	0.6083727237082712				
190.21923828125	0.2	389569	152	39	1	0	0	55	344	stimuli\Videos_short_600ms_vertflip\77.tapping_with_all_fingers_short_vertflip_short_600ms.mp4	77.tapping_with_all_fingers_short_vertflip_short_600ms.mp4	376.34693177349527	376.9553074296714	0.608375656176122				
191.01904296875	0.2	391207	153	39	1	0	0	56	100	stimuli\Videos_short_600ms_horflip\19.single_touch_with_rolling_pin_short_horflip_short_600ms.mp4	19.single_touch_with_rolling_pin_short_horflip_short_600ms.mp4	377.1469198676755	377.7552946441115	0.6083747764359941				
191.81884765625	0.2	392845	154	39	1	0	0	57	204	stimuli\Videos_short_600ms_horvertflip\31.hand_grabbing_wrist_short_horvertflip_short_600ms.mp4	31.hand_grabbing_wrist_short_horvertflip_short_600ms.mp4	377.9469079618557	378.5553053182948	0.6083973564391272				
192.619140625	0.2	394484	155	39	1	0	0	58	156	stimuli\Videos_short_600ms_horflip\7.repeated_touch_with_hairbrush_short_horflip_short_600ms.mp4	7.repeated_touch_with_hairbrush_short_horflip_short_600ms.mp4	378.74690016149134	379.3552740581867	0.6083738966954115				
193.4189453125	0.2	396122	156	39	1	0	0	59	143	stimuli\Videos_short_600ms_horflip\58.single_slap_with_pencil_short_horflip_short_600ms.mp4	58.single_slap_with_pencil_short_horflip_short_600ms.mp4	379.5468818042423	380.15526068613326	0.6083788818909852				
194.21875	0.2	397760	157	39	1	0	0	60	131	stimuli\Videos_short_600ms_horflip\47.(long)scratching_with_finger_nails_short_horflip_short_600ms.mp4	47.(long)scratching_with_finger_nails_short_horflip_short_600ms.mp4	380.3468816282939	380.9552481938199	0.608366565526012				
195.01904296875	0.2	399399	158	39	1	0	0	61	336	stimuli\Videos_short_600ms_vertflip\7.repeated_touch_with_hairbrush_short_vertflip_short_600ms.mp4	7.repeated_touch_with_hairbrush_short_vertflip_short_600ms.mp4	381.1468620980577	381.755218399946	0.6083563018883069				
195.81884765625	0.2	401037	159	39	1	0	0	62	168	stimuli\Videos_short_600ms_horflip\80.stroke_with_sharp_stick_all_over_the_hand_short_horflip_short_600ms.mp4	80.stroke_with_sharp_stick_all_over_the_hand_short_horflip_short_600ms.mp4	381.9468715992539	382.5552226226996	0.6083510234457208				
196.61865234375	0.2	402675	160	39	1	0	0	63	57	stimuli\Videos_short_600ms\61.single_hit_with_rolling_pin_short_short_600ms.mp4	61.single_hit_with_rolling_pin_short_short_600ms.mp4	382.7468552947321	383.35521482233526	0.6083595276031701				
197.4189453125	0.2	404314	161	39	1	0	0	64	96	stimuli\Videos_short_600ms_horflip\15.single_stroke_top_to_bottom_with_a_plastic_whisk_short_horflip_short_600ms.mp4	15.single_stroke_top_to_bottom_with_a_plastic_whisk_short_horflip_short_600ms.mp4	383.54684573488703	384.15519001365647	0.6083442787694366				
198.21875	0.2	405952	162	39	1	0	0	65	170	stimuli\Videos_short_600ms_horflip\82.repeated_touch_with_cotton_bud_short_horflip_short_600ms.mp4	82.repeated_touch_with_cotton_bud_short_horflip_short_600ms.mp4	384.3468616875121	384.9551716564074	0.6083099688953553				
199.0185546875	0.2	407590	163	39	1	0	0	66	279	stimuli\Videos_short_600ms_vertflip\18.single_stroke_from_top_to_bottom_with_rolling_pin_short_vertflip_short_600ms.mp4	18.single_stroke_from_top_to_bottom_with_rolling_pin_short_vertflip_short_600ms.mp4	385.14685418039426	385.7551811576036	0.6083269772093445				
199.81884765625	0.2	409229	164	39	1	0	0	67	151	stimuli\Videos_short_600ms_horflip\65.stroke_top_to_bottom_with_stanley_knife_short_horflip_short_600ms.mp4	65.stroke_top_to_bottom_with_stanley_knife_short_horflip_short_600ms.mp4	385.9468402218472	386.5551803951621	0.6083401733149003				
200.61865234375	0.2	410867	165	39	1	0	0	68	328	stimuli\Videos_short_600ms_vertflip\62.touch_top_to_bottom_with_scissors_short_vertflip_short_600ms.mp4	62.touch_top_to_bottom_with_scissors_short_vertflip_short_600ms.mp4	386.7468309552487	387.3551567594705	0.6083258042217494				
201.4189453125	0.2	412506	166	39	1	0	0	69	119	stimuli\Videos_short_600ms_horflip\36.single_slap_with_full_hand_short_horflip_short_600ms.mp4	36.single_slap_with_full_hand_short_horflip_short_600ms.mp4	387.54681611696105	388.15514602663825	0.6083299096771952				
202.21875	0.2	414144	167	39	1	0	0	70	181	stimuli\Videos_short_600ms_horvertflip\10.single_touch_with_knife_short_horvertflip_short_600ms.mp4	10.single_touch_with_knife_short_horvertflip_short_600ms.mp4	388.34680509088184	388.9551329478313	0.6083278569494723				
203.0185546875	0.2	415782	168	39	1	0	0	71	226	stimuli\Videos_short_600ms_horvertflip\51.repeated_touch_with_hammer_short_horvertflip_short_600ms.mp4	51.repeated_touch_with_hammer_short_horvertflip_short_600ms.mp4	389.1467934783086	389.75512221499866	0.6083287366900549				
203.81884765625	0.2	417421	169	39	1	0	0	72	112	stimuli\Videos_short_600ms_horflip\3.single_push_with_finger_short_horflip_short_600ms.mp4	3.single_push_with_finger_short_horflip_short_600ms.mp4	389.9467821589829	390.5551097226853	0.6083275637024599				
204.61865234375	0.2	419059	170	39	1	0	0	73	18	stimuli\Videos_short_600ms\26.single_touch_with_a_blunt_syringe_short_short_600ms.mp4	26.single_touch_with_a_blunt_syringe_short_short_600ms.mp4	390.7467679071888	391.3550981101125	0.608330202923753				
205.41845703125	0.2	420697	171	39	1	0	0	74	223	stimuli\Videos_short_600ms_horvertflip\49.repeated_slap_with_hand_short_horvertflip_short_600ms.mp4	49.repeated_slap_with_hand_short_horvertflip_short_600ms.mp4	391.5467598135774	392.1550873772798	0.6083275637024599				
206.21875	0.2	422336	172	39	1	0	0	75	76	stimuli\Videos_short_600ms\79.long_with_soft_brush_all_over_the_hand_short_short_600ms.mp4	79.long_with_soft_brush_all_over_the_hand_short_short_600ms.mp4	392.34675905113545	392.9550804566557	0.6083214055202006				
207.0185546875	0.2	423974	173	39	1	0	0	76	332	stimuli\Videos_short_600ms_vertflip\66.stroke_top_to_bottom_with_sponge_short_vertflip_short_600ms.mp4	66.stroke_top_to_bottom_with_sponge_short_vertflip_short_600ms.mp4	393.146695240634	393.75506444538087	0.6083692047468503				
207.818359375	0.2	425612	174	39	1	0	0	77	36	stimuli\Videos_short_600ms\42.single_slap_with_plastic_whisk_short_short_600ms.mp4	42.single_slap_with_plastic_whisk_short_short_600ms.mp4	393.9467220433907	394.5550522463145	0.608330202923753				
208.61865234375	0.2	427251	175	39	1	0	1	78	377	stimuli\Targets_short_600ms_horvertflip\hand-stroke_short_vertflip_short_600ms.mp4	hand-stroke_short_vertflip_short_600ms.mp4	394.7466602856166	395.3550403404947	0.6083800548781255				
209.41845703125	0.2	428889	176	39	1	0	0	79	284	stimuli\Videos_short_600ms_vertflip\22.single_touch_with_metal_chopstick_short_vertflip_short_600ms.mp4	22.single_touch_with_metal_chopstick_short_vertflip_short_600ms.mp4	395.5466392891467	396.1550252089605	0.6083859198138271				
210.21826171875	0.2	430527	177	39	1	0	0	80	319	stimuli\Videos_short_600ms_vertflip\54.repeated_touch_with_knife_short_vertflip_short_600ms.mp4	54.repeated_touch_with_knife_short_vertflip_short_600ms.mp4	396.3467059734666	396.9550162356086	0.608310262141913				
211.0185546875	0.2	432166	178	39	1	0	0	81	108	stimuli\Videos_short_600ms_horflip\26.single_touch_with_a_blunt_syringe_short_horflip_short_600ms.mp4	26.single_touch_with_a_blunt_syringe_short_horflip_short_600ms.mp4	397.14667852556704	397.7550011040744	0.608322578507341				
211.818359375	0.2	433804	179	39	1	0	1	82	381	stimuli\Targets_short_600ms_vertflip\finger-tap_short_horvertflip_short_600ms.mp4	finger-tap_short_horvertflip_short_600ms.mp4	397.9466727779299	398.5549935969566	0.6083208190266305				
212.6181640625	0.2	435442	180	39	1	0	0	83	252	stimuli\Videos_short_600ms_horvertflip\75.(long)stroke_with_fingers_all_over_the_hand_short_horvertflip_short_600ms.mp4	75.(long)stroke_with_fingers_all_over_the_hand_short_horvertflip_short_600ms.mp4	398.74665647340817	399.3549799316561	0.6083234582479236				
213.41845703125	0.2	437081	181	39	1	0	0	84	55	stimuli\Videos_short_600ms\6.single_touch_with_flat_hand_short_short_600ms.mp4	6.single_touch_with_flat_hand_short_short_600ms.mp4	399.54664720680967	400.1549747705126	0.6083275637029146				
214.21826171875	0.2	438719	182	39	1	0	0	85	117	stimuli\Videos_short_600ms_horflip\34.repeated_punch_with_hand_short_horflip_short_600ms.mp4	34.repeated_punch_with_hand_short_horflip_short_600ms.mp4	400.34663207527547	400.9549696093691	0.6083375340936072				
215.01806640625	0.2	440357	183	39	1	0	0	86	86	stimuli\Videos_short_600ms\88.repeated_stroke_with_plastic_brush_short_short_600ms.mp4	88.repeated_stroke_with_plastic_brush_short_short_600ms.mp4	401.1466201694557	401.7549579967963	0.6083378273406197				
215.818359375	0.2	441996	184	39	1	0	0	87	296	stimuli\Videos_short_600ms_vertflip\33.scratch_top_to_bottom_with_scissors_short_vertflip_short_600ms.mp4	33.scratch_top_to_bottom_with_scissors_short_vertflip_short_600ms.mp4	401.94661060961016	402.5549384665601	0.6083278569499271				
216.6181640625	0.2	443634	185	39	1	0	0	88	34	stimuli\Videos_short_600ms\40.repeated_push_with_finger_short_short_600ms.mp4	40.repeated_push_with_finger_short_short_600ms.mp4	402.74659958353095	403.3549256809997	0.6083260974687619				
217.41796875	0.2	445272	186	39	1	0	0	89	240	stimuli\Videos_short_600ms_horvertflip\64.repeated_touch_with_screwdriver_short_horvertflip_short_600ms.mp4	64.repeated_touch_with_screwdriver_short_horvertflip_short_600ms.mp4	403.5466730125272	404.1549123089462	0.6082392964190149				
218.21826171875	0.2	446911	187	39	1	0	0	90	271	stimuli\Videos_short_600ms_vertflip\10.single_touch_with_knife_short_vertflip_short_600ms.mp4	10.single_touch_with_knife_short_vertflip_short_600ms.mp4	404.34657342591754	404.95490245585415	0.6083290299366126				
219.01806640625	0.2	448549	188	39	1	0	0	91	70	stimuli\Videos_short_600ms\73.single_stroke_with_flat_hand_short_short_600ms.mp4	73.single_stroke_with_flat_hand_short_short_600ms.mp4	405.146563572825	405.7548876175665	0.6083240447414937				
219.818359375	0.2	450188	189	39	1	0	0	92	93	stimuli\Videos_short_600ms_horflip\12.repeated_touch_with_nail_file_short_horflip_short_600ms.mp4	12.repeated_touch_with_nail_file_short_horflip_short_600ms.mp4	405.94655137375867	406.5548745387596	0.6083231650009111	3.0	3.0	1.6702692034859865	1.0
253.8251953125	0.2	519834	190	39	2	0	0	0	56	stimuli\Videos_short_600ms\60.single_push_with_tip_of_pencil_short_short_600ms.mp4	60.single_push_with_tip_of_pencil_short_short_600ms.mp4	439.9543869279965	440.5627309135198	0.6083439855233337				
254.62548828125	0.2	521473	191	39	2	0	1	1	380	stimuli\Targets_short_600ms_vertflip\chopstickwood-tap_short_horvertflip_short_600ms.mp4	chopstickwood-tap_short_horvertflip_short_600ms.mp4	440.75437619516424	441.36272633886983	0.6083501437055929				
255.42529296875	0.2	523111	192	39	2	0	0	2	4	stimuli\Videos_short_600ms\13.single_touch_with_pen_short_short_600ms.mp4	13.single_touch_with_pen_short_short_600ms.mp4	441.55436399609744	442.1626877475919	0.6083237514944813				
256.22509765625	0.2	524749	193	39	2	0	0	3	195	stimuli\Videos_short_600ms_horvertflip\23.single_push_with_a_spoon_short_horvertflip_short_600ms.mp4	23.single_push_with_a_spoon_short_horvertflip_short_600ms.mp4	442.3543512105375	442.9626755485256	0.6083243379880514				
257.025390625	0.2	526388	194	39	2	0	0	4	311	stimuli\Videos_short_600ms_vertflip\47.(long)scratching_with_finger_nails_short_vertflip_short_600ms.mp4	47.(long)scratching_with_finger_nails_short_vertflip_short_600ms.mp4	443.15433695874344	443.7626844632282	0.6083475044847546				
257.8251953125	0.2	528026	195	39	2	0	0	5	161	stimuli\Videos_short_600ms_horflip\74.fingers_walking_from_top_to_bottom_short_horflip_short_600ms.mp4	74.fingers_walking_from_top_to_bottom_short_horflip_short_600ms.mp4	443.9543385422762	444.5626529098736	0.6083143675973588				
258.625	0.2	529664	196	39	2	0	0	6	357	stimuli\Videos_short_600ms_vertflip\89.single_touch_with_plastic_brush_short_vertflip_short_600ms.mp4	89.single_touch_with_plastic_brush_short_vertflip_short_600ms.mp4	444.7542885143739	445.3626418837939	0.6083533694200014				
259.42529296875	0.2	531303	197	39	2	0	1	7	370	stimuli\Targets_short_600ms_horflip\hand-pinch_short_horflip_short_600ms.mp4	hand-pinch_short_horflip_short_600ms.mp4	445.5542810072561	446.16262821849386	0.6083472112377422				
260.22509765625	0.2	532941	198	39	2	0	0	8	40	stimuli\Videos_short_600ms\46.scratching_top_to_bottom_with_finger_nails_short_short_600ms.mp4	46.scratching_top_to_bottom_with_finger_nails_short_short_600ms.mp4	446.3542978396217	446.96261777890777	0.6083199392860479				
261.02490234375	0.2	534579	199	39	2	0	0	9	261	stimuli\Videos_short_600ms_horvertflip\83.single_stroke_top_to_bottom_with_cotton_bud_short_horvertflip_short_600ms.mp4	83.single_stroke_top_to_bottom_with_cotton_bud_short_horvertflip_short_600ms.mp4	447.1542827080875	447.762601767633	0.6083190595454653				
261.8251953125	0.2	536218	200	39	2	0	0	10	3	stimuli\Videos_short_600ms\12.repeated_touch_with_nail_file_short_short_600ms.mp4	12.repeated_touch_with_nail_file_short_short_600ms.mp4	447.9542769604504	448.5625892753201	0.6083123148696359				
262.625	0.2	537856	201	39	2	0	0	11	342	stimuli\Videos_short_600ms_vertflip\75.(long)stroke_with_fingers_all_over_the_hand_short_vertflip_short_600ms.mp4	75.(long)stroke_with_fingers_all_over_the_hand_short_vertflip_short_600ms.mp4	448.7542580167078	449.3625849939167	0.6083269772088897				
263.42529296875	0.2	539495	202	39	2	0	0	12	278	stimuli\Videos_short_600ms_vertflip\17.repeated_touch_with_rolling_pin_short_vertflip_short_600ms.mp4	17.repeated_touch_with_rolling_pin_short_vertflip_short_600ms.mp4	449.5542519758237	450.1625672231612	0.6083152473374867				
264.22509765625	0.2	541133	203	39	2	0	0	13	272	stimuli\Videos_short_600ms_vertflip\11.single_touch_with_lighter_short_vertflip_short_600ms.mp4	11.single_touch_with_lighter_short_vertflip_short_600ms.mp4	450.35423361857465	450.96255502409485	0.6083214055202006				
265.02490234375	0.2	542771	204	39	2	0	0	14	113	stimuli\Videos_short_600ms_horflip\30.finger_pulling_back_another_finger_short_horflip_short_600ms.mp4	30.finger_pulling_back_another_finger_short_horflip_short_600ms.mp4	451.1542214195083	451.76256833749903	0.6083469179907297				
265.8251953125	0.2	544410	205	39	2	0	0	15	199	stimuli\Videos_short_600ms_horvertflip\27.single_push_with_a_plastic_whisk_short_horvertflip_short_600ms.mp4	27.single_push_with_a_plastic_whisk_short_horvertflip_short_600ms.mp4	451.9542112731692	452.56253531791026	0.608324044741039				
266.625	0.2	546048	206	39	2	0	0	16	334	stimuli\Videos_short_600ms_vertflip\68.stroke_top_to_bottom_with_shawl_short_vertflip_short_600ms.mp4	68.stroke_top_to_bottom_with_shawl_short_vertflip_short_600ms.mp4	452.754199953843	453.3625322094945	0.6083322556514759				
267.4248046875	0.2	547686	207	39	2	0	0	17	266	stimuli\Videos_short_600ms_horvertflip\88.repeated_stroke_with_plastic_brush_short_horvertflip_short_600ms.mp4	88.repeated_stroke_with_plastic_brush_short_horvertflip_short_600ms.mp4	453.5541865817895	454.162518837441	0.6083322556514759				
268.22509765625	0.2	549325	208	39	2	0	0	18	203	stimuli\Videos_short_600ms_horvertflip\30.finger_pulling_back_another_finger_short_horvertflip_short_600ms.mp4	30.finger_pulling_back_another_finger_short_horvertflip_short_600ms.mp4	454.3541761422038	454.9624957882429	0.6083196460390354				
269.02490234375	0.2	550963	209	39	2	0	0	19	338	stimuli\Videos_short_600ms_vertflip\71.single_stroke_with_finger_top_to_bottom_short_vertflip_short_600ms.mp4	71.single_stroke_with_finger_top_to_bottom_short_vertflip_short_600ms.mp4	455.1541621836563	455.76250675567326	0.6083445720169038				
269.82470703125	0.2	552601	210	39	2	0	0	20	88	stimuli\Videos_short_600ms\9.single_touch_with_hammer_short_short_600ms.mp4	9.single_touch_with_hammer_short_short_600ms.mp4	455.95415291705785	456.5624329747807	0.6082800577228227				
270.625	0.2	554240	211	39	2	0	0	21	48	stimuli\Videos_short_600ms\53.touch_top_to_bottom_with_knife_short_short_600ms.mp4	53.touch_top_to_bottom_with_knife_short_short_600ms.mp4	456.75413925175735	457.362460364031	0.6083211122736429				
271.4248046875	0.2	555878	212	39	2	0	0	22	77	stimuli\Videos_short_600ms\8.single_touch_with_hairbrush_short_short_600ms.mp4	8.single_touch_with_hairbrush_short_short_600ms.mp4	457.55412646619743	458.16244875145776	0.6083222852603285				
272.224609375	0.2	557516	213	39	2	0	0	23	134	stimuli\Videos_short_600ms_horflip\5.repeated_tap_with_finger_moving_from_top_to_bottom_short_horflip_short_600ms.mp4	5.repeated_tap_with_finger_moving_from_top_to_bottom_short_horflip_short_600ms.mp4	458.35411661310536	458.9624400713528	0.6083234582474688				
273.02490234375	0.2	559155	214	39	2	0	0	24	304	stimuli\Videos_short_600ms_vertflip\40.repeated_push_with_finger_short_vertflip_short_600ms.mp4	40.repeated_push_with_finger_short_vertflip_short_600ms.mp4	459.1541079330004	459.76242933852063	0.6083214055202006				
273.82470703125	0.2	560793	215	39	2	0	0	25	249	stimuli\Videos_short_600ms_horvertflip\72.(short)stroke_with_finger_all_over_the_hand_short_horvertflip_short_600ms.mp4	72.(short)stroke_with_finger_all_over_the_hand_short_horvertflip_short_600ms.mp4	459.9540699282161	460.56241684620727	0.6083469179911845				
274.62451171875	0.2	562431	216	39	2	0	0	26	67	stimuli\Videos_short_600ms\70.(long)stroke_with_finger_all_over_the_hand_short_short_600ms.mp4	70.(long)stroke_with_finger_all_over_the_hand_short_short_600ms.mp4	460.75409174577726	461.3624075796088	0.6083158338315116				
275.4248046875	0.2	564070	217	39	2	0	0	27	327	stimuli\Videos_short_600ms_vertflip\61.single_hit_with_rolling_pin_short_vertflip_short_600ms.mp4	61.single_hit_with_rolling_pin_short_vertflip_short_600ms.mp4	461.5540701628138	462.16239362106126	0.6083234582474688				
276.224609375	0.2	565708	218	39	2	0	0	28	211	stimuli\Videos_short_600ms_horvertflip\38.double_slap_with_pencil_short_horvertflip_short_600ms.mp4	38.double_slap_with_pencil_short_horvertflip_short_600ms.mp4	462.354062655696	462.9623837679692	0.6083211122731882				
277.0244140625	0.2	567346	219	39	2	0	0	29	275	stimuli\Videos_short_600ms_vertflip\14.repeated_touch_with_pencil_short_vertflip_short_600ms.mp4	14.repeated_touch_with_pencil_short_vertflip_short_600ms.mp4	463.1540528026039	463.7623680499414	0.6083152473374867				
277.82470703125	0.2	568985	220	39	2	0	0	30	345	stimuli\Videos_short_600ms_vertflip\78.single_stroke_top_to_bottom_with_soft_brush_short_vertflip_short_600ms.mp4	78.single_stroke_top_to_bottom_with_soft_brush_short_vertflip_short_600ms.mp4	463.9540391373034	464.5623661145123	0.6083269772088897				
278.62451171875	0.2	570623	221	39	2	0	0	31	214	stimuli\Videos_short_600ms_horvertflip\40.repeated_push_with_finger_short_horvertflip_short_600ms.mp4	40.repeated_push_with_finger_short_horvertflip_short_600ms.mp4	464.7540199003138	465.362341599081	0.6083216987672131				
279.42431640625	0.2	572261	222	39	2	0	0	32	79	stimuli\Videos_short_600ms\81.single_stroke_top_to_bottom_with_cotton_pad_short_short_600ms.mp4	81.single_stroke_top_to_bottom_with_cotton_pad_short_short_600ms.mp4	465.55402324332726	466.1623288135206	0.6083055701933517				
280.224609375	0.2	573900	223	39	2	0	0	33	49	stimuli\Videos_short_600ms\54.repeated_touch_with_knife_short_short_600ms.mp4	54.repeated_touch_with_knife_short_short_600ms.mp4	466.353998434649	466.9623459391332	0.6083475044842999				
281.0244140625	0.2	575538	224	39	2	0	0	34	153	stimuli\Videos_short_600ms_horflip\67.single_touch_with_sponge_short_horflip_short_600ms.mp4	67.single_touch_with_sponge_short_horflip_short_600ms.mp4	467.1539868220757	467.7623328603263	0.6083460382506019				
281.82421875	0.2	577176	225	39	2	0	0	35	264	stimuli\Videos_short_600ms_horvertflip\86.touch_top_to_bottom_with_hair_brush_short_horvertflip_short_600ms.mp4	86.touch_top_to_bottom_with_hair_brush_short_horvertflip_short_600ms.mp4	467.95397462300934	468.5623010137251	0.6083263907157743				
282.62451171875	0.2	578815	226	39	2	0	0	36	147	stimuli\Videos_short_600ms_horflip\61.single_hit_with_rolling_pin_short_horflip_short_600ms.mp4	61.single_hit_with_rolling_pin_short_horflip_short_600ms.mp4	468.7539392574463	469.36229673232174	0.6083574748754472				
283.42431640625	0.2	580453	227	39	2	0	0	37	59	stimuli\Videos_short_600ms\63.stroke_top_to_bottom_with_screwdriver_short_short_600ms.mp4	63.stroke_top_to_bottom_with_screwdriver_short_short_600ms.mp4	469.5539505181232	470.162272510137	0.6083219920137708				
284.224609375	0.2	582092	228	39	2	0	0	38	42	stimuli\Videos_short_600ms\48.single_slap_with_hand_short_short_600ms.mp4	48.single_slap_with_hand_short_short_600ms.mp4	470.3539400785376	470.962280838346	0.6083407598084705				
285.0244140625	0.2	583730	229	39	2	0	0	39	104	stimuli\Videos_short_600ms_horflip\22.single_touch_with_metal_chopstick_short_horflip_short_600ms.mp4	22.single_touch_with_metal_chopstick_short_horflip_short_600ms.mp4	471.1539272929776	471.7622469390167	0.6083196460390354				
285.82421875	0.2	585368	230	39	2	0	0	40	230	stimuli\Videos_short_600ms_horvertflip\55.touch_top_to_bottom_with_nail_file_short_horvertflip_short_600ms.mp4	55.touch_top_to_bottom_with_nail_file_short_horvertflip_short_600ms.mp4	471.95391714663856	472.56223825891175	0.6083211122731882				
286.62451171875	0.2	587007	231	39	2	0	0	41	97	stimuli\Videos_short_600ms_horflip\16.repeated_touch_with_plastic_brush_short_horflip_short_600ms.mp4	16.repeated_touch_with_plastic_brush_short_horflip_short_600ms.mp4	472.7539052408188	473.3622336842618	0.6083284434430425				
287.42431640625	0.2	588645	232	39	2	0	0	42	354	stimuli\Videos_short_600ms_vertflip\86.touch_top_to_bottom_with_hair_brush_short_vertflip_short_600ms.mp4	86.touch_top_to_bottom_with_hair_brush_short_vertflip_short_600ms.mp4	473.55388219162114	474.16225579507	0.6083736034488538				
288.22412109375	0.2	590283	233	39	2	0	0	43	16	stimuli\Videos_short_600ms\24.single_stroke_top_to_bottom_with_a_spoon_short_short_600ms.mp4	24.single_stroke_top_to_bottom_with_a_spoon_short_short_600ms.mp4	474.3538843616475	474.96220166171224	0.6083173000647548				
289.0244140625	0.2	591922	234	39	2	0	0	44	171	stimuli\Videos_short_600ms_horflip\83.single_stroke_top_to_bottom_with_cotton_bud_short_horflip_short_600ms.mp4	83.single_stroke_top_to_bottom_with_cotton_bud_short_horflip_short_600ms.mp4	475.15386688413855	475.7622099899213	0.6083431057827511				
289.82421875	0.2	593560	235	39	2	0	0	45	89	stimuli\Videos_short_600ms\90.repeated_touch_with_sponge_short_short_600ms.mp4	90.repeated_touch_with_sponge_short_short_600ms.mp4	475.9538426619538	476.56218136903453	0.6083387070807476				
290.6240234375	0.2	595198	236	39	2	0	1	46	363	stimuli\Targets_short_600ms\finger-tap_short_short_600ms.mp4	finger-tap_short_short_600ms.mp4	476.7538445387331	477.3621685834746	0.6083240447414937				
291.42431640625	0.2	596837	237	39	2	0	0	47	239	stimuli\Videos_short_600ms_horvertflip\63.stroke_top_to_bottom_with_screwdriver_short_horvertflip_short_600ms.mp4	63.stroke_top_to_bottom_with_screwdriver_short_horvertflip_short_600ms.mp4	477.5538470020065	478.1621578506419	0.6083108486354831				
292.22412109375	0.2	598475	238	39	2	0	0	48	27	stimuli\Videos_short_600ms\34.repeated_punch_with_hand_short_short_600ms.mp4	34.repeated_punch_with_hand_short_short_600ms.mp4	478.353824832549	478.96214594482217	0.6083211122731882				
293.02392578125	0.2	600113	239	39	2	0	0	49	148	stimuli\Videos_short_600ms_horflip\62.touch_top_to_bottom_with_scissors_short_horflip_short_600ms.mp4	62.touch_top_to_bottom_with_scissors_short_horflip_short_600ms.mp4	479.1538167389376	479.7621572054991	0.608340466561458				
293.83251953125	0.2	601769	240	39	2	0	0	50	186	stimuli\Videos_short_600ms_horvertflip\15.single_stroke_top_to_bottom_with_a_plastic_whisk_short_horvertflip_short_600ms.mp4	15.single_stroke_top_to_bottom_with_a_plastic_whisk_short_horvertflip_short_600ms.mp4	479.962140373133	480.5704711625508	0.6083307894177779				
294.63232421875	0.2	603407	241	39	2	0	0	51	358	stimuli\Videos_short_600ms_vertflip\9.single_touch_with_hammer_short_vertflip_short_600ms.mp4	9.single_touch_with_hammer_short_vertflip_short_600ms.mp4	480.7621636569283	481.3704437146512	0.6082800577228227				
295.43212890625	0.2	605045	242	39	2	0	0	52	291	stimuli\Videos_short_600ms_vertflip\29.single_pinch_with_tweezers_short_vertflip_short_600ms.mp4	29.single_pinch_with_tweezers_short_vertflip_short_600ms.mp4	481.5621101100646	482.1704312223378	0.6083211122731882				
296.232421875	0.2	606684	243	39	2	0	0	53	47	stimuli\Videos_short_600ms\52.touch_top_to_bottom_with_hammer_short_short_600ms.mp4	52.touch_top_to_bottom_with_hammer_short_short_600ms.mp4	482.36209761775126	482.9704369113256	0.6083392935743177				
297.0322265625	0.2	608322	244	39	2	0	0	54	250	stimuli\Videos_short_600ms_horvertflip\73.single_stroke_with_flat_hand_short_horvertflip_short_600ms.mp4	73.single_stroke_with_flat_hand_short_horvertflip_short_600ms.mp4	483.16209216336074	483.77043996109205	0.6083477977313123				
297.83251953125	0.2	609961	245	39	2	0	0	55	159	stimuli\Videos_short_600ms_horflip\72.(short)stroke_with_finger_all_over_the_hand_short_horflip_short_600ms.mp4	72.(short)stroke_with_finger_all_over_the_hand_short_horflip_short_600ms.mp4	483.96207908455426	484.5703931589046	0.6083140743503463				
298.63232421875	0.2	611599	246	39	2	0	0	56	74	stimuli\Videos_short_600ms\77.tapping_with_all_fingers_short_short_600ms.mp4	77.tapping_with_all_fingers_short_short_600ms.mp4	484.7620689382152	485.37040295334737	0.6083340151321863				
299.43212890625	0.2	613237	247	39	2	0	0	57	111	stimuli\Videos_short_600ms_horflip\29.single_pinch_with_tweezers_short_horflip_short_600ms.mp4	29.single_pinch_with_tweezers_short_horflip_short_600ms.mp4	485.56205175395326	486.1703708134992	0.60831905954592				
300.232421875	0.2	614876	248	39	2	0	0	58	318	stimuli\Videos_short_600ms_vertflip\53.touch_top_to_bottom_with_knife_short_vertflip_short_600ms.mp4	53.touch_top_to_bottom_with_knife_short_vertflip_short_600ms.mp4	486.36203134397647	486.97033486144255	0.6083035174660836				
301.0322265625	0.2	616514	249	39	2	0	0	59	197	stimuli\Videos_short_600ms_horvertflip\25.single_touch_with_stanley_knife_short_horvertflip_short_600ms.mp4	25.single_touch_with_stanley_knife_short_horvertflip_short_600ms.mp4	487.1620481763425	487.7703540397824	0.6083058634399094				
301.83203125	0.2	618152	250	39	2	0	0	60	305	stimuli\Videos_short_600ms_vertflip\41.injection_with_blunt_syringe_short_vertflip_short_600ms.mp4	41.injection_with_blunt_syringe_short_vertflip_short_600ms.mp4	487.9620081188309	488.57029990642513	0.6082917875942258				
302.63232421875	0.2	619791	251	39	2	0	0	61	307	stimuli\Videos_short_600ms_vertflip\43.touch_top_to_bottom_with_sharp_wooden_stick_short_vertflip_short_600ms.mp4	43.touch_top_to_bottom_with_sharp_wooden_stick_short_vertflip_short_600ms.mp4	488.76199562651755	489.3703560338608	0.608360407343298				
303.43212890625	0.2	621429	252	39	2	0	0	62	22	stimuli\Videos_short_600ms\3.single_push_with_finger_short_short_600ms.mp4	3.single_push_with_finger_short_short_600ms.mp4	489.56198460043834	490.17031333712794	0.6083287366896002				
304.23193359375	0.2	623067	253	39	2	0	0	63	212	stimuli\Videos_short_600ms_horvertflip\39.single_stab_with_scissors_short_horvertflip_short_600ms.mp4	39.single_stab_with_scissors_short_horvertflip_short_600ms.mp4	490.36197240137153	490.97031286793344	0.6083404665619128				
305.0322265625	0.2	624706	254	39	2	0	0	64	121	stimuli\Videos_short_600ms_horflip\38.double_slap_with_pencil_short_horflip_short_600ms.mp4	38.double_slap_with_pencil_short_horflip_short_600ms.mp4	491.16196108204576	491.77031269198505	0.6083516099392909				
305.83203125	0.2	626344	255	39	2	0	1	65	371	stimuli\Targets_short_600ms_horflip\hand-stroke_short_horflip_short_600ms.mp4	hand-stroke_short_horflip_short_600ms.mp4	491.9619468302517	492.57027527369473	0.6083284434430425				
306.6318359375	0.2	627982	256	39	2	0	0	66	241	stimuli\Videos_short_600ms_horvertflip\65.stroke_top_to_bottom_with_stanley_knife_short_horvertflip_short_600ms.mp4	65.stroke_top_to_bottom_with_stanley_knife_short_horvertflip_short_600ms.mp4	492.76193609741904	493.3702630746284	0.6083269772093445				
307.43212890625	0.2	629621	257	39	2	0	0	67	110	stimuli\Videos_short_600ms_horflip\28.single_injection_with_sharp_needle_short_horflip_short_600ms.mp4	28.single_injection_with_sharp_needle_short_horflip_short_600ms.mp4	493.56190601029857	494.17024911608087	0.6083431057822963				
308.23193359375	0.2	631259	258	39	2	0	0	68	183	stimuli\Videos_short_600ms_horvertflip\12.repeated_touch_with_nail_file_short_horvertflip_short_600ms.mp4	12.repeated_touch_with_nail_file_short_horvertflip_short_600ms.mp4	494.3619738676057	494.9702386764952	0.6082648088895439				
309.03173828125	0.2	632897	259	39	2	0	0	69	126	stimuli\Videos_short_600ms_horflip\42.single_slap_with_plastic_whisk_short_horflip_short_600ms.mp4	42.single_slap_with_plastic_whisk_short_horflip_short_600ms.mp4	495.1619000867131	495.7702470047043	0.6083469179911845				
309.83203125	0.2	634536	260	39	2	0	1	70	373	stimuli\Targets_short_600ms_horvertflip\chopstick-silver-tap_short_vertflip_short_600ms.mp4	chopstick-silver-tap_short_vertflip_short_600ms.mp4	495.9618723455669	496.5702180905705	0.6083457450035894				
310.6318359375	0.2	636174	261	39	2	0	0	71	182	stimuli\Videos_short_600ms_horvertflip\11.single_touch_with_lighter_short_horvertflip_short_600ms.mp4	11.single_touch_with_lighter_short_horvertflip_short_600ms.mp4	496.7618783278013	497.3702050117636	0.608326683962332				
311.431640625	0.2	637812	262	39	2	0	0	72	41	stimuli\Videos_short_600ms\47.(long)scratching_with_finger_nails_short_short_600ms.mp4	47.(long)scratching_with_finger_nails_short_short_600ms.mp4	497.56187345990475	498.17019486542495	0.6083214055202006				
312.23193359375	0.2	639451	263	39	2	0	0	73	235	stimuli\Videos_short_600ms_horvertflip\6.single_touch_with_flat_hand_short_horvertflip_short_600ms.mp4	6.single_touch_with_flat_hand_short_horvertflip_short_600ms.mp4	498.3618583283701	498.9701850123324	0.608326683962332				
313.03173828125	0.2	641089	264	39	2	0	0	74	289	stimuli\Videos_short_600ms_vertflip\27.single_push_with_a_plastic_whisk_short_vertflip_short_600ms.mp4	27.single_push_with_a_plastic_whisk_short_vertflip_short_600ms.mp4	499.1618423170953	499.7701986189836	0.6083563018883069				
313.83154296875	0.2	642727	265	39	2	0	0	75	193	stimuli\Videos_short_600ms_horvertflip\21.repeated_touch_with_metal_chopstick_short_horvertflip_short_600ms.mp4	21.repeated_touch_with_metal_chopstick_short_horvertflip_short_600ms.mp4	499.9619043094672	500.5701620804334	0.6082577709662473				
314.6318359375	0.2	644366	266	39	2	0	0	76	25	stimuli\Videos_short_600ms\32.single_(long)pinch_with_fingers_short_short_600ms.mp4	32.single_(long)pinch_with_fingers_short_short_600ms.mp4	500.76181909194975	501.3701211431817	0.6083020512319308				
315.431640625	0.2	646004	267	39	2	0	0	77	306	stimuli\Videos_short_600ms_vertflip\42.single_slap_with_plastic_whisk_short_vertflip_short_600ms.mp4	42.single_slap_with_plastic_whisk_short_vertflip_short_600ms.mp4	501.56180571989626	502.17013269710515	0.6083269772088897				
316.2314453125	0.2	647642	268	39	2	0	0	78	314	stimuli\Videos_short_600ms_vertflip\5.repeated_tap_with_finger_moving_from_top_to_bottom_short_vertflip_short_600ms.mp4	5.repeated_tap_with_finger_moving_from_top_to_bottom_short_vertflip_short_600ms.mp4	502.3617932275829	502.9701266562215	0.6083334286386162				
317.03173828125	0.2	649281	269	39	2	0	0	79	333	stimuli\Videos_short_600ms_vertflip\67.single_touch_with_sponge_short_vertflip_short_600ms.mp4	67.single_touch_with_sponge_short_vertflip_short_600ms.mp4	503.1617880664394	503.770112697674	0.6083246312346091				
317.83154296875	0.2	650919	270	39	2	0	1	80	360	stimuli\Targets_short_600ms\brush-stroke_short_short_600ms.mp4	brush-stroke_short_short_600ms.mp4	503.9617764538666	504.5701113487389	0.6083348948723142				
318.6318359375	0.2	652558	271	39	2	0	0	81	20	stimuli\Videos_short_600ms\28.single_injection_with_sharp_needle_short_short_600ms.mp4	28.single_injection_with_sharp_needle_short_short_600ms.mp4	504.7617592696047	505.37008712655415	0.6083278569494723				
319.431640625	0.2	654196	272	39	2	0	0	82	175	stimuli\Videos_short_600ms_horflip\87.single_stroke_top_to_bottom_with_plastic_brush_short_horflip_short_600ms.mp4	87.single_stroke_top_to_bottom_with_plastic_brush_short_horflip_short_600ms.mp4	505.5617470705379	506.1700813789171	0.6083343083791988				
320.2314453125	0.2	655834	273	39	2	0	0	83	247	stimuli\Videos_short_600ms_horvertflip\70.(long)stroke_with_finger_all_over_the_hand_short_horvertflip_short_600ms.mp4	70.(long)stroke_with_finger_all_over_the_hand_short_horvertflip_short_600ms.mp4	506.36186331356566	506.9700653676423	0.608202054076628				
321.03173828125	0.2	657473	274	39	2	0	0	84	350	stimuli\Videos_short_600ms_vertflip\82.repeated_touch_with_cotton_bud_short_vertflip_short_600ms.mp4	82.repeated_touch_with_cotton_bud_short_vertflip_short_600ms.mp4	507.1617220859116	507.7700543415631	0.6083322556514759				
321.83154296875	0.2	659111	275	39	2	0	0	85	313	stimuli\Videos_short_600ms_vertflip\49.repeated_slap_with_hand_short_vertflip_short_600ms.mp4	49.repeated_slap_with_hand_short_vertflip_short_600ms.mp4	507.9617107665854	508.5700629630187	0.6083521964333158				
322.63134765625	0.2	660749	276	39	2	0	0	86	37	stimuli\Videos_short_600ms\43.touch_top_to_bottom_with_sharp_wooden_stick_short_short_600ms.mp4	43.touch_top_to_bottom_with_sharp_wooden_stick_short_short_600ms.mp4	508.7616973945319	509.3700287704428	0.6083313759108933				
323.431640625	0.2	662388	277	39	2	0	1	87	362	stimuli\Targets_short_600ms\chopstickwood-tap_short_short_600ms.mp4	chopstickwood-tap_short_short_600ms.mp4	509.5616916468948	510.1700151051423	0.6083234582474688				
324.2314453125	0.2	664026	278	39	2	0	0	88	255	stimuli\Videos_short_600ms_horvertflip\78.single_stroke_top_to_bottom_with_soft_brush_short_horvertflip_short_600ms.mp4	78.single_stroke_top_to_bottom_with_soft_brush_short_horvertflip_short_600ms.mp4	510.36166126652734	510.97002314010433	0.608361873576996				
325.03125	0.2	665664	279	39	2	0	0	89	219	stimuli\Videos_short_600ms_horvertflip\45.scratching_with_finger_nails_short_horvertflip_short_600ms.mp4	45.scratching_with_finger_nails_short_horvertflip_short_600ms.mp4	511.161640563304	511.77001387350583	0.6083733102018414				
325.83154296875	0.2	667303	280	39	2	0	0	90	118	stimuli\Videos_short_600ms_horflip\35.single_punch_with_hand_short_horflip_short_600ms.mp4	35.single_punch_with_hand_short_horflip_short_600ms.mp4	511.96165592943544	512.5699820269042	0.6083260974687619				
326.63134765625	0.2	668941	281	39	2	0	0	91	62	stimuli\Videos_short_600ms\66.stroke_top_to_bottom_with_sponge_short_short_600ms.mp4	66.stroke_top_to_bottom_with_sponge_short_short_600ms.mp4	512.7616193908857	513.369971294072	0.6083519031863034				
327.43115234375	0.2	670579	282	39	2	0	0	92	73	stimuli\Videos_short_600ms\76.tickle_with_fingers_from_top_to_bottom_short_short_600ms.mp4	76.tickle_with_fingers_from_top_to_bottom_short_short_600ms.mp4	513.5616259596136	514.1699488313675	0.6083228717538987				
328.2314453125	0.2	672218	283	39	2	0	0	93	98	stimuli\Videos_short_600ms_horflip\17.repeated_touch_with_rolling_pin_short_horflip_short_600ms.mp4	17.repeated_touch_with_rolling_pin_short_horflip_short_600ms.mp4	514.3616172795087	514.9699249024297	0.6083076229210747				
329.03125	0.2	673856	284	39	2	0	0	94	243	stimuli\Videos_short_600ms_horvertflip\67.single_touch_with_sponge_short_horvertflip_short_600ms.mp4	67.single_touch_with_sponge_short_horvertflip_short_600ms.mp4	515.1616085994037	515.7699080114144	0.6082994120106378				
329.8310546875	0.2	675494	285	39	2	0	0	95	299	stimuli\Videos_short_600ms_vertflip\36.single_slap_with_full_hand_short_vertflip_short_600ms.mp4	36.single_slap_with_full_hand_short_vertflip_short_600ms.mp4	515.9615920016354	516.5699049029986	0.608312901363206				
330.63134765625	0.2	677133	286	39	2	0	0	96	155	stimuli\Videos_short_600ms_horflip\69.stroke_with_soft_sock_short_horflip_short_600ms.mp4	69.stroke_with_soft_sock_short_horflip_short_600ms.mp4	516.7615894797127	517.3698821470475	0.6082926673348084	7.0	7.0	5.998469838247729	1.0
369.71337890625	0.2	757173	287	39	3	0	1	0	378	stimuli\Targets_short_600ms_vertflip\brush-stroke_short_horvertflip_short_600ms.mp4	brush-stroke_short_horvertflip_short_600ms.mp4	555.8443337535559	556.4526683551817	0.6083346016257565				
370.51318359375	0.2	758811	288	39	3	0	0	1	141	stimuli\Videos_short_600ms_horflip\56.repeated_touch_with_nail_file_short_horflip_short_600ms.mp4	56.repeated_touch_with_nail_file_short_horflip_short_600ms.mp4	556.6443197950089	557.2526461857246	0.6083263907157743				
371.3134765625	0.2	760450	289	39	3	0	0	2	335	stimuli\Videos_short_600ms_vertflip\69.stroke_with_soft_sock_short_vertflip_short_600ms.mp4	69.stroke_with_soft_sock_short_vertflip_short_600ms.mp4	557.4443078891891	558.0526671235452	0.6083592343561577				
372.11328125	0.2	762088	290	39	3	0	0	3	125	stimuli\Videos_short_600ms_horflip\41.injection_with_blunt_syringe_short_horflip_short_600ms.mp4	41.injection_with_blunt_syringe_short_horflip_short_600ms.mp4	558.2442956901227	558.8526206146043	0.6083249244816216				
372.9130859375	0.2	763726	291	39	3	0	0	4	169	stimuli\Videos_short_600ms_horflip\81.single_stroke_top_to_bottom_with_cotton_pad_short_horflip_short_600ms.mp4	81.single_stroke_top_to_bottom_with_cotton_pad_short_horflip_short_600ms.mp4	559.0442887694985	559.6526298225535	0.6083410530550282				
373.71337890625	0.2	765365	292	39	3	0	0	5	329	stimuli\Videos_short_600ms_vertflip\63.stroke_top_to_bottom_with_screwdriver_short_vertflip_short_600ms.mp4	63.stroke_top_to_bottom_with_screwdriver_short_vertflip_short_600ms.mp4	559.844275397445	560.4526243681635	0.6083489707184526				
374.51318359375	0.2	767003	293	39	3	0	0	6	68	stimuli\Videos_short_600ms\71.single_stroke_with_finger_top_to_bottom_short_short_600ms.mp4	71.single_stroke_with_finger_top_to_bottom_short_short_600ms.mp4	560.6442626118846	561.2525875363663	0.6083249244816216				
375.31298828125	0.2	768641	294	39	3	0	0	7	301	stimuli\Videos_short_600ms_vertflip\38.double_slap_with_pencil_short_vertflip_short_600ms.mp4	38.double_slap_with_pencil_short_vertflip_short_600ms.mp4	561.4442861889265	562.0525732845722	0.6082870956456645				
376.11328125	0.2	770280	295	39	3	0	0	8	251	stimuli\Videos_short_600ms_horvertflip\74.fingers_walking_from_top_to_bottom_short_horvertflip_short_600ms.mp4	74.fingers_walking_from_top_to_bottom_short_horvertflip_short_600ms.mp4	562.2442338150499	562.8525613787529	0.6083275637029146				
376.9130859375	0.2	771918	296	39	3	0	0	9	293	stimuli\Videos_short_600ms_vertflip\30.finger_pulling_back_another_finger_short_vertflip_short_600ms.mp4	30.finger_pulling_back_another_finger_short_vertflip_short_600ms.mp4	563.0442198565029	563.6525503526732	0.6083304961703107				
377.712890625	0.2	773556	297	39	3	0	0	10	348	stimuli\Videos_short_600ms_vertflip\80.stroke_with_sharp_stick_all_over_the_hand_short_vertflip_short_600ms.mp4	80.stroke_with_sharp_stick_all_over_the_hand_short_vertflip_short_600ms.mp4	563.8442141088658	564.4525575078951	0.6083433990293088				
378.51318359375	0.2	775195	298	39	3	0	0	11	258	stimuli\Videos_short_600ms_horvertflip\80.stroke_with_sharp_stick_all_over_the_hand_short_horvertflip_short_600ms.mp4	80.stroke_with_sharp_stick_all_over_the_hand_short_horvertflip_short_600ms.mp4	564.6442010300589	565.2525156909028	0.6083146608439165				
379.31298828125	0.2	776833	299	39	3	0	0	12	130	stimuli\Videos_short_600ms_horflip\46.scratching_top_to_bottom_with_finger_nails_short_horflip_short_600ms.mp4	46.scratching_top_to_bottom_with_finger_nails_short_horflip_short_600ms.mp4	565.4441891242391	566.0525052513171	0.6083161270780693				
380.11279296875	0.2	778471	300	39	3	0	0	13	231	stimuli\Videos_short_600ms_horvertflip\56.repeated_touch_with_nail_file_short_horvertflip_short_600ms.mp4	56.repeated_touch_with_nail_file_short_horvertflip_short_600ms.mp4	566.2441851360827	566.8524792696512	0.6082941335685064				
380.9130859375	0.2	780110	301	39	3	0	0	14	72	stimuli\Videos_short_600ms\75.(long)stroke_with_fingers_all_over_the_hand_short_short_600ms.mp4	75.(long)stroke_with_fingers_all_over_the_hand_short_short_600ms.mp4	567.0441653126	567.6524632583769	0.6082979457769397				
381.712890625	0.2	781748	302	39	3	0	0	15	150	stimuli\Videos_short_600ms_horflip\64.repeated_touch_with_screwdriver_short_horflip_short_600ms.mp4	64.repeated_touch_with_screwdriver_short_horflip_short_600ms.mp4	567.8441240821012	568.4524504728165	0.6083263907153196				
382.52099609375	0.2	783403	303	39	3	0	0	16	95	stimuli\Videos_short_600ms_horflip\14.repeated_touch_with_pencil_short_horflip_short_600ms.mp4	14.repeated_touch_with_pencil_short_horflip_short_600ms.mp4	568.6524667773383	569.2607940477942	0.6083272704559022				
383.3212890625	0.2	785042	304	39	3	0	0	17	263	stimuli\Videos_short_600ms_horvertflip\85.touch_top_to_bottom_with_fabric_short_horvertflip_short_600ms.mp4	85.touch_top_to_bottom_with_fabric_short_horvertflip_short_600ms.mp4	569.4524622026884	570.060783021715	0.6083208190266305				
384.12109375	0.2	786680	305	39	3	0	0	18	322	stimuli\Videos_short_600ms_vertflip\57.single_touch_with_nail_file_short_vertflip_short_600ms.mp4	57.single_touch_with_nail_file_short_vertflip_short_600ms.mp4	570.2524978028487	570.8607687699209	0.6082709670722579				
384.9208984375	0.2	788318	306	39	3	0	0	19	139	stimuli\Videos_short_600ms_horflip\54.repeated_touch_with_knife_short_horflip_short_600ms.mp4	54.repeated_touch_with_knife_short_horflip_short_600ms.mp4	571.0524419100102	571.6607562776076	0.6083143675973588				
385.72119140625	0.2	789957	307	39	3	0	0	20	205	stimuli\Videos_short_600ms_horvertflip\32.single_(long)pinch_with_fingers_short_horvertflip_short_600ms.mp4	32.single_(long)pinch_with_fingers_short_horvertflip_short_600ms.mp4	571.852435282633	572.460750823217	0.6083155405840444				
386.52099609375	0.2	791595	308	39	3	0	0	21	149	stimuli\Videos_short_600ms_horflip\63.stroke_top_to_bottom_with_screwdriver_short_horflip_short_600ms.mp4	63.stroke_top_to_bottom_with_screwdriver_short_horflip_short_600ms.mp4	572.6524154591498	573.2607565122048	0.6083410530550282				
387.3212890625	0.2	793234	309	39	3	0	0	22	33	stimuli\Videos_short_600ms\4.repeated_tap_with_finger_slow_short_short_600ms.mp4	4.repeated_tap_with_finger_slow_short_short_600ms.mp4	573.4524006208621	574.0607223196293	0.6083216987672131				
388.12109375	0.2	794872	310	39	3	0	1	23	366	stimuli\Targets_short_600ms_horflip\brush-stroke_short_horflip_short_600ms.mp4	brush-stroke_short_horflip_short_600ms.mp4	574.2523617363377	574.860709534069	0.6083477977313123				
388.9208984375	0.2	796510	311	39	3	0	0	24	244	stimuli\Videos_short_600ms_horvertflip\68.stroke_top_to_bottom_with_shawl_short_horvertflip_short_600ms.mp4	68.stroke_top_to_bottom_with_shawl_short_horvertflip_short_600ms.mp4	575.0523779822101	575.6606982147432	0.6083202325330603				
389.72119140625	0.2	798149	312	39	3	0	0	25	133	stimuli\Videos_short_600ms_horflip\49.repeated_slap_with_hand_short_horflip_short_600ms.mp4	49.repeated_slap_with_hand_short_horflip_short_600ms.mp4	575.8523654898968	576.4607074226924	0.6083419327956108				
390.52099609375	0.2	799787	313	39	3	0	0	26	262	stimuli\Videos_short_600ms_horvertflip\84.single_touch_with_cotton_bud_short_horvertflip_short_600ms.mp4	84.single_touch_with_cotton_bud_short_horvertflip_short_600ms.mp4	576.6523541705706	577.260703141289	0.6083489707184526				
391.32080078125	0.2	801425	314	39	3	0	0	27	227	stimuli\Videos_short_600ms_horvertflip\52.touch_top_to_bottom_with_hammer_short_horvertflip_short_600ms.mp4	52.touch_top_to_bottom_with_hammer_short_horvertflip_short_600ms.mp4	577.4523393322829	578.0606812650785	0.6083419327956108				
392.12109375	0.2	803064	315	39	3	0	0	28	132	stimuli\Videos_short_600ms_horflip\48.single_slap_with_hand_short_horflip_short_600ms.mp4	48.single_slap_with_hand_short_horflip_short_600ms.mp4	578.2523297724379	578.8606699457523	0.6083401733144456				
392.9208984375	0.2	804702	316	39	3	0	0	29	238	stimuli\Videos_short_600ms_horvertflip\62.touch_top_to_bottom_with_scissors_short_horvertflip_short_600ms.mp4	62.touch_top_to_bottom_with_scissors_short_horvertflip_short_600ms.mp4	579.0523166936309	579.6605894201839	0.6082727265529684				
393.720703125	0.2	806340	317	39	3	0	1	30	361	stimuli\Targets_short_600ms\chopstick-silver-tap_short_short_600ms.mp4	chopstick-silver-tap_short_short_600ms.mp4	579.8522924714462	580.4606358704755	0.6083433990293088				
394.52099609375	0.2	807979	318	39	3	0	0	31	202	stimuli\Videos_short_600ms_horvertflip\3.single_push_with_finger_short_horvertflip_short_600ms.mp4	3.single_push_with_finger_short_horvertflip_short_600ms.mp4	580.6522940549785	581.2606119415373	0.6083178865587797				
395.32080078125	0.2	809617	319	39	3	0	0	32	268	stimuli\Videos_short_600ms_horvertflip\9.single_touch_with_hammer_short_horvertflip_short_600ms.mp4	9.single_touch_with_hammer_short_horvertflip_short_600ms.mp4	581.4522798031849	582.0605988627303	0.6083190595454653				
396.12060546875	0.2	811255	320	39	3	0	0	33	326	stimuli\Videos_short_600ms_vertflip\60.single_push_with_tip_of_pencil_short_vertflip_short_600ms.mp4	60.single_push_with_tip_of_pencil_short_vertflip_short_600ms.mp4	582.2522725893136	582.8605884231447	0.6083158338310568				
396.9208984375	0.2	812894	321	39	3	0	0	34	242	stimuli\Videos_short_600ms_horvertflip\66.stroke_top_to_bottom_with_sponge_short_horvertflip_short_600ms.mp4	66.stroke_top_to_bottom_with_sponge_short_horvertflip_short_600ms.mp4	583.0522797445351	583.6605753443378	0.6082955998026591				
397.720703125	0.2	814532	322	39	3	0	0	35	80	stimuli\Videos_short_600ms\82.repeated_touch_with_cotton_bud_short_short_600ms.mp4	82.repeated_touch_with_cotton_bud_short_short_600ms.mp4	583.8522599210523	584.460584552287	0.6083246312346091				
398.5205078125	0.2	816170	323	39	3	0	0	36	340	stimuli\Videos_short_600ms_vertflip\73.single_stroke_with_flat_hand_short_vertflip_short_600ms.mp4	73.single_stroke_with_flat_hand_short_vertflip_short_600ms.mp4	584.6522298339314	585.2605518259452	0.6083219920137708				
399.32080078125	0.2	817809	324	39	3	0	0	37	43	stimuli\Videos_short_600ms\49.repeated_slap_with_hand_short_short_600ms.mp4	49.repeated_slap_with_hand_short_short_600ms.mp4	585.4522193943458	586.0605463715551	0.6083269772093445				
400.12060546875	0.2	819447	325	39	3	0	1	38	383	stimuli\Targets_short_600ms_vertflip\hand-stroke_short_horvertflip_short_600ms.mp4	hand-stroke_short_horvertflip_short_600ms.mp4	586.2522098345003	586.8605283075526	0.6083184730523499				
400.92041015625	0.2	821085	326	39	3	0	0	39	228	stimuli\Videos_short_600ms_horvertflip\53.touch_top_to_bottom_with_knife_short_horvertflip_short_600ms.mp4	53.touch_top_to_bottom_with_knife_short_horvertflip_short_600ms.mp4	587.0522061395909	587.6604941149772	0.6082879753862471				
401.720703125	0.2	822724	327	39	3	0	0	40	6	stimuli\Videos_short_600ms\15.single_stroke_top_to_bottom_with_a_plastic_whisk_short_short_600ms.mp4	15.single_stroke_top_to_bottom_with_a_plastic_whisk_short_short_600ms.mp4	587.8521854363676	588.4605030296793	0.6083175933117673				
402.5205078125	0.2	824362	328	39	3	0	0	41	282	stimuli\Videos_short_600ms_vertflip\20.single_touch_with_screwdriver_short_vertflip_short_600ms.mp4	20.single_touch_with_screwdriver_short_vertflip_short_600ms.mp4	588.6521773427562	589.2604700100906	0.6082926673343536				
403.3203125	0.2	826000	329	39	3	0	0	42	152	stimuli\Videos_short_600ms_horflip\66.stroke_top_to_bottom_with_sponge_short_horflip_short_600ms.mp4	66.stroke_top_to_bottom_with_sponge_short_horflip_short_600ms.mp4	589.4521583990136	590.060481857261	0.6083234582474688				
404.12060546875	0.2	827639	330	39	3	0	0	43	353	stimuli\Videos_short_600ms_vertflip\85.touch_top_to_bottom_with_fabric_short_vertflip_short_600ms.mp4	85.touch_top_to_bottom_with_fabric_short_vertflip_short_600ms.mp4	590.2521488391681	590.8604937044315	0.6083448652634615				
404.92041015625	0.2	829277	331	39	3	0	0	44	294	stimuli\Videos_short_600ms_vertflip\31.hand_grabbing_wrist_short_vertflip_short_600ms.mp4	31.hand_grabbing_wrist_short_vertflip_short_600ms.mp4	591.0521366401017	591.660467136272	0.6083304961703107				
405.72021484375	0.2	830915	332	39	3	0	0	45	347	stimuli\Videos_short_600ms_vertflip\8.single_touch_with_hairbrush_short_vertflip_short_600ms.mp4	8.single_touch_with_hairbrush_short_vertflip_short_600ms.mp4	591.8521226815542	592.4604432073343	0.6083205257800728				
406.5205078125	0.2	832554	333	39	3	0	0	46	317	stimuli\Videos_short_600ms_vertflip\52.touch_top_to_bottom_with_hammer_short_vertflip_short_600ms.mp4	52.touch_top_to_bottom_with_hammer_short_vertflip_short_600ms.mp4	592.652111948722	593.2604336474888	0.6083216987667583				
407.3203125	0.2	834192	334	39	3	0	0	47	290	stimuli\Videos_short_600ms_vertflip\28.single_injection_with_sharp_needle_short_vertflip_short_600ms.mp4	28.single_injection_with_sharp_needle_short_vertflip_short_600ms.mp4	593.4520997496552	594.0604185159546	0.6083187662993623				
408.12060546875	0.2	835831	335	39	3	0	0	48	265	stimuli\Videos_short_600ms_horvertflip\87.single_stroke_top_to_bottom_with_plastic_brush_short_horvertflip_short_600ms.mp4	87.single_stroke_top_to_bottom_with_plastic_brush_short_horvertflip_short_600ms.mp4	594.2520857911081	594.8604077831219	0.6083219920137708				
408.92041015625	0.2	837469	336	39	3	0	0	49	145	stimuli\Videos_short_600ms_horflip\6.single_touch_with_flat_hand_short_horflip_short_600ms.mp4	6.single_touch_with_flat_hand_short_horflip_short_600ms.mp4	595.0520738852883	595.660394704315	0.6083208190266305				
409.72021484375	0.2	839107	337	39	3	0	0	50	87	stimuli\Videos_short_600ms\89.single_touch_with_plastic_brush_short_short_600ms.mp4	89.single_touch_with_plastic_brush_short_short_600ms.mp4	595.8520625659626	596.4603827984952	0.6083202325326056				
410.5205078125	0.2	840746	338	39	3	0	0	51	69	stimuli\Videos_short_600ms\72.(short)stroke_with_finger_all_over_the_hand_short_short_600ms.mp4	72.(short)stroke_with_finger_all_over_the_hand_short_short_600ms.mp4	596.6520509533893	597.2603714791694	0.6083205257800728				
411.3203125	0.2	842384	339	39	3	0	0	52	136	stimuli\Videos_short_600ms_horflip\51.repeated_touch_with_hammer_short_horflip_short_600ms.mp4	51.repeated_touch_with_hammer_short_horflip_short_600ms.mp4	597.4520355286081	598.0603595733496	0.6083240447414937				
412.1201171875	0.2	844022	340	39	3	0	0	53	71	stimuli\Videos_short_600ms\74.fingers_walking_from_top_to_bottom_short_short_600ms.mp4	74.fingers_walking_from_top_to_bottom_short_short_600ms.mp4	598.252029780971	598.8603494270105	0.6083196460394902				
412.92041015625	0.2	845661	341	39	3	0	0	54	309	stimuli\Videos_short_600ms_vertflip\45.scratching_with_finger_nails_short_vertflip_short_600ms.mp4	45.scratching_with_finger_nails_short_vertflip_short_600ms.mp4	599.052019927879	599.6603557024919	0.6083357746128968				
413.72021484375	0.2	847299	342	39	3	0	0	55	38	stimuli\Videos_short_600ms\44.pushing_top_to_bottom_with_finger_short_short_600ms.mp4	44.pushing_top_to_bottom_with_finger_short_short_600ms.mp4	599.8519786973802	600.4603220964095	0.6083433990293088				
414.52001953125	0.2	848937	343	39	3	0	0	56	10	stimuli\Videos_short_600ms\19.single_touch_with_rolling_pin_short_short_600ms.mp4	19.single_touch_with_rolling_pin_short_short_600ms.mp4	600.6519902513037	601.2603113635773	0.6083211122736429				
415.3203125	0.2	850576	344	39	3	0	1	57	368	stimuli\Targets_short_600ms_horflip\chopstickwood-tap_short_horflip_short_600ms.mp4	chopstickwood-tap_short_horflip_short_600ms.mp4	601.4519853834072	602.0603038564595	0.6083184730523499				
416.1201171875	0.2	852214	345	39	3	0	0	58	215	stimuli\Videos_short_600ms_horvertflip\41.injection_with_blunt_syringe_short_horvertflip_short_600ms.mp4	41.injection_with_blunt_syringe_short_horvertflip_short_600ms.mp4	602.2519746505745	602.8602937101205	0.60831905954592				
416.919921875	0.2	853852	346	39	3	0	0	59	162	stimuli\Videos_short_600ms_horflip\75.(long)stroke_with_fingers_all_over_the_hand_short_horflip_short_600ms.mp4	75.(long)stroke_with_fingers_all_over_the_hand_short_horflip_short_600ms.mp4	603.051952481117	603.6602521863747	0.6082997052576502				
417.72021484375	0.2	855491	347	39	3	0	1	60	372	stimuli\Targets_short_600ms_horvertflip\brush-stroke_short_vertflip_short_600ms.mp4	brush-stroke_short_vertflip_short_600ms.mp4	603.8519520119225	604.4602399873083	0.6082879753857924				
418.52001953125	0.2	857129	348	39	3	0	0	61	78	stimuli\Videos_short_600ms\80.stroke_with_sharp_stick_all_over_the_hand_short_short_600ms.mp4	80.stroke_with_sharp_stick_all_over_the_hand_short_short_600ms.mp4	604.6519292559715	605.2602506614917	0.6083214055202006				
419.31982421875	0.2	858767	349	39	3	0	0	62	123	stimuli\Videos_short_600ms_horflip\4.repeated_tap_with_finger_slow_short_horflip_short_600ms.mp4	4.repeated_tap_with_finger_slow_short_horflip_short_600ms.mp4	605.4519164704116	606.0602387556719	0.6083222852603285				
420.1201171875	0.2	860406	350	39	3	0	1	63	369	stimuli\Targets_short_600ms_horflip\finger-tap_short_horflip_short_600ms.mp4	finger-tap_short_horflip_short_600ms.mp4	606.2519077903066	606.8602268498521	0.6083190595454653				
420.919921875	0.2	862044	351	39	3	0	0	64	179	stimuli\Videos_short_600ms_horflip\90.repeated_touch_with_sponge_short_horflip_short_600ms.mp4	90.repeated_touch_with_sponge_short_horflip_short_600ms.mp4	607.051892658772	607.6602219819556	0.6083293231836251				
421.7197265625	0.2	863682	352	39	3	0	0	65	267	stimuli\Videos_short_600ms_horvertflip\89.single_touch_with_plastic_brush_short_horvertflip_short_600ms.mp4	89.single_touch_with_plastic_brush_short_horvertflip_short_600ms.mp4	607.8518804597056	608.4602009854852	0.608320525779618				
422.52001953125	0.2	865321	353	39	3	0	0	66	325	stimuli\Videos_short_600ms_vertflip\6.single_touch_with_flat_hand_short_vertflip_short_600ms.mp4	6.single_touch_with_flat_hand_short_vertflip_short_600ms.mp4	608.6518691403794	609.2601887864189	0.6083196460394902				
423.31982421875	0.2	866959	354	39	3	0	0	67	343	stimuli\Videos_short_600ms_vertflip\76.tickle_with_fingers_from_top_to_bottom_short_vertflip_short_600ms.mp4	76.tickle_with_fingers_from_top_to_bottom_short_vertflip_short_600ms.mp4	609.451856648066	610.0601768805991	0.6083202325330603				
424.11962890625	0.2	868597	355	39	3	0	0	68	208	stimuli\Videos_short_600ms_horvertflip\35.single_punch_with_hand_short_horvertflip_short_600ms.mp4	35.single_punch_with_hand_short_horvertflip_short_600ms.mp4	610.2518485544547	610.8601649747793	0.608316420324627				
424.919921875	0.2	870236	356	39	3	0	0	69	138	stimuli\Videos_short_600ms_horflip\53.touch_top_to_bottom_with_knife_short_horflip_short_600ms.mp4	53.touch_top_to_bottom_with_knife_short_horflip_short_600ms.mp4	611.0518073239559	611.6601510162322	0.6083436922763212				
425.7197265625	0.2	871874	357	39	3	0	0	70	50	stimuli\Videos_short_600ms\55.touch_top_to_bottom_with_nail_file_short_short_600ms.mp4	55.touch_top_to_bottom_with_nail_file_short_short_600ms.mp4	611.8518221035943	612.460139696906	0.6083175933117673				
426.52001953125	0.2	873513	358	39	3	0	0	71	35	stimuli\Videos_short_600ms\41.injection_with_blunt_syringe_short_short_600ms.mp4	41.injection_with_blunt_syringe_short_short_600ms.mp4	612.6518081450472	613.2601280843332	0.6083199392860479				
427.31982421875	0.2	875151	359	39	3	0	0	72	26	stimuli\Videos_short_600ms\33.scratch_top_to_bottom_with_scissors_short_short_600ms.mp4	33.scratch_top_to_bottom_with_scissors_short_short_600ms.mp4	613.4517733659777	614.0601144190327	0.6083410530550282				
428.11962890625	0.2	876789	360	39	3	0	0	73	355	stimuli\Videos_short_600ms_vertflip\87.single_stroke_top_to_bottom_with_plastic_brush_short_vertflip_short_600ms.mp4	87.single_stroke_top_to_bottom_with_plastic_brush_short_vertflip_short_600ms.mp4	614.2517849199012	614.8601033929535	0.6083184730523499				
428.919921875	0.2	878428	361	39	3	0	0	74	302	stimuli\Videos_short_600ms_vertflip\39.single_stab_with_scissors_short_vertflip_short_600ms.mp4	39.single_stab_with_scissors_short_vertflip_short_600ms.mp4	615.051778292524	615.6600929533679	0.6083146608439165				
429.7197265625	0.2	880066	362	39	3	0	0	75	115	stimuli\Videos_short_600ms_horflip\32.single_(long)pinch_with_fingers_short_horflip_short_600ms.mp4	32.single_(long)pinch_with_fingers_short_horflip_short_600ms.mp4	615.8517561230665	616.460079581314	0.6083234582474688				
430.51953125	0.2	881704	363	39	3	0	0	76	190	stimuli\Videos_short_600ms_horvertflip\19.single_touch_with_rolling_pin_short_horvertflip_short_600ms.mp4	19.single_touch_with_rolling_pin_short_horvertflip_short_600ms.mp4	616.6517776473806	617.2600612240649	0.6082835766842436				
431.31982421875	0.2	883343	364	39	3	0	0	77	346	stimuli\Videos_short_600ms_vertflip\79.long_with_soft_brush_all_over_the_hand_short_vertflip_short_600ms.mp4	79.long_with_soft_brush_all_over_the_hand_short_vertflip_short_600ms.mp4	617.4517431615582	618.060061048117	0.6083178865587797				
432.11962890625	0.2	884981	365	39	3	0	1	78	364	stimuli\Targets_short_600ms\hand-pinch_short_short_600ms.mp4	hand-pinch_short_short_600ms.mp4	618.2517242178155	618.8600435706085	0.6083193527929325				
432.91943359375	0.2	886619	366	39	3	0	0	79	292	stimuli\Videos_short_600ms_vertflip\3.single_push_with_finger_short_vertflip_short_600ms.mp4	3.single_push_with_finger_short_vertflip_short_600ms.mp4	619.0517214026463	619.6600389959585	0.608317593312222				
433.7197265625	0.2	888258	367	39	3	0	0	80	14	stimuli\Videos_short_600ms\22.single_touch_with_metal_chopstick_short_short_600ms.mp4	22.single_touch_with_metal_chopstick_short_short_600ms.mp4	619.8516998196828	620.4600394065037	0.6083395868208754				
434.51953125	0.2	889896	368	39	3	0	0	81	1	stimuli\Videos_short_600ms\10.single_touch_with_knife_short_short_600ms.mp4	10.single_touch_with_knife_short_short_600ms.mp4	620.6516867408759	621.2600075599025	0.6083208190266305				
435.3193359375	0.2	891534	369	39	3	0	0	82	135	stimuli\Videos_short_600ms_horflip\50.single_(long)hard_push_with_thumb_short_horflip_short_600ms.mp4	50.single_(long)hard_push_with_thumb_short_horflip_short_600ms.mp4	621.451673662069	622.0599977068105	0.6083240447414937				
436.11962890625	0.2	893173	370	39	3	0	1	83	370	stimuli\Targets_short_600ms_horflip\hand-pinch_short_horflip_short_600ms.mp4	hand-pinch_short_horflip_short_600ms.mp4	622.2516992918386	622.8599940119007	0.6082947200620765				
436.91943359375	0.2	894811	371	39	3	0	0	84	315	stimuli\Videos_short_600ms_vertflip\50.single_(long)hard_push_with_thumb_short_vertflip_short_600ms.mp4	50.single_(long)hard_push_with_thumb_short_vertflip_short_600ms.mp4	623.0516513166635	623.6599697897159	0.6083184730523499				
437.71923828125	0.2	896449	372	39	3	0	0	85	166	stimuli\Videos_short_600ms_horflip\79.long_with_soft_brush_all_over_the_hand_short_horflip_short_600ms.mp4	79.long_with_soft_brush_all_over_the_hand_short_horflip_short_600ms.mp4	623.8516382378566	624.4599910207835	0.608352782926886				
438.51953125	0.2	898088	373	39	3	0	0	86	331	stimuli\Videos_short_600ms_vertflip\65.stroke_top_to_bottom_with_stanley_knife_short_vertflip_short_600ms.mp4	65.stroke_top_to_bottom_with_stanley_knife_short_vertflip_short_600ms.mp4	624.6516251590497	625.2599459780763	0.6083208190266305				
439.3193359375	0.2	899726	374	39	3	0	0	87	140	stimuli\Videos_short_600ms_horflip\55.touch_top_to_bottom_with_nail_file_short_horflip_short_600ms.mp4	55.touch_top_to_bottom_with_nail_file_short_horflip_short_600ms.mp4	625.4516155992046	626.05993377901	0.6083181798053374				
440.119140625	0.2	901364	375	39	3	0	0	88	188	stimuli\Videos_short_600ms_horvertflip\17.repeated_touch_with_rolling_pin_short_horvertflip_short_600ms.mp4	17.repeated_touch_with_rolling_pin_short_horvertflip_short_600ms.mp4	626.2516028136442	626.8599224596837	0.6083196460394902				
