onset	duration	onsetsample	eventnumber	subjectnr	sequencenumber	blocksequencenumber	istarget	presentationnumber	stimnumber	stim	stimname	time_stimon	time_stimoff	stimdur	cresp	resp	rt	correct
21.95556640625	0.2	44965	0	36	0	0	0	0	12	stimuli\Videos_short_600ms\20.single_touch_with_screwdriver_short_short_600ms.mp4	20.single_touch_with_screwdriver_short_short_600ms.mp4	129.44072270834113	130.05229116772216	0.6115684593810329	n/a	n/a	n/a	n/a
22.75537109375	0.2	46603	1	36	0	0	0	1	201	stimuli\Videos_short_600ms_horvertflip\29.single_pinch_with_tweezers_short_horvertflip_short_600ms.mp4	29.single_pinch_with_tweezers_short_horvertflip_short_600ms.mp4	130.24395614578634	130.8522739835612	0.6083178377748482	n/a	n/a	n/a	n/a
23.5556640625	0.2	48242	2	36	0	0	0	2	90	stimuli\Videos_short_600ms_horflip\1.repeated_touch_with_finger_fast_short_horflip_short_600ms.mp4	1.repeated_touch_with_finger_fast_short_horflip_short_600ms.mp4	131.04393514943922	131.65225797238054	0.608322822941318	n/a	n/a	n/a	n/a
24.35546875	0.2	49880	3	36	0	0	0	3	169	stimuli\Videos_short_600ms_horflip\81.single_stroke_top_to_bottom_with_cotton_pad_short_horflip_short_600ms.mp4	81.single_stroke_top_to_bottom_with_cotton_pad_short_horflip_short_600ms.mp4	131.84391913825812	132.452239908484	0.6083207702258733	n/a	n/a	n/a	n/a
25.1552734375	0.2	51518	4	36	0	0	0	4	153	stimuli\Videos_short_600ms_horflip\67.single_touch_with_sponge_short_horflip_short_600ms.mp4	67.single_touch_with_sponge_short_horflip_short_600ms.mp4	132.64390342032266	133.25222243107785	0.6083190107551673	n/a	n/a	n/a	n/a
25.95556640625	0.2	53157	5	36	0	0	0	5	319	stimuli\Videos_short_600ms_vertflip\54.repeated_touch_with_knife_short_vertflip_short_600ms.mp4	54.repeated_touch_with_knife_short_vertflip_short_600ms.mp4	133.44388682265162	134.0522067131419	0.6083198904902929	n/a	n/a	n/a	n/a
26.75537109375	0.2	54795	6	36	0	0	0	6	54	stimuli\Videos_short_600ms\59.single_push_with_long_side_pencil_short_short_600ms.mp4	59.single_push_with_long_side_pencil_short_short_600ms.mp4	134.24386377358906	134.85218982222614	0.6083260486370818	n/a	n/a	n/a	n/a
27.55517578125	0.2	56433	7	36	0	0	0	7	313	stimuli\Videos_short_600ms_vertflip\49.repeated_slap_with_hand_short_vertflip_short_600ms.mp4	49.repeated_slap_with_hand_short_vertflip_short_600ms.mp4	135.04388617751238	135.65217117183963	0.6082849943272777	n/a	n/a	n/a	n/a
28.35546875	0.2	58072	8	36	0	0	0	8	336	stimuli\Videos_short_600ms_vertflip\7.repeated_touch_with_hairbrush_short_vertflip_short_600ms.mp4	7.repeated_touch_with_hairbrush_short_vertflip_short_600ms.mp4	135.8438167957288	136.4521583863543	0.6083415906255141	n/a	n/a	n/a	n/a
29.1552734375	0.2	59710	9	36	0	0	0	9	193	stimuli\Videos_short_600ms_horvertflip\21.repeated_touch_with_metal_chopstick_short_horvertflip_short_600ms.mp4	21.repeated_touch_with_metal_chopstick_short_horvertflip_short_600ms.mp4	136.64379726560674	137.2521391494779	0.6083418838711623	n/a	n/a	n/a	n/a
29.955078125	0.2	61348	10	36	0	0	0	10	292	stimuli\Videos_short_600ms_vertflip\3.single_push_with_finger_short_vertflip_short_600ms.mp4	3.single_push_with_finger_short_vertflip_short_600ms.mp4	137.44377920171064	138.05212225856167	0.6083430568510266	n/a	n/a	n/a	n/a
30.75537109375	0.2	62987	11	36	0	0	0	11	349	stimuli\Videos_short_600ms_vertflip\81.single_stroke_top_to_bottom_with_cotton_pad_short_vertflip_short_600ms.mp4	81.single_stroke_top_to_bottom_with_cotton_pad_short_vertflip_short_600ms.mp4	138.2437772662929	138.85210566089063	0.60832839459772	n/a	n/a	n/a	n/a
31.55517578125	0.2	64625	12	36	0	0	0	12	136	stimuli\Videos_short_600ms_horflip\51.repeated_touch_with_hammer_short_horflip_short_600ms.mp4	51.repeated_touch_with_hammer_short_horflip_short_600ms.mp4	139.04377562412083	139.65208583752383	0.6083102134030014	n/a	n/a	n/a	n/a
32.35498046875	0.2	66263	13	36	0	0	0	13	65	stimuli\Videos_short_600ms\69.stroke_with_soft_sock_short_short_600ms.mp4	69.stroke_with_soft_sock_short_short_600ms.mp4	139.84375580075402	140.4520704128331	0.6083146120790843	n/a	n/a	n/a	n/a
33.1552734375	0.2	67902	14	36	0	0	0	14	162	stimuli\Videos_short_600ms_horflip\75.(long)stroke_with_fingers_all_over_the_hand_short_horflip_short_600ms.mp4	75.(long)stroke_with_fingers_all_over_the_hand_short_horflip_short_600ms.mp4	140.64373421791697	141.25202976906667	0.6082955511496948	n/a	n/a	n/a	n/a
33.955078125	0.2	69540	15	36	0	0	0	15	243	stimuli\Videos_short_600ms_horvertflip\67.single_touch_with_sponge_short_horvertflip_short_600ms.mp4	67.single_touch_with_sponge_short_horvertflip_short_600ms.mp4	141.44371674051035	142.0520372174915	0.6083204769811346	n/a	n/a	n/a	n/a
34.7548828125	0.2	71178	16	36	0	0	0	16	61	stimuli\Videos_short_600ms\65.stroke_top_to_bottom_with_stanley_knife_short_short_600ms.mp4	65.stroke_top_to_bottom_with_stanley_knife_short_short_600ms.mp4	142.24371480509308	142.8520182738598	0.608303468766735	n/a	n/a	n/a	n/a
35.55517578125	0.2	72817	17	36	0	0	0	17	248	stimuli\Videos_short_600ms_horvertflip\71.single_stroke_with_finger_top_to_bottom_short_horvertflip_short_600ms.mp4	71.single_stroke_with_finger_top_to_bottom_short_horvertflip_short_600ms.mp4	143.04368941006987	143.65200167618875	0.6083122661189009	n/a	n/a	n/a	n/a
36.35498046875	0.2	74455	18	36	0	0	0	18	287	stimuli\Videos_short_600ms_vertflip\25.single_touch_with_stanley_knife_short_vertflip_short_600ms.mp4	25.single_touch_with_stanley_knife_short_vertflip_short_600ms.mp4	143.84366958670307	144.45199182315446	0.6083222364513858	n/a	n/a	n/a	n/a
37.15478515625	0.2	76093	19	36	0	0	0	19	348	stimuli\Videos_short_600ms_vertflip\80.stroke_with_sharp_stick_all_over_the_hand_short_vertflip_short_600ms.mp4	80.stroke_with_sharp_stick_all_over_the_hand_short_vertflip_short_600ms.mp4	144.6436521092969	145.2519740525031	0.6083219432061924	n/a	n/a	n/a	n/a
37.955078125	0.2	77732	20	36	0	0	1	20	363	stimuli\Targets_short_600ms\finger-tap_short_short_600ms.mp4	finger-tap_short_short_600ms.mp4	145.44363609811626	146.05195774807726	0.6083216499609989	n/a	n/a	n/a	n/a
38.7548828125	0.2	79370	21	36	0	0	0	21	150	stimuli\Videos_short_600ms_horflip\64.repeated_touch_with_screwdriver_short_horflip_short_600ms.mp4	64.repeated_touch_with_screwdriver_short_horflip_short_600ms.mp4	146.24361744772978	146.85195229371902	0.6083348459892477	n/a	n/a	n/a	n/a
39.55517578125	0.2	81009	22	36	0	0	0	22	50	stimuli\Videos_short_600ms\55.touch_top_to_bottom_with_nail_file_short_short_600ms.mp4	55.touch_top_to_bottom_with_nail_file_short_short_600ms.mp4	147.04360231628425	147.65192191352935	0.6083195972450994	n/a	n/a	n/a	n/a
40.35498046875	0.2	82647	23	36	0	0	0	23	23	stimuli\Videos_short_600ms\30.finger_pulling_back_another_finger_short_short_600ms.mp4	30.finger_pulling_back_another_finger_short_short_600ms.mp4	147.84358630510314	148.45190678208382	0.6083204769806798	n/a	n/a	n/a	n/a
41.15478515625	0.2	84285	24	36	0	0	0	24	310	stimuli\Videos_short_600ms_vertflip\46.scratching_top_to_bottom_with_finger_nails_short_vertflip_short_600ms.mp4	46.scratching_top_to_bottom_with_finger_nails_short_vertflip_short_600ms.mp4	148.64356765471666	149.2518901844128	0.6083225296961245	n/a	n/a	n/a	n/a
41.955078125	0.2	85924	25	36	0	0	0	25	211	stimuli\Videos_short_600ms_horvertflip\38.double_slap_with_pencil_short_horvertflip_short_600ms.mp4	38.double_slap_with_pencil_short_horvertflip_short_600ms.mp4	149.4435595611526	150.05187475972207	0.6083151985694712	n/a	n/a	n/a	n/a
42.7548828125	0.2	87562	26	36	0	0	0	26	94	stimuli\Videos_short_600ms_horflip\13.single_touch_with_pen_short_horflip_short_600ms.mp4	13.single_touch_with_pen_short_horflip_short_600ms.mp4	150.24433883060328	150.85186109450206	0.6075222638987725	n/a	n/a	n/a	n/a
43.5546875	0.2	89200	27	36	0	0	0	27	273	stimuli\Videos_short_600ms_vertflip\12.repeated_touch_with_nail_file_short_vertflip_short_600ms.mp4	12.repeated_touch_with_nail_file_short_vertflip_short_600ms.mp4	151.04354659972068	151.6518392184198	0.6082926186991244	n/a	n/a	n/a	n/a
44.35498046875	0.2	90839	28	36	0	0	0	28	284	stimuli\Videos_short_600ms_vertflip\22.single_touch_with_metal_chopstick_short_vertflip_short_600ms.mp4	22.single_touch_with_metal_chopstick_short_vertflip_short_600ms.mp4	151.84372970194272	152.45182144776845	0.6080917458257318	n/a	n/a	n/a	n/a
45.15478515625	0.2	92477	29	36	0	0	0	29	231	stimuli\Videos_short_600ms_horvertflip\56.repeated_touch_with_nail_file_short_horvertflip_short_600ms.mp4	56.repeated_touch_with_nail_file_short_horvertflip_short_600ms.mp4	152.64349082450826	153.25180690281286	0.6083160783045969	n/a	n/a	n/a	n/a
45.95458984375	0.2	94115	30	36	0	0	0	30	339	stimuli\Videos_short_600ms_vertflip\72.(short)stroke_with_finger_all_over_the_hand_short_vertflip_short_600ms.mp4	72.(short)stroke_with_finger_all_over_the_hand_short_vertflip_short_600ms.mp4	153.4437662989276	154.05178883891676	0.6080225399891788	n/a	n/a	n/a	n/a
46.7548828125	0.2	95754	31	36	0	0	0	31	102	stimuli\Videos_short_600ms_horflip\20.single_touch_with_screwdriver_short_horflip_short_600ms.mp4	20.single_touch_with_screwdriver_short_horflip_short_600ms.mp4	154.24345440347042	154.85176344389356	0.608309040423137	n/a	n/a	n/a	n/a
47.5546875	0.2	97392	32	36	0	0	0	32	197	stimuli\Videos_short_600ms_horvertflip\25.single_touch_with_stanley_knife_short_horvertflip_short_600ms.mp4	25.single_touch_with_stanley_knife_short_horvertflip_short_600ms.mp4	155.0434134664588	155.6517509516534	0.6083374851946246	n/a	n/a	n/a	n/a
48.3544921875	0.2	99030	33	36	0	0	0	33	226	stimuli\Videos_short_600ms_horvertflip\51.repeated_touch_with_hammer_short_horvertflip_short_600ms.mp4	51.repeated_touch_with_hammer_short_horvertflip_short_600ms.mp4	155.84342795276507	156.4517408053739	0.608312852608833	n/a	n/a	n/a	n/a
49.15478515625	0.2	100669	34	36	0	0	0	34	55	stimuli\Videos_short_600ms\6.single_touch_with_flat_hand_short_short_600ms.mp4	6.single_touch_with_flat_hand_short_short_600ms.mp4	156.64340197125193	157.25172332796774	0.6083213567158055	n/a	n/a	n/a	n/a
49.95458984375	0.2	102307	35	36	0	0	1	35	369	stimuli\Targets_short_600ms_horflip\finger-tap_short_horflip_short_600ms.mp4	finger-tap_short_horflip_short_600ms.mp4	157.4433865465612	158.05170409109132	0.6083175445301094	n/a	n/a	n/a	n/a
50.75439453125	0.2	103945	36	36	0	0	0	36	308	stimuli\Videos_short_600ms_vertflip\44.pushing_top_to_bottom_with_finger_short_vertflip_short_600ms.mp4	44.pushing_top_to_bottom_with_finger_short_vertflip_short_600ms.mp4	158.24336965564498	158.8516789893133	0.6083093336683305	n/a	n/a	n/a	n/a
51.5546875	0.2	105584	37	36	0	0	0	37	304	stimuli\Videos_short_600ms_vertflip\40.repeated_push_with_finger_short_vertflip_short_600ms.mp4	40.repeated_push_with_finger_short_vertflip_short_600ms.mp4	159.04335540393458	159.65168203906205	0.6083266351274688	n/a	n/a	n/a	n/a
52.3544921875	0.2	107222	38	36	0	0	0	38	115	stimuli\Videos_short_600ms_horflip\32.single_(long)pinch_with_fingers_short_horflip_short_600ms.mp4	32.single_(long)pinch_with_fingers_short_horflip_short_600ms.mp4	159.84333528732304	160.45165693728404	0.6083216499609989	n/a	n/a	n/a	n/a
53.154296875	0.2	108860	39	36	0	0	0	39	132	stimuli\Videos_short_600ms_horflip\48.single_slap_with_hand_short_horflip_short_600ms.mp4	48.single_slap_with_hand_short_horflip_short_600ms.mp4	160.643318689652	161.25163828689756	0.6083195972455542	n/a	n/a	n/a	n/a
53.95458984375	0.2	110499	40	36	0	0	0	40	215	stimuli\Videos_short_600ms_horvertflip\41.injection_with_blunt_syringe_short_horvertflip_short_600ms.mp4	41.injection_with_blunt_syringe_short_horvertflip_short_600ms.mp4	161.4433029717161	162.05162315545158	0.6083201837354864	n/a	n/a	n/a	n/a
54.75439453125	0.2	112137	41	36	0	0	0	41	40	stimuli\Videos_short_600ms\46.scratching_top_to_bottom_with_finger_nails_short_short_600ms.mp4	46.scratching_top_to_bottom_with_finger_nails_short_short_600ms.mp4	162.24328490782	162.85160890374118	0.6083239959211824	n/a	n/a	n/a	n/a
55.55419921875	0.2	113775	42	36	0	0	0	42	70	stimuli\Videos_short_600ms\73.single_stroke_with_flat_hand_short_short_600ms.mp4	73.single_stroke_with_flat_hand_short_short_600ms.mp4	163.0432700696192	163.6515902533547	0.6083201837354864	n/a	n/a	n/a	n/a
56.3544921875	0.2	115414	43	36	0	0	0	43	281	stimuli\Videos_short_600ms_vertflip\2.single_touch_with_finger_short_vertflip_short_600ms.mp4	2.single_touch_with_finger_short_vertflip_short_600ms.mp4	163.84325141923273	164.45157512190917	0.6083237026764436	n/a	n/a	n/a	n/a
57.154296875	0.2	117052	44	36	0	0	0	44	17	stimuli\Videos_short_600ms\25.single_touch_with_stanley_knife_short_short_600ms.mp4	25.single_touch_with_stanley_knife_short_short_600ms.mp4	164.64323804725746	165.25155588503276	0.6083178377753029	n/a	n/a	n/a	n/a
57.9541015625	0.2	118690	45	36	0	0	0	45	195	stimuli\Videos_short_600ms_horvertflip\23.single_push_with_a_spoon_short_horvertflip_short_600ms.mp4	23.single_push_with_a_spoon_short_horvertflip_short_600ms.mp4	165.4432320064093	166.05154134007716	0.6083093336678758	n/a	n/a	n/a	n/a
58.75439453125	0.2	120329	46	36	0	0	0	46	324	stimuli\Videos_short_600ms_vertflip\59.single_push_with_long_side_pencil_short_vertflip_short_600ms.mp4	59.single_push_with_long_side_pencil_short_vertflip_short_600ms.mp4	166.24318491125086	166.85152298293588	0.6083380716850115	n/a	n/a	n/a	n/a
59.55419921875	0.2	121967	47	36	0	0	0	47	21	stimuli\Videos_short_600ms\29.single_pinch_with_tweezers_short_short_600ms.mp4	29.single_pinch_with_tweezers_short_short_600ms.mp4	167.0431615689431	167.65150843798028	0.6083468690371774	n/a	n/a	n/a	n/a
60.3544921875	0.2	123606	48	36	0	0	0	48	109	stimuli\Videos_short_600ms_horflip\27.single_push_with_a_plastic_whisk_short_horflip_short_600ms.mp4	27.single_push_with_a_plastic_whisk_short_horflip_short_600ms.mp4	167.84316872412273	168.45149037408373	0.6083216499609989	n/a	n/a	n/a	n/a
61.154296875	0.2	125244	49	36	0	0	0	49	219	stimuli\Videos_short_600ms_horvertflip\45.scratching_with_finger_nails_short_horvertflip_short_600ms.mp4	45.scratching_with_finger_nails_short_horvertflip_short_600ms.mp4	168.64315036698144	169.25147612237333	0.6083257553918884	n/a	n/a	n/a	n/a
61.9541015625	0.2	126882	50	36	0	0	0	50	283	stimuli\Videos_short_600ms_vertflip\21.repeated_touch_with_metal_chopstick_short_vertflip_short_600ms.mp4	21.repeated_touch_with_metal_chopstick_short_vertflip_short_600ms.mp4	169.44313494229073	170.05145893821236	0.6083239959216371	n/a	n/a	n/a	n/a
62.75439453125	0.2	128521	51	36	0	0	0	51	274	stimuli\Videos_short_600ms_vertflip\13.single_touch_with_pen_short_vertflip_short_600ms.mp4	13.single_touch_with_pen_short_vertflip_short_600ms.mp4	170.24312039733513	170.85144058107107	0.6083201837359411	n/a	n/a	n/a	n/a
63.55419921875	0.2	130159	52	36	0	0	0	52	141	stimuli\Videos_short_600ms_horflip\56.repeated_touch_with_nail_file_short_horflip_short_600ms.mp4	56.repeated_touch_with_nail_file_short_horflip_short_600ms.mp4	171.04311435648697	171.6514219306846	0.6083075741976245	n/a	n/a	n/a	n/a
64.35400390625	0.2	131797	53	36	0	0	0	53	255	stimuli\Videos_short_600ms_horvertflip\78.single_stroke_top_to_bottom_with_soft_brush_short_horvertflip_short_600ms.mp4	78.single_stroke_top_to_bottom_with_soft_brush_short_horvertflip_short_600ms.mp4	171.843102157492	172.45138304638795	0.6082808888959335	n/a	n/a	n/a	n/a
65.154296875	0.2	133436	54	36	0	0	0	54	185	stimuli\Videos_short_600ms_horvertflip\14.repeated_touch_with_pencil_short_horvertflip_short_600ms.mp4	14.repeated_touch_with_pencil_short_horvertflip_short_600ms.mp4	172.64308350710553	173.2513664487169	0.6082829416113782	n/a	n/a	n/a	n/a
65.9541015625	0.2	135074	55	36	0	0	0	55	179	stimuli\Videos_short_600ms_horflip\90.repeated_touch_with_sponge_short_horflip_short_600ms.mp4	90.repeated_touch_with_sponge_short_horflip_short_600ms.mp4	173.4430777595021	174.05135073078145	0.608272971279348	n/a	n/a	n/a	n/a
66.75390625	0.2	136712	56	36	0	0	0	56	111	stimuli\Videos_short_600ms_horflip\29.single_pinch_with_tweezers_short_horflip_short_600ms.mp4	29.single_pinch_with_tweezers_short_horflip_short_600ms.mp4	174.2430359427549	174.85136257788236	0.6083266351274688	n/a	n/a	n/a	n/a
67.55419921875	0.2	138351	57	36	0	0	0	57	67	stimuli\Videos_short_600ms\70.(long)stroke_with_finger_all_over_the_hand_short_short_600ms.mp4	70.(long)stroke_with_finger_all_over_the_hand_short_short_600ms.mp4	175.04302110455455	175.65134216802517	0.608321063470612	n/a	n/a	n/a	n/a
68.35400390625	0.2	139989	58	36	0	0	0	58	271	stimuli\Videos_short_600ms_vertflip\10.single_touch_with_knife_short_vertflip_short_600ms.mp4	10.single_touch_with_knife_short_vertflip_short_600ms.mp4	175.8430036271484	176.4513358339318	0.608332206783416	n/a	n/a	n/a	n/a
69.15380859375	0.2	141627	59	36	0	0	0	59	103	stimuli\Videos_short_600ms_horflip\21.repeated_touch_with_metal_chopstick_short_horflip_short_600ms.mp4	21.repeated_touch_with_metal_chopstick_short_horflip_short_600ms.mp4	176.64300697014187	177.25130985241867	0.6083028822768028	n/a	n/a	n/a	n/a
69.9541015625	0.2	143266	60	36	0	0	0	60	294	stimuli\Videos_short_600ms_vertflip\31.hand_grabbing_wrist_short_vertflip_short_600ms.mp4	31.hand_grabbing_wrist_short_vertflip_short_600ms.mp4	177.44297248452176	178.05129237501205	0.6083198904902929	n/a	n/a	n/a	n/a
70.75390625	0.2	144904	61	36	0	0	0	61	149	stimuli\Videos_short_600ms_horflip\63.stroke_top_to_bottom_with_screwdriver_short_horflip_short_600ms.mp4	63.stroke_top_to_bottom_with_screwdriver_short_horflip_short_600ms.mp4	178.24295588685072	178.85127577734147	0.6083198904907476	n/a	n/a	n/a	n/a
71.5537109375	0.2	146542	62	36	0	0	0	62	312	stimuli\Videos_short_600ms_vertflip\48.single_slap_with_hand_short_vertflip_short_600ms.mp4	48.single_slap_with_hand_short_vertflip_short_600ms.mp4	179.04293752970943	179.6512606458955	0.6083231161860567	n/a	n/a	n/a	n/a
72.35400390625	0.2	148181	63	36	0	0	0	63	144	stimuli\Videos_short_600ms_horflip\59.single_push_with_long_side_pencil_short_horflip_short_600ms.mp4	59.single_push_with_long_side_pencil_short_horflip_short_600ms.mp4	179.84292445097935	180.45124140901908	0.6083169580397225	n/a	n/a	n/a	n/a
73.15380859375	0.2	149819	64	36	0	0	0	64	168	stimuli\Videos_short_600ms_horflip\80.stroke_with_sharp_stick_all_over_the_hand_short_horflip_short_600ms.mp4	80.stroke_with_sharp_stick_all_over_the_hand_short_horflip_short_600ms.mp4	180.6429063870828	181.2512265708183	0.6083201837354864	n/a	n/a	n/a	n/a
73.95361328125	0.2	151457	65	36	0	0	0	65	60	stimuli\Videos_short_600ms\64.repeated_touch_with_screwdriver_short_short_600ms.mp4	64.repeated_touch_with_screwdriver_short_short_600ms.mp4	181.44288890967664	182.0512088001674	0.6083198904907476	n/a	n/a	n/a	n/a
74.75390625	0.2	153096	66	36	0	0	0	66	39	stimuli\Videos_short_600ms\45.scratching_with_finger_nails_short_short_600ms.mp4	45.scratching_with_finger_nails_short_short_600ms.mp4	182.2428775904168	182.8511936687214	0.6083160783045969	n/a	n/a	n/a	n/a
75.5537109375	0.2	154734	67	36	0	0	0	67	9	stimuli\Videos_short_600ms\18.single_stroke_from_top_to_bottom_with_rolling_pin_short_short_600ms.mp4	18.single_stroke_from_top_to_bottom_with_rolling_pin_short_short_600ms.mp4	183.04285688731488	183.65117589807005	0.6083190107551673	n/a	n/a	n/a	n/a
76.353515625	0.2	156372	68	36	0	0	0	68	163	stimuli\Videos_short_600ms_horflip\76.tickle_with_fingers_from_top_to_bottom_short_horflip_short_600ms.mp4	76.tickle_with_fingers_from_top_to_bottom_short_horflip_short_600ms.mp4	183.84283559772305	184.45115930039947	0.6083237026764436	n/a	n/a	n/a	n/a
77.15380859375	0.2	158011	69	36	0	0	1	69	361	stimuli\Targets_short_600ms\chopstick-silver-tap_short_short_600ms.mp4	chopstick-silver-tap_short_short_600ms.mp4	184.64281958654192	185.25114387570875	0.6083242891668306	n/a	n/a	n/a	n/a
77.95361328125	0.2	159649	70	36	0	0	0	70	285	stimuli\Videos_short_600ms_vertflip\23.single_push_with_a_spoon_short_vertflip_short_600ms.mp4	23.single_push_with_a_spoon_short_vertflip_short_600ms.mp4	185.44282380927095	186.0511263983026	0.6083025890316094	n/a	n/a	n/a	n/a
78.75390625	0.2	161288	71	36	0	0	0	71	286	stimuli\Videos_short_600ms_vertflip\24.single_stroke_top_to_bottom_with_a_spoon_short_vertflip_short_600ms.mp4	24.single_stroke_top_to_bottom_with_a_spoon_short_vertflip_short_600ms.mp4	186.2429133663154	186.85111478579756	0.6082014194821568	n/a	n/a	n/a	n/a
79.5537109375	0.2	162926	72	36	0	0	0	72	36	stimuli\Videos_short_600ms\42.single_slap_with_plastic_whisk_short_short_600ms.mp4	42.single_slap_with_plastic_whisk_short_short_600ms.mp4	187.04277829763623	187.65106827712953	0.6082899794932928	n/a	n/a	n/a	n/a
80.353515625	0.2	164564	73	36	0	0	1	73	383	stimuli\Targets_short_600ms_vertflip\hand-stroke_short_horvertflip_short_600ms.mp4	hand-stroke_short_horvertflip_short_600ms.mp4	187.84276463241576	188.45105314568357	0.6082885132677802	n/a	n/a	n/a	n/a
81.15380859375	0.2	166203	74	36	0	0	0	74	119	stimuli\Videos_short_600ms_horflip\36.single_slap_with_full_hand_short_horflip_short_600ms.mp4	36.single_slap_with_full_hand_short_horflip_short_600ms.mp4	188.64273923739256	189.2510371345029	0.608297897110333	n/a	n/a	n/a	n/a
81.95361328125	0.2	167841	75	36	0	0	0	75	328	stimuli\Videos_short_600ms_vertflip\62.touch_top_to_bottom_with_scissors_short_vertflip_short_600ms.mp4	62.touch_top_to_bottom_with_scissors_short_vertflip_short_600ms.mp4	189.44274316687645	190.0510337328601	0.6082905659836797	n/a	n/a	n/a	n/a
82.75341796875	0.2	169479	76	36	0	0	0	76	217	stimuli\Videos_short_600ms_horvertflip\43.touch_top_to_bottom_with_sharp_wooden_stick_short_horvertflip_short_600ms.mp4	43.touch_top_to_bottom_with_sharp_wooden_stick_short_horvertflip_short_600ms.mp4	190.24270926774625	190.851029158237	0.6083198904907476	n/a	n/a	n/a	n/a
83.5537109375	0.2	171118	77	36	0	0	0	77	7	stimuli\Videos_short_600ms\16.repeated_touch_with_plastic_brush_short_short_600ms.mp4	16.repeated_touch_with_plastic_brush_short_short_600ms.mp4	191.04269237683047	191.6510207714282	0.60832839459772	n/a	n/a	n/a	n/a
84.353515625	0.2	172756	78	36	0	0	0	78	307	stimuli\Videos_short_600ms_vertflip\43.touch_top_to_bottom_with_sharp_wooden_stick_short_vertflip_short_600ms.mp4	43.touch_top_to_bottom_with_sharp_wooden_stick_short_vertflip_short_600ms.mp4	191.8426678615424	192.45099566965015	0.6083278081077879	n/a	n/a	n/a	n/a
85.1533203125	0.2	174394	79	36	0	0	0	79	5	stimuli\Videos_short_600ms\14.repeated_touch_with_pencil_short_short_600ms.mp4	14.repeated_touch_with_pencil_short_short_600ms.mp4	192.64265742201815	193.2509808314494	0.6083234094312502	n/a	n/a	n/a	n/a
85.95361328125	0.2	176033	80	36	0	0	0	80	11	stimuli\Videos_short_600ms\2.single_touch_with_finger_short_short_600ms.mp4	2.single_touch_with_finger_short_short_600ms.mp4	193.44264258381736	194.05097508384597	0.6083325000286095	n/a	n/a	n/a	n/a
86.75341796875	0.2	177671	81	36	0	0	0	81	165	stimuli\Videos_short_600ms_horflip\78.single_stroke_top_to_bottom_with_soft_brush_short_horflip_short_600ms.mp4	78.single_stroke_top_to_bottom_with_soft_brush_short_horflip_short_600ms.mp4	194.24262745237183	194.85094880908764	0.6083213567158055	n/a	n/a	n/a	n/a
87.55322265625	0.2	179309	82	36	0	0	0	82	354	stimuli\Videos_short_600ms_vertflip\86.touch_top_to_bottom_with_hair_brush_short_vertflip_short_600ms.mp4	86.touch_top_to_bottom_with_hair_brush_short_vertflip_short_600ms.mp4	195.04260968172048	195.65092957221125	0.6083198904907476	n/a	n/a	n/a	n/a
88.353515625	0.2	180948	83	36	0	0	0	83	47	stimuli\Videos_short_600ms\52.touch_top_to_bottom_with_hammer_short_short_600ms.mp4	52.touch_top_to_bottom_with_hammer_short_short_600ms.mp4	195.84259425702976	196.4509141475205	0.6083198904907476	n/a	n/a	n/a	n/a
89.1533203125	0.2	182586	84	36	0	0	1	84	374	stimuli\Targets_short_600ms_horvertflip\chopstickwood-tap_short_vertflip_short_600ms.mp4	chopstickwood-tap_short_vertflip_short_600ms.mp4	196.6425767796236	197.25089520388883	0.6083184242652351	n/a	n/a	n/a	n/a
89.953125	0.2	184224	85	36	0	0	0	85	323	stimuli\Videos_short_600ms_vertflip\58.single_slap_with_pencil_short_vertflip_short_600ms.mp4	58.single_slap_with_pencil_short_vertflip_short_600ms.mp4	197.4425628211584	198.05087948595292	0.6083166647945291	n/a	n/a	n/a	n/a
90.75341796875	0.2	185863	86	36	0	0	0	86	186	stimuli\Videos_short_600ms_horvertflip\15.single_stroke_top_to_bottom_with_a_plastic_whisk_short_horvertflip_short_600ms.mp4	15.single_stroke_top_to_bottom_with_a_plastic_whisk_short_horvertflip_short_600ms.mp4	198.24252159090156	198.85086494099733	0.6083433500957653	n/a	n/a	n/a	n/a
91.55322265625	0.2	187501	87	36	0	0	0	87	56	stimuli\Videos_short_600ms\60.single_push_with_tip_of_pencil_short_short_600ms.mp4	60.single_push_with_tip_of_pencil_short_short_600ms.mp4	199.0425504462164	199.65084775683636	0.6082973106199461	n/a	n/a	n/a	n/a
92.35302734375	0.2	189139	88	36	0	0	0	88	79	stimuli\Videos_short_600ms\81.single_stroke_top_to_bottom_with_cotton_pad_short_short_600ms.mp4	81.single_stroke_top_to_bottom_with_cotton_pad_short_short_600ms.mp4	199.84250511052824	200.45083115916532	0.6083260486370818	n/a	n/a	n/a	n/a
93.1533203125	0.2	190778	89	36	0	0	0	89	33	stimuli\Videos_short_600ms\4.repeated_tap_with_finger_slow_short_short_600ms.mp4	4.repeated_tap_with_finger_slow_short_short_600ms.mp4	200.64249613722905	201.25081690745492	0.6083207702258733	n/a	n/a	n/a	n/a
93.953125	0.2	192416	90	36	0	0	0	90	42	stimuli\Videos_short_600ms\48.single_slap_with_hand_short_short_600ms.mp4	48.single_slap_with_hand_short_short_600ms.mp4	201.44245344074716	202.0507944448827	0.6083410041355819	n/a	n/a	n/a	n/a
94.7529296875	0.2	194054	91	36	0	0	0	91	228	stimuli\Videos_short_600ms_horvertflip\53.touch_top_to_bottom_with_knife_short_horvertflip_short_600ms.mp4	53.touch_top_to_bottom_with_knife_short_horvertflip_short_600ms.mp4	202.24248816096315	202.85079104323995	0.6083028822768028	n/a	n/a	n/a	n/a
95.55322265625	0.2	195693	92	36	0	0	0	92	347	stimuli\Videos_short_600ms_vertflip\8.single_touch_with_hairbrush_short_vertflip_short_600ms.mp4	8.single_touch_with_hairbrush_short_vertflip_short_600ms.mp4	203.0424460509712	203.65076124954064	0.6083151985694712	n/a	n/a	n/a	n/a
96.35302734375	0.2	197331	93	36	0	0	0	93	91	stimuli\Videos_short_600ms_horflip\10.single_touch_with_knife_short_horflip_short_600ms.mp4	10.single_touch_with_knife_short_horflip_short_600ms.mp4	203.8424523264157	204.45074553160475	0.6082932051890566	n/a	n/a	n/a	n/a
97.15283203125	0.2	198969	94	36	0	0	0	94	334	stimuli\Videos_short_600ms_vertflip\68.stroke_top_to_bottom_with_shawl_short_vertflip_short_600ms.mp4	68.stroke_top_to_bottom_with_shawl_short_vertflip_short_600ms.mp4	204.64241285562912	205.25073127989435	0.6083184242652351	5.0	5.0	2.3755856470611434	1.0
131.03515625	0.2	268360	95	36	1	0	1	0	368	stimuli\Targets_short_600ms_horflip\chopstickwood-tap_short_horflip_short_600ms.mp4	chopstickwood-tap_short_horflip_short_600ms.mp4	239.32518678977883	239.9333533130975	0.6081665233186868	n/a	n/a	n/a	n/a
131.83544921875	0.2	269999	96	36	1	0	0	1	356	stimuli\Videos_short_600ms_vertflip\88.repeated_stroke_with_plastic_brush_short_vertflip_short_600ms.mp4	88.repeated_stroke_with_plastic_brush_short_vertflip_short_600ms.mp4	240.12501799791607	240.73333466271103	0.6083166647949838	n/a	n/a	n/a	n/a
132.63525390625	0.2	271637	97	36	1	0	0	2	327	stimuli\Videos_short_600ms_vertflip\61.single_hit_with_rolling_pin_short_vertflip_short_600ms.mp4	61.single_hit_with_rolling_pin_short_vertflip_short_600ms.mp4	240.92501840845944	241.5333171853049	0.6082987768454586	n/a	n/a	n/a	n/a
133.43505859375	0.2	273275	98	36	1	0	0	3	14	stimuli\Videos_short_600ms\22.single_touch_with_metal_chopstick_short_short_600ms.mp4	22.single_touch_with_metal_chopstick_short_short_600ms.mp4	241.72498392283887	242.3333070390254	0.6083231161865115	n/a	n/a	n/a	n/a
134.2353515625	0.2	274914	99	36	1	0	0	4	208	stimuli\Videos_short_600ms_horvertflip\35.single_punch_with_hand_short_horvertflip_short_600ms.mp4	35.single_punch_with_hand_short_horvertflip_short_600ms.mp4	242.52496703192264	243.13329337380492	0.6083263418822753	n/a	n/a	n/a	n/a
135.03515625	0.2	276552	100	36	1	0	0	5	140	stimuli\Videos_short_600ms_horflip\55.touch_top_to_bottom_with_nail_file_short_horflip_short_600ms.mp4	55.touch_top_to_bottom_with_nail_file_short_horflip_short_600ms.mp4	243.32495365994785	243.93327912209452	0.6083254621466949	n/a	n/a	n/a	n/a
135.8349609375	0.2	278190	101	36	1	0	0	6	100	stimuli\Videos_short_600ms_horflip\19.single_touch_with_rolling_pin_short_horflip_short_600ms.mp4	19.single_touch_with_rolling_pin_short_horflip_short_600ms.mp4	244.1249323703555	244.7332566595223	0.6083242891668306	n/a	n/a	n/a	n/a
136.63525390625	0.2	279829	102	36	1	0	0	7	346	stimuli\Videos_short_600ms_vertflip\79.long_with_soft_brush_all_over_the_hand_short_vertflip_short_600ms.mp4	79.long_with_soft_brush_all_over_the_hand_short_vertflip_short_600ms.mp4	244.92491870513504	245.5332383023806	0.6083195972455542	n/a	n/a	n/a	n/a
137.43505859375	0.2	281467	103	36	1	0	0	8	114	stimuli\Videos_short_600ms_horflip\31.hand_grabbing_wrist_short_horflip_short_600ms.mp4	31.hand_grabbing_wrist_short_horflip_short_600ms.mp4	245.7249026939544	246.3332205317297	0.6083178377753029	n/a	n/a	n/a	n/a
138.23486328125	0.2	283105	104	36	1	0	1	9	375	stimuli\Targets_short_600ms_horvertflip\finger-tap_short_vertflip_short_600ms.mp4	finger-tap_short_vertflip_short_600ms.mp4	246.52488463005784	247.13320686650923	0.6083222364513858	n/a	n/a	n/a	n/a
139.03515625	0.2	284744	105	36	1	0	0	10	306	stimuli\Videos_short_600ms_vertflip\42.single_slap_with_plastic_whisk_short_vertflip_short_600ms.mp4	42.single_slap_with_plastic_whisk_short_vertflip_short_600ms.mp4	247.3248686188772	247.93318880261268	0.6083201837354864	n/a	n/a	n/a	n/a
139.8349609375	0.2	286382	106	36	1	0	0	11	258	stimuli\Videos_short_600ms_horvertflip\80.stroke_with_sharp_stick_all_over_the_hand_short_horvertflip_short_600ms.mp4	80.stroke_with_sharp_stick_all_over_the_hand_short_horvertflip_short_600ms.mp4	248.12485641988224	248.7331704454714	0.6083140255891522	n/a	n/a	n/a	n/a
140.634765625	0.2	288020	107	36	1	0	0	12	58	stimuli\Videos_short_600ms\62.touch_top_to_bottom_with_scissors_short_short_600ms.mp4	62.touch_top_to_bottom_with_scissors_short_short_600ms.mp4	248.92483161134945	249.5331588329668	0.6083272216174009	n/a	n/a	n/a	n/a
141.43505859375	0.2	289659	108	36	1	0	1	13	376	stimuli\Targets_short_600ms_horvertflip\hand-pinch_short_vertflip_short_600ms.mp4	hand-pinch_short_vertflip_short_600ms.mp4	249.72482322454016	250.3331372501293	0.6083140255891522	n/a	n/a	n/a	n/a
142.23486328125	0.2	291297	109	36	1	0	0	14	29	stimuli\Videos_short_600ms\36.single_slap_with_full_hand_short_short_600ms.mp4	36.single_slap_with_full_hand_short_short_600ms.mp4	250.52477876858757	251.1331259308699	0.6083471622823708	n/a	n/a	n/a	n/a
143.03515625	0.2	292936	110	36	1	0	0	15	262	stimuli\Videos_short_600ms_horvertflip\84.single_touch_with_cotton_bud_short_horvertflip_short_600ms.mp4	84.single_touch_with_cotton_bud_short_horvertflip_short_600ms.mp4	251.32476481012236	251.93310698723823	0.608342177115901	n/a	n/a	n/a	n/a
143.8349609375	0.2	294574	111	36	1	0	0	16	358	stimuli\Videos_short_600ms_vertflip\9.single_touch_with_hammer_short_vertflip_short_600ms.mp4	9.single_touch_with_hammer_short_vertflip_short_600ms.mp4	252.12483706570765	252.7330918557927	0.6082547900850841	n/a	n/a	n/a	n/a
144.634765625	0.2	296212	112	36	1	0	0	17	178	stimuli\Videos_short_600ms_horflip\9.single_touch_with_hammer_short_horflip_short_600ms.mp4	9.single_touch_with_hammer_short_horflip_short_600ms.mp4	252.9247802934619	253.53307584461163	0.6082955511496948	n/a	n/a	n/a	n/a
145.43505859375	0.2	297851	113	36	1	0	0	18	171	stimuli\Videos_short_600ms_horflip\83.single_stroke_top_to_bottom_with_cotton_bud_short_horflip_short_600ms.mp4	83.single_stroke_top_to_bottom_with_cotton_bud_short_horflip_short_600ms.mp4	253.7247592971148	254.33306364561668	0.6083043485018607	n/a	n/a	n/a	n/a
146.23486328125	0.2	299489	114	36	1	0	0	19	249	stimuli\Videos_short_600ms_horvertflip\72.(short)stroke_with_finger_all_over_the_hand_short_horvertflip_short_600ms.mp4	72.(short)stroke_with_finger_all_over_the_hand_short_horvertflip_short_600ms.mp4	254.5247239317596	255.1330376641035	0.6083137323439587	n/a	n/a	n/a	n/a
147.03466796875	0.2	301127	115	36	1	0	0	20	116	stimuli\Videos_short_600ms_horflip\33.scratch_top_to_bottom_with_scissors_short_horflip_short_600ms.mp4	33.scratch_top_to_bottom_with_scissors_short_horflip_short_600ms.mp4	255.32470997329392	255.9330222394128	0.6083122661189009	n/a	n/a	n/a	n/a
147.8349609375	0.2	302766	116	36	1	0	0	21	51	stimuli\Videos_short_600ms\56.repeated_touch_with_nail_file_short_short_600ms.mp4	56.repeated_touch_with_nail_file_short_short_600ms.mp4	256.1246901499271	256.733005934987	0.6083157850598582	n/a	n/a	n/a	n/a
148.634765625	0.2	304404	117	36	1	0	0	22	264	stimuli\Videos_short_600ms_horvertflip\86.touch_top_to_bottom_with_hair_brush_short_horvertflip_short_600ms.mp4	86.touch_top_to_bottom_with_hair_brush_short_horvertflip_short_600ms.mp4	256.92467296576615	257.53299490897234	0.6083219432061924	n/a	n/a	n/a	n/a
149.4345703125	0.2	306042	118	36	1	0	0	23	278	stimuli\Videos_short_600ms_vertflip\17.repeated_touch_with_rolling_pin_short_vertflip_short_600ms.mp4	17.repeated_touch_with_rolling_pin_short_vertflip_short_600ms.mp4	257.7246560748499	258.3329827099774	0.6083266351274688	n/a	n/a	n/a	n/a
150.23486328125	0.2	307681	119	36	1	0	0	24	266	stimuli\Videos_short_600ms_horvertflip\88.repeated_stroke_with_plastic_brush_short_horvertflip_short_600ms.mp4	88.repeated_stroke_with_plastic_brush_short_horvertflip_short_600ms.mp4	258.52463918393414	259.1329640595909	0.6083248756567627	n/a	n/a	n/a	n/a
151.03466796875	0.2	309319	120	36	1	0	0	25	145	stimuli\Videos_short_600ms_horflip\6.single_touch_with_flat_hand_short_horflip_short_600ms.mp4	6.single_touch_with_flat_hand_short_horflip_short_600ms.mp4	259.3246211200376	259.932943356489	0.6083222364513858	n/a	n/a	n/a	n/a
151.83447265625	0.2	310957	121	36	1	0	0	26	222	stimuli\Videos_short_600ms_horvertflip\48.single_slap_with_hand_short_horvertflip_short_600ms.mp4	48.single_slap_with_hand_short_horvertflip_short_600ms.mp4	260.1246071615724	260.732939661601	0.6083325000286095	n/a	n/a	n/a	n/a
152.634765625	0.2	312596	122	36	1	0	0	27	302	stimuli\Videos_short_600ms_vertflip\39.single_stab_with_scissors_short_vertflip_short_600ms.mp4	39.single_stab_with_scissors_short_vertflip_short_600ms.mp4	260.92459115039173	261.53290840167665	0.608317251284916	n/a	n/a	n/a	n/a
153.4345703125	0.2	314234	123	36	1	0	0	28	189	stimuli\Videos_short_600ms_horvertflip\18.single_stroke_from_top_to_bottom_with_rolling_pin_short_horvertflip_short_600ms.mp4	18.single_stroke_from_top_to_bottom_with_rolling_pin_short_horvertflip_short_600ms.mp4	261.7245733797404	262.33289414996625	0.6083207702258733	n/a	n/a	n/a	n/a
154.234375	0.2	315872	124	36	1	0	0	29	263	stimuli\Videos_short_600ms_horvertflip\85.touch_top_to_bottom_with_fabric_short_horvertflip_short_600ms.mp4	85.touch_top_to_bottom_with_fabric_short_horvertflip_short_600ms.mp4	262.52455678206934	263.1328775522952	0.6083207702258733	n/a	n/a	n/a	n/a
155.03466796875	0.2	317511	125	36	1	0	0	30	247	stimuli\Videos_short_600ms_horvertflip\70.(long)stroke_with_finger_all_over_the_hand_short_horvertflip_short_600ms.mp4	70.(long)stroke_with_finger_all_over_the_hand_short_horvertflip_short_600ms.mp4	263.3245393046632	263.9328603681338	0.608321063470612	n/a	n/a	n/a	n/a
155.83447265625	0.2	319149	126	36	1	0	0	31	10	stimuli\Videos_short_600ms\19.single_touch_with_rolling_pin_short_short_600ms.mp4	19.single_touch_with_rolling_pin_short_short_600ms.mp4	264.1245191880512	264.73284963536435	0.6083304473131648	n/a	n/a	n/a	n/a
156.63427734375	0.2	320787	127	36	1	0	0	32	240	stimuli\Videos_short_600ms_horvertflip\64.repeated_touch_with_screwdriver_short_horvertflip_short_600ms.mp4	64.repeated_touch_with_screwdriver_short_horvertflip_short_600ms.mp4	264.924510214752	265.53283039848793	0.6083201837359411	n/a	n/a	n/a	n/a
157.4345703125	0.2	322426	128	36	1	0	0	33	123	stimuli\Videos_short_600ms_horflip\4.repeated_tap_with_finger_slow_short_horflip_short_600ms.mp4	4.repeated_tap_with_finger_slow_short_horflip_short_600ms.mp4	265.7244903913852	266.3328123345914	0.6083219432061924	n/a	n/a	n/a	n/a
158.234375	0.2	324064	129	36	1	0	0	34	238	stimuli\Videos_short_600ms_horvertflip\62.touch_top_to_bottom_with_scissors_short_horvertflip_short_600ms.mp4	62.touch_top_to_bottom_with_scissors_short_horvertflip_short_600ms.mp4	266.52445209357893	267.13279456394	0.6083424703610945	n/a	n/a	n/a	n/a
159.0341796875	0.2	325702	130	36	1	0	0	35	161	stimuli\Videos_short_600ms_horflip\74.fingers_walking_from_top_to_bottom_short_horflip_short_600ms.mp4	74.fingers_walking_from_top_to_bottom_short_horflip_short_600ms.mp4	267.3244624744548	267.93277737977905	0.6083149053242778	n/a	n/a	n/a	n/a
159.83447265625	0.2	327341	131	36	1	0	0	36	95	stimuli\Videos_short_600ms_horflip\14.repeated_touch_with_pencil_short_horflip_short_600ms.mp4	14.repeated_touch_with_pencil_short_horflip_short_600ms.mp4	268.1244423578428	268.7327581429022	0.6083157850594034	n/a	n/a	n/a	n/a
160.63427734375	0.2	328979	132	36	1	0	0	37	96	stimuli\Videos_short_600ms_horflip\15.single_stroke_top_to_bottom_with_a_plastic_whisk_short_horflip_short_600ms.mp4	15.single_stroke_top_to_bottom_with_a_plastic_whisk_short_horflip_short_600ms.mp4	268.9244348507691	269.53274711688755	0.6083122661184461	n/a	n/a	n/a	n/a
161.4345703125	0.2	330618	133	36	1	0	0	38	166	stimuli\Videos_short_600ms_horflip\79.long_with_soft_brush_all_over_the_hand_short_horflip_short_600ms.mp4	79.long_with_soft_brush_all_over_the_hand_short_horflip_short_600ms.mp4	269.72441854634326	270.3327363841181	0.6083178377748482	n/a	n/a	n/a	n/a
162.234375	0.2	332256	134	36	1	0	0	39	37	stimuli\Videos_short_600ms\43.touch_top_to_bottom_with_sharp_wooden_stick_short_short_600ms.mp4	43.touch_top_to_bottom_with_sharp_wooden_stick_short_short_600ms.mp4	270.5244045878776	271.1327127485656	0.6083081606880114	n/a	n/a	n/a	n/a
163.0341796875	0.2	333894	135	36	1	0	0	40	6	stimuli\Videos_short_600ms\15.single_stroke_top_to_bottom_with_a_plastic_whisk_short_short_600ms.mp4	15.single_stroke_top_to_bottom_with_a_plastic_whisk_short_short_600ms.mp4	271.32437362119845	271.93269351168874	0.6083198904902929	n/a	n/a	n/a	n/a
163.83447265625	0.2	335533	136	36	1	0	0	41	331	stimuli\Videos_short_600ms_vertflip\65.stroke_top_to_bottom_with_stanley_knife_short_vertflip_short_600ms.mp4	65.stroke_top_to_bottom_with_stanley_knife_short_vertflip_short_600ms.mp4	272.12435878299766	272.73268629786025	0.6083275148625944	n/a	n/a	n/a	n/a
164.63427734375	0.2	337171	137	36	1	0	0	42	26	stimuli\Videos_short_600ms\33.scratch_top_to_bottom_with_scissors_short_short_600ms.mp4	33.scratch_top_to_bottom_with_scissors_short_short_600ms.mp4	272.9243421853266	273.5326679407185	0.6083257553918884	n/a	n/a	n/a	n/a
165.43408203125	0.2	338809	138	36	1	0	0	43	276	stimuli\Videos_short_600ms_vertflip\15.single_stroke_top_to_bottom_with_a_plastic_whisk_short_vertflip_short_600ms.mp4	15.single_stroke_top_to_bottom_with_a_plastic_whisk_short_vertflip_short_600ms.mp4	273.7243255876556	274.33265574172356	0.6083301540679713	n/a	n/a	n/a	n/a
166.234375	0.2	340448	139	36	1	0	0	44	134	stimuli\Videos_short_600ms_horflip\5.repeated_tap_with_finger_moving_from_top_to_bottom_short_horflip_short_600ms.mp4	5.repeated_tap_with_finger_moving_from_top_to_bottom_short_horflip_short_600ms.mp4	274.52430957647493	275.1326344521317	0.6083248756567627	n/a	n/a	n/a	n/a
167.0341796875	0.2	342086	140	36	1	0	0	45	305	stimuli\Videos_short_600ms_vertflip\41.injection_with_blunt_syringe_short_vertflip_short_600ms.mp4	41.injection_with_blunt_syringe_short_vertflip_short_600ms.mp4	275.3242956180097	275.9326143355197	0.6083187175099738	n/a	n/a	n/a	n/a
167.833984375	0.2	343724	141	36	1	0	0	46	190	stimuli\Videos_short_600ms_horvertflip\19.single_touch_with_rolling_pin_short_horvertflip_short_600ms.mp4	19.single_touch_with_rolling_pin_short_horvertflip_short_600ms.mp4	276.1242787270935	276.73259773784866	0.6083190107551673	n/a	n/a	n/a	n/a
168.63427734375	0.2	345363	142	36	1	0	0	47	86	stimuli\Videos_short_600ms\88.repeated_stroke_with_plastic_brush_short_short_600ms.mp4	88.repeated_stroke_with_plastic_brush_short_short_600ms.mp4	276.92428294982255	277.5325814334228	0.6082984836002652	n/a	n/a	n/a	n/a
169.43408203125	0.2	347001	143	36	1	0	0	48	216	stimuli\Videos_short_600ms_horvertflip\42.single_slap_with_plastic_whisk_short_horvertflip_short_600ms.mp4	42.single_slap_with_plastic_whisk_short_horvertflip_short_600ms.mp4	277.7242446520163	278.33256366277146	0.6083190107551673	n/a	n/a	n/a	n/a
170.23388671875	0.2	348639	144	36	1	0	0	49	199	stimuli\Videos_short_600ms_horvertflip\27.single_push_with_a_plastic_whisk_short_horvertflip_short_600ms.mp4	27.single_push_with_a_plastic_whisk_short_horvertflip_short_600ms.mp4	278.52422805434526	279.132547944836	0.6083198904907476	n/a	n/a	n/a	n/a
171.0341796875	0.2	350278	145	36	1	0	0	50	340	stimuli\Videos_short_600ms_vertflip\73.single_stroke_with_flat_hand_short_vertflip_short_600ms.mp4	73.single_stroke_with_flat_hand_short_vertflip_short_600ms.mp4	279.32420295256725	279.9325336931256	0.6083307405583582	n/a	n/a	n/a	n/a
171.833984375	0.2	351916	146	36	1	0	0	51	220	stimuli\Videos_short_600ms_horvertflip\46.scratching_top_to_bottom_with_finger_nails_short_horvertflip_short_600ms.mp4	46.scratching_top_to_bottom_with_finger_nails_short_horvertflip_short_600ms.mp4	280.1241977914542	280.7325168022094	0.6083190107551673	n/a	n/a	n/a	n/a
172.6337890625	0.2	353554	147	36	1	0	0	52	66	stimuli\Videos_short_600ms\7.repeated_touch_with_hairbrush_short_short_600ms.mp4	7.repeated_touch_with_hairbrush_short_short_600ms.mp4	280.92415362874635	281.53250167076385	0.6083480420174965	n/a	n/a	n/a	n/a
173.43408203125	0.2	355193	148	36	1	0	0	53	333	stimuli\Videos_short_600ms_vertflip\67.single_touch_with_sponge_short_vertflip_short_600ms.mp4	67.single_touch_with_sponge_short_vertflip_short_600ms.mp4	281.7241716339936	282.33248653931787	0.6083149053242778	n/a	n/a	n/a	n/a
174.23388671875	0.2	356831	149	36	1	0	0	54	22	stimuli\Videos_short_600ms\3.single_push_with_finger_short_short_600ms.mp4	3.single_push_with_finger_short_short_600ms.mp4	282.5241218996298	283.132470234892	0.6083483352622352	n/a	n/a	n/a	n/a
175.04248046875	0.2	358487	150	36	1	0	0	55	303	stimuli\Videos_short_600ms_vertflip\4.repeated_tap_with_finger_slow_short_vertflip_short_600ms.mp4	4.repeated_tap_with_finger_slow_short_vertflip_short_600ms.mp4	283.3324642526927	283.9407850229186	0.6083207702258733	n/a	n/a	n/a	n/a
175.84228515625	0.2	360125	151	36	1	0	0	56	184	stimuli\Videos_short_600ms_horvertflip\13.single_touch_with_pen_short_horvertflip_short_600ms.mp4	13.single_touch_with_pen_short_horvertflip_short_600ms.mp4	284.1324491212472	284.74076695902204	0.6083178377748482	n/a	n/a	n/a	n/a
176.64208984375	0.2	361763	152	36	1	0	0	57	98	stimuli\Videos_short_600ms_horflip\17.repeated_touch_with_rolling_pin_short_horflip_short_600ms.mp4	17.repeated_touch_with_rolling_pin_short_horflip_short_600ms.mp4	284.9324251924495	285.54075241406645	0.6083272216169462	n/a	n/a	n/a	n/a
177.4423828125	0.2	363402	153	36	1	0	0	58	35	stimuli\Videos_short_600ms\41.injection_with_blunt_syringe_short_short_600ms.mp4	41.injection_with_blunt_syringe_short_short_600ms.mp4	285.7324206178264	286.3407349366603	0.6083143188338909	n/a	n/a	n/a	n/a
178.2421875	0.2	365040	154	36	1	0	0	59	177	stimuli\Videos_short_600ms_horflip\89.single_touch_with_plastic_brush_short_horflip_short_600ms.mp4	89.single_touch_with_plastic_brush_short_horflip_short_600ms.mp4	286.53239258359736	287.14071863223444	0.6083260486370818	n/a	n/a	n/a	n/a
179.0419921875	0.2	366678	155	36	1	0	0	60	172	stimuli\Videos_short_600ms_horflip\84.single_touch_with_cotton_bud_short_horflip_short_600ms.mp4	84.single_touch_with_cotton_bud_short_horflip_short_600ms.mp4	287.33237715890664	287.94070144807347	0.6083242891668306	n/a	n/a	n/a	n/a
179.84228515625	0.2	368317	156	36	1	0	0	61	25	stimuli\Videos_short_600ms\32.single_(long)pinch_with_fingers_short_short_600ms.mp4	32.single_(long)pinch_with_fingers_short_short_600ms.mp4	288.1323620274611	288.74068543689236	0.6083234094312502	n/a	n/a	n/a	n/a
180.64208984375	0.2	369955	157	36	1	0	1	62	373	stimuli\Targets_short_600ms_horvertflip\chopstick-silver-tap_short_vertflip_short_600ms.mp4	chopstick-silver-tap_short_vertflip_short_600ms.mp4	288.93234894873103	289.54064948504674	0.6083005363157099	n/a	n/a	n/a	n/a
181.44189453125	0.2	371593	158	36	1	0	0	63	280	stimuli\Videos_short_600ms_vertflip\19.single_touch_with_rolling_pin_short_vertflip_short_600ms.mp4	19.single_touch_with_rolling_pin_short_vertflip_short_600ms.mp4	289.73244700988243	290.340634060356	0.6081870504735889	n/a	n/a	n/a	n/a
182.2421875	0.2	373232	159	36	1	0	0	64	53	stimuli\Videos_short_600ms\58.single_slap_with_pencil_short_short_600ms.mp4	58.single_slap_with_pencil_short_short_600ms.mp4	290.53231546014376	291.14061101129346	0.6082955511496948	n/a	n/a	n/a	n/a
183.0419921875	0.2	374870	160	36	1	0	0	65	4	stimuli\Videos_short_600ms\13.single_touch_with_pen_short_short_600ms.mp4	13.single_touch_with_pen_short_short_600ms.mp4	291.33230590035464	291.94059324064256	0.6082873402879159	n/a	n/a	n/a	n/a
183.841796875	0.2	376508	161	36	1	0	0	66	325	stimuli\Videos_short_600ms_vertflip\6.single_touch_with_flat_hand_short_vertflip_short_600ms.mp4	6.single_touch_with_flat_hand_short_vertflip_short_600ms.mp4	292.13230103248634	292.7406012755573	0.6083002430709712	n/a	n/a	n/a	n/a
184.64208984375	0.2	378147	162	36	1	0	0	67	106	stimuli\Videos_short_600ms_horflip\24.single_stroke_top_to_bottom_with_a_spoon_short_horflip_short_600ms.mp4	24.single_stroke_top_to_bottom_with_a_spoon_short_horflip_short_600ms.mp4	292.9322650806407	293.54059376848363	0.6083286878429135	n/a	n/a	n/a	n/a
185.44189453125	0.2	379785	163	36	1	0	0	68	131	stimuli\Videos_short_600ms_horflip\47.(long)scratching_with_finger_nails_short_horflip_short_600ms.mp4	47.(long)scratching_with_finger_nails_short_horflip_short_600ms.mp4	293.73224730998936	294.3405918330659	0.6083445230765392	n/a	n/a	n/a	n/a
186.24169921875	0.2	381423	164	36	1	0	1	69	366	stimuli\Targets_short_600ms_horflip\brush-stroke_short_horflip_short_600ms.mp4	brush-stroke_short_horflip_short_600ms.mp4	294.53223188529864	295.1405629191022	0.6083310338035517	n/a	n/a	n/a	n/a
187.0419921875	0.2	383062	165	36	1	0	0	70	223	stimuli\Videos_short_600ms_horvertflip\49.repeated_slap_with_hand_short_horvertflip_short_600ms.mp4	49.repeated_slap_with_hand_short_horvertflip_short_600ms.mp4	295.33221939305895	295.9405360578535	0.6083166647945291	n/a	n/a	n/a	n/a
187.841796875	0.2	384700	166	36	1	0	0	71	101	stimuli\Videos_short_600ms_horflip\2.single_touch_with_finger_short_horflip_short_600ms.mp4	2.single_touch_with_finger_short_horflip_short_600ms.mp4	296.13219986293734	296.7405370548868	0.6083371919494311	n/a	n/a	n/a	n/a
188.6416015625	0.2	386338	167	36	1	0	1	72	381	stimuli\Targets_short_600ms_vertflip\finger-tap_short_horvertflip_short_600ms.mp4	finger-tap_short_horvertflip_short_600ms.mp4	296.9321844382466	297.540503742247	0.6083193040003607	n/a	n/a	n/a	n/a
189.44189453125	0.2	387977	168	36	1	0	0	73	81	stimuli\Videos_short_600ms\83.single_stroke_top_to_bottom_with_cotton_bud_short_short_600ms.mp4	83.single_stroke_top_to_bottom_with_cotton_bud_short_short_600ms.mp4	297.7321660811049	298.34048714457595	0.6083210634710667	n/a	n/a	n/a	n/a
190.24169921875	0.2	389615	169	36	1	0	0	74	180	stimuli\Videos_short_600ms_horvertflip\1.repeated_touch_with_finger_fast_short_horvertflip_short_600ms.mp4	1.repeated_touch_with_finger_fast_short_horvertflip_short_600ms.mp4	298.53216091999184	299.1404717198852	0.6083107998933883	n/a	n/a	n/a	n/a
191.04150390625	0.2	391253	170	36	1	0	0	75	19	stimuli\Videos_short_600ms\27.single_push_with_a_plastic_whisk_short_short_600ms.mp4	27.single_push_with_a_plastic_whisk_short_short_600ms.mp4	299.3321337654984	299.9404554154594	0.6083216499609989	n/a	n/a	n/a	n/a
191.841796875	0.2	392892	171	36	1	0	0	76	89	stimuli\Videos_short_600ms\90.repeated_touch_with_sponge_short_short_600ms.mp4	90.repeated_touch_with_sponge_short_short_600ms.mp4	300.13210690424967	300.74043823129796	0.6083313270482904	n/a	n/a	n/a	n/a
192.6416015625	0.2	394530	172	36	1	0	0	77	0	stimuli\Videos_short_600ms\1.repeated_touch_with_finger_fast_short_short_600ms.mp4	1.repeated_touch_with_finger_fast_short_short_600ms.mp4	300.93207828353115	301.5404225133625	0.6083442298313457	n/a	n/a	n/a	n/a
193.44140625	0.2	396168	173	36	1	0	0	78	64	stimuli\Videos_short_600ms\68.stroke_top_to_bottom_with_shawl_short_short_600ms.mp4	68.stroke_top_to_bottom_with_shawl_short_short_600ms.mp4	301.7320813332799	302.3404065021814	0.6083251689015015	n/a	n/a	n/a	n/a
194.24169921875	0.2	397807	174	36	1	0	0	79	315	stimuli\Videos_short_600ms_vertflip\50.single_(long)hard_push_with_thumb_short_vertflip_short_600ms.mp4	50.single_(long)hard_push_with_thumb_short_vertflip_short_600ms.mp4	302.53212103866235	303.14039019775555	0.6082691590931972	n/a	n/a	n/a	n/a
195.04150390625	0.2	399445	175	36	1	0	0	80	233	stimuli\Videos_short_600ms_horvertflip\58.single_slap_with_pencil_short_horvertflip_short_600ms.mp4	58.single_slap_with_pencil_short_horvertflip_short_600ms.mp4	303.3320481379378	303.94037154736907	0.6083234094312502	n/a	n/a	n/a	n/a
195.841796875	0.2	401084	176	36	1	0	0	81	3	stimuli\Videos_short_600ms\12.repeated_touch_with_nail_file_short_short_600ms.mp4	12.repeated_touch_with_nail_file_short_short_600ms.mp4	304.1320432700695	304.7403596416193	0.6083163715497903	n/a	n/a	n/a	n/a
196.6416015625	0.2	402722	177	36	1	0	0	82	173	stimuli\Videos_short_600ms_horflip\85.touch_top_to_bottom_with_fabric_short_horflip_short_600ms.mp4	85.touch_top_to_bottom_with_fabric_short_horflip_short_600ms.mp4	304.9320017465675	305.5403389385174	0.6083371919498859	n/a	n/a	n/a	n/a
197.44140625	0.2	404360	178	36	1	0	0	83	252	stimuli\Videos_short_600ms_horvertflip\75.(long)stroke_with_fingers_all_over_the_hand_short_horvertflip_short_600ms.mp4	75.(long)stroke_with_fingers_all_over_the_hand_short_horvertflip_short_600ms.mp4	305.7320053828066	306.3403185286602	0.6083131458535718	n/a	n/a	n/a	n/a
198.24169921875	0.2	405999	179	36	1	0	1	84	367	stimuli\Targets_short_600ms_horflip\chopstick-silver-tap_short_horflip_short_600ms.mp4	chopstick-silver-tap_short_horflip_short_600ms.mp4	306.53199142434096	307.14028287005976	0.6082914457188053	n/a	n/a	n/a	n/a
199.04150390625	0.2	407637	180	36	1	0	0	85	159	stimuli\Videos_short_600ms_horflip\72.(short)stroke_with_finger_all_over_the_hand_short_horflip_short_600ms.mp4	72.(short)stroke_with_finger_all_over_the_hand_short_horflip_short_600ms.mp4	307.3319683752784	307.9402856265633	0.608317251284916	n/a	n/a	n/a	n/a
199.84130859375	0.2	409275	181	36	1	0	0	86	209	stimuli\Videos_short_600ms_horvertflip\36.single_slap_with_full_hand_short_horvertflip_short_600ms.mp4	36.single_slap_with_full_hand_short_horvertflip_short_600ms.mp4	308.13195793575414	308.7402675626672	0.6083096269130692	n/a	n/a	n/a	n/a
200.6416015625	0.2	410914	182	36	1	0	0	87	244	stimuli\Videos_short_600ms_horvertflip\68.stroke_top_to_bottom_with_shawl_short_horvertflip_short_600ms.mp4	68.stroke_top_to_bottom_with_shawl_short_horvertflip_short_600ms.mp4	308.9319360596719	309.540262108309	0.6083260486370818	n/a	n/a	n/a	n/a
201.44140625	0.2	412552	183	36	1	0	0	88	133	stimuli\Videos_short_600ms_horflip\49.repeated_slap_with_hand_short_horflip_short_600ms.mp4	49.repeated_slap_with_hand_short_horflip_short_600ms.mp4	309.73191858226573	310.3402446309028	0.6083260486370818	n/a	n/a	n/a	n/a
202.2412109375	0.2	414190	184	36	1	0	0	89	295	stimuli\Videos_short_600ms_vertflip\32.single_(long)pinch_with_fingers_short_vertflip_short_600ms.mp4	32.single_(long)pinch_with_fingers_short_vertflip_short_600ms.mp4	310.53190491704527	311.1402224615754	0.6083175445301094	n/a	n/a	n/a	n/a
203.04150390625	0.2	415829	185	36	1	0	0	90	137	stimuli\Videos_short_600ms_horflip\52.touch_top_to_bottom_with_hammer_short_horflip_short_600ms.mp4	52.touch_top_to_bottom_with_hammer_short_horflip_short_600ms.mp4	311.33188919910936	311.94020733012985	0.6083181310204964	n/a	n/a	n/a	n/a
203.84130859375	0.2	417467	186	36	1	0	0	91	299	stimuli\Videos_short_600ms_vertflip\36.single_slap_with_full_hand_short_vertflip_short_600ms.mp4	36.single_slap_with_full_hand_short_vertflip_short_600ms.mp4	312.1318893164075	312.7401948378897	0.6083055214821798	n/a	n/a	n/a	n/a
204.64111328125	0.2	419105	187	36	1	0	0	92	170	stimuli\Videos_short_600ms_horflip\82.repeated_touch_with_cotton_bud_short_horflip_short_600ms.mp4	82.repeated_touch_with_cotton_bud_short_horflip_short_600ms.mp4	312.931854244297	313.540175894258	0.6083216499609989	n/a	n/a	n/a	n/a
205.44140625	0.2	420744	188	36	1	0	0	93	229	stimuli\Videos_short_600ms_horvertflip\54.repeated_touch_with_knife_short_horvertflip_short_600ms.mp4	54.repeated_touch_with_knife_short_horvertflip_short_600ms.mp4	313.73183999258663	314.3401604695673	0.6083204769806798	n/a	n/a	n/a	n/a
206.2412109375	0.2	422382	189	36	1	0	0	94	122	stimuli\Videos_short_600ms_horflip\39.single_stab_with_scissors_short_horflip_short_600ms.mp4	39.single_stab_with_scissors_short_horflip_short_600ms.mp4	314.5318251543863	315.1401409394457	0.6083157850594034	n/a	n/a	n/a	n/a
207.041015625	0.2	424020	190	36	1	0	0	95	31	stimuli\Videos_short_600ms\38.double_slap_with_pencil_short_short_600ms.mp4	38.double_slap_with_pencil_short_short_600ms.mp4	315.3318267379095	315.94012463501986	0.608297897110333	n/a	n/a	n/a	n/a
207.84130859375	0.2	425659	191	36	1	0	0	96	156	stimuli\Videos_short_600ms_horflip\7.repeated_touch_with_hairbrush_short_horflip_short_600ms.mp4	7.repeated_touch_with_hairbrush_short_horflip_short_600ms.mp4	316.131770258909	316.7401112630446	0.6083410041355819	7.0	6.0	2.0609113998143584	0.0
241.90673828125	0.2	495425	192	36	2	0	0	0	30	stimuli\Videos_short_600ms\37.single_stab_with_nail_file_short_short_600ms.mp4	37.single_stab_with_nail_file_short_short_600ms.mp4	350.19774952003127	350.8060770348934	0.6083275148621397	n/a	n/a	n/a	n/a
242.70654296875	0.2	497063	193	36	2	0	0	1	87	stimuli\Videos_short_600ms\89.single_touch_with_plastic_brush_short_short_600ms.mp4	89.single_touch_with_plastic_brush_short_short_600ms.mp4	350.9977343885853	351.6060630764282	0.6083286878429135	n/a	n/a	n/a	n/a
243.5068359375	0.2	498702	194	36	2	0	0	2	118	stimuli\Videos_short_600ms_horflip\35.single_punch_with_hand_short_horflip_short_600ms.mp4	35.single_punch_with_hand_short_horflip_short_600ms.mp4	351.79771808415944	352.40603533544436	0.608317251284916	n/a	n/a	n/a	n/a
244.306640625	0.2	500340	195	36	2	0	0	3	359	stimuli\Videos_short_600ms_vertflip\90.repeated_touch_with_sponge_short_vertflip_short_600ms.mp4	90.repeated_touch_with_sponge_short_vertflip_short_600ms.mp4	352.5977020729788	353.2060281216159	0.6083260486370818	n/a	n/a	n/a	n/a
245.1064453125	0.2	501978	196	36	2	0	0	4	309	stimuli\Videos_short_600ms_vertflip\45.scratching_with_finger_nails_short_vertflip_short_600ms.mp4	45.scratching_with_finger_nails_short_vertflip_short_600ms.mp4	353.397682249612	354.0060024333475	0.6083201837354864	n/a	n/a	n/a	n/a
245.90673828125	0.2	503617	197	36	2	0	0	5	13	stimuli\Videos_short_600ms\21.repeated_touch_with_metal_chopstick_short_short_600ms.mp4	21.repeated_touch_with_metal_chopstick_short_short_600ms.mp4	354.1976732763128	354.8059843694514	0.6083110931385818	n/a	n/a	n/a	n/a
246.70654296875	0.2	505255	198	36	2	0	0	6	32	stimuli\Videos_short_600ms\39.single_stab_with_scissors_short_short_600ms.mp4	39.single_stab_with_scissors_short_short_600ms.mp4	354.9976531597008	355.6059683582703	0.6083151985694712	n/a	n/a	n/a	n/a
247.50634765625	0.2	506893	199	36	2	0	0	7	120	stimuli\Videos_short_600ms_horflip\37.single_stab_with_nail_file_short_horflip_short_600ms.mp4	37.single_stab_with_nail_file_short_horflip_short_600ms.mp4	355.79763157686375	356.4059523470896	0.6083207702258733	n/a	n/a	n/a	n/a
248.306640625	0.2	508532	200	36	2	0	0	8	127	stimuli\Videos_short_600ms_horflip\43.touch_top_to_bottom_with_sharp_wooden_stick_short_horflip_short_600ms.mp4	43.touch_top_to_bottom_with_sharp_wooden_stick_short_horflip_short_600ms.mp4	356.59761556568264	357.2059354561734	0.6083198904907476	n/a	n/a	n/a	n/a
249.1064453125	0.2	510170	201	36	2	0	0	9	97	stimuli\Videos_short_600ms_horflip\16.repeated_touch_with_plastic_brush_short_horflip_short_600ms.mp4	16.repeated_touch_with_plastic_brush_short_horflip_short_600ms.mp4	357.397624480333	358.00591856525716	0.6082940849241822	n/a	n/a	n/a	n/a
249.90625	0.2	511808	202	36	2	0	0	10	337	stimuli\Videos_short_600ms_vertflip\70.(long)stroke_with_finger_all_over_the_hand_short_vertflip_short_600ms.mp4	70.(long)stroke_with_finger_all_over_the_hand_short_vertflip_short_600ms.mp4	358.1975902879576	358.80590343381164	0.6083131458540265	n/a	n/a	n/a	n/a
250.70654296875	0.2	513447	203	36	2	0	0	11	1	stimuli\Videos_short_600ms\10.single_touch_with_knife_short_short_600ms.mp4	10.single_touch_with_knife_short_short_600ms.mp4	358.9975446590247	359.6058765725634	0.6083319135386773	n/a	n/a	n/a	n/a
251.50634765625	0.2	515085	204	36	2	0	0	12	143	stimuli\Videos_short_600ms_horflip\58.single_slap_with_pencil_short_horflip_short_600ms.mp4	58.single_slap_with_pencil_short_horflip_short_600ms.mp4	359.79754858850856	360.4058684789993	0.6083198904907476	n/a	n/a	n/a	n/a
252.306640625	0.2	516724	205	36	2	0	0	13	250	stimuli\Videos_short_600ms_horvertflip\73.single_stroke_with_flat_hand_short_horvertflip_short_600ms.mp4	73.single_stroke_with_flat_hand_short_horvertflip_short_600ms.mp4	360.59754196117	361.20587006252254	0.6083281013525266	n/a	n/a	n/a	n/a
253.1064453125	0.2	518362	206	36	2	0	0	14	326	stimuli\Videos_short_600ms_vertflip\60.single_push_with_tip_of_pencil_short_vertflip_short_600ms.mp4	60.single_push_with_tip_of_pencil_short_vertflip_short_600ms.mp4	361.3975215513133	362.00583821610826	0.6083166647949838	n/a	n/a	n/a	n/a
253.90625	0.2	520000	207	36	2	0	0	15	138	stimuli\Videos_short_600ms_horflip\53.touch_top_to_bottom_with_knife_short_horflip_short_600ms.mp4	53.touch_top_to_bottom_with_knife_short_horflip_short_600ms.mp4	362.19751140503377	362.8058268968484	0.6083154918146647	n/a	n/a	n/a	n/a
254.71484375	0.2	521656	208	36	2	0	0	16	191	stimuli\Videos_short_600ms_horvertflip\2.single_touch_with_finger_short_horvertflip_short_600ms.mp4	2.single_touch_with_finger_short_horvertflip_short_600ms.mp4	363.005937626187	363.6141422713649	0.6082046451779206	n/a	n/a	n/a	n/a
255.5146484375	0.2	523294	209	36	2	0	0	17	69	stimuli\Videos_short_600ms\72.(short)stroke_with_finger_all_over_the_hand_short_short_600ms.mp4	72.(short)stroke_with_finger_all_over_the_hand_short_short_600ms.mp4	363.8058090088989	364.4141247939587	0.6083157850598582	n/a	n/a	n/a	n/a
256.314453125	0.2	524932	210	36	2	0	0	18	198	stimuli\Videos_short_600ms_horvertflip\26.single_touch_with_a_blunt_syringe_short_horvertflip_short_600ms.mp4	26.single_touch_with_a_blunt_syringe_short_horvertflip_short_600ms.mp4	364.60578185440545	365.2141105422483	0.6083286878429135	n/a	n/a	n/a	n/a
257.11474609375	0.2	526571	211	36	2	0	0	19	2	stimuli\Videos_short_600ms\11.single_touch_with_lighter_short_short_600ms.mp4	11.single_touch_with_lighter_short_short_600ms.mp4	365.40576173779345	366.0140918918619	0.608330154068426	n/a	n/a	n/a	n/a
257.91455078125	0.2	528209	212	36	2	0	0	20	227	stimuli\Videos_short_600ms_horvertflip\52.touch_top_to_bottom_with_hammer_short_horvertflip_short_600ms.mp4	52.touch_top_to_bottom_with_hammer_short_horvertflip_short_600ms.mp4	366.2057568699256	366.81405564677107	0.6082987768454586	n/a	n/a	n/a	n/a
258.71435546875	0.2	529847	213	36	2	0	0	21	335	stimuli\Videos_short_600ms_vertflip\69.stroke_with_soft_sock_short_vertflip_short_600ms.mp4	69.stroke_with_soft_sock_short_vertflip_short_600ms.mp4	367.0058956921421	367.6140308382378	0.6081351460957194	n/a	n/a	n/a	n/a
259.5146484375	0.2	531486	214	36	2	0	0	22	350	stimuli\Videos_short_600ms_vertflip\82.repeated_touch_with_cotton_bud_short_vertflip_short_600ms.mp4	82.repeated_touch_with_cotton_bud_short_vertflip_short_600ms.mp4	367.80569317709615	368.41401482705714	0.6083216499609989	n/a	n/a	n/a	n/a
260.314453125	0.2	533124	215	36	2	0	0	23	205	stimuli\Videos_short_600ms_horvertflip\32.single_(long)pinch_with_fingers_short_horvertflip_short_600ms.mp4	32.single_(long)pinch_with_fingers_short_horvertflip_short_600ms.mp4	368.60569915929545	369.2139991091212	0.6082999498257777	n/a	n/a	n/a	n/a
261.1142578125	0.2	534762	216	36	2	0	0	24	157	stimuli\Videos_short_600ms_horflip\70.(long)stroke_with_finger_all_over_the_hand_short_horflip_short_600ms.mp4	70.(long)stroke_with_finger_all_over_the_hand_short_horflip_short_600ms.mp4	369.40568109539936	370.013997173704	0.6083160783045969	n/a	n/a	n/a	n/a
261.91455078125	0.2	536401	217	36	2	0	0	25	321	stimuli\Videos_short_600ms_vertflip\56.repeated_touch_with_nail_file_short_vertflip_short_600ms.mp4	56.repeated_touch_with_nail_file_short_vertflip_short_600ms.mp4	370.2056674301789	370.8139943585511	0.6083269283722075	n/a	n/a	n/a	n/a
262.71435546875	0.2	538039	218	36	2	0	0	26	129	stimuli\Videos_short_600ms_horflip\45.scratching_with_finger_nails_short_horflip_short_600ms.mp4	45.scratching_with_finger_nails_short_horflip_short_600ms.mp4	371.0056502460179	371.6139809865758	0.6083307405579035	n/a	n/a	n/a	n/a
263.51416015625	0.2	539677	219	36	2	0	0	27	76	stimuli\Videos_short_600ms\79.long_with_soft_brush_all_over_the_hand_short_short_600ms.mp4	79.long_with_soft_brush_all_over_the_hand_short_short_600ms.mp4	371.80563716728784	372.4139696673165	0.6083325000286095	n/a	n/a	n/a	n/a
264.314453125	0.2	541316	220	36	2	0	0	28	353	stimuli\Videos_short_600ms_vertflip\85.touch_top_to_bottom_with_fabric_short_vertflip_short_600ms.mp4	85.touch_top_to_bottom_with_fabric_short_vertflip_short_600ms.mp4	372.6056158776955	373.2139398736171	0.6083239959216371	n/a	n/a	n/a	n/a
265.1142578125	0.2	542954	221	36	2	0	0	29	124	stimuli\Videos_short_600ms_horflip\40.repeated_push_with_finger_short_horflip_short_600ms.mp4	40.repeated_push_with_finger_short_horflip_short_600ms.mp4	373.4056001597596	374.0139379381999	0.6083377784402728	n/a	n/a	n/a	n/a
265.91455078125	0.2	544593	222	36	2	0	0	30	316	stimuli\Videos_short_600ms_vertflip\51.repeated_touch_with_hammer_short_vertflip_short_600ms.mp4	51.repeated_touch_with_hammer_short_vertflip_short_600ms.mp4	374.2055850283141	374.8139078512554	0.608322822941318	n/a	n/a	n/a	n/a
266.71435546875	0.2	546231	223	36	2	0	0	31	38	stimuli\Videos_short_600ms\44.pushing_top_to_bottom_with_finger_short_short_600ms.mp4	44.pushing_top_to_bottom_with_finger_short_short_600ms.mp4	375.00555875355576	375.6138924265647	0.6083336730089286	n/a	n/a	n/a	n/a
267.51416015625	0.2	547869	224	36	2	0	0	32	254	stimuli\Videos_short_600ms_horvertflip\77.tapping_with_all_fingers_short_horvertflip_short_600ms.mp4	77.tapping_with_all_fingers_short_horvertflip_short_600ms.mp4	375.80554948701183	376.4138743626686	0.6083248756567627	n/a	n/a	n/a	n/a
268.314453125	0.2	549508	225	36	2	0	0	33	16	stimuli\Videos_short_600ms\24.single_stroke_top_to_bottom_with_a_spoon_short_short_600ms.mp4	24.single_stroke_top_to_bottom_with_a_spoon_short_short_600ms.mp4	376.6055340623211	377.2138574717523	0.6083234094312502	n/a	n/a	n/a	n/a
269.1142578125	0.2	551146	226	36	2	0	0	34	181	stimuli\Videos_short_600ms_horvertflip\10.single_touch_with_knife_short_horvertflip_short_600ms.mp4	10.single_touch_with_knife_short_horvertflip_short_600ms.mp4	377.40549576451485	378.0138402875914	0.6083445230765392	n/a	n/a	n/a	n/a
269.9140625	0.2	552784	227	36	2	0	0	35	113	stimuli\Videos_short_600ms_horflip\30.finger_pulling_back_another_finger_short_horflip_short_600ms.mp4	30.finger_pulling_back_another_finger_short_horflip_short_600ms.mp4	378.2055023332041	378.8138266223709	0.6083242891668306	n/a	n/a	n/a	n/a
270.71435546875	0.2	554423	228	36	2	0	0	36	300	stimuli\Videos_short_600ms_vertflip\37.single_stab_with_nail_file_short_vertflip_short_600ms.mp4	37.single_stab_with_nail_file_short_vertflip_short_600ms.mp4	379.005484269308	379.613810904435	0.608326635127014	n/a	n/a	n/a	n/a
271.51416015625	0.2	556061	229	36	2	0	0	37	147	stimuli\Videos_short_600ms_horflip\61.single_hit_with_rolling_pin_short_horflip_short_600ms.mp4	61.single_hit_with_rolling_pin_short_horflip_short_600ms.mp4	379.8054694311072	380.4137899080879	0.6083204769806798	n/a	n/a	n/a	n/a
272.31396484375	0.2	557699	230	36	2	0	0	38	202	stimuli\Videos_short_600ms_horvertflip\3.single_push_with_finger_short_horvertflip_short_600ms.mp4	3.single_push_with_finger_short_horvertflip_short_600ms.mp4	380.60545312668137	381.2137774158482	0.6083242891668306	n/a	n/a	n/a	n/a
273.1142578125	0.2	559338	231	36	2	0	1	39	370	stimuli\Targets_short_600ms_horflip\hand-pinch_short_horflip_short_600ms.mp4	hand-pinch_short_horflip_short_600ms.mp4	381.4054356492752	382.0138892595178	0.6084536102425773	n/a	n/a	n/a	n/a
273.9140625	0.2	560976	232	36	2	0	0	40	296	stimuli\Videos_short_600ms_vertflip\33.scratch_top_to_bottom_with_scissors_short_vertflip_short_600ms.mp4	33.scratch_top_to_bottom_with_scissors_short_vertflip_short_600ms.mp4	382.20542520975096	382.8137380623598	0.608312852608833	n/a	n/a	n/a	n/a
274.7138671875	0.2	562614	233	36	2	0	0	41	272	stimuli\Videos_short_600ms_vertflip\11.single_touch_with_lighter_short_vertflip_short_600ms.mp4	11.single_touch_with_lighter_short_vertflip_short_600ms.mp4	383.0054086120799	383.6137258633648	0.608317251284916	n/a	n/a	n/a	n/a
275.51416015625	0.2	564253	234	36	2	0	0	42	125	stimuli\Videos_short_600ms_horflip\41.injection_with_blunt_syringe_short_horflip_short_600ms.mp4	41.injection_with_blunt_syringe_short_horflip_short_600ms.mp4	383.8053876157328	384.4137045737725	0.6083169580397225	n/a	n/a	n/a	n/a
276.31396484375	0.2	565891	235	36	2	0	0	43	46	stimuli\Videos_short_600ms\51.repeated_touch_with_hammer_short_short_600ms.mp4	51.repeated_touch_with_hammer_short_short_600ms.mp4	384.6053674991208	385.2136914950424	0.6083239959216371	n/a	n/a	n/a	n/a
277.11376953125	0.2	567529	236	36	2	0	0	44	210	stimuli\Videos_short_600ms_horvertflip\37.single_stab_with_nail_file_short_horvertflip_short_600ms.mp4	37.single_stab_with_nail_file_short_horvertflip_short_600ms.mp4	385.40531160661067	386.0136825217433	0.608370915132582	n/a	n/a	n/a	n/a
277.9140625	0.2	569168	237	36	2	0	0	45	297	stimuli\Videos_short_600ms_vertflip\34.repeated_punch_with_hand_short_vertflip_short_600ms.mp4	34.repeated_punch_with_hand_short_vertflip_short_600ms.mp4	386.2053351835143	386.8136585929456	0.6083234094312502	n/a	n/a	n/a	n/a
278.7138671875	0.2	570806	238	36	2	0	0	46	84	stimuli\Videos_short_600ms\86.touch_top_to_bottom_with_hair_brush_short_short_600ms.mp4	86.touch_top_to_bottom_with_hair_brush_short_short_600ms.mp4	387.00531770610814	387.6136504993815	0.6083327932733482	n/a	n/a	n/a	n/a
279.513671875	0.2	572444	239	36	2	0	0	47	57	stimuli\Videos_short_600ms\61.single_hit_with_rolling_pin_short_short_600ms.mp4	61.single_hit_with_rolling_pin_short_short_600ms.mp4	387.8053011084371	388.4136245178683	0.6083234094312502	n/a	n/a	n/a	n/a
280.31396484375	0.2	574083	240	36	2	0	0	48	236	stimuli\Videos_short_600ms_horvertflip\60.single_push_with_tip_of_pencil_short_horvertflip_short_600ms.mp4	60.single_push_with_tip_of_pencil_short_horvertflip_short_600ms.mp4	388.6052839242757	389.213606747217	0.608322822941318	n/a	n/a	n/a	n/a
281.11376953125	0.2	575721	241	36	2	0	0	49	48	stimuli\Videos_short_600ms\53.touch_top_to_bottom_with_knife_short_short_600ms.mp4	53.touch_top_to_bottom_with_knife_short_short_600ms.mp4	389.40526761984984	390.0135901495459	0.6083225296961245	n/a	n/a	n/a	n/a
281.91357421875	0.2	577359	242	36	2	0	0	50	44	stimuli\Videos_short_600ms\5.repeated_tap_with_finger_moving_from_top_to_bottom_short_short_600ms.mp4	5.repeated_tap_with_finger_moving_from_top_to_bottom_short_short_600ms.mp4	390.2052521951591	390.8135770708159	0.6083248756567627	n/a	n/a	n/a	n/a
282.7138671875	0.2	578998	243	36	2	0	0	51	253	stimuli\Videos_short_600ms_horvertflip\76.tickle_with_fingers_from_top_to_bottom_short_horvertflip_short_600ms.mp4	76.tickle_with_fingers_from_top_to_bottom_short_horvertflip_short_600ms.mp4	391.0059361599615	391.61353994598994	0.6076037860284487	n/a	n/a	n/a	n/a
283.513671875	0.2	580636	244	36	2	0	0	52	182	stimuli\Videos_short_600ms_horvertflip\11.single_touch_with_lighter_short_horvertflip_short_600ms.mp4	11.single_touch_with_lighter_short_horvertflip_short_600ms.mp4	391.80570901232977	392.413544168719	0.6078351563892284	n/a	n/a	n/a	n/a
284.3134765625	0.2	582274	245	36	2	0	0	53	212	stimuli\Videos_short_600ms_horvertflip\39.single_stab_with_scissors_short_horvertflip_short_600ms.mp4	39.single_stab_with_scissors_short_horvertflip_short_600ms.mp4	392.60522116983066	393.2135246385974	0.608303468766735	n/a	n/a	n/a	n/a
285.11376953125	0.2	583913	246	36	2	0	0	54	27	stimuli\Videos_short_600ms\34.repeated_punch_with_hand_short_short_600ms.mp4	34.repeated_punch_with_hand_short_short_600ms.mp4	393.4051632246046	394.0135139058279	0.6083506812233281	n/a	n/a	n/a	n/a
285.91357421875	0.2	585551	247	36	2	0	0	55	192	stimuli\Videos_short_600ms_horvertflip\20.single_touch_with_screwdriver_short_horvertflip_short_600ms.mp4	20.single_touch_with_screwdriver_short_horvertflip_short_600ms.mp4	394.20516686084375	394.8134923229904	0.6083254621466949	n/a	n/a	n/a	n/a
286.72216796875	0.2	587207	248	36	2	0	1	56	382	stimuli\Targets_short_600ms_vertflip\hand-pinch_short_horvertflip_short_600ms.mp4	hand-pinch_short_horvertflip_short_600ms.mp4	395.01350422874066	395.6218094569776	0.6083052282369863	n/a	n/a	n/a	n/a
287.52197265625	0.2	588845	249	36	2	0	0	57	148	stimuli\Videos_short_600ms_horflip\62.touch_top_to_bottom_with_scissors_short_horflip_short_600ms.mp4	62.touch_top_to_bottom_with_scissors_short_horflip_short_600ms.mp4	395.8134703296105	396.4217919795715	0.6083216499609989	n/a	n/a	n/a	n/a
288.32177734375	0.2	590483	250	36	2	0	0	58	232	stimuli\Videos_short_600ms_horvertflip\57.single_touch_with_nail_file_short_horvertflip_short_600ms.mp4	57.single_touch_with_nail_file_short_horvertflip_short_600ms.mp4	396.61345725087995	397.221773329185	0.6083160783050516	n/a	n/a	n/a	n/a
289.1220703125	0.2	592122	251	36	2	0	0	59	288	stimuli\Videos_short_600ms_vertflip\26.single_touch_with_a_blunt_syringe_short_vertflip_short_600ms.mp4	26.single_touch_with_a_blunt_syringe_short_vertflip_short_600ms.mp4	397.41343860049346	398.0217596639646	0.6083210634710667	n/a	n/a	n/a	n/a
289.921875	0.2	593760	252	36	2	0	0	60	246	stimuli\Videos_short_600ms_horvertflip\7.repeated_touch_with_hairbrush_short_horvertflip_short_600ms.mp4	7.repeated_touch_with_hairbrush_short_horvertflip_short_600ms.mp4	398.2134240555383	398.8217213661583	0.6082973106199461	n/a	n/a	n/a	n/a
290.7216796875	0.2	595398	253	36	2	0	0	61	59	stimuli\Videos_short_600ms\63.stroke_top_to_bottom_with_screwdriver_short_short_600ms.mp4	63.stroke_top_to_bottom_with_screwdriver_short_short_600ms.mp4	399.0133807725656	399.6217250023974	0.6083442298318005	n/a	n/a	n/a	n/a
291.52197265625	0.2	597037	254	36	2	0	0	62	317	stimuli\Videos_short_600ms_vertflip\52.touch_top_to_bottom_with_hammer_short_vertflip_short_600ms.mp4	52.touch_top_to_bottom_with_hammer_short_vertflip_short_600ms.mp4	399.8133624154243	400.42171221691206	0.6083498014877478	n/a	n/a	n/a	n/a
292.32177734375	0.2	598675	255	36	2	0	0	63	142	stimuli\Videos_short_600ms_horflip\57.single_touch_with_nail_file_short_horflip_short_600ms.mp4	57.single_touch_with_nail_file_short_horflip_short_600ms.mp4	400.6133692773592	401.2216929800357	0.6083237026764436	n/a	n/a	n/a	n/a
293.12158203125	0.2	600313	256	36	2	0	0	64	204	stimuli\Videos_short_600ms_horvertflip\31.hand_grabbing_wrist_short_horvertflip_short_600ms.mp4	31.hand_grabbing_wrist_short_horvertflip_short_600ms.mp4	401.4133559053839	402.021670517463	0.6083146120790843	n/a	n/a	n/a	n/a
293.921875	0.2	601952	257	36	2	0	0	65	82	stimuli\Videos_short_600ms\84.single_touch_with_cotton_bud_short_short_600ms.mp4	84.single_touch_with_cotton_bud_short_short_600ms.mp4	402.2133387212225	402.821661837409	0.6083231161865115	n/a	n/a	n/a	n/a
294.7216796875	0.2	603590	258	36	2	0	0	66	74	stimuli\Videos_short_600ms\77.tapping_with_all_fingers_short_short_600ms.mp4	77.tapping_with_all_fingers_short_short_600ms.mp4	403.0133318006392	403.62163732212093	0.608305521481725	n/a	n/a	n/a	n/a
295.521484375	0.2	605228	259	36	2	0	0	67	224	stimuli\Videos_short_600ms_horvertflip\5.repeated_tap_with_finger_moving_from_top_to_bottom_short_horvertflip_short_600ms.mp4	5.repeated_tap_with_finger_moving_from_top_to_bottom_short_horvertflip_short_600ms.mp4	403.8133049393905	404.4216227771658	0.6083178377753029	n/a	n/a	n/a	n/a
296.32177734375	0.2	606867	260	36	2	0	0	68	269	stimuli\Videos_short_600ms_horvertflip\90.repeated_touch_with_sponge_short_horvertflip_short_600ms.mp4	90.repeated_touch_with_sponge_short_horvertflip_short_600ms.mp4	404.6132892214546	405.2216047132693	0.6083154918146647	n/a	n/a	n/a	n/a
297.12158203125	0.2	608505	261	36	2	0	0	69	218	stimuli\Videos_short_600ms_horvertflip\44.pushing_top_to_bottom_with_finger_short_horvertflip_short_600ms.mp4	44.pushing_top_to_bottom_with_finger_short_horvertflip_short_600ms.mp4	405.4132714508037	406.021590754804	0.6083193040003607	n/a	n/a	n/a	n/a
297.92138671875	0.2	610143	262	36	2	0	0	70	28	stimuli\Videos_short_600ms\35.single_punch_with_hand_short_short_600ms.mp4	35.single_punch_with_hand_short_short_600ms.mp4	406.2132290475666	406.82158002203414	0.6083509744676121	n/a	n/a	n/a	n/a
298.7216796875	0.2	611782	263	36	2	0	0	71	343	stimuli\Videos_short_600ms_vertflip\76.tickle_with_fingers_from_top_to_bottom_short_vertflip_short_600ms.mp4	76.tickle_with_fingers_from_top_to_bottom_short_vertflip_short_600ms.mp4	407.01323620274616	407.6215675297945	0.6083313270482904	n/a	n/a	n/a	n/a
299.521484375	0.2	613420	264	36	2	0	0	72	235	stimuli\Videos_short_600ms_horvertflip\6.single_touch_with_flat_hand_short_horvertflip_short_600ms.mp4	6.single_touch_with_flat_hand_short_horvertflip_short_600ms.mp4	407.81322165779056	408.42155181185854	0.6083301540679713	n/a	n/a	n/a	n/a
300.3212890625	0.2	615058	265	36	2	0	0	73	83	stimuli\Videos_short_600ms\85.touch_top_to_bottom_with_fabric_short_short_600ms.mp4	85.touch_top_to_bottom_with_fabric_short_short_600ms.mp4	408.61320623309985	409.2215275898157	0.6083213567158055	n/a	n/a	n/a	n/a
301.12158203125	0.2	616697	266	36	2	0	0	74	24	stimuli\Videos_short_600ms\31.hand_grabbing_wrist_short_short_600ms.mp4	31.hand_grabbing_wrist_short_short_600ms.mp4	409.4131896354288	410.0215080596941	0.6083184242652351	n/a	n/a	n/a	n/a
301.92138671875	0.2	618335	267	36	2	0	0	75	330	stimuli\Videos_short_600ms_vertflip\64.repeated_touch_with_screwdriver_short_vertflip_short_600ms.mp4	64.repeated_touch_with_screwdriver_short_vertflip_short_600ms.mp4	410.213169812062	410.8214932214937	0.6083234094317049	n/a	n/a	n/a	n/a
302.7216796875	0.2	619974	268	36	2	0	0	76	206	stimuli\Videos_short_600ms_horvertflip\33.scratch_top_to_bottom_with_scissors_short_horvertflip_short_600ms.mp4	33.scratch_top_to_bottom_with_scissors_short_horvertflip_short_600ms.mp4	411.013156146842	411.6214751575971	0.6083190107551673	n/a	n/a	n/a	n/a
303.521484375	0.2	621612	269	36	2	0	0	77	268	stimuli\Videos_short_600ms_horvertflip\9.single_touch_with_hammer_short_horvertflip_short_600ms.mp4	9.single_touch_with_hammer_short_horvertflip_short_600ms.mp4	411.81313837619064	412.4214629586022	0.6083245824115693	n/a	n/a	n/a	n/a
304.3212890625	0.2	623250	270	36	2	0	0	78	75	stimuli\Videos_short_600ms\78.single_stroke_top_to_bottom_with_soft_brush_short_short_600ms.mp4	78.single_stroke_top_to_bottom_with_soft_brush_short_short_600ms.mp4	412.6131255907053	413.2214399095397	0.6083143188343456	n/a	n/a	n/a	n/a
305.12158203125	0.2	624889	271	36	2	0	0	79	174	stimuli\Videos_short_600ms_horflip\86.touch_top_to_bottom_with_hair_brush_short_horflip_short_600ms.mp4	86.touch_top_to_bottom_with_hair_brush_short_horflip_short_600ms.mp4	413.41310019568255	414.0214268308096	0.608326635127014	n/a	n/a	n/a	n/a
305.92138671875	0.2	626527	272	36	2	0	0	80	49	stimuli\Videos_short_600ms\54.repeated_touch_with_knife_short_short_600ms.mp4	54.repeated_touch_with_knife_short_short_600ms.mp4	414.21308506423657	414.821408766913	0.6083237026764436	n/a	n/a	n/a	n/a
306.72119140625	0.2	628165	273	36	2	0	1	81	378	stimuli\Targets_short_600ms_vertflip\brush-stroke_short_horvertflip_short_600ms.mp4	brush-stroke_short_horvertflip_short_600ms.mp4	415.0130461799404	415.6213909962621	0.6083448163217327	n/a	n/a	n/a	n/a
307.521484375	0.2	629804	274	36	2	0	0	82	80	stimuli\Videos_short_600ms\82.repeated_touch_with_cotton_bud_short_short_600ms.mp4	82.repeated_touch_with_cotton_bud_short_short_600ms.mp4	415.81303046200446	416.4213761580613	0.6083456960568583	n/a	n/a	n/a	n/a
308.3212890625	0.2	631442	275	36	2	0	0	83	146	stimuli\Videos_short_600ms_horflip\60.single_push_with_tip_of_pencil_short_horflip_short_600ms.mp4	60.single_push_with_tip_of_pencil_short_horflip_short_600ms.mp4	416.61302588738135	417.2213580941652	0.6083322067838708	n/a	n/a	n/a	n/a
309.12109375	0.2	633080	276	36	2	0	0	84	256	stimuli\Videos_short_600ms_horvertflip\79.long_with_soft_brush_all_over_the_hand_short_horvertflip_short_600ms.mp4	79.long_with_soft_brush_all_over_the_hand_short_horvertflip_short_600ms.mp4	417.4130345087865	418.0213420829841	0.6083075741976245	n/a	n/a	n/a	n/a
309.92138671875	0.2	634719	277	36	2	0	0	85	234	stimuli\Videos_short_600ms_horvertflip\59.single_push_with_long_side_pencil_short_horvertflip_short_600ms.mp4	59.single_push_with_long_side_pencil_short_horvertflip_short_600ms.mp4	418.21301263270425	418.8213275380285	0.6083149053242778	n/a	n/a	n/a	n/a
310.72119140625	0.2	636357	278	36	2	0	0	86	241	stimuli\Videos_short_600ms_horvertflip\65.stroke_top_to_bottom_with_stanley_knife_short_horvertflip_short_600ms.mp4	65.stroke_top_to_bottom_with_stanley_knife_short_horvertflip_short_600ms.mp4	419.01299691476834	419.6213047822111	0.608307867442818	n/a	n/a	n/a	n/a
311.52099609375	0.2	637995	279	36	2	0	0	87	167	stimuli\Videos_short_600ms_horflip\8.single_touch_with_hairbrush_short_horflip_short_600ms.mp4	8.single_touch_with_hairbrush_short_horflip_short_600ms.mp4	419.81296946703014	420.4212940494417	0.6083245824115693	n/a	n/a	n/a	n/a
312.3212890625	0.2	639634	280	36	2	0	0	88	245	stimuli\Videos_short_600ms_horvertflip\69.stroke_with_soft_sock_short_horvertflip_short_600ms.mp4	69.stroke_with_soft_sock_short_horvertflip_short_600ms.mp4	420.61295609505487	421.2212495934891	0.6082934984342501	n/a	n/a	n/a	n/a
313.12109375	0.2	641272	281	36	2	0	0	89	72	stimuli\Videos_short_600ms\75.(long)stroke_with_fingers_all_over_the_hand_short_short_600ms.mp4	75.(long)stroke_with_fingers_all_over_the_hand_short_short_600ms.mp4	421.412936858178	422.0212629068151	0.6083260486370818	n/a	n/a	n/a	n/a
313.9208984375	0.2	642910	282	36	2	0	0	90	152	stimuli\Videos_short_600ms_horflip\66.stroke_top_to_bottom_with_sponge_short_horflip_short_600ms.mp4	66.stroke_top_to_bottom_with_sponge_short_horflip_short_600ms.mp4	422.2129141023606	422.8212442564286	0.6083301540679713	n/a	n/a	n/a	n/a
314.72119140625	0.2	644549	283	36	2	0	0	91	104	stimuli\Videos_short_600ms_horflip\22.single_touch_with_metal_chopstick_short_horflip_short_600ms.mp4	22.single_touch_with_metal_chopstick_short_horflip_short_600ms.mp4	423.01290659528695	423.6212352831294	0.6083286878424587	n/a	n/a	n/a	n/a
315.52099609375	0.2	646187	284	36	2	0	0	92	139	stimuli\Videos_short_600ms_horflip\54.repeated_touch_with_knife_short_horflip_short_600ms.mp4	54.repeated_touch_with_knife_short_horflip_short_600ms.mp4	423.8128641920498	424.4212087151259	0.6083445230760844	3.0	3.0	2.1144391819989323	1.0
349.9033203125	0.2	716602	285	36	3	0	0	0	62	stimuli\Videos_short_600ms\66.stroke_top_to_bottom_with_sponge_short_short_600ms.mp4	66.stroke_top_to_bottom_with_sponge_short_short_600ms.mp4	458.1954997438502	458.803824033017	0.6083242891668306	n/a	n/a	n/a	n/a
350.703125	0.2	718240	286	36	3	0	1	1	364	stimuli\Targets_short_600ms\hand-pinch_short_short_600ms.mp4	hand-pinch_short_short_600ms.mp4	458.99548490564985	459.60381066104173	0.6083257553918884	n/a	n/a	n/a	n/a
351.50341796875	0.2	719879	287	36	3	0	0	2	43	stimuli\Videos_short_600ms\49.repeated_slap_with_hand_short_short_600ms.mp4	49.repeated_slap_with_hand_short_short_600ms.mp4	459.79546625526336	460.4037829200579	0.6083166647945291	n/a	n/a	n/a	n/a
352.30322265625	0.2	721517	288	36	3	0	0	3	237	stimuli\Videos_short_600ms_horvertflip\61.single_hit_with_rolling_pin_short_horvertflip_short_600ms.mp4	61.single_hit_with_rolling_pin_short_horvertflip_short_600ms.mp4	460.5954490711024	461.20377072106294	0.6083216499605442	n/a	n/a	n/a	n/a
353.10302734375	0.2	723155	289	36	3	0	0	4	291	stimuli\Videos_short_600ms_vertflip\29.single_pinch_with_tweezers_short_vertflip_short_600ms.mp4	29.single_pinch_with_tweezers_short_vertflip_short_600ms.mp4	461.39543130045104	462.0037506044514	0.6083193040003607	n/a	n/a	n/a	n/a
353.9033203125	0.2	724794	290	36	3	0	0	5	110	stimuli\Videos_short_600ms_horflip\28.single_injection_with_sharp_needle_short_horflip_short_600ms.mp4	28.single_injection_with_sharp_needle_short_horflip_short_600ms.mp4	462.19546748689254	462.80373342029	0.6082659333974334	n/a	n/a	n/a	n/a
354.703125	0.2	726432	291	36	3	0	0	6	71	stimuli\Videos_short_600ms\74.fingers_walking_from_top_to_bottom_short_short_600ms.mp4	74.fingers_walking_from_top_to_bottom_short_short_600ms.mp4	462.9953787509344	463.6037200483151	0.6083412973807754	n/a	n/a	n/a	n/a
355.5029296875	0.2	728070	292	36	3	0	0	7	34	stimuli\Videos_short_600ms\40.repeated_push_with_finger_short_short_600ms.mp4	40.repeated_push_with_finger_short_short_600ms.mp4	463.79544866055903	464.4037019844186	0.6082533238595715	n/a	n/a	n/a	n/a
356.30322265625	0.2	729709	293	36	3	0	0	8	355	stimuli\Videos_short_600ms_vertflip\87.single_stroke_top_to_bottom_with_plastic_brush_short_vertflip_short_600ms.mp4	87.single_stroke_top_to_bottom_with_plastic_brush_short_vertflip_short_600ms.mp4	464.5954622671302	465.2036839205225	0.6082216533923201	n/a	n/a	n/a	n/a
357.10302734375	0.2	731347	294	36	3	0	0	9	121	stimuli\Videos_short_600ms_horflip\38.double_slap_with_pencil_short_horflip_short_600ms.mp4	38.double_slap_with_pencil_short_horflip_short_600ms.mp4	465.39541194627645	466.0036667363611	0.6082547900846293	n/a	n/a	n/a	n/a
357.90283203125	0.2	732985	295	36	3	0	0	10	128	stimuli\Videos_short_600ms_horflip\44.pushing_top_to_bottom_with_finger_short_horflip_short_600ms.mp4	44.pushing_top_to_bottom_with_finger_short_horflip_short_600ms.mp4	466.1953578132361	466.8036516049155	0.6082937916794435	n/a	n/a	n/a	n/a
358.703125	0.2	734624	296	36	3	0	0	11	221	stimuli\Videos_short_600ms_horvertflip\47.(long)scratching_with_finger_nails_short_horvertflip_short_600ms.mp4	47.(long)scratching_with_finger_nails_short_horvertflip_short_600ms.mp4	466.9953280195373	467.6035927799544	0.6082647604171143	n/a	n/a	n/a	n/a
359.5029296875	0.2	736262	297	36	3	0	0	12	261	stimuli\Videos_short_600ms_horvertflip\83.single_stroke_top_to_bottom_with_cotton_bud_short_horvertflip_short_600ms.mp4	83.single_stroke_top_to_bottom_with_cotton_bud_short_horvertflip_short_600ms.mp4	467.7953008650434	468.4036345380523	0.6083336730089286	n/a	n/a	n/a	n/a
360.302734375	0.2	737900	298	36	3	0	0	13	318	stimuli\Videos_short_600ms_vertflip\53.touch_top_to_bottom_with_knife_short_vertflip_short_600ms.mp4	53.touch_top_to_bottom_with_knife_short_vertflip_short_600ms.mp4	468.5952886660484	469.20359917269707	0.6083105066486496	n/a	n/a	n/a	n/a
361.10302734375	0.2	739539	299	36	3	0	0	14	164	stimuli\Videos_short_600ms_horflip\77.tapping_with_all_fingers_short_horflip_short_600ms.mp4	77.tapping_with_all_fingers_short_horflip_short_600ms.mp4	469.3952706021523	470.0035811088005	0.6083105066481949	n/a	n/a	n/a	n/a
361.90283203125	0.2	741177	300	36	3	0	0	15	320	stimuli\Videos_short_600ms_vertflip\55.touch_top_to_bottom_with_nail_file_short_vertflip_short_600ms.mp4	55.touch_top_to_bottom_with_nail_file_short_vertflip_short_600ms.mp4	470.19526162885313	470.80354457046496	0.6082829416118329	n/a	n/a	n/a	n/a
362.70263671875	0.2	742815	301	36	3	0	0	16	259	stimuli\Videos_short_600ms_horvertflip\81.single_stroke_top_to_bottom_with_cotton_pad_short_horvertflip_short_600ms.mp4	81.single_stroke_top_to_bottom_with_cotton_pad_short_horvertflip_short_600ms.mp4	470.9952368203203	471.6035476202137	0.6083107998933883	n/a	n/a	n/a	n/a
363.5029296875	0.2	744454	302	36	3	0	0	17	52	stimuli\Videos_short_600ms\57.single_touch_with_nail_file_short_short_600ms.mp4	57.single_touch_with_nail_file_short_short_600ms.mp4	471.79521875642376	472.4035110818777	0.608292325453931	n/a	n/a	n/a	n/a
364.302734375	0.2	746092	303	36	3	0	0	18	239	stimuli\Videos_short_600ms_horvertflip\63.stroke_top_to_bottom_with_screwdriver_short_horvertflip_short_600ms.mp4	63.stroke_top_to_bottom_with_screwdriver_short_horvertflip_short_600ms.mp4	472.5952220994177	473.2035135451365	0.6082914457188053	n/a	n/a	n/a	n/a
365.1025390625	0.2	747730	304	36	3	0	0	19	130	stimuli\Videos_short_600ms_horflip\46.scratching_top_to_bottom_with_finger_nails_short_horflip_short_600ms.mp4	46.scratching_top_to_bottom_with_finger_nails_short_horflip_short_600ms.mp4	473.39515858253526	474.0035063313075	0.608347748772303	n/a	n/a	n/a	n/a
365.90283203125	0.2	749369	305	36	3	0	0	20	282	stimuli\Videos_short_600ms_vertflip\20.single_touch_with_screwdriver_short_vertflip_short_600ms.mp4	20.single_touch_with_screwdriver_short_vertflip_short_600ms.mp4	474.19516954990104	474.8034891471466	0.6083195972455542	n/a	n/a	n/a	n/a
366.70263671875	0.2	751007	306	36	3	0	0	21	322	stimuli\Videos_short_600ms_vertflip\57.single_touch_with_nail_file_short_vertflip_short_600ms.mp4	57.single_touch_with_nail_file_short_vertflip_short_600ms.mp4	474.9951470873284	475.6034643386133	0.608317251284916	n/a	n/a	n/a	n/a
367.5029296875	0.2	752646	307	36	3	0	0	22	176	stimuli\Videos_short_600ms_horflip\88.repeated_stroke_with_plastic_brush_short_horflip_short_600ms.mp4	88.repeated_stroke_with_plastic_brush_short_horflip_short_600ms.mp4	475.7951231585307	476.4034585910103	0.6083354324796346	n/a	n/a	n/a	n/a
368.302734375	0.2	754284	308	36	3	0	0	23	154	stimuli\Videos_short_600ms_horflip\68.stroke_top_to_bottom_with_shawl_short_horflip_short_600ms.mp4	68.stroke_top_to_bottom_with_shawl_short_horflip_short_600ms.mp4	476.59509571079207	477.2034349554574	0.6083392446653306	n/a	n/a	n/a	n/a
369.1025390625	0.2	755922	309	36	3	0	0	24	108	stimuli\Videos_short_600ms_horflip\26.single_touch_with_a_blunt_syringe_short_horflip_short_600ms.mp4	26.single_touch_with_a_blunt_syringe_short_horflip_short_600ms.mp4	477.3950709022593	478.0034171848061	0.6083462825467905	n/a	n/a	n/a	n/a
369.90283203125	0.2	757561	310	36	3	0	0	25	85	stimuli\Videos_short_600ms\87.single_stroke_top_to_bottom_with_plastic_brush_short_short_600ms.mp4	87.single_stroke_top_to_bottom_with_plastic_brush_short_short_600ms.mp4	478.1951012237996	478.8034014668706	0.6083002430709712	n/a	n/a	n/a	n/a
370.70263671875	0.2	759199	311	36	3	0	0	26	341	stimuli\Videos_short_600ms_vertflip\74.fingers_walking_from_top_to_bottom_short_vertflip_short_600ms.mp4	74.fingers_walking_from_top_to_bottom_short_vertflip_short_600ms.mp4	478.9950171797622	479.6033842827091	0.608367102946886	n/a	n/a	n/a	n/a
371.50244140625	0.2	760837	312	36	3	0	0	27	289	stimuli\Videos_short_600ms_vertflip\27.single_push_with_a_plastic_whisk_short_vertflip_short_600ms.mp4	27.single_push_with_a_plastic_whisk_short_vertflip_short_600ms.mp4	479.7949944239449	480.4033691512636	0.6083747273187328	n/a	n/a	n/a	n/a
372.302734375	0.2	762476	313	36	3	0	0	28	41	stimuli\Videos_short_600ms\47.(long)scratching_with_finger_nails_short_short_600ms.mp4	47.(long)scratching_with_finger_nails_short_short_600ms.mp4	480.59496726945144	481.2033490346517	0.6083817652001926	n/a	n/a	n/a	n/a
373.1025390625	0.2	764114	314	36	3	0	1	29	377	stimuli\Targets_short_600ms_horvertflip\hand-stroke_short_vertflip_short_600ms.mp4	hand-stroke_short_vertflip_short_600ms.mp4	481.3949879139045	482.0036013427102	0.608613428805711	n/a	n/a	n/a	n/a
373.90234375	0.2	765752	315	36	3	0	0	30	213	stimuli\Videos_short_600ms_horvertflip\4.repeated_tap_with_finger_slow_short_horvertflip_short_600ms.mp4	4.repeated_tap_with_finger_slow_short_horvertflip_short_600ms.mp4	482.1949320213939	482.8033152528196	0.6083832314257052	n/a	n/a	n/a	n/a
374.70263671875	0.2	767391	316	36	3	0	0	31	352	stimuli\Videos_short_600ms_vertflip\84.single_touch_with_cotton_bud_short_vertflip_short_600ms.mp4	84.single_touch_with_cotton_bud_short_vertflip_short_600ms.mp4	482.995018939233	483.60329660243315	0.6082776632001696	n/a	n/a	n/a	n/a
375.50244140625	0.2	769029	317	36	3	0	0	32	196	stimuli\Videos_short_600ms_horvertflip\24.single_stroke_top_to_bottom_with_a_spoon_short_horvertflip_short_600ms.mp4	24.single_stroke_top_to_bottom_with_a_spoon_short_horvertflip_short_600ms.mp4	483.7949287370493	484.40327971151737	0.6083509744680669	n/a	n/a	n/a	n/a
376.30224609375	0.2	770667	318	36	3	0	0	33	270	stimuli\Videos_short_600ms_vertflip\1.repeated_touch_with_finger_fast_short_vertflip_short_600ms.mp4	1.repeated_touch_with_finger_fast_short_vertflip_short_600ms.mp4	484.5949033420261	485.2032686855023	0.60836534347618	n/a	n/a	n/a	n/a
377.1025390625	0.2	772306	319	36	3	0	0	34	242	stimuli\Videos_short_600ms_horvertflip\66.stroke_top_to_bottom_with_sponge_short_horvertflip_short_600ms.mp4	66.stroke_top_to_bottom_with_sponge_short_horvertflip_short_600ms.mp4	485.3948876240902	486.0032526743216	0.6083650502314413	n/a	n/a	n/a	n/a
377.90234375	0.2	773944	320	36	3	0	0	35	158	stimuli\Videos_short_600ms_horflip\71.single_stroke_with_finger_top_to_bottom_short_horflip_short_600ms.mp4	71.single_stroke_with_finger_top_to_bottom_short_horflip_short_600ms.mp4	486.1948592966164	486.8032111508196	0.6083518542031925	n/a	n/a	n/a	n/a
378.7021484375	0.2	775582	321	36	3	0	0	36	293	stimuli\Videos_short_600ms_vertflip\30.finger_pulling_back_another_finger_short_vertflip_short_600ms.mp4	30.finger_pulling_back_another_finger_short_vertflip_short_600ms.mp4	486.99484211245544	487.6031974855996	0.6083553731441498	n/a	n/a	n/a	n/a
379.50244140625	0.2	777221	322	36	3	0	0	37	290	stimuli\Videos_short_600ms_vertflip\28.single_injection_with_sharp_needle_short_vertflip_short_600ms.mp4	28.single_injection_with_sharp_needle_short_vertflip_short_600ms.mp4	487.79482610127434	488.4032017083282	0.6083756070538584	n/a	n/a	n/a	n/a
380.30224609375	0.2	778859	323	36	3	0	0	38	187	stimuli\Videos_short_600ms_horvertflip\16.repeated_touch_with_plastic_brush_short_horvertflip_short_600ms.mp4	16.repeated_touch_with_plastic_brush_short_horvertflip_short_600ms.mp4	488.59480921035856	489.2031786592656	0.6083694489070695	n/a	n/a	n/a	n/a
381.10205078125	0.2	780497	324	36	3	0	0	39	298	stimuli\Videos_short_600ms_vertflip\35.single_punch_with_hand_short_vertflip_short_600ms.mp4	35.single_punch_with_hand_short_vertflip_short_600ms.mp4	489.3947926126875	490.0031693927217	0.6083767800341775	n/a	n/a	n/a	n/a
381.90234375	0.2	782136	325	36	3	0	1	40	379	stimuli\Targets_short_600ms_vertflip\chopstick-silver-tap_short_horvertflip_short_600ms.mp4	chopstick-silver-tap_short_horvertflip_short_600ms.mp4	490.1947754285261	490.80314605041394	0.6083706218878433	n/a	n/a	n/a	n/a
382.7021484375	0.2	783774	326	36	3	0	0	41	126	stimuli\Videos_short_600ms_horflip\42.single_slap_with_plastic_whisk_short_horflip_short_600ms.mp4	42.single_slap_with_plastic_whisk_short_horflip_short_600ms.mp4	490.9947600038354	491.603128866253	0.608368862417592	n/a	n/a	n/a	n/a
383.501953125	0.2	785412	327	36	3	0	0	42	279	stimuli\Videos_short_600ms_vertflip\18.single_stroke_from_top_to_bottom_with_rolling_pin_short_vertflip_short_600ms.mp4	18.single_stroke_from_top_to_bottom_with_rolling_pin_short_vertflip_short_600ms.mp4	491.79474516563505	492.4031102158665	0.6083650502314413	n/a	n/a	n/a	n/a
384.30224609375	0.2	787051	328	36	3	0	0	43	257	stimuli\Videos_short_600ms_horvertflip\8.single_touch_with_hairbrush_short_horvertflip_short_600ms.mp4	8.single_touch_with_hairbrush_short_horvertflip_short_600ms.mp4	492.59472504902305	493.20309391144065	0.608368862417592	n/a	n/a	n/a	n/a
385.10205078125	0.2	788689	329	36	3	0	0	44	155	stimuli\Videos_short_600ms_horflip\69.stroke_with_soft_sock_short_horflip_short_600ms.mp4	69.stroke_with_soft_sock_short_horflip_short_600ms.mp4	493.39470962433234	494.0030353797242	0.6083257553918884	n/a	n/a	n/a	n/a
385.90185546875	0.2	790327	330	36	3	0	0	45	77	stimuli\Videos_short_600ms\8.single_touch_with_hairbrush_short_short_600ms.mp4	8.single_touch_with_hairbrush_short_short_600ms.mp4	494.1946941996416	494.8030668742449	0.608372674603288	n/a	n/a	n/a	n/a
386.7021484375	0.2	791966	331	36	3	0	1	46	371	stimuli\Targets_short_600ms_horflip\hand-stroke_short_horflip_short_600ms.mp4	hand-stroke_short_horflip_short_600ms.mp4	494.99468288038224	495.60304939683874	0.6083665164564991	n/a	n/a	n/a	n/a
387.501953125	0.2	793604	332	36	3	0	0	47	188	stimuli\Videos_short_600ms_horvertflip\17.repeated_touch_with_rolling_pin_short_horvertflip_short_600ms.mp4	17.repeated_touch_with_rolling_pin_short_horvertflip_short_600ms.mp4	495.79465719211385	496.4030322126778	0.6083750205639262	n/a	n/a	n/a	n/a
388.30224609375	0.2	795243	333	36	3	0	0	48	251	stimuli\Videos_short_600ms_horvertflip\74.fingers_walking_from_top_to_bottom_short_horvertflip_short_600ms.mp4	74.fingers_walking_from_top_to_bottom_short_horvertflip_short_600ms.mp4	496.594682821733	497.20301532176154	0.6083325000286095	n/a	n/a	n/a	n/a
389.10205078125	0.2	796881	334	36	3	0	0	49	183	stimuli\Videos_short_600ms_horvertflip\12.repeated_touch_with_nail_file_short_horvertflip_short_600ms.mp4	12.repeated_touch_with_nail_file_short_horvertflip_short_600ms.mp4	497.39464481717187	498.0029993105809	0.6083544934090241	n/a	n/a	n/a	n/a
389.90185546875	0.2	798519	335	36	3	0	0	50	93	stimuli\Videos_short_600ms_horflip\12.repeated_touch_with_nail_file_short_horflip_short_600ms.mp4	12.repeated_touch_with_nail_file_short_horflip_short_600ms.mp4	498.19460739910073	498.802983592645	0.6083761935442453	n/a	n/a	n/a	n/a
390.7021484375	0.2	800158	336	36	3	0	0	51	88	stimuli\Videos_short_600ms\9.single_touch_with_hammer_short_short_600ms.mp4	9.single_touch_with_hammer_short_short_600ms.mp4	498.9945978393116	499.60296171656273	0.6083638772511222	n/a	n/a	n/a	n/a
391.501953125	0.2	801796	337	36	3	0	0	52	225	stimuli\Videos_short_600ms_horvertflip\50.single_(long)hard_push_with_thumb_short_horvertflip_short_600ms.mp4	50.single_(long)hard_push_with_thumb_short_horvertflip_short_600ms.mp4	499.79458153488576	500.40294687836194	0.60836534347618	n/a	n/a	n/a	n/a
392.3017578125	0.2	803434	338	36	3	0	0	53	68	stimuli\Videos_short_600ms\71.single_stroke_with_finger_top_to_bottom_short_short_600ms.mp4	71.single_stroke_with_finger_top_to_bottom_short_short_600ms.mp4	500.59455613986256	501.2029311604265	0.6083750205639262	n/a	n/a	n/a	n/a
393.10205078125	0.2	805073	339	36	3	0	0	54	175	stimuli\Videos_short_600ms_horflip\87.single_stroke_top_to_bottom_with_plastic_brush_short_horflip_short_600ms.mp4	87.single_stroke_top_to_bottom_with_plastic_brush_short_horflip_short_600ms.mp4	501.39454042192665	502.0029136830203	0.608373261093675	n/a	n/a	n/a	n/a
393.90185546875	0.2	806711	340	36	3	0	0	55	345	stimuli\Videos_short_600ms_vertflip\78.single_stroke_top_to_bottom_with_soft_brush_short_vertflip_short_600ms.mp4	78.single_stroke_top_to_bottom_with_soft_brush_short_vertflip_short_600ms.mp4	502.19452499723593	502.8028926866732	0.6083676894372729	n/a	n/a	n/a	n/a
394.70166015625	0.2	808349	341	36	3	0	0	56	78	stimuli\Videos_short_600ms\80.stroke_with_sharp_stick_all_over_the_hand_short_short_600ms.mp4	80.stroke_with_sharp_stick_all_over_the_hand_short_short_600ms.mp4	502.99451250499624	503.60288078092344	0.6083682759272051	n/a	n/a	n/a	n/a
395.501953125	0.2	809988	342	36	3	0	0	57	267	stimuli\Videos_short_600ms_horvertflip\89.single_touch_with_plastic_brush_short_horvertflip_short_600ms.mp4	89.single_touch_with_plastic_brush_short_horvertflip_short_600ms.mp4	503.7944941478545	504.40286066431145	0.6083665164569538	n/a	n/a	n/a	n/a
396.3017578125	0.2	811626	343	36	3	0	0	58	135	stimuli\Videos_short_600ms_horflip\50.single_(long)hard_push_with_thumb_short_horflip_short_600ms.mp4	50.single_(long)hard_push_with_thumb_short_horflip_short_600ms.mp4	504.5944910394569	505.2028496382968	0.6083585988399136	n/a	n/a	n/a	n/a
397.1015625	0.2	813264	344	36	3	0	0	59	203	stimuli\Videos_short_600ms_horvertflip\30.finger_pulling_back_another_finger_short_horvertflip_short_600ms.mp4	30.finger_pulling_back_another_finger_short_horvertflip_short_600ms.mp4	505.39450464602805	506.002824829764	0.6083201837359411	n/a	n/a	n/a	n/a
397.90185546875	0.2	814903	345	36	3	0	1	60	365	stimuli\Targets_short_600ms\hand-stroke_short_short_600ms.mp4	hand-stroke_short_short_600ms.mp4	506.194491567298	506.8028202551409	0.6083286878429135	n/a	n/a	n/a	n/a
398.70166015625	0.2	816541	346	36	3	0	0	61	311	stimuli\Videos_short_600ms_vertflip\47.(long)scratching_with_finger_nails_short_vertflip_short_600ms.mp4	47.(long)scratching_with_finger_nails_short_vertflip_short_600ms.mp4	506.9944746763822	507.6027913411767	0.6083166647945291	n/a	n/a	n/a	n/a
399.50146484375	0.2	818179	347	36	3	0	0	62	342	stimuli\Videos_short_600ms_vertflip\75.(long)stroke_with_fingers_all_over_the_hand_short_vertflip_short_600ms.mp4	75.(long)stroke_with_fingers_all_over_the_hand_short_vertflip_short_600ms.mp4	507.7944528002999	508.40277796920145	0.6083251689015015	n/a	n/a	n/a	n/a
400.3017578125	0.2	819818	348	36	3	0	0	63	117	stimuli\Videos_short_600ms_horflip\34.repeated_punch_with_hand_short_horflip_short_600ms.mp4	34.repeated_punch_with_hand_short_horflip_short_600ms.mp4	508.5944364958737	509.20275931881497	0.608322822941318	n/a	n/a	n/a	n/a
401.1015625	0.2	821456	349	36	3	0	0	64	214	stimuli\Videos_short_600ms_horvertflip\40.repeated_push_with_finger_short_horvertflip_short_600ms.mp4	40.repeated_push_with_finger_short_horvertflip_short_600ms.mp4	509.394441891583	510.00274506710457	0.6083031755215416	n/a	n/a	n/a	n/a
401.9013671875	0.2	823094	350	36	3	0	0	65	332	stimuli\Videos_short_600ms_vertflip\66.stroke_top_to_bottom_with_sponge_short_vertflip_short_600ms.mp4	66.stroke_top_to_bottom_with_sponge_short_vertflip_short_600ms.mp4	510.1944379034503	510.80272583022816	0.608287926777848	n/a	n/a	n/a	n/a
402.70166015625	0.2	824733	351	36	3	0	0	66	151	stimuli\Videos_short_600ms_horflip\65.stroke_top_to_bottom_with_stanley_knife_short_horflip_short_600ms.mp4	65.stroke_top_to_bottom_with_stanley_knife_short_horflip_short_600ms.mp4	510.99438377041	511.6027089393119	0.6083251689019562	n/a	n/a	n/a	n/a
403.50146484375	0.2	826371	352	36	3	0	0	67	277	stimuli\Videos_short_600ms_vertflip\16.repeated_touch_with_plastic_brush_short_vertflip_short_600ms.mp4	16.repeated_touch_with_plastic_brush_short_vertflip_short_600ms.mp4	511.79431908054767	512.402696153827	0.608377073279371	n/a	n/a	n/a	n/a
404.30126953125	0.2	828009	353	36	3	0	0	68	45	stimuli\Videos_short_600ms\50.single_(long)hard_push_with_thumb_short_short_600ms.mp4	50.single_(long)hard_push_with_thumb_short_short_600ms.mp4	512.5943564399695	513.2026775034406	0.6083210634710667	n/a	n/a	n/a	n/a
405.1015625	0.2	829648	354	36	3	0	0	69	73	stimuli\Videos_short_600ms\76.tickle_with_fingers_from_top_to_bottom_short_short_600ms.mp4	76.tickle_with_fingers_from_top_to_bottom_short_short_600ms.mp4	513.3943111042818	514.0026591462988	0.6083480420170417	n/a	n/a	n/a	n/a
405.9013671875	0.2	831286	355	36	3	0	0	70	160	stimuli\Videos_short_600ms_horflip\73.single_stroke_with_flat_hand_short_horflip_short_600ms.mp4	73.single_stroke_with_flat_hand_short_horflip_short_600ms.mp4	514.1943194324417	514.8026402026676	0.6083207702258733	n/a	n/a	n/a	n/a
406.70166015625	0.2	832925	356	36	3	0	0	71	15	stimuli\Videos_short_600ms\23.single_push_with_a_spoon_short_short_600ms.mp4	23.single_push_with_a_spoon_short_short_600ms.mp4	514.9943013685452	515.6026282969174	0.6083269283722075	n/a	n/a	n/a	n/a
407.50146484375	0.2	834563	357	36	3	0	0	72	329	stimuli\Videos_short_600ms_vertflip\63.stroke_top_to_bottom_with_screwdriver_short_vertflip_short_600ms.mp4	63.stroke_top_to_bottom_with_screwdriver_short_vertflip_short_600ms.mp4	515.7942921020012	516.40258354772	0.6082914457188053	n/a	n/a	n/a	n/a
408.30126953125	0.2	836201	358	36	3	0	0	73	275	stimuli\Videos_short_600ms_vertflip\14.repeated_touch_with_pencil_short_vertflip_short_600ms.mp4	14.repeated_touch_with_pencil_short_vertflip_short_600ms.mp4	516.5942681732035	517.2025863042236	0.6083181310200416	n/a	n/a	n/a	n/a
