onset	duration	onsetsample	eventnumber	subjectnr	sequencenumber	blocksequencenumber	istarget	presentationnumber	stimnumber	stim	stimname	time_stimon	time_stimoff	stimdur	cresp	resp	rt	correct
6.1796875	0.2	12656	0	49	0	0	1	0	369	stimuli\Targets_short_600ms_horflip\finger-tap_short_horflip_short_600ms.mp4	finger-tap_short_horflip_short_600ms.mp4	44.23323742289858	44.84155776062221	0.6083203377236259	n/a	n/a	n/a	n/a
6.9794921875	0.2	14294	1	49	0	0	0	1	179	stimuli\Videos_short_600ms_horflip\90.repeated_touch_with_sponge_short_horflip_short_600ms.mp4	90.repeated_touch_with_sponge_short_horflip_short_600ms.mp4	45.033219593645526	45.64153758541465	0.6083179917691268	n/a	n/a	n/a	n/a
7.779296875	0.2	15932	2	49	0	0	0	2	123	stimuli\Videos_short_600ms_horflip\4.repeated_tap_with_finger_slow_short_horflip_short_600ms.mp4	4.repeated_tap_with_finger_slow_short_horflip_short_600ms.mp4	45.83320088465939	46.44151887642852	0.6083179917691268	n/a	n/a	n/a	n/a
8.57958984375	0.2	17571	3	49	0	0	0	3	207	stimuli\Videos_short_600ms_horvertflip\34.repeated_punch_with_hand_short_horvertflip_short_600ms.mp4	34.repeated_punch_with_hand_short_horvertflip_short_600ms.mp4	46.633182175673255	47.24150134041952	0.6083191647462627	n/a	n/a	n/a	n/a
9.37939453125	0.2	19209	4	49	0	0	0	4	56	stimuli\Videos_short_600ms\60.single_push_with_tip_of_pencil_short_short_600ms.mp4	60.single_push_with_tip_of_pencil_short_short_600ms.mp4	47.433143819319184	48.041482924677894	0.6083391053587093	n/a	n/a	n/a	n/a
10.1796875	0.2	20848	5	49	0	0	0	5	151	stimuli\Videos_short_600ms_horflip\65.stroke_top_to_bottom_with_stanley_knife_short_horflip_short_600ms.mp4	65.stroke_top_to_bottom_with_stanley_knife_short_horflip_short_600ms.mp4	48.23320047411721	48.841463922447474	0.6082634483302627	n/a	n/a	n/a	n/a
10.9794921875	0.2	22486	6	49	0	0	0	6	50	stimuli\Videos_short_600ms\55.touch_top_to_bottom_with_nail_file_short_short_600ms.mp4	55.touch_top_to_bottom_with_nail_file_short_short_600ms.mp4	49.03308235531472	49.641442574262555	0.608360218947837	n/a	n/a	n/a	n/a
11.779296875	0.2	24124	7	49	0	0	0	7	128	stimuli\Videos_short_600ms_horflip\44.pushing_top_to_bottom_with_finger_short_horflip_short_600ms.mp4	44.pushing_top_to_bottom_with_finger_short_horflip_short_600ms.mp4	49.83308329369652	50.441424158520704	0.6083408648241857	n/a	n/a	n/a	n/a
12.57958984375	0.2	25763	8	49	0	0	0	8	343	stimuli\Videos_short_600ms_vertflip\76.tickle_with_fingers_from_top_to_bottom_short_vertflip_short_600ms.mp4	76.tickle_with_fingers_from_top_to_bottom_short_vertflip_short_600ms.mp4	50.6330660509318	51.24140544953457	0.6083393986027659	n/a	n/a	n/a	n/a
13.37939453125	0.2	27401	9	49	0	0	0	9	135	stimuli\Videos_short_600ms_horflip\50.single_(long)hard_push_with_thumb_short_horflip_short_600ms.mp4	50.single_(long)hard_push_with_thumb_short_horflip_short_600ms.mp4	51.43340509998734	52.04138351486131	0.6079784148739691	n/a	n/a	n/a	n/a
14.17919921875	0.2	29039	10	49	0	0	0	10	156	stimuli\Videos_short_600ms_horflip\7.repeated_touch_with_hairbrush_short_horflip_short_600ms.mp4	7.repeated_touch_with_hairbrush_short_horflip_short_600ms.mp4	52.23303303162402	52.84134750446174	0.6083144728377192	n/a	n/a	n/a	n/a
14.9794921875	0.2	30678	11	49	0	0	0	11	239	stimuli\Videos_short_600ms_horvertflip\63.stroke_top_to_bottom_with_screwdriver_short_horvertflip_short_600ms.mp4	63.stroke_top_to_bottom_with_screwdriver_short_horvertflip_short_600ms.mp4	53.033036022715805	53.64133290089558	0.6082968781797717	n/a	n/a	n/a	n/a
15.779296875	0.2	32316	12	49	0	0	0	12	206	stimuli\Videos_short_600ms_horvertflip\33.scratch_top_to_bottom_with_scissors_short_horvertflip_short_600ms.mp4	33.scratch_top_to_bottom_with_scissors_short_horvertflip_short_600ms.mp4	53.83301174208805	54.441308327023535	0.6082965849354878	n/a	n/a	n/a	n/a
16.5791015625	0.2	33954	13	49	0	0	0	13	155	stimuli\Videos_short_600ms_horflip\69.stroke_with_soft_sock_short_horflip_short_600ms.mp4	69.stroke_with_soft_sock_short_horflip_short_600ms.mp4	54.63302822241758	55.24126791795947	0.6082396955418972	n/a	n/a	n/a	n/a
17.37939453125	0.2	35593	14	49	0	0	0	14	129	stimuli\Videos_short_600ms_horflip\45.scratching_with_finger_nails_short_horflip_short_600ms.mp4	45.scratching_with_finger_nails_short_horflip_short_600ms.mp4	55.43297227140579	56.041274134738615	0.6083018633328265	n/a	n/a	n/a	n/a
18.17919921875	0.2	37231	15	49	0	0	0	15	349	stimuli\Videos_short_600ms_vertflip\81.single_stroke_top_to_bottom_with_cotton_pad_short_vertflip_short_600ms.mp4	81.single_stroke_top_to_bottom_with_cotton_pad_short_vertflip_short_600ms.mp4	56.232933035318865	56.84126656903573	0.6083335337168592	n/a	n/a	n/a	n/a
18.97900390625	0.2	38869	16	49	0	0	1	16	377	stimuli\Targets_short_600ms_horvertflip\hand-stroke_short_vertflip_short_600ms.mp4	hand-stroke_short_vertflip_short_600ms.mp4	57.03289350598766	57.64125225871408	0.6083587527264172	n/a	n/a	n/a	n/a
19.779296875	0.2	40508	17	49	0	0	0	17	29	stimuli\Videos_short_600ms\36.single_slap_with_full_hand_short_short_600ms.mp4	36.single_slap_with_full_hand_short_short_600ms.mp4	57.83289679032373	58.44124586598855	0.6083490756648189	n/a	n/a	n/a	n/a
20.5791015625	0.2	42146	18	49	0	0	0	18	6	stimuli\Videos_short_600ms\15.single_stroke_top_to_bottom_with_a_plastic_whisk_short_short_600ms.mp4	15.single_stroke_top_to_bottom_with_a_plastic_whisk_short_short_600ms.mp4	58.632878081337594	59.24121865291772	0.6083405715801291	n/a	n/a	n/a	n/a
21.37890625	0.2	43784	19	49	0	0	0	19	165	stimuli\Videos_short_600ms_horflip\78.single_stroke_top_to_bottom_with_soft_brush_short_horflip_short_600ms.mp4	78.single_stroke_top_to_bottom_with_soft_brush_short_horflip_short_600ms.mp4	59.432879899452246	60.041210500726265	0.6083306012740195	n/a	n/a	n/a	n/a
22.17919921875	0.2	45423	20	49	0	0	0	20	309	stimuli\Videos_short_600ms_vertflip\45.scratching_with_finger_nails_short_vertflip_short_600ms.mp4	45.scratching_with_finger_nails_short_vertflip_short_600ms.mp4	60.23286236344347	60.84118123494545	0.6083188715019787	n/a	n/a	n/a	n/a
22.97900390625	0.2	47061	21	49	0	0	0	21	33	stimuli\Videos_short_600ms\4.repeated_tap_with_finger_slow_short_short_600ms.mp4	4.repeated_tap_with_finger_slow_short_short_600ms.mp4	61.03284189499141	61.641165458402384	0.6083235634109769	n/a	n/a	n/a	n/a
23.77880859375	0.2	48699	22	49	0	0	0	22	170	stimuli\Videos_short_600ms_horflip\82.repeated_touch_with_cotton_bud_short_horflip_short_600ms.mp4	82.repeated_touch_with_cotton_bud_short_horflip_short_600ms.mp4	61.832822013028135	62.441144989950544	0.608322976922409	n/a	n/a	n/a	n/a
24.5791015625	0.2	50338	23	49	0	0	0	23	46	stimuli\Videos_short_600ms\51.repeated_touch_with_hammer_short_short_600ms.mp4	51.repeated_touch_with_hammer_short_short_600ms.mp4	62.63278893507163	63.24112422825419	0.608335293182563	n/a	n/a	n/a	n/a
25.37890625	0.2	51976	24	49	0	0	0	24	247	stimuli\Videos_short_600ms_horvertflip\70.(long)stroke_with_finger_all_over_the_hand_short_horvertflip_short_600ms.mp4	70.(long)stroke_with_finger_all_over_the_hand_short_horvertflip_short_600ms.mp4	63.432754097649195	64.04110845171112	0.6083543540619303	n/a	n/a	n/a	n/a
26.1787109375	0.2	53614	25	49	0	0	0	25	95	stimuli\Videos_short_600ms_horflip\14.repeated_touch_with_pencil_short_horflip_short_600ms.mp4	14.repeated_touch_with_pencil_short_horflip_short_600ms.mp4	64.23272395213553	64.84108387783908	0.608359925703553	n/a	n/a	n/a	n/a
26.97900390625	0.2	55253	26	49	0	0	0	26	118	stimuli\Videos_short_600ms_horflip\35.single_punch_with_hand_short_horflip_short_600ms.mp4	35.single_punch_with_hand_short_horflip_short_600ms.mp4	65.03271433372242	65.64106986076172	0.6083555270392935	n/a	n/a	n/a	n/a
27.77880859375	0.2	56891	27	49	0	0	0	27	231	stimuli\Videos_short_600ms_horvertflip\56.repeated_touch_with_nail_file_short_horvertflip_short_600ms.mp4	56.repeated_touch_with_nail_file_short_horvertflip_short_600ms.mp4	65.83270647477525	66.4410508585313	0.608344383756048	n/a	n/a	n/a	n/a
28.5791015625	0.2	58530	28	49	0	0	0	28	341	stimuli\Videos_short_600ms_vertflip\74.fingers_walking_from_top_to_bottom_short_vertflip_short_600ms.mp4	74.fingers_walking_from_top_to_bottom_short_vertflip_short_600ms.mp4	66.63271884968458	67.24102687114782	0.6083080214632446	n/a	n/a	n/a	n/a
29.37890625	0.2	60168	29	49	0	0	0	29	260	stimuli\Videos_short_600ms_horvertflip\82.repeated_touch_with_cotton_bud_short_horvertflip_short_600ms.mp4	82.repeated_touch_with_cotton_bud_short_horvertflip_short_600ms.mp4	67.43267902710932	68.04097707826622	0.6082980511569076	n/a	n/a	n/a	n/a
30.1787109375	0.2	61806	30	49	0	0	1	30	362	stimuli\Targets_short_600ms\chopstickwood-tap_short_short_600ms.mp4	chopstickwood-tap_short_short_600ms.mp4	68.23268055197946	68.84094927870706	0.6082687267276015	n/a	n/a	n/a	n/a
30.97900390625	0.2	63445	31	49	0	0	0	31	192	stimuli\Videos_short_600ms_horvertflip\20.single_touch_with_screwdriver_short_horvertflip_short_600ms.mp4	20.single_touch_with_screwdriver_short_horvertflip_short_600ms.mp4	69.0326339847852	69.64093174269806	0.608297757912851	n/a	n/a	n/a	n/a
31.77880859375	0.2	65083	32	49	0	0	0	32	63	stimuli\Videos_short_600ms\67.single_touch_with_sponge_short_short_600ms.mp4	67.single_touch_with_sponge_short_short_600ms.mp4	69.83263609614414	70.44091186073479	0.608275764590644	n/a	n/a	n/a	n/a
32.57861328125	0.2	66721	33	49	0	0	0	33	348	stimuli\Videos_short_600ms_vertflip\80.stroke_with_sharp_stick_all_over_the_hand_short_vertflip_short_600ms.mp4	80.stroke_with_sharp_stick_all_over_the_hand_short_vertflip_short_600ms.mp4	70.63261856013537	71.2409221829339	0.6083036227985303	n/a	n/a	n/a	n/a
33.37890625	0.2	68360	34	49	0	0	1	34	378	stimuli\Targets_short_600ms_vertflip\brush-stroke_short_horvertflip_short_600ms.mp4	brush-stroke_short_horvertflip_short_600ms.mp4	71.43258284297985	72.04090669963512	0.6083238566552609	n/a	n/a	n/a	n/a
34.1787109375	0.2	69998	35	49	0	0	0	35	189	stimuli\Videos_short_600ms_horvertflip\18.single_stroke_from_top_to_bottom_with_rolling_pin_short_horvertflip_short_600ms.mp4	18.single_stroke_from_top_to_bottom_with_rolling_pin_short_horvertflip_short_600ms.mp4	72.23260020304224	72.8408853514502	0.6082851484079583	n/a	n/a	n/a	n/a
34.978515625	0.2	71636	36	49	0	0	0	36	94	stimuli\Videos_short_600ms_horflip\13.single_touch_with_pen_short_horflip_short_600ms.mp4	13.single_touch_with_pen_short_horflip_short_600ms.mp4	73.03251727355519	73.64090798990992	0.6083907163547337	n/a	n/a	n/a	n/a
35.77880859375	0.2	73275	37	49	0	0	0	37	13	stimuli\Videos_short_600ms\21.repeated_touch_with_metal_chopstick_short_short_600ms.mp4	21.repeated_touch_with_metal_chopstick_short_short_600ms.mp4	73.83262114068498	74.44086582138016	0.6082446806951793	n/a	n/a	n/a	n/a
36.57861328125	0.2	74913	38	49	0	0	0	38	134	stimuli\Videos_short_600ms_horflip\5.repeated_tap_with_finger_moving_from_top_to_bottom_short_horflip_short_600ms.mp4	5.repeated_tap_with_finger_moving_from_top_to_bottom_short_horflip_short_600ms.mp4	74.63252560169326	75.24085151105851	0.6083259093652487	n/a	n/a	n/a	n/a
37.37841796875	0.2	76551	39	49	0	0	0	39	226	stimuli\Videos_short_600ms_horvertflip\51.repeated_touch_with_hammer_short_horvertflip_short_600ms.mp4	51.repeated_touch_with_hammer_short_horvertflip_short_600ms.mp4	75.43250659946284	76.0408263506979	0.608319751235058	n/a	n/a	n/a	n/a
38.1787109375	0.2	78190	40	49	0	0	1	40	366	stimuli\Targets_short_600ms_horflip\brush-stroke_short_horflip_short_600ms.mp4	brush-stroke_short_horflip_short_600ms.mp4	76.23248877020956	76.84080822820033	0.608319457990774	n/a	n/a	n/a	n/a
38.978515625	0.2	79828	41	49	0	0	0	41	330	stimuli\Videos_short_600ms_vertflip\64.repeated_touch_with_screwdriver_short_vertflip_short_600ms.mp4	64.repeated_touch_with_screwdriver_short_vertflip_short_600ms.mp4	77.03248443019402	77.64079186516847	0.6083074349744493	n/a	n/a	n/a	n/a
39.7783203125	0.2	81466	42	49	0	0	0	42	81	stimuli\Videos_short_600ms\83.single_stroke_top_to_bottom_with_cotton_bud_short_short_600ms.mp4	83.single_stroke_top_to_bottom_with_cotton_bud_short_short_600ms.mp4	77.83248595506439	78.44076993049521	0.6082839754308225	n/a	n/a	n/a	n/a
40.57861328125	0.2	83105	43	49	0	0	0	43	307	stimuli\Videos_short_600ms_vertflip\43.touch_top_to_bottom_with_sharp_wooden_stick_short_vertflip_short_600ms.mp4	43.touch_top_to_bottom_with_sharp_wooden_stick_short_vertflip_short_600ms.mp4	78.63241739454793	79.2407547404407	0.6083373458927781	n/a	n/a	n/a	n/a
41.37841796875	0.2	84743	44	49	0	0	0	44	110	stimuli\Videos_short_600ms_horflip\28.single_injection_with_sharp_needle_short_horflip_short_600ms.mp4	28.single_injection_with_sharp_needle_short_horflip_short_600ms.mp4	79.43239721934015	80.04073456523292	0.6083373458927781	n/a	n/a	n/a	n/a
42.17822265625	0.2	86381	45	49	0	0	0	45	297	stimuli\Videos_short_600ms_vertflip\34.repeated_punch_with_hand_short_vertflip_short_600ms.mp4	34.repeated_punch_with_hand_short_vertflip_short_600ms.mp4	80.23235827649773	80.84071849544557	0.608360218947837	n/a	n/a	n/a	n/a
42.978515625	0.2	88020	46	49	0	0	0	46	339	stimuli\Videos_short_600ms_vertflip\72.(short)stroke_with_finger_all_over_the_hand_short_vertflip_short_600ms.mp4	72.(short)stroke_with_finger_all_over_the_hand_short_vertflip_short_600ms.mp4	81.03233751480138	81.64069744050516	0.6083599257037804	n/a	n/a	n/a	n/a
43.7783203125	0.2	89658	47	49	0	0	0	47	101	stimuli\Videos_short_600ms_horflip\2.single_touch_with_finger_short_horflip_short_600ms.mp4	2.single_touch_with_finger_short_horflip_short_600ms.mp4	81.83233728020605	82.44067579907596	0.608338518869914	n/a	n/a	n/a	n/a
44.578125	0.2	91296	48	49	0	0	0	48	12	stimuli\Videos_short_600ms\20.single_touch_with_screwdriver_short_short_600ms.mp4	20.single_touch_with_screwdriver_short_short_600ms.mp4	82.63232590232724	83.24065709008983	0.6083311877625874	n/a	n/a	n/a	n/a
45.37841796875	0.2	92935	49	49	0	0	0	49	176	stimuli\Videos_short_600ms_horflip\88.repeated_stroke_with_plastic_brush_short_horflip_short_600ms.mp4	88.repeated_stroke_with_plastic_brush_short_horflip_short_600ms.mp4	83.43233622452658	84.04063779461512	0.6083015700885426	n/a	n/a	n/a	n/a
46.17822265625	0.2	94573	50	49	0	0	0	50	199	stimuli\Videos_short_600ms_horvertflip\27.single_push_with_a_plastic_whisk_short_horvertflip_short_600ms.mp4	27.single_push_with_a_plastic_whisk_short_horvertflip_short_600ms.mp4	84.23233129802247	84.84059914501677	0.6082678469942948	n/a	n/a	n/a	n/a
46.97802734375	0.2	96211	51	49	0	0	0	51	111	stimuli\Videos_short_600ms_horflip\29.single_pinch_with_tweezers_short_horflip_short_600ms.mp4	29.single_pinch_with_tweezers_short_horflip_short_600ms.mp4	85.032325198541	85.64056078866292	0.6082355901219216	n/a	n/a	n/a	n/a
47.7783203125	0.2	97850	52	49	0	0	0	52	147	stimuli\Videos_short_600ms_horflip\61.single_hit_with_rolling_pin_short_horflip_short_600ms.mp4	61.single_hit_with_rolling_pin_short_horflip_short_600ms.mp4	85.8322777516139	86.4405417864325	0.6082640348186032	n/a	n/a	n/a	n/a
48.578125	0.2	99488	53	49	0	0	0	53	91	stimuli\Videos_short_600ms_horflip\10.single_touch_with_knife_short_horflip_short_600ms.mp4	10.single_touch_with_knife_short_horflip_short_600ms.mp4	86.63222737224373	87.24055269512019	0.6083253228764534	n/a	n/a	n/a	n/a
49.37841796875	0.2	101127	54	49	0	0	0	54	205	stimuli\Videos_short_600ms_horvertflip\32.single_(long)pinch_with_fingers_short_horvertflip_short_600ms.mp4	32.single_(long)pinch_with_fingers_short_horvertflip_short_600ms.mp4	87.4322063173031	88.04054014426447	0.6083338269613705	n/a	n/a	n/a	n/a
50.17822265625	0.2	102765	55	49	0	0	0	55	209	stimuli\Videos_short_600ms_horvertflip\36.single_slap_with_full_hand_short_horvertflip_short_600ms.mp4	36.single_slap_with_full_hand_short_horvertflip_short_600ms.mp4	88.23244712951941	88.84052847314138	0.6080813436219614	n/a	n/a	n/a	n/a
50.97802734375	0.2	104403	56	49	0	0	0	56	120	stimuli\Videos_short_600ms_horflip\37.single_stab_with_nail_file_short_horflip_short_600ms.mp4	37.single_stab_with_nail_file_short_horflip_short_600ms.mp4	89.03218209532429	89.64052266690442	0.6083405715801291	n/a	n/a	n/a	n/a
51.7783203125	0.2	106042	57	49	0	0	0	57	305	stimuli\Videos_short_600ms_vertflip\41.injection_with_blunt_syringe_short_vertflip_short_600ms.mp4	41.injection_with_blunt_syringe_short_vertflip_short_600ms.mp4	89.8321504835892	90.44049457410074	0.6083440905115367	n/a	n/a	n/a	n/a
52.578125	0.2	107680	58	49	0	0	1	58	360	stimuli\Targets_short_600ms\brush-stroke_short_short_600ms.mp4	brush-stroke_short_short_600ms.mp4	90.6321569936124	91.2404758651146	0.6083188715022061	n/a	n/a	n/a	n/a
53.3779296875	0.2	109318	59	49	0	0	0	59	353	stimuli\Videos_short_600ms_vertflip\85.touch_top_to_bottom_with_fabric_short_vertflip_short_600ms.mp4	85.touch_top_to_bottom_with_fabric_short_vertflip_short_600ms.mp4	91.43213681840484	92.04045510341848	0.6083182850136382	n/a	n/a	n/a	n/a
54.17822265625	0.2	110957	60	49	0	0	0	60	321	stimuli\Videos_short_600ms_vertflip\56.repeated_touch_with_nail_file_short_vertflip_short_600ms.mp4	56.repeated_touch_with_nail_file_short_vertflip_short_600ms.mp4	92.2321424486954	92.84043991336377	0.6082974646683397	n/a	n/a	n/a	n/a
54.97802734375	0.2	112595	61	49	0	0	0	61	53	stimuli\Videos_short_600ms\58.single_slap_with_pencil_short_short_600ms.mp4	58.single_slap_with_pencil_short_short_600ms.mp4	93.0320826855077	93.64042061788903	0.608337932381346	n/a	n/a	n/a	n/a
55.77783203125	0.2	114233	62	49	0	0	0	62	195	stimuli\Videos_short_600ms_horvertflip\23.single_push_with_a_spoon_short_horvertflip_short_600ms.mp4	23.single_push_with_a_spoon_short_horvertflip_short_600ms.mp4	93.8323460775348	94.44040102917006	0.6080549516352676	n/a	n/a	n/a	n/a
56.578125	0.2	115872	63	49	0	0	0	63	78	stimuli\Videos_short_600ms\80.stroke_with_sharp_stick_all_over_the_hand_short_short_600ms.mp4	80.stroke_with_sharp_stick_all_over_the_hand_short_short_600ms.mp4	94.6322458466343	95.24038026747394	0.6081344208396331	n/a	n/a	n/a	n/a
57.3779296875	0.2	117510	64	49	0	0	0	64	167	stimuli\Videos_short_600ms_horflip\8.single_touch_with_hairbrush_short_horflip_short_600ms.mp4	8.single_touch_with_hairbrush_short_horflip_short_600ms.mp4	95.4320007530514	96.04036302470922	0.6083622716578247	n/a	n/a	n/a	n/a
58.177734375	0.2	119148	65	49	0	0	0	65	188	stimuli\Videos_short_600ms_horvertflip\17.repeated_touch_with_rolling_pin_short_horvertflip_short_600ms.mp4	17.repeated_touch_with_rolling_pin_short_horvertflip_short_600ms.mp4	96.23198409677524	96.84034900763186	0.6083649108566078	n/a	n/a	n/a	n/a
58.97802734375	0.2	120787	66	49	0	0	0	66	311	stimuli\Videos_short_600ms_vertflip\47.(long)scratching_with_finger_nails_short_vertflip_short_600ms.mp4	47.(long)scratching_with_finger_nails_short_vertflip_short_600ms.mp4	97.03199412573032	97.64032384727123	0.6083297215409402	n/a	n/a	n/a	n/a
59.77783203125	0.2	122425	67	49	0	0	0	67	20	stimuli\Videos_short_600ms\28.single_injection_with_sharp_needle_short_short_600ms.mp4	28.single_injection_with_sharp_needle_short_short_600ms.mp4	97.83197776269844	98.44030367206368	0.6083259093652487	n/a	n/a	n/a	n/a
60.57763671875	0.2	124063	68	49	0	0	0	68	16	stimuli\Videos_short_600ms\24.single_stroke_top_to_bottom_with_a_spoon_short_short_600ms.mp4	24.single_stroke_top_to_bottom_with_a_spoon_short_short_600ms.mp4	98.6319613996668	99.24028672254326	0.6083253228764534	n/a	n/a	n/a	n/a
61.3779296875	0.2	125702	69	49	0	0	0	69	273	stimuli\Videos_short_600ms_vertflip\12.repeated_touch_with_nail_file_short_vertflip_short_600ms.mp4	12.repeated_touch_with_nail_file_short_vertflip_short_600ms.mp4	99.43195530018534	100.0402260796227	0.6082707794373619	n/a	n/a	n/a	n/a
62.177734375	0.2	127340	70	49	0	0	1	70	381	stimuli\Targets_short_600ms_vertflip\finger-tap_short_horvertflip_short_600ms.mp4	finger-tap_short_horvertflip_short_600ms.mp4	100.23193307226757	100.84022789773736	0.608294825469784	n/a	n/a	n/a	n/a
62.9775390625	0.2	128978	71	49	0	0	0	71	296	stimuli\Videos_short_600ms_vertflip\33.scratch_top_to_bottom_with_scissors_short_vertflip_short_600ms.mp4	33.scratch_top_to_bottom_with_scissors_short_vertflip_short_600ms.mp4	101.03191876194592	101.64018924813922	0.6082704861933053	n/a	n/a	n/a	n/a
63.77783203125	0.2	130617	72	49	0	0	0	72	230	stimuli\Videos_short_600ms_horvertflip\55.touch_top_to_bottom_with_nail_file_short_horvertflip_short_600ms.mp4	55.touch_top_to_bottom_with_nail_file_short_horvertflip_short_600ms.mp4	101.83189682727266	102.4402001568269	0.6083033295542464	n/a	n/a	n/a	n/a
64.57763671875	0.2	132255	73	49	0	0	0	73	315	stimuli\Videos_short_600ms_vertflip\50.single_(long)hard_push_with_thumb_short_vertflip_short_600ms.mp4	50.single_(long)hard_push_with_thumb_short_vertflip_short_600ms.mp4	102.6318769453094	103.24018027486365	0.6083033295542464	n/a	n/a	n/a	n/a
65.37744140625	0.2	133893	74	49	0	0	0	74	295	stimuli\Videos_short_600ms_vertflip\32.single_(long)pinch_with_fingers_short_vertflip_short_600ms.mp4	32.single_(long)pinch_with_fingers_short_vertflip_short_600ms.mp4	103.4318594093004	104.04018678488706	0.6083273755866685	n/a	n/a	n/a	n/a
66.177734375	0.2	135532	75	49	0	0	1	75	382	stimuli\Targets_short_600ms_vertflip\hand-pinch_short_horvertflip_short_600ms.mp4	hand-pinch_short_horvertflip_short_600ms.mp4	104.23184803142158	104.84017218132112	0.6083241498995449	n/a	n/a	n/a	n/a
66.9775390625	0.2	137170	76	49	0	0	0	76	303	stimuli\Videos_short_600ms_vertflip\4.repeated_tap_with_finger_slow_short_vertflip_short_600ms.mp4	4.repeated_tap_with_finger_slow_short_vertflip_short_600ms.mp4	105.03182257781668	105.64014291554032	0.6083203377236259	n/a	n/a	n/a	n/a
67.77783203125	0.2	138809	77	49	0	0	0	77	48	stimuli\Videos_short_600ms\53.touch_top_to_bottom_with_knife_short_short_600ms.mp4	53.touch_top_to_bottom_with_knife_short_short_600ms.mp4	105.83180445531912	106.4401356430817	0.6083311877625874	n/a	n/a	n/a	n/a
68.57763671875	0.2	140447	78	49	0	0	0	78	116	stimuli\Videos_short_600ms_horflip\33.scratch_top_to_bottom_with_scissors_short_horflip_short_600ms.mp4	33.scratch_top_to_bottom_with_scissors_short_horflip_short_600ms.mp4	106.6317851598444	107.2400820380244	0.6082968781799991	n/a	n/a	n/a	n/a
69.37744140625	0.2	142085	79	49	0	0	0	79	217	stimuli\Videos_short_600ms_horvertflip\43.touch_top_to_bottom_with_sharp_wooden_stick_short_horvertflip_short_600ms.mp4	43.touch_top_to_bottom_with_sharp_wooden_stick_short_horvertflip_short_600ms.mp4	107.43174475078035	108.04008825480332	0.6083435040229688	n/a	n/a	n/a	n/a
70.177734375	0.2	143724	80	49	0	0	0	80	271	stimuli\Videos_short_600ms_vertflip\10.single_touch_with_knife_short_vertflip_short_600ms.mp4	10.single_touch_with_knife_short_vertflip_short_600ms.mp4	108.2317527270252	108.84006866608432	0.608315939059139	n/a	n/a	n/a	n/a
70.9775390625	0.2	145362	81	49	0	0	0	81	219	stimuli\Videos_short_600ms_horvertflip\45.scratching_with_finger_nails_short_horvertflip_short_600ms.mp4	45.scratching_with_finger_nails_short_horvertflip_short_600ms.mp4	109.0317316720848	109.6400464381668	0.6083147660820032	n/a	n/a	n/a	n/a
71.77734375	0.2	147000	82	49	0	0	0	82	283	stimuli\Videos_short_600ms_vertflip\21.repeated_touch_with_metal_chopstick_short_vertflip_short_600ms.mp4	21.repeated_touch_with_metal_chopstick_short_vertflip_short_600ms.mp4	109.83171882798456	110.44003154135656	0.6083127133720154	n/a	n/a	n/a	n/a
72.57763671875	0.2	148639	83	49	0	0	0	83	351	stimuli\Videos_short_600ms_vertflip\83.single_stroke_top_to_bottom_with_cotton_bud_short_vertflip_short_600ms.mp4	83.single_stroke_top_to_bottom_with_cotton_bud_short_vertflip_short_600ms.mp4	110.63167577972196	111.24001605805756	0.6083402783356178	n/a	n/a	n/a	n/a
73.37744140625	0.2	150277	84	49	0	0	1	84	383	stimuli\Targets_short_600ms_vertflip\hand-stroke_short_horvertflip_short_600ms.mp4	hand-stroke_short_horvertflip_short_600ms.mp4	111.4316693869962	112.03999646933858	0.6083270823423845	n/a	n/a	n/a	n/a
74.17724609375	0.2	151915	85	49	0	0	0	85	220	stimuli\Videos_short_600ms_horvertflip\46.scratching_top_to_bottom_with_finger_nails_short_horvertflip_short_600ms.mp4	46.scratching_top_to_bottom_with_finger_nails_short_horvertflip_short_600ms.mp4	112.23161607518318	112.83997776035244	0.6083616851692568	n/a	n/a	n/a	n/a
74.9775390625	0.2	153554	86	49	0	0	0	86	41	stimuli\Videos_short_600ms\47.(long)scratching_with_finger_nails_short_short_600ms.mp4	47.(long)scratching_with_finger_nails_short_short_600ms.mp4	113.03163930013147	113.63995465270182	0.6083153525703437	n/a	n/a	n/a	n/a
75.77734375	0.2	155192	87	49	0	0	0	87	289	stimuli\Videos_short_600ms_vertflip\27.single_push_with_a_plastic_whisk_short_vertflip_short_600ms.mp4	27.single_push_with_a_plastic_whisk_short_vertflip_short_600ms.mp4	113.8316088613733	114.43994268833468	0.6083338269613705	n/a	n/a	n/a	n/a
76.5771484375	0.2	156830	88	49	0	0	0	88	240	stimuli\Videos_short_600ms_horvertflip\64.repeated_touch_with_screwdriver_short_horvertflip_short_600ms.mp4	64.repeated_touch_with_screwdriver_short_horvertflip_short_600ms.mp4	114.63159249834166	115.2398782332382	0.6082857348965263	n/a	n/a	n/a	n/a
77.37744140625	0.2	158469	89	49	0	0	0	89	251	stimuli\Videos_short_600ms_horvertflip\74.fingers_walking_from_top_to_bottom_short_horvertflip_short_600ms.mp4	74.fingers_walking_from_top_to_bottom_short_horvertflip_short_600ms.mp4	115.43152687026804	116.03980967272172	0.6082828024536866	n/a	n/a	n/a	n/a
78.17724609375	0.2	160107	90	49	0	0	0	90	204	stimuli\Videos_short_600ms_horvertflip\31.hand_grabbing_wrist_short_horvertflip_short_600ms.mp4	31.hand_grabbing_wrist_short_horvertflip_short_600ms.mp4	116.23189905592926	116.83983289767002	0.6079338417407598	n/a	n/a	n/a	n/a
78.97705078125	0.2	161745	91	49	0	0	0	91	301	stimuli\Videos_short_600ms_vertflip\38.double_slap_with_pencil_short_vertflip_short_600ms.mp4	38.double_slap_with_pencil_short_vertflip_short_600ms.mp4	117.03153021325306	117.6398021656678	0.6082719524147251	n/a	n/a	n/a	n/a
79.77734375	0.2	163384	92	49	0	0	0	92	117	stimuli\Videos_short_600ms_horflip\34.repeated_punch_with_hand_short_horflip_short_600ms.mp4	34.repeated_punch_with_hand_short_horflip_short_600ms.mp4	117.83146839735537	118.43982421763872	0.6083558202833501	n/a	n/a	n/a	n/a
80.5771484375	0.2	165022	93	49	0	0	0	93	22	stimuli\Videos_short_600ms\3.single_push_with_finger_short_short_600ms.mp4	3.single_push_with_finger_short_short_600ms.mp4	118.631479012799	119.23981635869175	0.6083373458927781	n/a	n/a	n/a	n/a
81.376953125	0.2	166660	94	49	0	0	0	94	318	stimuli\Videos_short_600ms_vertflip\53.touch_top_to_bottom_with_knife_short_vertflip_short_600ms.mp4	53.touch_top_to_bottom_with_knife_short_vertflip_short_600ms.mp4	119.43148493633362	120.03974222653346	0.6082572901998446	n/a	n/a	n/a	n/a
82.17724609375	0.2	168299	95	49	0	0	0	95	25	stimuli\Videos_short_600ms\32.single_(long)pinch_with_fingers_short_short_600ms.mp4	32.single_(long)pinch_with_fingers_short_short_600ms.mp4	120.23141402986266	120.83971911888284	0.6083050890201775	n/a	n/a	n/a	n/a
82.97705078125	0.2	169937	96	49	0	0	0	96	42	stimuli\Videos_short_600ms\48.single_slap_with_hand_short_short_600ms.mp4	48.single_slap_with_hand_short_short_600ms.mp4	121.0313674626684	121.63977166826088	0.6084042055924783	n/a	n/a	n/a	n/a
83.77685546875	0.2	171575	97	49	0	0	0	97	18	stimuli\Videos_short_600ms\26.single_touch_with_a_blunt_syringe_short_short_600ms.mp4	26.single_touch_with_a_blunt_syringe_short_short_600ms.mp4	121.83140798903035	122.4397435754572	0.6083355864268469	n/a	n/a	n/a	n/a
84.5771484375	0.2	173214	98	49	0	0	0	98	153	stimuli\Videos_short_600ms_horflip\67.single_touch_with_sponge_short_horflip_short_600ms.mp4	67.single_touch_with_sponge_short_horflip_short_600ms.mp4	122.63138693408972	123.23972897189128	0.6083420378015489	9.0	9.0	2.669269698538983	1.0
117.65087890625	0.2	240949	99	49	1	0	0	0	272	stimuli\Videos_short_600ms_vertflip\11.single_touch_with_lighter_short_vertflip_short_600ms.mp4	11.single_touch_with_lighter_short_vertflip_short_600ms.mp4	155.705644307571	156.31398399941804	0.6083396918470498	n/a	n/a	n/a	n/a
118.451171875	0.2	242588	100	49	1	0	0	1	23	stimuli\Videos_short_600ms\30.finger_pulling_back_another_finger_short_short_600ms.mp4	30.finger_pulling_back_another_finger_short_short_600ms.mp4	156.5056085904157	157.11396499718762	0.608356406771918	n/a	n/a	n/a	n/a
119.2509765625	0.2	244226	101	49	1	0	0	2	215	stimuli\Videos_short_600ms_horvertflip\41.injection_with_blunt_syringe_short_horvertflip_short_600ms.mp4	41.injection_with_blunt_syringe_short_horvertflip_short_600ms.mp4	157.30557961787918	157.9139459949572	0.6083663770780277	n/a	n/a	n/a	n/a
120.05078125	0.2	245864	102	49	1	0	0	3	69	stimuli\Videos_short_600ms\72.(short)stroke_with_finger_all_over_the_hand_short_short_600ms.mp4	72.(short)stroke_with_finger_all_over_the_hand_short_short_600ms.mp4	158.10568377825325	158.7139249400168	0.6082411617635444	n/a	n/a	n/a	n/a
120.85107421875	0.2	247503	103	49	1	0	0	4	277	stimuli\Videos_short_600ms_vertflip\16.repeated_touch_with_plastic_brush_short_vertflip_short_600ms.mp4	16.repeated_touch_with_plastic_brush_short_vertflip_short_600ms.mp4	158.90554513234997	159.5139074040078	0.6083622716578247	n/a	n/a	n/a	n/a
121.65087890625	0.2	249141	104	49	1	0	0	5	216	stimuli\Videos_short_600ms_horvertflip\42.single_slap_with_plastic_whisk_short_horvertflip_short_600ms.mp4	42.single_slap_with_plastic_whisk_short_horvertflip_short_600ms.mp4	159.7056360967306	160.3138860558231	0.6082499590925181	n/a	n/a	n/a	n/a
122.45068359375	0.2	250779	105	49	1	0	0	6	337	stimuli\Videos_short_600ms_vertflip\70.(long)stroke_with_finger_all_over_the_hand_short_vertflip_short_600ms.mp4	70.(long)stroke_with_finger_all_over_the_hand_short_vertflip_short_600ms.mp4	160.5055355725858	161.11384681973618	0.6083112471503682	n/a	n/a	n/a	n/a
123.2509765625	0.2	252418	106	49	1	0	0	7	214	stimuli\Videos_short_600ms_horvertflip\40.repeated_push_with_finger_short_horvertflip_short_600ms.mp4	40.repeated_push_with_finger_short_horvertflip_short_600ms.mp4	161.30578459564254	161.9138354418576	0.6080508462150647	n/a	n/a	n/a	n/a
124.05078125	0.2	254056	107	49	1	0	0	8	198	stimuli\Videos_short_600ms_horvertflip\26.single_touch_with_a_blunt_syringe_short_horvertflip_short_600ms.mp4	26.single_touch_with_a_blunt_syringe_short_horvertflip_short_600ms.mp4	162.10551838847005	162.7138120409627	0.6082936524926481	n/a	n/a	n/a	n/a
124.8505859375	0.2	255694	108	49	1	0	0	9	171	stimuli\Videos_short_600ms_horflip\83.single_stroke_top_to_bottom_with_cotton_bud_short_horflip_short_600ms.mp4	83.single_stroke_top_to_bottom_with_cotton_bud_short_horflip_short_600ms.mp4	162.90549909299534	163.51379186575514	0.6082927727597962	n/a	n/a	n/a	n/a
125.65087890625	0.2	257333	109	49	1	0	0	10	338	stimuli\Videos_short_600ms_vertflip\71.single_stroke_with_finger_top_to_bottom_short_vertflip_short_600ms.mp4	71.single_stroke_with_finger_top_to_bottom_short_vertflip_short_600ms.mp4	163.7054542852668	164.3137649459286	0.6083106606618003	n/a	n/a	n/a	n/a
126.45068359375	0.2	258971	110	49	1	0	0	11	173	stimuli\Videos_short_600ms_horflip\85.touch_top_to_bottom_with_fabric_short_horflip_short_600ms.mp4	85.touch_top_to_bottom_with_fabric_short_horflip_short_600ms.mp4	164.5055138725079	165.11376910999775	0.6082552374898569	n/a	n/a	n/a	n/a
127.25048828125	0.2	260609	111	49	1	0	0	12	36	stimuli\Videos_short_600ms\42.single_slap_with_plastic_whisk_short_short_600ms.mp4	42.single_slap_with_plastic_whisk_short_short_600ms.mp4	165.30543504844104	165.91374688207998	0.6083118336389362	n/a	n/a	n/a	n/a
128.05078125	0.2	262248	112	49	1	0	0	13	304	stimuli\Videos_short_600ms_vertflip\40.repeated_push_with_finger_short_vertflip_short_600ms.mp4	40.repeated_push_with_finger_short_vertflip_short_600ms.mp4	166.10542601651673	166.71375661779052	0.6083306012737921	n/a	n/a	n/a	n/a
128.8505859375	0.2	263886	113	49	1	0	0	14	324	stimuli\Videos_short_600ms_vertflip\59.single_push_with_long_side_pencil_short_vertflip_short_600ms.mp4	59.single_push_with_long_side_pencil_short_vertflip_short_600ms.mp4	166.90538531420816	167.5137258857883	0.6083405715801291	n/a	n/a	n/a	n/a
129.650390625	0.2	265524	114	49	1	0	0	15	223	stimuli\Videos_short_600ms_horvertflip\49.repeated_slap_with_hand_short_horvertflip_short_600ms.mp4	49.repeated_slap_with_hand_short_horvertflip_short_600ms.mp4	167.70538889178874	168.31364324954552	0.6082543577567776	n/a	n/a	n/a	n/a
130.45068359375	0.2	267163	115	49	1	0	0	16	24	stimuli\Videos_short_600ms\31.hand_grabbing_wrist_short_short_600ms.mp4	31.hand_grabbing_wrist_short_short_600ms.mp4	168.50556988216863	169.11368788132745	0.6081179991588215	n/a	n/a	n/a	n/a
131.25048828125	0.2	268801	116	49	1	0	0	17	119	stimuli\Videos_short_600ms_horflip\36.single_slap_with_full_hand_short_horflip_short_600ms.mp4	36.single_slap_with_full_hand_short_horflip_short_600ms.mp4	169.30533387915875	169.9136715182958	0.6083376391370621	n/a	n/a	n/a	n/a
132.05078125	0.2	270440	117	49	1	0	0	18	90	stimuli\Videos_short_600ms_horflip\1.repeated_touch_with_finger_fast_short_horflip_short_600ms.mp4	1.repeated_touch_with_finger_fast_short_horflip_short_600ms.mp4	170.10533687025054	170.71365104984375	0.6083141795932079	n/a	n/a	n/a	n/a
132.8505859375	0.2	272078	118	49	1	0	0	19	126	stimuli\Videos_short_600ms_horflip\42.single_slap_with_plastic_whisk_short_horflip_short_600ms.mp4	42.single_slap_with_plastic_whisk_short_horflip_short_600ms.mp4	170.9052958746979	171.5136308746362	0.608334999938279	n/a	n/a	n/a	n/a
133.650390625	0.2	273716	119	49	1	0	0	20	261	stimuli\Videos_short_600ms_horvertflip\83.single_stroke_top_to_bottom_with_cotton_bud_short_horvertflip_short_600ms.mp4	83.single_stroke_top_to_bottom_with_cotton_bud_short_horvertflip_short_600ms.mp4	171.70533170915087	172.31361509809312	0.6082833889422545	n/a	n/a	n/a	n/a
134.45068359375	0.2	275355	120	49	1	0	0	21	286	stimuli\Videos_short_600ms_vertflip\24.single_stroke_top_to_bottom_with_a_spoon_short_vertflip_short_600ms.mp4	24.single_stroke_top_to_bottom_with_a_spoon_short_vertflip_short_600ms.mp4	172.50522238767712	173.11359550937414	0.6083731216970136	n/a	n/a	n/a	n/a
135.25048828125	0.2	276993	121	49	1	0	0	22	88	stimuli\Videos_short_600ms\9.single_touch_with_hammer_short_short_600ms.mp4	9.single_touch_with_hammer_short_short_600ms.mp4	173.30522010037157	173.91358178554106	0.6083616851694842	n/a	n/a	n/a	n/a
136.05029296875	0.2	278631	122	49	1	0	0	23	136	stimuli\Videos_short_600ms_horflip\51.repeated_touch_with_hammer_short_horflip_short_600ms.mp4	51.repeated_touch_with_hammer_short_horflip_short_600ms.mp4	174.105201977874	174.71356014411185	0.6083581662378492	n/a	n/a	n/a	n/a
136.8505859375	0.2	280270	123	49	1	0	0	24	323	stimuli\Videos_short_600ms_vertflip\58.single_slap_with_pencil_short_vertflip_short_600ms.mp4	58.single_slap_with_pencil_short_vertflip_short_600ms.mp4	174.9051562904126	175.51353469050696	0.6083784000943524	n/a	n/a	n/a	n/a
137.650390625	0.2	281908	124	49	1	0	0	25	45	stimuli\Videos_short_600ms\50.single_(long)hard_push_with_thumb_short_short_600ms.mp4	50.single_(long)hard_push_with_thumb_short_short_600ms.mp4	175.70517013154358	176.31352536533836	0.6083552337947822	n/a	n/a	n/a	n/a
138.4501953125	0.2	283546	125	49	1	0	0	26	357	stimuli\Videos_short_600ms_vertflip\89.single_touch_with_plastic_brush_short_vertflip_short_600ms.mp4	89.single_touch_with_plastic_brush_short_vertflip_short_600ms.mp4	176.50519746191185	177.11350870906222	0.6083112471503682	n/a	n/a	n/a	n/a
139.25048828125	0.2	285185	126	49	1	0	0	27	79	stimuli\Videos_short_600ms\81.single_stroke_top_to_bottom_with_cotton_pad_short_short_600ms.mp4	81.single_stroke_top_to_bottom_with_cotton_pad_short_short_600ms.mp4	177.3055224352413	177.91344044179004	0.6079180065487435	n/a	n/a	n/a	n/a
140.05029296875	0.2	286823	127	49	1	0	0	28	97	stimuli\Videos_short_600ms_horflip\16.repeated_touch_with_plastic_brush_short_horflip_short_600ms.mp4	16.repeated_touch_with_plastic_brush_short_horflip_short_600ms.mp4	178.10515036687798	178.71342466524698	0.6082742983689968	n/a	n/a	n/a	n/a
140.85009765625	0.2	288461	128	49	1	0	0	29	140	stimuli\Videos_short_600ms_horflip\55.touch_top_to_bottom_with_nail_file_short_horflip_short_600ms.mp4	55.touch_top_to_bottom_with_nail_file_short_horflip_short_600ms.mp4	178.9052436772131	179.51340566301656	0.6081619858034628	n/a	n/a	n/a	n/a
141.650390625	0.2	290100	129	49	1	0	0	30	182	stimuli\Videos_short_600ms_horvertflip\11.single_touch_with_lighter_short_horvertflip_short_600ms.mp4	11.single_touch_with_lighter_short_horvertflip_short_600ms.mp4	179.70516778558908	180.31341305277283	0.6082452671837473	n/a	n/a	n/a	n/a
142.4501953125	0.2	291738	130	49	1	0	0	31	146	stimuli\Videos_short_600ms_horflip\60.single_push_with_tip_of_pencil_short_horflip_short_600ms.mp4	60.single_push_with_tip_of_pencil_short_horflip_short_600ms.mp4	180.50509687911813	181.1133981559626	0.608301276844486	n/a	n/a	n/a	n/a
143.25	0.2	293376	131	49	1	0	0	32	55	stimuli\Videos_short_600ms\6.single_touch_with_flat_hand_short_short_600ms.mp4	6.single_touch_with_flat_hand_short_short_600ms.mp4	181.3050558835655	181.91335921311995	0.6083033295544737	n/a	n/a	n/a	n/a
144.05029296875	0.2	295015	132	49	1	0	0	33	210	stimuli\Videos_short_600ms_horvertflip\37.single_stab_with_nail_file_short_horvertflip_short_600ms.mp4	37.single_stab_with_nail_file_short_horvertflip_short_600ms.mp4	182.10503424213653	182.7133894759313	0.6083552337947822	n/a	n/a	n/a	n/a
144.85009765625	0.2	296653	133	49	1	0	0	34	11	stimuli\Videos_short_600ms\2.single_touch_with_finger_short_short_600ms.mp4	2.single_touch_with_finger_short_short_600ms.mp4	182.90503840620545	183.51335639797455	0.6083179917691268	n/a	n/a	n/a	n/a
145.64990234375	0.2	298291	134	49	1	0	0	35	194	stimuli\Videos_short_600ms_horvertflip\22.single_touch_with_metal_chopstick_short_horvertflip_short_600ms.mp4	22.single_touch_with_metal_chopstick_short_horvertflip_short_600ms.mp4	183.70502057695217	184.31333944845437	0.6083188715022061	n/a	n/a	n/a	n/a
146.4501953125	0.2	299930	135	49	1	0	0	36	246	stimuli\Videos_short_600ms_horvertflip\7.repeated_touch_with_hairbrush_short_horvertflip_short_600ms.mp4	7.repeated_touch_with_hairbrush_short_horvertflip_short_600ms.mp4	184.5050030409434	185.1133233786668	0.6083203377233986	n/a	n/a	n/a	n/a
147.25	0.2	301568	136	49	1	0	0	37	336	stimuli\Videos_short_600ms_vertflip\7.repeated_touch_with_hairbrush_short_vertflip_short_600ms.mp4	7.repeated_touch_with_hairbrush_short_vertflip_short_600ms.mp4	185.3049808130256	185.913305842658	0.6083250296323968	n/a	n/a	n/a	n/a
148.0498046875	0.2	303206	137	49	1	0	0	38	193	stimuli\Videos_short_600ms_horvertflip\21.repeated_touch_with_metal_chopstick_short_horvertflip_short_600ms.mp4	21.repeated_touch_with_metal_chopstick_short_horvertflip_short_600ms.mp4	186.10496327701665	186.71328625393903	0.608322976922409	n/a	n/a	n/a	n/a
148.85009765625	0.2	304845	138	49	1	0	1	39	379	stimuli\Targets_short_600ms_vertflip\chopstick-silver-tap_short_horvertflip_short_600ms.mp4	chopstick-silver-tap_short_horvertflip_short_600ms.mp4	186.90494750047355	187.5132678381972	0.6083203377236259	n/a	n/a	n/a	n/a
149.64990234375	0.2	306483	139	49	1	0	0	40	92	stimuli\Videos_short_600ms_horflip\11.single_touch_with_lighter_short_horflip_short_600ms.mp4	11.single_touch_with_lighter_short_horflip_short_600ms.mp4	187.70488891026295	188.3132482494782	0.6083593392152125	n/a	n/a	n/a	n/a
150.4501953125	0.2	308122	140	49	1	0	0	41	98	stimuli\Videos_short_600ms_horflip\17.repeated_touch_with_rolling_pin_short_horflip_short_600ms.mp4	17.repeated_touch_with_rolling_pin_short_horflip_short_600ms.mp4	188.50488720944625	189.1132286607592	0.608341451312981	n/a	n/a	n/a	n/a
151.25	0.2	309760	141	49	1	0	1	42	368	stimuli\Targets_short_600ms_horflip\chopstickwood-tap_short_horflip_short_600ms.mp4	chopstickwood-tap_short_horflip_short_600ms.mp4	189.3048500260693	189.91320995177307	0.6083599257037804	n/a	n/a	n/a	n/a
152.0498046875	0.2	311398	142	49	1	0	0	43	21	stimuli\Videos_short_600ms\29.single_pinch_with_tweezers_short_short_600ms.mp4	29.single_pinch_with_tweezers_short_short_600ms.mp4	190.10507324362788	190.71318860358815	0.6081153599602658	n/a	n/a	n/a	n/a
152.85009765625	0.2	313037	143	49	1	0	0	44	252	stimuli\Videos_short_600ms_horvertflip\75.(long)stroke_with_fingers_all_over_the_hand_short_horvertflip_short_600ms.mp4	75.(long)stroke_with_fingers_all_over_the_hand_short_horvertflip_short_600ms.mp4	190.90485219607717	191.51315904456305	0.6083068484858813	n/a	n/a	n/a	n/a
153.64990234375	0.2	314675	144	49	1	0	0	45	254	stimuli\Videos_short_600ms_horvertflip\77.tapping_with_all_fingers_short_horvertflip_short_600ms.mp4	77.tapping_with_all_fingers_short_horvertflip_short_600ms.mp4	191.70482322354064	192.31314268153145	0.608319457990774	n/a	n/a	n/a	n/a
154.44970703125	0.2	316313	145	49	1	0	0	46	115	stimuli\Videos_short_600ms_horflip\32.single_(long)pinch_with_fingers_short_horflip_short_600ms.mp4	32.single_(long)pinch_with_fingers_short_horflip_short_600ms.mp4	192.50482445516673	193.11308086563372	0.6082564104669927	n/a	n/a	n/a	n/a
155.25	0.2	317952	146	49	1	0	0	47	150	stimuli\Videos_short_600ms_horflip\64.repeated_touch_with_screwdriver_short_horflip_short_600ms.mp4	64.repeated_touch_with_screwdriver_short_horflip_short_600ms.mp4	193.3052901857584	193.91308620267975	0.6077960169213839	n/a	n/a	n/a	n/a
156.0498046875	0.2	319590	147	49	1	0	0	48	259	stimuli\Videos_short_600ms_horvertflip\81.single_stroke_top_to_bottom_with_cotton_pad_short_horvertflip_short_600ms.mp4	81.single_stroke_top_to_bottom_with_cotton_pad_short_horvertflip_short_600ms.mp4	194.1054485963275	194.71305752338753	0.6076089270600278	n/a	n/a	n/a	n/a
156.849609375	0.2	321228	148	49	1	0	0	49	105	stimuli\Videos_short_600ms_horflip\23.single_push_with_a_spoon_short_horflip_short_600ms.mp4	23.single_push_with_a_spoon_short_horflip_short_600ms.mp4	194.90471789018943	195.51306168745668	0.6083437972672527	n/a	n/a	n/a	n/a
157.64990234375	0.2	322867	149	49	1	0	0	50	57	stimuli\Videos_short_600ms\61.single_hit_with_rolling_pin_short_short_600ms.mp4	61.single_hit_with_rolling_pin_short_short_600ms.mp4	195.70474873948933	196.31304942984505	0.6083006903556907	n/a	n/a	n/a	n/a
158.44970703125	0.2	324505	150	49	1	0	0	51	0	stimuli\Videos_short_600ms\1.repeated_touch_with_finger_fast_short_short_600ms.mp4	1.repeated_touch_with_finger_fast_short_short_600ms.mp4	196.50472533859443	197.1130362925005	0.6083109539060843	n/a	n/a	n/a	n/a
159.24951171875	0.2	326143	151	49	1	0	0	52	190	stimuli\Videos_short_600ms_horvertflip\19.single_touch_with_rolling_pin_short_horvertflip_short_600ms.mp4	19.single_touch_with_rolling_pin_short_horvertflip_short_600ms.mp4	197.30526643297048	197.9130492538984	0.6077828209279232	n/a	n/a	n/a	n/a
160.0498046875	0.2	327782	152	49	1	0	0	53	99	stimuli\Videos_short_600ms_horflip\18.single_stroke_from_top_to_bottom_with_rolling_pin_short_horflip_short_600ms.mp4	18.single_stroke_from_top_to_bottom_with_rolling_pin_short_horflip_short_600ms.mp4	198.10474891543595	198.71301119078885	0.6082622753528995	n/a	n/a	n/a	n/a
160.849609375	0.2	329420	153	49	1	0	0	54	235	stimuli\Videos_short_600ms_horvertflip\6.single_touch_with_flat_hand_short_horvertflip_short_600ms.mp4	6.single_touch_with_flat_hand_short_horvertflip_short_600ms.mp4	198.9046700913691	199.51300215886457	0.6083320674954393	n/a	n/a	n/a	n/a
161.6494140625	0.2	331058	154	49	1	0	0	55	162	stimuli\Videos_short_600ms_horflip\75.(long)stroke_with_fingers_all_over_the_hand_short_horflip_short_600ms.mp4	75.(long)stroke_with_fingers_all_over_the_hand_short_horflip_short_600ms.mp4	199.70465196887153	200.3129734795723	0.6083215107007618	n/a	n/a	n/a	n/a
162.44970703125	0.2	332697	155	49	1	0	0	56	280	stimuli\Videos_short_600ms_vertflip\19.single_touch_with_rolling_pin_short_vertflip_short_600ms.mp4	19.single_touch_with_rolling_pin_short_vertflip_short_600ms.mp4	200.50461155980747	201.11295301112045	0.608341451312981	n/a	n/a	n/a	n/a
163.24951171875	0.2	334335	156	49	1	0	0	57	125	stimuli\Videos_short_600ms_horflip\41.injection_with_blunt_syringe_short_horflip_short_600ms.mp4	41.injection_with_blunt_syringe_short_horflip_short_600ms.mp4	201.30461308467784	201.91293811431	0.6083250296321694	n/a	n/a	n/a	n/a
164.04931640625	0.2	335973	157	49	1	0	0	58	267	stimuli\Videos_short_600ms_horvertflip\89.single_touch_with_plastic_brush_short_horvertflip_short_600ms.mp4	89.single_touch_with_plastic_brush_short_horvertflip_short_600ms.mp4	202.10457062290357	202.71291617963675	0.6083455567331839	n/a	n/a	n/a	n/a
164.849609375	0.2	337612	158	49	1	0	0	59	288	stimuli\Videos_short_600ms_vertflip\26.single_touch_with_a_blunt_syringe_short_vertflip_short_600ms.mp4	26.single_touch_with_a_blunt_syringe_short_vertflip_short_600ms.mp4	202.9047668619869	203.51289659091776	0.6081297289308623	n/a	n/a	n/a	n/a
165.6494140625	0.2	339250	159	49	1	0	0	60	148	stimuli\Videos_short_600ms_horflip\62.touch_top_to_bottom_with_scissors_short_horflip_short_600ms.mp4	62.touch_top_to_bottom_with_scissors_short_horflip_short_600ms.mp4	203.7045434684817	204.31288081437447	0.6083373458927781	n/a	n/a	n/a	n/a
166.44921875	0.2	340888	160	49	1	0	0	61	124	stimuli\Videos_short_600ms_horflip\40.repeated_push_with_finger_short_horflip_short_600ms.mp4	40.repeated_push_with_finger_short_horflip_short_600ms.mp4	204.50450393915048	205.1128632783657	0.6083593392152125	n/a	n/a	n/a	n/a
167.24951171875	0.2	342527	161	49	1	0	0	62	163	stimuli\Videos_short_600ms_horflip\76.tickle_with_fingers_from_top_to_bottom_short_horflip_short_600ms.mp4	76.tickle_with_fingers_from_top_to_bottom_short_horflip_short_600ms.mp4	205.3044864031417	205.9128454491124	0.6083590459707011	n/a	n/a	n/a	n/a
168.04931640625	0.2	344165	162	49	1	0	0	63	256	stimuli\Videos_short_600ms_horvertflip\79.long_with_soft_brush_all_over_the_hand_short_horvertflip_short_600ms.mp4	79.long_with_soft_brush_all_over_the_hand_short_horvertflip_short_600ms.mp4	206.10449027396635	206.7128241009275	0.6083338269611431	n/a	n/a	n/a	n/a
168.849609375	0.2	345804	163	49	1	0	0	64	191	stimuli\Videos_short_600ms_horvertflip\2.single_touch_with_finger_short_horvertflip_short_600ms.mp4	2.single_touch_with_finger_short_horvertflip_short_600ms.mp4	206.9044739109347	207.5127848648408	0.6083109539060843	n/a	n/a	n/a	n/a
169.6494140625	0.2	347442	164	49	1	0	0	65	186	stimuli\Videos_short_600ms_horvertflip\15.single_stroke_top_to_bottom_with_a_plastic_whisk_short_horvertflip_short_600ms.mp4	15.single_stroke_top_to_bottom_with_a_plastic_whisk_short_horvertflip_short_600ms.mp4	207.70447807500364	208.31275677203712	0.6082786970334837	n/a	n/a	n/a	n/a
170.44921875	0.2	349080	165	49	1	0	0	66	197	stimuli\Videos_short_600ms_horvertflip\25.single_touch_with_stanley_knife_short_horvertflip_short_600ms.mp4	25.single_touch_with_stanley_knife_short_horvertflip_short_600ms.mp4	208.50446259170485	209.11272662652345	0.6082640348186032	n/a	n/a	n/a	n/a
171.24951171875	0.2	350719	166	49	1	0	1	67	363	stimuli\Targets_short_600ms\finger-tap_short_short_600ms.mp4	finger-tap_short_short_600ms.mp4	209.3044315664581	209.91271788784343	0.6082863213853216	n/a	n/a	n/a	n/a
172.04931640625	0.2	352357	167	49	1	0	0	68	73	stimuli\Videos_short_600ms\76.tickle_with_fingers_from_top_to_bottom_short_short_600ms.mp4	76.tickle_with_fingers_from_top_to_bottom_short_short_600ms.mp4	210.1043926236157	210.71268803557405	0.6082954119583519	n/a	n/a	n/a	n/a
172.84912109375	0.2	353995	168	49	1	0	0	69	328	stimuli\Videos_short_600ms_vertflip\62.touch_top_to_bottom_with_scissors_short_vertflip_short_600ms.mp4	62.touch_top_to_bottom_with_scissors_short_vertflip_short_600ms.mp4	210.90437743356097	211.51270656861357	0.6083291350525997	n/a	n/a	n/a	n/a
173.6494140625	0.2	355634	169	49	1	0	0	70	144	stimuli\Videos_short_600ms_horflip\59.single_push_with_long_side_pencil_short_horflip_short_600ms.mp4	59.single_push_with_long_side_pencil_short_horflip_short_600ms.mp4	211.70437719896563	212.31268316771863	0.6083059687530294	n/a	n/a	n/a	n/a
174.44921875	0.2	357272	170	49	1	0	0	71	10	stimuli\Videos_short_600ms\19.single_touch_with_rolling_pin_short_short_600ms.mp4	19.single_touch_with_rolling_pin_short_short_600ms.mp4	212.50431450333508	213.1126835196119	0.6083690162768107	n/a	n/a	n/a	n/a
175.2490234375	0.2	358910	171	49	1	0	0	72	228	stimuli\Videos_short_600ms_horvertflip\53.touch_top_to_bottom_with_knife_short_horvertflip_short_600ms.mp4	53.touch_top_to_bottom_with_knife_short_horvertflip_short_600ms.mp4	213.30434535263495	213.91267654039757	0.6083311877625874	n/a	n/a	n/a	n/a
176.04931640625	0.2	360549	172	49	1	0	0	73	74	stimuli\Videos_short_600ms\77.tapping_with_all_fingers_short_short_600ms.mp4	77.tapping_with_all_fingers_short_short_600ms.mp4	214.10432283147293	214.71264140973085	0.6083185782579221	n/a	n/a	n/a	n/a
176.84912109375	0.2	362187	173	49	1	0	0	74	250	stimuli\Videos_short_600ms_horvertflip\73.single_stroke_with_flat_hand_short_horvertflip_short_600ms.mp4	73.single_stroke_with_flat_hand_short_horvertflip_short_600ms.mp4	214.90430294950968	215.51262387372185	0.6083209242121939	n/a	n/a	n/a	n/a
177.64892578125	0.2	363825	174	49	1	0	0	75	177	stimuli\Videos_short_600ms_horflip\89.single_touch_with_plastic_brush_short_horflip_short_600ms.mp4	89.single_touch_with_plastic_brush_short_horflip_short_600ms.mp4	215.7043613637736	216.31260281878144	0.6082414550078283	n/a	n/a	n/a	n/a
178.44921875	0.2	365464	175	49	1	0	0	76	137	stimuli\Videos_short_600ms_horflip\52.touch_top_to_bottom_with_hammer_short_horflip_short_600ms.mp4	52.touch_top_to_bottom_with_hammer_short_horflip_short_600ms.mp4	216.50432242093095	217.11258733548263	0.6082649145516825	n/a	n/a	n/a	n/a
179.2490234375	0.2	367102	176	49	1	0	0	77	358	stimuli\Videos_short_600ms_vertflip\9.single_touch_with_hammer_short_vertflip_short_600ms.mp4	9.single_touch_with_hammer_short_vertflip_short_600ms.mp4	217.3042280549164	217.9125692129851	0.608341158068697	n/a	n/a	n/a	n/a
180.048828125	0.2	368740	177	49	1	0	0	78	269	stimuli\Videos_short_600ms_horvertflip\90.repeated_touch_with_sponge_short_horvertflip_short_600ms.mp4	90.repeated_touch_with_sponge_short_horvertflip_short_600ms.mp4	218.10421931623637	218.71255255670897	0.6083332404725752	n/a	n/a	n/a	n/a
180.84912109375	0.2	370379	178	49	1	0	0	79	222	stimuli\Videos_short_600ms_horvertflip\48.single_slap_with_hand_short_horvertflip_short_600ms.mp4	48.single_slap_with_hand_short_horvertflip_short_600ms.mp4	218.90419738156288	219.51253355447852	0.6083361729156422	n/a	n/a	n/a	n/a
181.64892578125	0.2	372017	179	49	1	0	0	80	249	stimuli\Videos_short_600ms_horvertflip\72.(short)stroke_with_finger_all_over_the_hand_short_horvertflip_short_600ms.mp4	72.(short)stroke_with_finger_all_over_the_hand_short_horvertflip_short_600ms.mp4	219.70415169410148	220.31251337927097	0.6083616851694842	n/a	n/a	n/a	n/a
182.44873046875	0.2	373655	180	49	1	0	0	81	143	stimuli\Videos_short_600ms_horflip\58.single_slap_with_pencil_short_horflip_short_600ms.mp4	58.single_slap_with_pencil_short_horflip_short_600ms.mp4	220.50415556492635	221.11249642975056	0.6083408648241857	n/a	n/a	n/a	n/a
183.2490234375	0.2	375294	181	49	1	0	0	82	265	stimuli\Videos_short_600ms_horvertflip\87.single_stroke_top_to_bottom_with_plastic_brush_short_horvertflip_short_600ms.mp4	87.single_stroke_top_to_bottom_with_plastic_brush_short_horvertflip_short_600ms.mp4	221.30413011132123	221.9124715626342	0.608341451312981	n/a	n/a	n/a	n/a
184.048828125	0.2	376932	182	49	1	0	0	83	175	stimuli\Videos_short_600ms_horflip\87.single_stroke_top_to_bottom_with_plastic_brush_short_horflip_short_600ms.mp4	87.single_stroke_top_to_bottom_with_plastic_brush_short_horflip_short_600ms.mp4	222.10427649887424	222.71245695906828	0.6081804601940348	n/a	n/a	n/a	n/a
184.8486328125	0.2	378570	183	49	1	0	0	84	294	stimuli\Videos_short_600ms_vertflip\31.hand_grabbing_wrist_short_vertflip_short_600ms.mp4	31.hand_grabbing_wrist_short_vertflip_short_600ms.mp4	222.90420881809064	223.51241889595872	0.6082100778680797	n/a	n/a	n/a	n/a
185.64892578125	0.2	380209	184	49	1	0	0	85	52	stimuli\Videos_short_600ms\57.single_touch_with_nail_file_short_short_600ms.mp4	57.single_touch_with_nail_file_short_short_600ms.mp4	223.70410360203687	224.31240693159137	0.6083033295544737	n/a	n/a	n/a	n/a
186.44873046875	0.2	381847	185	49	1	0	0	86	7	stimuli\Videos_short_600ms\16.repeated_touch_with_plastic_brush_short_short_600ms.mp4	16.repeated_touch_with_plastic_brush_short_short_600ms.mp4	224.5040837200736	225.11237180092465	0.6082880808510254	n/a	n/a	n/a	n/a
187.2490234375	0.2	383486	186	49	1	0	0	87	322	stimuli\Videos_short_600ms_vertflip\57.single_touch_with_nail_file_short_vertflip_short_600ms.mp4	57.single_touch_with_nail_file_short_vertflip_short_600ms.mp4	225.30407380841643	225.9123410689224	0.6082672605059543	n/a	n/a	n/a	n/a
188.048828125	0.2	385124	187	49	1	0	0	88	5	stimuli\Videos_short_600ms\14.repeated_touch_with_pencil_short_short_600ms.mp4	14.repeated_touch_with_pencil_short_short_600ms.mp4	226.1040225493134	226.7123516843658	0.6083291350523723	n/a	n/a	n/a	n/a
188.8486328125	0.2	386762	188	49	1	0	0	89	180	stimuli\Videos_short_600ms_horvertflip\1.repeated_touch_with_finger_fast_short_horvertflip_short_600ms.mp4	1.repeated_touch_with_finger_fast_short_horvertflip_short_600ms.mp4	226.9041017839222	227.51233884026556	0.6082370563433415	n/a	n/a	n/a	n/a
189.64892578125	0.2	388401	189	49	1	0	0	90	38	stimuli\Videos_short_600ms\44.pushing_top_to_bottom_with_finger_short_short_600ms.mp4	44.pushing_top_to_bottom_with_finger_short_short_600ms.mp4	227.7039886502728	228.3123125069278	0.6083238566550335	n/a	n/a	n/a	n/a
190.44873046875	0.2	390039	190	49	1	0	0	91	68	stimuli\Videos_short_600ms\71.single_stroke_with_finger_top_to_bottom_short_short_600ms.mp4	71.single_stroke_with_finger_top_to_bottom_short_short_600ms.mp4	228.50408459980645	229.1123178439741	0.6082332441676499	n/a	n/a	n/a	n/a
191.24853515625	0.2	391677	191	49	1	0	0	92	96	stimuli\Videos_short_600ms_horflip\15.single_stroke_top_to_bottom_with_a_plastic_whisk_short_horflip_short_600ms.mp4	15.single_stroke_top_to_bottom_with_a_plastic_whisk_short_horflip_short_600ms.mp4	229.30404477723096	229.91229502956776	0.6082502523368021	3.0	3.0	2.691197334057506	1.0
225.85595703125	0.2	462553	192	49	2	0	0	0	104	stimuli\Videos_short_600ms_horflip\22.single_touch_with_metal_chopstick_short_horflip_short_600ms.mp4	22.single_touch_with_metal_chopstick_short_horflip_short_600ms.mp4	263.91151118756306	264.51983211177526	0.6083209242121939	n/a	n/a	n/a	n/a
226.65576171875	0.2	464191	193	49	2	0	0	1	72	stimuli\Videos_short_600ms\75.(long)stroke_with_fingers_all_over_the_hand_short_short_600ms.mp4	75.(long)stroke_with_fingers_all_over_the_hand_short_short_600ms.mp4	264.7114907191112	265.31982513256094	0.6083344134497111	n/a	n/a	n/a	n/a
227.4560546875	0.2	465830	194	49	2	0	0	2	86	stimuli\Videos_short_600ms\88.repeated_stroke_with_plastic_brush_short_short_600ms.mp4	88.repeated_stroke_with_plastic_brush_short_short_600ms.mp4	265.51146057359756	266.1197885356728	0.6083279620752364	n/a	n/a	n/a	n/a
228.255859375	0.2	467468	195	49	2	0	0	3	64	stimuli\Videos_short_600ms\68.stroke_top_to_bottom_with_shawl_short_short_600ms.mp4	68.stroke_top_to_bottom_with_shawl_short_short_600ms.mp4	266.3114544741161	266.91977041317523	0.608315939059139	n/a	n/a	n/a	n/a
229.0556640625	0.2	469106	196	49	2	0	0	4	66	stimuli\Videos_short_600ms\7.repeated_touch_with_hairbrush_short_short_600ms.mp4	7.repeated_touch_with_hairbrush_short_short_600ms.mp4	267.1114128920749	267.7197499447234	0.6083370526484941	n/a	n/a	n/a	n/a
229.85595703125	0.2	470745	197	49	2	0	0	5	67	stimuli\Videos_short_600ms\70.(long)stroke_with_finger_all_over_the_hand_short_short_600ms.mp4	70.(long)stroke_with_finger_all_over_the_hand_short_short_600ms.mp4	267.9114331845801	268.51973768711173	0.6083045025316096	n/a	n/a	n/a	n/a
230.65576171875	0.2	472383	198	49	2	0	0	6	133	stimuli\Videos_short_600ms_horflip\49.repeated_slap_with_hand_short_horflip_short_600ms.mp4	49.repeated_slap_with_hand_short_horflip_short_600ms.mp4	268.71139688093626	269.3197148727056	0.6083179917693542	n/a	n/a	n/a	n/a
231.45556640625	0.2	474021	199	49	2	0	0	7	326	stimuli\Videos_short_600ms_vertflip\60.single_push_with_tip_of_pencil_short_vertflip_short_600ms.mp4	60.single_push_with_tip_of_pencil_short_vertflip_short_600ms.mp4	269.5113620435138	270.11969704345233	0.6083349999385064	n/a	n/a	n/a	n/a
232.255859375	0.2	475660	200	49	2	0	0	8	185	stimuli\Videos_short_600ms_horvertflip\14.repeated_touch_with_pencil_short_horvertflip_short_600ms.mp4	14.repeated_touch_with_pencil_short_horvertflip_short_600ms.mp4	270.3113852684621	270.9196783344662	0.6082930660040802	n/a	n/a	n/a	n/a
233.0556640625	0.2	477298	201	49	2	0	0	9	253	stimuli\Videos_short_600ms_horvertflip\76.tickle_with_fingers_from_top_to_bottom_short_horvertflip_short_600ms.mp4	76.tickle_with_fingers_from_top_to_bottom_short_horvertflip_short_600ms.mp4	271.1113498445511	271.7196593322358	0.6083094876846644	n/a	n/a	n/a	n/a
233.85546875	0.2	478936	202	49	2	0	1	10	361	stimuli\Targets_short_600ms\chopstick-silver-tap_short_short_600ms.mp4	chopstick-silver-tap_short_short_600ms.mp4	271.9113164733501	272.51964238271535	0.6083259093652487	n/a	n/a	n/a	n/a
234.65576171875	0.2	480575	203	49	2	0	0	11	168	stimuli\Videos_short_600ms_horflip\80.stroke_with_sharp_stick_all_over_the_hand_short_horflip_short_600ms.mp4	80.stroke_with_sharp_stick_all_over_the_hand_short_horflip_short_600ms.mp4	272.7112628682928	273.3196277791494	0.6083649108566078	n/a	n/a	n/a	n/a
235.45556640625	0.2	482213	204	49	2	0	0	12	245	stimuli\Videos_short_600ms_horvertflip\69.stroke_with_soft_sock_short_horvertflip_short_600ms.mp4	69.stroke_with_soft_sock_short_horvertflip_short_600ms.mp4	273.5113465015661	274.11960584447615	0.6082593429100598	n/a	n/a	n/a	n/a
236.25537109375	0.2	483851	205	49	2	0	0	13	278	stimuli\Videos_short_600ms_vertflip\17.repeated_touch_with_rolling_pin_short_vertflip_short_600ms.mp4	17.repeated_touch_with_rolling_pin_short_vertflip_short_600ms.mp4	274.3114826255687	274.919571300298	0.608088674729288	n/a	n/a	n/a	n/a
237.0556640625	0.2	485490	206	49	2	0	0	14	298	stimuli\Videos_short_600ms_vertflip\35.single_punch_with_hand_short_vertflip_short_600ms.mp4	35.single_punch_with_hand_short_vertflip_short_600ms.mp4	275.1112571793535	275.71953235745536	0.6082751781018487	n/a	n/a	n/a	n/a
237.85546875	0.2	487128	207	49	2	0	0	15	160	stimuli\Videos_short_600ms_horflip\73.single_stroke_with_flat_hand_short_horflip_short_600ms.mp4	73.single_stroke_with_flat_hand_short_horflip_short_600ms.mp4	275.91124257578736	276.5195086633162	0.6082660875288184	n/a	n/a	n/a	n/a
238.6552734375	0.2	488766	208	49	2	0	0	16	270	stimuli\Videos_short_600ms_vertflip\1.repeated_touch_with_finger_fast_short_vertflip_short_600ms.mp4	1.repeated_touch_with_finger_fast_short_vertflip_short_600ms.mp4	276.7112024599678	277.3194884881086	0.6082860281408102	n/a	n/a	n/a	n/a
239.45556640625	0.2	490405	209	49	2	0	0	17	26	stimuli\Videos_short_600ms\33.scratch_top_to_bottom_with_scissors_short_short_600ms.mp4	33.scratch_top_to_bottom_with_scissors_short_short_600ms.mp4	277.51117378067556	278.11948796026877	0.6083141795932079	n/a	n/a	n/a	n/a
240.25537109375	0.2	492043	210	49	2	0	0	18	359	stimuli\Videos_short_600ms_vertflip\90.repeated_touch_with_sponge_short_vertflip_short_600ms.mp4	90.repeated_touch_with_sponge_short_vertflip_short_600ms.mp4	278.3111541919566	278.9194762891459	0.6083220971893297	n/a	n/a	n/a	n/a
241.05517578125	0.2	493681	211	49	2	0	0	19	49	stimuli\Videos_short_600ms\54.repeated_touch_with_knife_short_short_600ms.mp4	54.repeated_touch_with_knife_short_short_600ms.mp4	279.1111425208335	279.7194813329477	0.6083388121141979	n/a	n/a	n/a	n/a
241.85546875	0.2	495320	212	49	2	0	0	20	355	stimuli\Videos_short_600ms_vertflip\87.single_stroke_top_to_bottom_with_plastic_brush_short_vertflip_short_600ms.mp4	87.single_stroke_top_to_bottom_with_plastic_brush_short_vertflip_short_600ms.mp4	279.9111199996714	280.5194596915187	0.6083396918472772	n/a	n/a	n/a	n/a
242.6552734375	0.2	496958	213	49	2	0	0	21	208	stimuli\Videos_short_600ms_horvertflip\35.single_punch_with_hand_short_horvertflip_short_600ms.mp4	35.single_punch_with_hand_short_horvertflip_short_600ms.mp4	280.71112211103036	281.31943980955543	0.6083176985250702	n/a	n/a	n/a	n/a
243.455078125	0.2	498596	214	49	2	0	0	22	164	stimuli\Videos_short_600ms_horflip\77.tapping_with_all_fingers_short_horflip_short_600ms.mp4	77.tapping_with_all_fingers_short_horflip_short_600ms.mp4	281.51109519120405	282.1194293114095	0.6083341202054271	n/a	n/a	n/a	n/a
244.25537109375	0.2	500235	215	49	2	0	0	23	14	stimuli\Videos_short_600ms\22.single_touch_with_metal_chopstick_short_short_600ms.mp4	22.single_touch_with_metal_chopstick_short_short_600ms.mp4	282.3110841065695	282.91940033887295	0.608316232303423	n/a	n/a	n/a	n/a
245.05517578125	0.2	501873	216	49	2	0	0	24	320	stimuli\Videos_short_600ms_vertflip\55.touch_top_to_bottom_with_nail_file_short_vertflip_short_600ms.mp4	55.touch_top_to_bottom_with_nail_file_short_vertflip_short_600ms.mp4	283.1110982409448	283.7193825096199	0.6082842686751064	n/a	n/a	n/a	n/a
245.85546875	0.2	503512	217	49	2	0	1	25	374	stimuli\Targets_short_600ms_horvertflip\chopstickwood-tap_short_vertflip_short_600ms.mp4	chopstickwood-tap_short_vertflip_short_600ms.mp4	283.9110381845128	284.51934532624296	0.6083071417301653	n/a	n/a	n/a	n/a
246.6552734375	0.2	505150	218	49	2	0	0	26	232	stimuli\Videos_short_600ms_horvertflip\57.single_touch_with_nail_file_short_horvertflip_short_600ms.mp4	57.single_touch_with_nail_file_short_horvertflip_short_600ms.mp4	284.7110347242301	285.3193453848919	0.6083106606618003	n/a	n/a	n/a	n/a
247.455078125	0.2	506788	219	49	2	0	0	27	238	stimuli\Videos_short_600ms_horvertflip\62.touch_top_to_bottom_with_scissors_short_horvertflip_short_600ms.mp4	62.touch_top_to_bottom_with_scissors_short_horvertflip_short_600ms.mp4	285.51099020974584	286.11932726239434	0.6083370526484941	n/a	n/a	n/a	n/a
248.25537109375	0.2	508427	220	49	2	0	0	28	274	stimuli\Videos_short_600ms_vertflip\13.single_touch_with_pen_short_vertflip_short_600ms.mp4	13.single_touch_with_pen_short_vertflip_short_600ms.mp4	286.3109512669032	286.91930796691963	0.6083567000164294	n/a	n/a	n/a	n/a
249.05517578125	0.2	510065	221	49	2	0	0	29	30	stimuli\Videos_short_600ms\37.single_stab_with_nail_file_short_short_600ms.mp4	37.single_stab_with_nail_file_short_short_600ms.mp4	287.11093724982584	287.7192710767872	0.6083338269613705	n/a	n/a	n/a	n/a
249.85498046875	0.2	511703	222	49	2	0	0	30	132	stimuli\Videos_short_600ms_horflip\48.single_slap_with_hand_short_horflip_short_600ms.mp4	48.single_slap_with_hand_short_horflip_short_600ms.mp4	287.91104522237583	288.5192532475339	0.6082080251580919	n/a	n/a	n/a	n/a
250.6552734375	0.2	513342	223	49	2	0	0	31	47	stimuli\Videos_short_600ms\52.touch_top_to_bottom_with_hammer_short_short_600ms.mp4	52.touch_top_to_bottom_with_hammer_short_short_600ms.mp4	288.71097900781365	289.3192342453035	0.6082552374898569	n/a	n/a	n/a	n/a
251.455078125	0.2	514980	224	49	2	0	0	32	308	stimuli\Videos_short_600ms_vertflip\44.pushing_top_to_bottom_with_finger_short_vertflip_short_600ms.mp4	44.pushing_top_to_bottom_with_finger_short_vertflip_short_600ms.mp4	289.51090135672393	290.1192222809361	0.6083209242121939	n/a	n/a	n/a	n/a
252.2548828125	0.2	516618	225	49	2	0	0	33	196	stimuli\Videos_short_600ms_horvertflip\24.single_stroke_top_to_bottom_with_a_spoon_short_horvertflip_short_600ms.mp4	24.single_stroke_top_to_bottom_with_a_spoon_short_horvertflip_short_600ms.mp4	290.31090405457144	290.9192155949663	0.6083115403948796	n/a	n/a	n/a	n/a
253.05517578125	0.2	518257	226	49	2	0	0	34	285	stimuli\Videos_short_600ms_vertflip\23.single_push_with_a_spoon_short_vertflip_short_600ms.mp4	23.single_push_with_a_spoon_short_vertflip_short_600ms.mp4	291.1108915037157	291.7191781183451	0.6082866146293782	n/a	n/a	n/a	n/a
253.85498046875	0.2	519895	227	49	2	0	0	35	157	stimuli\Videos_short_600ms_horflip\70.(long)stroke_with_finger_all_over_the_hand_short_horflip_short_600ms.mp4	70.(long)stroke_with_finger_all_over_the_hand_short_horflip_short_600ms.mp4	291.9108681028208	292.5191673269551	0.6082992241342708	n/a	n/a	n/a	n/a
254.65478515625	0.2	521533	228	49	2	0	0	36	83	stimuli\Videos_short_600ms\85.touch_top_to_bottom_with_fabric_short_short_600ms.mp4	85.touch_top_to_bottom_with_fabric_short_short_600ms.mp4	292.7108200694049	293.3191407003728	0.6083206309679099	n/a	n/a	n/a	n/a
255.455078125	0.2	523172	229	49	2	0	0	37	139	stimuli\Videos_short_600ms_horflip\54.repeated_touch_with_knife_short_horflip_short_600ms.mp4	54.repeated_touch_with_knife_short_horflip_short_600ms.mp4	293.5108259929398	294.119122284631	0.6082962916912038	n/a	n/a	n/a	n/a
256.2548828125	0.2	524810	230	49	2	0	0	38	87	stimuli\Videos_short_600ms\89.single_touch_with_plastic_brush_short_short_600ms.mp4	89.single_touch_with_plastic_brush_short_short_600ms.mp4	294.31080699070935	294.9191103202638	0.6083033295544737	n/a	n/a	n/a	n/a
257.0546875	0.2	526448	231	49	2	0	0	39	62	stimuli\Videos_short_600ms\66.stroke_top_to_bottom_with_sponge_short_short_600ms.mp4	66.stroke_top_to_bottom_with_sponge_short_short_600ms.mp4	295.11076775462243	295.7191138978442	0.6083461432217518	n/a	n/a	n/a	n/a
257.85498046875	0.2	528087	232	49	2	0	0	40	108	stimuli\Videos_short_600ms_horflip\26.single_touch_with_a_blunt_syringe_short_horflip_short_600ms.mp4	26.single_touch_with_a_blunt_syringe_short_horflip_short_600ms.mp4	295.91080505529703	296.5190899104607	0.6082848551636744	n/a	n/a	n/a	n/a
258.65478515625	0.2	529725	233	49	2	0	0	41	112	stimuli\Videos_short_600ms_horflip\3.single_push_with_finger_short_horflip_short_600ms.mp4	3.single_push_with_finger_short_horflip_short_600ms.mp4	296.7107517434838	297.3190691487646	0.6083174052807863	n/a	n/a	n/a	n/a
259.45458984375	0.2	531363	234	49	2	0	0	42	1	stimuli\Videos_short_600ms\10.single_touch_with_knife_short_short_600ms.mp4	10.single_touch_with_knife_short_short_600ms.mp4	297.5107368466736	298.11904809382395	0.6083112471503682	n/a	n/a	n/a	n/a
260.2548828125	0.2	533002	235	49	2	0	0	43	212	stimuli\Videos_short_600ms_horvertflip\39.single_stab_with_scissors_short_horvertflip_short_600ms.mp4	39.single_stab_with_scissors_short_horvertflip_short_600ms.mp4	298.31071461875604	298.9190305578152	0.608315939059139	n/a	n/a	n/a	n/a
261.0546875	0.2	534640	236	49	2	0	0	44	342	stimuli\Videos_short_600ms_vertflip\75.(long)stroke_with_fingers_all_over_the_hand_short_vertflip_short_600ms.mp4	75.(long)stroke_with_fingers_all_over_the_hand_short_vertflip_short_600ms.mp4	299.11069503003705	299.71901360829474	0.6083185782576948	n/a	n/a	n/a	n/a
261.8544921875	0.2	536278	237	49	2	0	0	45	121	stimuli\Videos_short_600ms_horflip\38.double_slap_with_pencil_short_horflip_short_600ms.mp4	38.double_slap_with_pencil_short_horflip_short_600ms.mp4	299.9106338006279	300.51899577904146	0.6083619784135408	n/a	n/a	n/a	n/a
262.65478515625	0.2	537917	238	49	2	0	0	46	174	stimuli\Videos_short_600ms_horflip\86.touch_top_to_bottom_with_hair_brush_short_horflip_short_600ms.mp4	86.touch_top_to_bottom_with_hair_brush_short_horflip_short_600ms.mp4	300.7106734472568	301.3189756038339	0.6083021565771105	n/a	n/a	n/a	n/a
263.45458984375	0.2	539555	239	49	2	0	0	47	203	stimuli\Videos_short_600ms_horvertflip\30.finger_pulling_back_another_finger_short_horvertflip_short_600ms.mp4	30.finger_pulling_back_another_finger_short_horvertflip_short_600ms.mp4	301.51060019483134	302.11895748133634	0.6083572865049973	n/a	n/a	n/a	n/a
264.2548828125	0.2	541194	240	49	2	0	0	48	80	stimuli\Videos_short_600ms\82.repeated_touch_with_cotton_bud_short_short_600ms.mp4	82.repeated_touch_with_cotton_bud_short_short_600ms.mp4	302.31058676424277	302.9189387723502	0.6083520081074312	n/a	n/a	n/a	n/a
265.0546875	0.2	542832	241	49	2	0	0	49	141	stimuli\Videos_short_600ms_horflip\56.repeated_touch_with_nail_file_short_horflip_short_600ms.mp4	56.repeated_touch_with_nail_file_short_horflip_short_600ms.mp4	303.11063227575755	303.7189194768755	0.6082872011179461	n/a	n/a	n/a	n/a
265.8544921875	0.2	544470	242	49	2	0	0	50	149	stimuli\Videos_short_600ms_horflip\63.stroke_top_to_bottom_with_screwdriver_short_horflip_short_600ms.mp4	63.stroke_top_to_bottom_with_screwdriver_short_horflip_short_600ms.mp4	303.91067133589786	304.5189025273553	0.6082311914574348	n/a	n/a	n/a	n/a
266.65478515625	0.2	546109	243	49	2	0	0	51	9	stimuli\Videos_short_600ms\18.single_stroke_from_top_to_bottom_with_rolling_pin_short_short_600ms.mp4	18.single_stroke_from_top_to_bottom_with_rolling_pin_short_short_600ms.mp4	304.71053298323864	305.3188811791704	0.6083481959317396	n/a	n/a	n/a	n/a
267.45458984375	0.2	547747	244	49	2	0	0	52	142	stimuli\Videos_short_600ms_horflip\57.single_touch_with_nail_file_short_horflip_short_600ms.mp4	57.single_touch_with_nail_file_short_horflip_short_600ms.mp4	305.5105330418876	306.11884399579367	0.6083109539060843	n/a	n/a	n/a	n/a
268.25439453125	0.2	549385	245	49	2	0	0	53	43	stimuli\Videos_short_600ms\49.repeated_slap_with_hand_short_short_600ms.mp4	49.repeated_slap_with_hand_short_short_600ms.mp4	306.3105190248102	306.9188041732182	0.6082851484079583	n/a	n/a	n/a	n/a
269.0546875	0.2	551024	246	49	2	0	0	54	257	stimuli\Videos_short_600ms_horvertflip\8.single_touch_with_hairbrush_short_horvertflip_short_600ms.mp4	8.single_touch_with_hairbrush_short_horvertflip_short_600ms.mp4	307.11051087261876	307.7187860507206	0.6082751781018487	n/a	n/a	n/a	n/a
269.8544921875	0.2	552662	247	49	2	0	0	55	300	stimuli\Videos_short_600ms_vertflip\37.single_stab_with_nail_file_short_vertflip_short_600ms.mp4	37.single_stab_with_nail_file_short_vertflip_short_600ms.mp4	307.910553744935	308.51878816207955	0.6082344171445584	n/a	n/a	n/a	n/a
270.654296875	0.2	554300	248	49	2	0	0	56	233	stimuli\Videos_short_600ms_horvertflip\58.single_slap_with_pencil_short_horvertflip_short_600ms.mp4	58.single_slap_with_pencil_short_horvertflip_short_600ms.mp4	308.7104543937671	309.31877326526933	0.6083188715022061	n/a	n/a	n/a	n/a
271.45458984375	0.2	555939	249	49	2	0	0	57	356	stimuli\Videos_short_600ms_vertflip\88.repeated_stroke_with_plastic_brush_short_vertflip_short_600ms.mp4	88.repeated_stroke_with_plastic_brush_short_vertflip_short_600ms.mp4	309.5104556253932	310.1187501576187	0.6082945322255	n/a	n/a	n/a	n/a
272.25439453125	0.2	557577	250	49	2	0	0	58	354	stimuli\Videos_short_600ms_vertflip\86.touch_top_to_bottom_with_hair_brush_short_vertflip_short_600ms.mp4	86.touch_top_to_bottom_with_hair_brush_short_vertflip_short_600ms.mp4	310.3105292883606	310.9187540284436	0.6082247400829601	n/a	n/a	n/a	n/a
273.05419921875	0.2	559215	251	49	2	0	0	59	138	stimuli\Videos_short_600ms_horflip\53.touch_top_to_bottom_with_knife_short_horflip_short_600ms.mp4	53.touch_top_to_bottom_with_knife_short_horflip_short_600ms.mp4	311.1105791985399	311.7187403046105	0.6081611060706109	n/a	n/a	n/a	n/a
273.8544921875	0.2	560854	252	49	2	0	0	60	281	stimuli\Videos_short_600ms_vertflip\2.single_touch_with_finger_short_vertflip_short_600ms.mp4	2.single_touch_with_finger_short_vertflip_short_600ms.mp4	311.9103757456469	312.5187227686015	0.6083470229546037	n/a	n/a	n/a	n/a
274.654296875	0.2	562492	253	49	2	0	0	61	59	stimuli\Videos_short_600ms\63.stroke_top_to_bottom_with_screwdriver_short_short_600ms.mp4	63.stroke_top_to_bottom_with_screwdriver_short_short_600ms.mp4	312.71043357342205	313.3187034731268	0.6082698997047373	n/a	n/a	n/a	n/a
275.4541015625	0.2	564130	254	49	2	0	0	62	310	stimuli\Videos_short_600ms_vertflip\46.scratching_top_to_bottom_with_finger_nails_short_vertflip_short_600ms.mp4	46.scratching_top_to_bottom_with_finger_nails_short_vertflip_short_600ms.mp4	313.5103400871403	314.1186874033392	0.6083473161988877	n/a	n/a	n/a	n/a
276.25439453125	0.2	565769	255	49	2	0	0	63	75	stimuli\Videos_short_600ms\78.single_stroke_top_to_bottom_with_soft_brush_short_short_600ms.mp4	78.single_stroke_top_to_bottom_with_soft_brush_short_short_600ms.mp4	314.3103272430403	314.9186660551545	0.6083388121141979	n/a	n/a	n/a	n/a
277.05419921875	0.2	567407	256	49	2	0	0	64	169	stimuli\Videos_short_600ms_horflip\81.single_stroke_top_to_bottom_with_cotton_pad_short_horflip_short_600ms.mp4	81.single_stroke_top_to_bottom_with_cotton_pad_short_horflip_short_600ms.mp4	315.1103402044382	315.7186429475039	0.6083027430656784	n/a	n/a	n/a	n/a
277.85400390625	0.2	569045	257	49	2	0	1	65	365	stimuli\Targets_short_600ms\hand-stroke_short_short_600ms.mp4	hand-stroke_short_short_600ms.mp4	315.9102851331593	316.5186218925635	0.6083367594042102	n/a	n/a	n/a	n/a
278.654296875	0.2	570684	258	49	2	0	0	66	70	stimuli\Videos_short_600ms\73.single_stroke_with_flat_hand_short_short_600ms.mp4	73.single_stroke_with_flat_hand_short_short_600ms.mp4	316.71027404852475	317.31860523628734	0.6083311877625874	n/a	n/a	n/a	n/a
279.4541015625	0.2	572322	259	49	2	0	0	67	184	stimuli\Videos_short_600ms_horvertflip\13.single_touch_with_pen_short_horvertflip_short_600ms.mp4	13.single_touch_with_pen_short_horvertflip_short_600ms.mp4	317.51022454888766	318.1185850610798	0.608360512192121	n/a	n/a	n/a	n/a
280.25390625	0.2	573960	260	49	2	0	0	68	65	stimuli\Videos_short_600ms\69.stroke_with_soft_sock_short_short_600ms.mp4	69.stroke_with_soft_sock_short_short_600ms.mp4	318.31020935883294	318.9185669385822	0.6083575797492813	n/a	n/a	n/a	n/a
281.05419921875	0.2	575599	261	49	2	0	0	69	131	stimuli\Videos_short_600ms_horflip\47.(long)scratching_with_finger_nails_short_horflip_short_600ms.mp4	47.(long)scratching_with_finger_nails_short_horflip_short_600ms.mp4	319.110219387788	319.7185476431075	0.6083282553195204	n/a	n/a	n/a	n/a
281.85400390625	0.2	577237	262	49	2	0	0	70	159	stimuli\Videos_short_600ms_horflip\72.(short)stroke_with_finger_all_over_the_hand_short_horflip_short_600ms.mp4	72.(short)stroke_with_finger_all_over_the_hand_short_horflip_short_600ms.mp4	319.9101936409388	320.51852922736566	0.6083355864268469	n/a	n/a	n/a	n/a
282.654296875	0.2	578876	263	49	2	0	0	71	34	stimuli\Videos_short_600ms\40.repeated_push_with_finger_short_short_600ms.mp4	40.repeated_push_with_finger_short_short_600ms.mp4	320.71018754145734	321.31849028452325	0.6083027430659058	n/a	n/a	n/a	n/a
283.4541015625	0.2	580514	264	49	2	0	0	72	237	stimuli\Videos_short_600ms_horvertflip\61.single_hit_with_rolling_pin_short_horvertflip_short_600ms.mp4	61.single_hit_with_rolling_pin_short_horvertflip_short_600ms.mp4	321.5101667797612	322.1184698160712	0.6083030363099624	n/a	n/a	n/a	n/a
284.25390625	0.2	582152	265	49	2	0	0	73	255	stimuli\Videos_short_600ms_horvertflip\78.single_stroke_top_to_bottom_with_soft_brush_short_horvertflip_short_600ms.mp4	78.single_stroke_top_to_bottom_with_soft_brush_short_horvertflip_short_600ms.mp4	322.3102078926115	322.9184338056716	0.608225913060096	n/a	n/a	n/a	n/a
285.05419921875	0.2	583791	266	49	2	0	0	74	39	stimuli\Videos_short_600ms\45.scratching_with_finger_nails_short_short_600ms.mp4	45.scratching_with_finger_nails_short_short_600ms.mp4	323.1101384523622	323.7184133372198	0.6082748848575648	n/a	n/a	n/a	n/a
285.85400390625	0.2	585429	267	49	2	0	0	75	248	stimuli\Videos_short_600ms_horvertflip\71.single_stroke_with_finger_top_to_bottom_short_horvertflip_short_600ms.mp4	71.single_stroke_with_finger_top_to_bottom_short_horvertflip_short_600ms.mp4	323.91012003662036	324.51842072697605	0.6083006903556907	n/a	n/a	n/a	n/a
286.65380859375	0.2	587067	268	49	2	0	1	76	373	stimuli\Targets_short_600ms_horvertflip\chopstick-silver-tap_short_vertflip_short_600ms.mp4	chopstick-silver-tap_short_vertflip_short_600ms.mp4	324.7101016208785	325.31840143150134	0.6082998106228388	n/a	n/a	n/a	n/a
287.4541015625	0.2	588706	269	49	2	0	0	77	71	stimuli\Videos_short_600ms\74.fingers_walking_from_top_to_bottom_short_short_600ms.mp4	74.fingers_walking_from_top_to_bottom_short_short_600ms.mp4	325.5101547567449	326.118387414424	0.608232657679082	n/a	n/a	n/a	n/a
288.25390625	0.2	590344	270	49	2	0	0	78	85	stimuli\Videos_short_600ms\87.single_stroke_top_to_bottom_with_plastic_brush_short_short_600ms.mp4	87.single_stroke_top_to_bottom_with_plastic_brush_short_short_600ms.mp4	326.31011991932246	326.91837193112497	0.6082520118025059	n/a	n/a	n/a	n/a
289.0537109375	0.2	591982	271	49	2	0	0	79	37	stimuli\Videos_short_600ms\43.touch_top_to_bottom_with_sharp_wooden_stick_short_short_600ms.mp4	43.touch_top_to_bottom_with_sharp_wooden_stick_short_short_600ms.mp4	327.1100469601415	327.7183426653444	0.6082957052028632	n/a	n/a	n/a	n/a
289.85400390625	0.2	593621	272	49	2	0	0	80	158	stimuli\Videos_short_600ms_horflip\71.single_stroke_with_finger_top_to_bottom_short_horflip_short_600ms.mp4	71.single_stroke_with_finger_top_to_bottom_short_horflip_short_600ms.mp4	327.9100062578332	328.5183286482668	0.6083223904336137	n/a	n/a	n/a	n/a
290.65380859375	0.2	595259	273	49	2	0	0	81	266	stimuli\Videos_short_600ms_horvertflip\88.repeated_stroke_with_plastic_brush_short_horvertflip_short_600ms.mp4	88.repeated_stroke_with_plastic_brush_short_horvertflip_short_600ms.mp4	328.71001012865804	329.3183307596257	0.6083206309676825	n/a	n/a	n/a	n/a
291.45361328125	0.2	596897	274	49	2	0	0	82	293	stimuli\Videos_short_600ms_vertflip\30.finger_pulling_back_another_finger_short_vertflip_short_600ms.mp4	30.finger_pulling_back_another_finger_short_vertflip_short_600ms.mp4	329.50998438180864	330.11831527632694	0.6083308945183035	n/a	n/a	n/a	n/a
292.25390625	0.2	598536	275	49	2	0	0	83	61	stimuli\Videos_short_600ms\65.stroke_top_to_bottom_with_stanley_knife_short_short_600ms.mp4	65.stroke_top_to_bottom_with_stanley_knife_short_short_600ms.mp4	330.30995071736356	330.9182989132953	0.6083481959317396	n/a	n/a	n/a	n/a
293.0537109375	0.2	600174	276	49	2	0	0	84	241	stimuli\Videos_short_600ms_horvertflip\65.stroke_top_to_bottom_with_stanley_knife_short_horvertflip_short_600ms.mp4	65.stroke_top_to_bottom_with_stanley_knife_short_horvertflip_short_600ms.mp4	331.1099850855951	331.718274046179	0.6082889605838773	n/a	n/a	n/a	n/a
293.853515625	0.2	601812	277	49	2	0	1	85	380	stimuli\Targets_short_600ms_vertflip\chopstickwood-tap_short_horvertflip_short_600ms.mp4	chopstickwood-tap_short_horvertflip_short_600ms.mp4	331.9100502444778	332.51825504394856	0.6082047994707409	n/a	n/a	n/a	n/a
294.65380859375	0.2	603451	278	49	2	0	0	86	77	stimuli\Videos_short_600ms\8.single_touch_with_hairbrush_short_short_600ms.mp4	8.single_touch_with_hairbrush_short_short_600ms.mp4	332.7099435622026	333.31823193629793	0.6082883740953093	n/a	n/a	n/a	n/a
295.45361328125	0.2	605089	279	49	2	0	0	87	113	stimuli\Videos_short_600ms_horflip\30.finger_pulling_back_another_finger_short_horflip_short_600ms.mp4	30.finger_pulling_back_another_finger_short_horflip_short_600ms.mp4	333.50994772627155	334.1182270097938	0.608279283522279	n/a	n/a	n/a	n/a
296.25341796875	0.2	606727	280	49	2	0	0	88	290	stimuli\Videos_short_600ms_vertflip\28.single_injection_with_sharp_needle_short_vertflip_short_600ms.mp4	28.single_injection_with_sharp_needle_short_vertflip_short_600ms.mp4	334.3098381115535	334.91819481156995	0.6083567000164294	n/a	n/a	n/a	n/a
297.0537109375	0.2	608366	281	49	2	0	0	89	225	stimuli\Videos_short_600ms_horvertflip\50.single_(long)hard_push_with_thumb_short_horvertflip_short_600ms.mp4	50.single_(long)hard_push_with_thumb_short_horvertflip_short_600ms.mp4	335.1098378769582	335.71817698231666	0.6083391053584819	n/a	n/a	n/a	n/a
297.853515625	0.2	610004	282	49	2	0	0	90	109	stimuli\Videos_short_600ms_horflip\27.single_push_with_a_plastic_whisk_short_horflip_short_600ms.mp4	27.single_push_with_a_plastic_whisk_short_horflip_short_600ms.mp4	335.90982122068203	336.51811575290753	0.6082945322255	n/a	n/a	n/a	n/a
298.6533203125	0.2	611642	283	49	2	0	0	91	345	stimuli\Videos_short_600ms_vertflip\78.single_stroke_top_to_bottom_with_soft_brush_short_vertflip_short_600ms.mp4	78.single_stroke_top_to_bottom_with_soft_brush_short_vertflip_short_600ms.mp4	336.7098409266989	337.3181389778558	0.6082980511569076	n/a	n/a	n/a	n/a
299.45361328125	0.2	613281	284	49	2	0	0	92	213	stimuli\Videos_short_600ms_horvertflip\4.repeated_tap_with_finger_slow_short_horvertflip_short_600ms.mp4	4.repeated_tap_with_finger_slow_short_horvertflip_short_600ms.mp4	337.5098134203838	338.1180800944012	0.6082666740173863	n/a	n/a	n/a	n/a
300.25341796875	0.2	614919	285	49	2	0	0	93	316	stimuli\Videos_short_600ms_vertflip\51.repeated_touch_with_hammer_short_vertflip_short_600ms.mp4	51.repeated_touch_with_hammer_short_vertflip_short_600ms.mp4	338.3098369385764	338.9180602124379	0.6082232738615403	n/a	n/a	n/a	n/a
301.0537109375	0.2	616558	286	49	2	0	0	94	313	stimuli\Videos_short_600ms_vertflip\49.repeated_slap_with_hand_short_vertflip_short_600ms.mp4	49.repeated_slap_with_hand_short_vertflip_short_600ms.mp4	339.10989681906176	339.7180617373083	0.6081649182465299	5.0	5.0	2.3877883104612465	1.0
334.7607421875	0.2	685590	287	49	3	0	0	0	35	stimuli\Videos_short_600ms\41.injection_with_blunt_syringe_short_short_600ms.mp4	41.injection_with_blunt_syringe_short_short_600ms.mp4	372.8172929680604	373.4256446829236	0.6083517148631472	n/a	n/a	n/a	n/a
335.560546875	0.2	687228	288	49	3	0	0	1	242	stimuli\Videos_short_600ms_horvertflip\66.stroke_top_to_bottom_with_sponge_short_horvertflip_short_600ms.mp4	66.stroke_top_to_bottom_with_sponge_short_horvertflip_short_600ms.mp4	373.6172537319735	374.22559137111057	0.6083376391370621	n/a	n/a	n/a	n/a
336.36083984375	0.2	688867	289	49	3	0	0	2	127	stimuli\Videos_short_600ms_horflip\43.touch_top_to_bottom_with_sharp_wooden_stick_short_horflip_short_600ms.mp4	43.touch_top_to_bottom_with_sharp_wooden_stick_short_horflip_short_600ms.mp4	374.4172930853581	375.02557412834585	0.6082810429877554	n/a	n/a	n/a	n/a
337.16064453125	0.2	690505	290	49	3	0	1	3	371	stimuli\Targets_short_600ms_horflip\hand-stroke_short_horflip_short_600ms.mp4	hand-stroke_short_horflip_short_600ms.mp4	375.2172377208349	375.825553659894	0.608315939059139	n/a	n/a	n/a	n/a
337.96044921875	0.2	692143	291	49	3	0	0	4	227	stimuli\Videos_short_600ms_horvertflip\52.touch_top_to_bottom_with_hammer_short_horvertflip_short_600ms.mp4	52.touch_top_to_bottom_with_hammer_short_horvertflip_short_600ms.mp4	376.01721871860445	376.6255463874354	0.6083276688309525	n/a	n/a	n/a	n/a
338.7607421875	0.2	693782	292	49	3	0	0	5	352	stimuli\Videos_short_600ms_vertflip\84.single_touch_with_cotton_bud_short_vertflip_short_600ms.mp4	84.single_touch_with_cotton_bud_short_vertflip_short_600ms.mp4	376.8172067542371	377.4254971810426	0.6082904268055245	n/a	n/a	n/a	n/a
339.560546875	0.2	695420	293	49	3	0	0	6	3	stimuli\Videos_short_600ms\12.repeated_touch_with_nail_file_short_short_600ms.mp4	12.repeated_touch_with_nail_file_short_short_600ms.mp4	377.6171851128081	378.22553741416	0.6083523013519425	n/a	n/a	n/a	n/a
340.3603515625	0.2	697058	294	49	3	0	0	7	19	stimuli\Videos_short_600ms\27.single_push_with_a_plastic_whisk_short_short_600ms.mp4	27.single_push_with_a_plastic_whisk_short_short_600ms.mp4	378.4171837052354	379.0255063889135	0.608322683678125	n/a	n/a	n/a	n/a
341.16064453125	0.2	698697	295	49	3	0	0	8	32	stimuli\Videos_short_600ms\39.single_stab_with_scissors_short_short_600ms.mp4	39.single_stab_with_scissors_short_short_600ms.mp4	379.2171644097607	379.8254838677515	0.608319457990774	n/a	n/a	n/a	n/a
341.96044921875	0.2	700335	296	49	3	0	0	9	28	stimuli\Videos_short_600ms\35.single_punch_with_hand_short_short_600ms.mp4	35.single_punch_with_hand_short_short_600ms.mp4	380.0171286926054	380.62546691823104	0.60833822562563	n/a	n/a	n/a	n/a
342.76025390625	0.2	701973	297	49	3	0	0	10	236	stimuli\Videos_short_600ms_horvertflip\60.single_push_with_tip_of_pencil_short_horvertflip_short_600ms.mp4	60.single_push_with_tip_of_pencil_short_horvertflip_short_600ms.mp4	380.8171284580101	381.4254482092449	0.6083197512348306	n/a	n/a	n/a	n/a
343.560546875	0.2	703612	298	49	3	0	0	11	329	stimuli\Videos_short_600ms_vertflip\63.stroke_top_to_bottom_with_screwdriver_short_vertflip_short_600ms.mp4	63.stroke_top_to_bottom_with_screwdriver_short_vertflip_short_600ms.mp4	381.6170924476103	382.22542656781593	0.6083341202056545	n/a	n/a	n/a	n/a
344.3603515625	0.2	705250	299	49	3	0	0	12	114	stimuli\Videos_short_600ms_horflip\31.hand_grabbing_wrist_short_horflip_short_600ms.mp4	31.hand_grabbing_wrist_short_horflip_short_600ms.mp4	382.4170699264485	383.02541108451715	0.608341158068697	n/a	n/a	n/a	n/a
345.16015625	0.2	706888	300	49	3	0	0	13	187	stimuli\Videos_short_600ms_horvertflip\16.repeated_touch_with_plastic_brush_short_horvertflip_short_600ms.mp4	16.repeated_touch_with_plastic_brush_short_horvertflip_short_600ms.mp4	383.2170488715078	383.8253912025537	0.6083423310458329	n/a	n/a	n/a	n/a
345.96044921875	0.2	708527	301	49	3	0	0	14	331	stimuli\Videos_short_600ms_vertflip\65.stroke_top_to_bottom_with_stanley_knife_short_vertflip_short_600ms.mp4	65.stroke_top_to_bottom_with_stanley_knife_short_vertflip_short_600ms.mp4	384.0170234179029	384.6253701476133	0.6083467297103198	n/a	n/a	n/a	n/a
346.76025390625	0.2	710165	302	49	3	0	0	15	102	stimuli\Videos_short_600ms_horflip\20.single_touch_with_screwdriver_short_horflip_short_600ms.mp4	20.single_touch_with_screwdriver_short_horflip_short_600ms.mp4	384.8171384283162	385.42535261160424	0.6082141832880552	n/a	n/a	n/a	n/a
347.560546875	0.2	711804	303	49	3	0	0	16	152	stimuli\Videos_short_600ms_horflip\66.stroke_top_to_bottom_with_sponge_short_horflip_short_600ms.mp4	66.stroke_top_to_bottom_with_sponge_short_horflip_short_600ms.mp4	385.6169868796637	386.22533272964097	0.6083458499772405	n/a	n/a	n/a	n/a
348.3603515625	0.2	713442	304	49	3	0	0	17	333	stimuli\Videos_short_600ms_vertflip\67.single_touch_with_sponge_short_vertflip_short_600ms.mp4	67.single_touch_with_sponge_short_vertflip_short_600ms.mp4	386.41739337490753	387.0253154868765	0.6079221119689464	n/a	n/a	n/a	n/a
349.16015625	0.2	715080	305	49	3	0	0	18	8	stimuli\Videos_short_600ms\17.repeated_touch_with_rolling_pin_short_short_600ms.mp4	17.repeated_touch_with_rolling_pin_short_short_600ms.mp4	387.2169828915412	387.82528240891975	0.6082995173785548	n/a	n/a	n/a	n/a
349.96044921875	0.2	716719	306	49	3	0	0	19	292	stimuli\Videos_short_600ms_vertflip\3.single_push_with_finger_short_vertflip_short_600ms.mp4	3.single_push_with_finger_short_vertflip_short_600ms.mp4	388.016938377057	388.6252783621485	0.6083399850915612	n/a	n/a	n/a	n/a
350.76025390625	0.2	718357	307	49	3	0	0	20	275	stimuli\Videos_short_600ms_vertflip\14.repeated_touch_with_pencil_short_vertflip_short_600ms.mp4	14.repeated_touch_with_pencil_short_vertflip_short_600ms.mp4	388.8169780236858	389.4252136138077	0.6082355901219216	n/a	n/a	n/a	n/a
351.56005859375	0.2	719995	308	49	3	0	0	21	60	stimuli\Videos_short_600ms\64.repeated_touch_with_screwdriver_short_short_600ms.mp4	64.repeated_touch_with_screwdriver_short_short_600ms.mp4	389.6169704579829	390.225221003564	0.608250545581086	n/a	n/a	n/a	n/a
352.3603515625	0.2	721634	309	49	3	0	0	22	202	stimuli\Videos_short_600ms_horvertflip\3.single_push_with_finger_short_horvertflip_short_600ms.mp4	3.single_push_with_finger_short_horvertflip_short_600ms.mp4	390.41687550547977	391.02519672293624	0.6083212174564778	n/a	n/a	n/a	n/a
353.16015625	0.2	723272	310	49	3	0	0	23	325	stimuli\Videos_short_600ms_vertflip\6.single_touch_with_flat_hand_short_vertflip_short_600ms.mp4	6.single_touch_with_flat_hand_short_vertflip_short_600ms.mp4	391.2169518076457	391.8251844653246	0.6082326576788546	n/a	n/a	n/a	n/a
353.9599609375	0.2	724910	311	49	3	0	0	24	17	stimuli\Videos_short_600ms\25.single_touch_with_stanley_knife_short_short_600ms.mp4	25.single_touch_with_stanley_knife_short_short_600ms.mp4	392.01687151735746	392.6251663428272	0.608294825469784	n/a	n/a	n/a	n/a
354.76025390625	0.2	726549	312	49	3	0	0	25	312	stimuli\Videos_short_600ms_vertflip\48.single_slap_with_hand_short_vertflip_short_600ms.mp4	48.single_slap_with_hand_short_vertflip_short_600ms.mp4	392.8168671773417	393.4251581906358	0.6082910132940924	n/a	n/a	n/a	n/a
355.56005859375	0.2	728187	313	49	3	0	0	26	340	stimuli\Videos_short_600ms_vertflip\73.single_stroke_with_flat_hand_short_vertflip_short_600ms.mp4	73.single_stroke_with_flat_hand_short_vertflip_short_600ms.mp4	393.6168757400754	394.2251529708872	0.6082772308118365	n/a	n/a	n/a	n/a
356.35986328125	0.2	729825	314	49	3	0	0	27	58	stimuli\Videos_short_600ms\62.touch_top_to_bottom_with_scissors_short_short_600ms.mp4	62.touch_top_to_bottom_with_scissors_short_short_600ms.mp4	394.416783720015	395.02512575781657	0.6083420378015489	n/a	n/a	n/a	n/a
357.16015625	0.2	731464	315	49	3	0	0	28	279	stimuli\Videos_short_600ms_vertflip\18.single_stroke_from_top_to_bottom_with_rolling_pin_short_vertflip_short_600ms.mp4	18.single_stroke_from_top_to_bottom_with_rolling_pin_short_vertflip_short_600ms.mp4	395.2167664772503	395.82510851505185	0.6083420378015489	n/a	n/a	n/a	n/a
357.9599609375	0.2	733102	316	49	3	0	0	29	229	stimuli\Videos_short_600ms_horvertflip\54.repeated_touch_with_knife_short_horvertflip_short_600ms.mp4	54.repeated_touch_with_knife_short_horvertflip_short_600ms.mp4	396.01677005483066	396.6250886330886	0.6083185782579221	n/a	n/a	n/a	n/a
358.759765625	0.2	734740	317	49	3	0	1	30	375	stimuli\Targets_short_600ms_horvertflip\finger-tap_short_vertflip_short_600ms.mp4	finger-tap_short_vertflip_short_600ms.mp4	396.8167563309976	397.4250693376139	0.6083130066162994	n/a	n/a	n/a	n/a
359.56005859375	0.2	736379	318	49	3	0	0	31	284	stimuli\Videos_short_600ms_vertflip\22.single_touch_with_metal_chopstick_short_vertflip_short_600ms.mp4	22.single_touch_with_metal_chopstick_short_vertflip_short_600ms.mp4	397.6167129894907	398.2250532678263	0.6083402783356178	n/a	n/a	n/a	n/a
360.35986328125	0.2	738017	319	49	3	0	0	32	332	stimuli\Videos_short_600ms_vertflip\66.stroke_top_to_bottom_with_sponge_short_vertflip_short_600ms.mp4	66.stroke_top_to_bottom_with_sponge_short_vertflip_short_600ms.mp4	398.4166975061919	399.0250339723516	0.6083364661596988	n/a	n/a	n/a	n/a
361.15966796875	0.2	739655	320	49	3	0	0	33	302	stimuli\Videos_short_600ms_vertflip\39.single_stab_with_scissors_short_vertflip_short_600ms.mp4	39.single_stab_with_scissors_short_vertflip_short_600ms.mp4	399.21670518919245	399.8250126241669	0.6083074349744493	n/a	n/a	n/a	n/a
361.9599609375	0.2	741294	321	49	3	0	0	34	54	stimuli\Videos_short_600ms\59.single_push_with_long_side_pencil_short_short_600ms.mp4	59.single_push_with_long_side_pencil_short_short_600ms.mp4	400.0166357489429	400.6249930354479	0.6083572865049973	n/a	n/a	n/a	n/a
362.759765625	0.2	742932	322	49	3	0	0	35	76	stimuli\Videos_short_600ms\79.long_with_soft_brush_all_over_the_hand_short_short_600ms.mp4	79.long_with_soft_brush_all_over_the_hand_short_short_600ms.mp4	400.8166167467125	401.4250007184485	0.6083839717359751	n/a	n/a	n/a	n/a
363.5595703125	0.2	744570	323	49	3	0	0	36	181	stimuli\Videos_short_600ms_horvertflip\10.single_touch_with_knife_short_horvertflip_short_600ms.mp4	10.single_touch_with_knife_short_horvertflip_short_600ms.mp4	401.6167390882331	402.2249735053777	0.6082344171445584	n/a	n/a	n/a	n/a
364.35986328125	0.2	746209	324	49	3	0	0	37	4	stimuli\Videos_short_600ms\13.single_touch_with_pen_short_short_600ms.mp4	13.single_touch_with_pen_short_short_600ms.mp4	402.4166019085512	403.024914621923	0.608312713371788	n/a	n/a	n/a	n/a
365.15966796875	0.2	747847	325	49	3	0	0	38	103	stimuli\Videos_short_600ms_horflip\21.repeated_touch_with_metal_chopstick_short_horflip_short_600ms.mp4	21.repeated_touch_with_metal_chopstick_short_horflip_short_600ms.mp4	403.2165949293369	403.82491849274766	0.6083235634107496	n/a	n/a	n/a	n/a
365.9599609375	0.2	749486	326	49	3	0	0	39	106	stimuli\Videos_short_600ms_horflip\24.single_stroke_top_to_bottom_with_a_spoon_short_horflip_short_600ms.mp4	24.single_stroke_top_to_bottom_with_a_spoon_short_horflip_short_600ms.mp4	404.016633696233	404.6248634214687	0.6082297252357876	n/a	n/a	n/a	n/a
366.759765625	0.2	751124	327	49	3	0	0	40	221	stimuli\Videos_short_600ms_horvertflip\47.(long)scratching_with_finger_nails_short_horvertflip_short_600ms.mp4	47.(long)scratching_with_finger_nails_short_horvertflip_short_600ms.mp4	404.8165495937685	405.42486523958337	0.6083156458148551	n/a	n/a	n/a	n/a
367.5595703125	0.2	752762	328	49	3	0	0	41	317	stimuli\Videos_short_600ms_vertflip\52.touch_top_to_bottom_with_hammer_short_vertflip_short_600ms.mp4	52.touch_top_to_bottom_with_hammer_short_vertflip_short_600ms.mp4	405.61653762940136	406.2248374400242	0.6082998106228388	n/a	n/a	n/a	n/a
368.35986328125	0.2	754401	329	49	3	0	0	42	161	stimuli\Videos_short_600ms_horflip\74.fingers_walking_from_top_to_bottom_short_horflip_short_600ms.mp4	74.fingers_walking_from_top_to_bottom_short_horflip_short_600ms.mp4	406.4165200933923	407.0248339797415	0.6083138863491513	n/a	n/a	n/a	n/a
369.15966796875	0.2	756039	330	49	3	0	0	43	276	stimuli\Videos_short_600ms_vertflip\15.single_stroke_top_to_bottom_with_a_plastic_whisk_short_vertflip_short_600ms.mp4	15.single_stroke_top_to_bottom_with_a_plastic_whisk_short_vertflip_short_600ms.mp4	407.2165043168493	407.824820842397	0.608316525547707	n/a	n/a	n/a	n/a
369.95947265625	0.2	757677	331	49	3	0	0	44	31	stimuli\Videos_short_600ms\38.double_slap_with_pencil_short_short_600ms.mp4	38.double_slap_with_pencil_short_short_600ms.mp4	408.01649352545905	408.6248068253197	0.6083132998605834	n/a	n/a	n/a	n/a
370.759765625	0.2	759316	332	49	3	0	0	45	344	stimuli\Videos_short_600ms_vertflip\77.tapping_with_all_fingers_short_vertflip_short_600ms.mp4	77.tapping_with_all_fingers_short_vertflip_short_600ms.mp4	408.81645780830377	409.4248215461832	0.608363737879472	n/a	n/a	n/a	n/a
371.5595703125	0.2	760954	333	49	3	0	0	46	100	stimuli\Videos_short_600ms_horflip\19.single_touch_with_rolling_pin_short_horflip_short_600ms.mp4	19.single_touch_with_rolling_pin_short_horflip_short_600ms.mp4	409.6164505358451	410.22477732494326	0.6083267890981006	n/a	n/a	n/a	n/a
372.359375	0.2	762592	334	49	3	0	0	47	347	stimuli\Videos_short_600ms_vertflip\8.single_touch_with_hairbrush_short_vertflip_short_600ms.mp4	8.single_touch_with_hairbrush_short_vertflip_short_600ms.mp4	410.4164329998364	411.0247685862632	0.6083355864268469	n/a	n/a	n/a	n/a
373.15966796875	0.2	764231	335	49	3	0	0	48	40	stimuli\Videos_short_600ms\46.scratching_top_to_bottom_with_finger_nails_short_short_600ms.mp4	46.scratching_top_to_bottom_with_finger_nails_short_short_600ms.mp4	411.2164359909282	411.82473961372693	0.6083036227987577	n/a	n/a	n/a	n/a
373.95947265625	0.2	765869	336	49	3	0	0	49	291	stimuli\Videos_short_600ms_vertflip\29.single_pinch_with_tweezers_short_vertflip_short_600ms.mp4	29.single_pinch_with_tweezers_short_vertflip_short_600ms.mp4	412.0163715358317	412.6247179722978	0.6083464364660358	n/a	n/a	n/a	n/a
374.75927734375	0.2	767507	337	49	3	0	0	50	287	stimuli\Videos_short_600ms_vertflip\25.single_touch_with_stanley_knife_short_vertflip_short_600ms.mp4	25.single_touch_with_stanley_knife_short_vertflip_short_600ms.mp4	412.81641968654526	413.4247019025104	0.6082822159651187	n/a	n/a	n/a	n/a
375.5595703125	0.2	769146	338	49	3	0	0	51	334	stimuli\Videos_short_600ms_vertflip\68.stroke_top_to_bottom_with_shawl_short_vertflip_short_600ms.mp4	68.stroke_top_to_bottom_with_shawl_short_vertflip_short_600ms.mp4	413.6163429151884	414.22466295966774	0.608320044479342	n/a	n/a	n/a	n/a
376.359375	0.2	770784	339	49	3	0	0	52	299	stimuli\Videos_short_600ms_vertflip\36.single_slap_with_full_hand_short_vertflip_short_600ms.mp4	36.single_slap_with_full_hand_short_vertflip_short_600ms.mp4	414.4163250859351	415.02466331156097	0.6083382256258574	n/a	n/a	n/a	n/a
377.1591796875	0.2	772422	340	49	3	0	0	53	200	stimuli\Videos_short_600ms_horvertflip\28.single_injection_with_sharp_needle_short_horvertflip_short_600ms.mp4	28.single_injection_with_sharp_needle_short_horvertflip_short_600ms.mp4	415.216279691718	415.8246402039103	0.6083605121923483	n/a	n/a	n/a	n/a
377.95947265625	0.2	774061	341	49	3	0	0	54	82	stimuli\Videos_short_600ms\84.single_touch_with_cotton_bud_short_short_600ms.mp4	84.single_touch_with_cotton_bud_short_short_600ms.mp4	416.0164017399943	416.6246112313738	0.6082094913795117	n/a	n/a	n/a	n/a
378.75927734375	0.2	775699	342	49	3	0	0	55	306	stimuli\Videos_short_600ms_vertflip\42.single_slap_with_plastic_whisk_short_vertflip_short_600ms.mp4	42.single_slap_with_plastic_whisk_short_vertflip_short_600ms.mp4	416.8162422737458	417.42458313857014	0.6083408648244131	n/a	n/a	n/a	n/a
379.55908203125	0.2	777337	343	49	3	0	0	56	346	stimuli\Videos_short_600ms_vertflip\79.long_with_soft_brush_all_over_the_hand_short_vertflip_short_600ms.mp4	79.long_with_soft_brush_all_over_the_hand_short_vertflip_short_600ms.mp4	417.61627077709136	418.2245189767182	0.6082481996268143	n/a	n/a	n/a	n/a
380.359375	0.2	778976	344	49	3	0	0	57	262	stimuli\Videos_short_600ms_horvertflip\84.single_touch_with_cotton_bud_short_horvertflip_short_600ms.mp4	84.single_touch_with_cotton_bud_short_horvertflip_short_600ms.mp4	418.4162611586785	419.0245345773146	0.6082734186361449	n/a	n/a	n/a	n/a
381.1591796875	0.2	780614	345	49	3	0	0	58	154	stimuli\Videos_short_600ms_horflip\68.stroke_top_to_bottom_with_shawl_short_horflip_short_600ms.mp4	68.stroke_top_to_bottom_with_shawl_short_horflip_short_600ms.mp4	419.2162811579397	419.8244839047002	0.6082027467605258	n/a	n/a	n/a	n/a
381.958984375	0.2	782252	346	49	3	0	0	59	224	stimuli\Videos_short_600ms_horvertflip\5.repeated_tap_with_finger_moving_from_top_to_bottom_short_horvertflip_short_600ms.mp4	5.repeated_tap_with_finger_moving_from_top_to_bottom_short_horvertflip_short_600ms.mp4	420.0162134771558	420.624440269949	0.6082267927931753	n/a	n/a	n/a	n/a
382.75927734375	0.2	783891	347	49	3	0	0	60	122	stimuli\Videos_short_600ms_horflip\39.single_stab_with_scissors_short_horflip_short_600ms.mp4	39.single_stab_with_scissors_short_horflip_short_600ms.mp4	420.8161924222154	421.4244274258488	0.6082350036333537	n/a	n/a	n/a	n/a
383.55908203125	0.2	785529	348	49	3	0	0	61	244	stimuli\Videos_short_600ms_horvertflip\68.stroke_top_to_bottom_with_shawl_short_horvertflip_short_600ms.mp4	68.stroke_top_to_bottom_with_shawl_short_horvertflip_short_600ms.mp4	421.6161681415877	422.2244016789996	0.6082335374119339	n/a	n/a	n/a	n/a
384.359375	0.2	787168	349	49	3	0	0	62	201	stimuli\Videos_short_600ms_horvertflip\29.single_pinch_with_tweezers_short_horvertflip_short_600ms.mp4	29.single_pinch_with_tweezers_short_horvertflip_short_600ms.mp4	422.4161552974874	423.0243838497463	0.6082285522588791	n/a	n/a	n/a	n/a
385.1591796875	0.2	788806	350	49	3	0	0	63	51	stimuli\Videos_short_600ms\56.repeated_touch_with_nail_file_short_short_600ms.mp4	56.repeated_touch_with_nail_file_short_short_600ms.mp4	423.2162239753018	423.8243941719454	0.6081701966436412	n/a	n/a	n/a	n/a
385.958984375	0.2	790444	351	49	3	0	0	64	15	stimuli\Videos_short_600ms\23.single_push_with_a_spoon_short_short_600ms.mp4	23.single_push_with_a_spoon_short_short_600ms.mp4	424.0160909010399	424.624381914334	0.6082910132940924	n/a	n/a	n/a	n/a
386.75927734375	0.2	792083	352	49	3	0	0	65	93	stimuli\Videos_short_600ms_horflip\12.repeated_touch_with_nail_file_short_horflip_short_600ms.mp4	12.repeated_touch_with_nail_file_short_horflip_short_600ms.mp4	424.8162531237849	425.42437082969946	0.6081177059145375	n/a	n/a	n/a	n/a
387.55908203125	0.2	793721	353	49	3	0	0	66	166	stimuli\Videos_short_600ms_horflip\79.long_with_soft_brush_all_over_the_hand_short_horflip_short_600ms.mp4	79.long_with_soft_brush_all_over_the_hand_short_horflip_short_600ms.mp4	425.6165003873757	426.2243427368958	0.6078423495200695	n/a	n/a	n/a	n/a
388.35888671875	0.2	795359	354	49	3	0	0	67	172	stimuli\Videos_short_600ms_horflip\84.single_touch_with_cotton_bud_short_horflip_short_600ms.mp4	84.single_touch_with_cotton_bud_short_horflip_short_600ms.mp4	426.4160526619837	427.024325200887	0.608272538903293	n/a	n/a	n/a	n/a
389.1591796875	0.2	796998	355	49	3	0	0	68	211	stimuli\Videos_short_600ms_horvertflip\38.double_slap_with_pencil_short_horvertflip_short_600ms.mp4	38.double_slap_with_pencil_short_horvertflip_short_600ms.mp4	427.21603659219613	427.824305612168	0.6082690199718854	n/a	n/a	n/a	n/a
389.958984375	0.2	798636	356	49	3	0	0	69	145	stimuli\Videos_short_600ms_horflip\6.single_touch_with_flat_hand_short_horflip_short_600ms.mp4	6.single_touch_with_flat_hand_short_horflip_short_600ms.mp4	428.0159756560315	428.6242866099376	0.6083109539060843	n/a	n/a	n/a	n/a
390.7587890625	0.2	800274	357	49	3	0	0	70	268	stimuli\Videos_short_600ms_horvertflip\9.single_touch_with_hammer_short_horvertflip_short_600ms.mp4	9.single_touch_with_hammer_short_horvertflip_short_600ms.mp4	428.8160106107516	429.42426848744	0.6082578766884126	n/a	n/a	n/a	n/a
391.55908203125	0.2	801913	358	49	3	0	0	71	282	stimuli\Videos_short_600ms_vertflip\20.single_touch_with_screwdriver_short_vertflip_short_600ms.mp4	20.single_touch_with_screwdriver_short_vertflip_short_600ms.mp4	429.6163317719051	430.2242491919653	0.6079174200601756	n/a	n/a	n/a	n/a
