onset	duration	onsetsample	eventnumber	subjectnr	sequencenumber	blocksequencenumber	istarget	presentationnumber	stimnumber	stim	stimname	time_stimon	time_stimoff	stimdur	cresp	resp	rt	correct
94.3828125	0.2	193296	0	72	0	0	0	0	27	stimuli\Videos_short_600ms\34.repeated_punch_with_hand_short_short_600ms.mp4	34.repeated_punch_with_hand_short_short_600ms.mp4	40.313839378532066	40.92153729622805	0.6076979176959867				
95.1826171875	0.2	194934	1	72	0	0	0	1	68	stimuli\Videos_short_600ms\71.single_stroke_with_finger_top_to_bottom_short_short_600ms.mp4	71.single_stroke_with_finger_top_to_bottom_short_short_600ms.mp4	41.11385709053411	41.721519525576696	0.6076624350425845				
95.982421875	0.2	196572	2	72	0	0	0	2	236	stimuli\Videos_short_600ms_horvertflip\60.single_push_with_tip_of_pencil_short_horvertflip_short_600ms.mp4	60.single_push_with_tip_of_pencil_short_horvertflip_short_600ms.mp4	41.91326631901484	42.52153518486375	0.6082688658489133				
96.78271484375	0.2	198211	3	72	0	0	0	3	174	stimuli\Videos_short_600ms_horflip\86.touch_top_to_bottom_with_hair_brush_short_horflip_short_600ms.mp4	86.touch_top_to_bottom_with_hair_brush_short_horflip_short_600ms.mp4	42.71327494041998	43.3215056844092	0.6082307439892247				
97.58251953125	0.2	199849	4	72	0	0	0	4	121	stimuli\Videos_short_600ms_horflip\38.double_slap_with_pencil_short_horflip_short_600ms.mp4	38.double_slap_with_pencil_short_horflip_short_600ms.mp4	43.51314896233816	44.1214896732281	0.6083407108899337				
98.38232421875	0.2	201487	5	72	0	0	0	5	184	stimuli\Videos_short_600ms_horvertflip\13.single_touch_with_pen_short_horvertflip_short_600ms.mp4	13.single_touch_with_pen_short_horvertflip_short_600ms.mp4	44.31311506320799	44.92146926337136	0.6083542001633759				
99.1826171875	0.2	203126	6	72	0	0	0	6	249	stimuli\Videos_short_600ms_horvertflip\72.(short)stroke_with_finger_all_over_the_hand_short_horvertflip_short_600ms.mp4	72.(short)stroke_with_finger_all_over_the_hand_short_horvertflip_short_600ms.mp4	45.11321341760413	45.72145354543591	0.6082401278317775				
99.982421875	0.2	204764	7	72	0	0	0	7	341	stimuli\Videos_short_600ms_vertflip\74.fingers_walking_from_top_to_bottom_short_vertflip_short_600ms.mp4	74.fingers_walking_from_top_to_bottom_short_vertflip_short_600ms.mp4	45.913097116609606	46.52143606802929	0.6083389514196824				
100.7822265625	0.2	206402	8	72	0	0	0	8	221	stimuli\Videos_short_600ms_horvertflip\47.(long)scratching_with_finger_nails_short_horvertflip_short_600ms.mp4	47.(long)scratching_with_finger_nails_short_horvertflip_short_600ms.mp4	46.71312362596382	47.321421523073695	0.6082978971098782				
101.58251953125	0.2	208041	9	72	0	0	0	9	273	stimuli\Videos_short_600ms_vertflip\12.repeated_touch_with_nail_file_short_vertflip_short_600ms.mp4	12.repeated_touch_with_nail_file_short_vertflip_short_600ms.mp4	47.51313957849561	48.1214034591776	0.6082638806819887				
102.38232421875	0.2	209679	10	72	0	0	0	10	272	stimuli\Videos_short_600ms_vertflip\11.single_touch_with_lighter_short_vertflip_short_600ms.mp4	11.single_touch_with_lighter_short_vertflip_short_600ms.mp4	48.31302679644159	48.92138451554638	0.608357719104788				
103.18212890625	0.2	211317	11	72	0	0	0	11	54	stimuli\Videos_short_600ms\59.single_push_with_long_side_pencil_short_short_600ms.mp4	59.single_push_with_long_side_pencil_short_short_600ms.mp4	49.11300990552536	49.72136674489502	0.6083568393696623				
103.982421875	0.2	212956	12	72	0	0	0	12	4	stimuli\Videos_short_600ms\13.single_touch_with_pen_short_short_600ms.mp4	13.single_touch_with_pen_short_short_600ms.mp4	49.91299037540375	50.5213513202043	0.6083609448005518				
104.7822265625	0.2	214594	13	72	0	0	0	13	336	stimuli\Videos_short_600ms_vertflip\7.repeated_touch_with_hairbrush_short_vertflip_short_600ms.mp4	7.repeated_touch_with_hairbrush_short_vertflip_short_600ms.mp4	50.71298580078019	51.32133501577846	0.6083492149982703				
105.58203125	0.2	216232	14	72	0	0	0	14	206	stimuli\Videos_short_600ms_horvertflip\33.scratch_top_to_bottom_with_scissors_short_horvertflip_short_600ms.mp4	33.scratch_top_to_bottom_with_scissors_short_horvertflip_short_600ms.mp4	51.51355627974044	52.121324576253755	0.6077682965133135				
106.38232421875	0.2	217871	15	72	0	0	0	15	192	stimuli\Videos_short_600ms_horvertflip\20.single_touch_with_screwdriver_short_horvertflip_short_600ms.mp4	20.single_touch_with_screwdriver_short_horvertflip_short_600ms.mp4	52.31305524121308	52.92128539871192	0.6082301574988378				
107.18212890625	0.2	219509	16	72	0	0	0	16	296	stimuli\Videos_short_600ms_vertflip\33.scratch_top_to_bottom_with_scissors_short_vertflip_short_600ms.mp4	33.scratch_top_to_bottom_with_scissors_short_vertflip_short_600ms.mp4	53.11302046234778	53.72124358196561	0.6082231196178327				
107.982421875	0.2	221148	17	72	0	0	0	17	20	stimuli\Videos_short_600ms\28.single_injection_with_sharp_needle_short_short_600ms.mp4	28.single_injection_with_sharp_needle_short_short_600ms.mp4	53.91303670812522	54.52122375859835	0.6081870504731341				
108.7822265625	0.2	222786	18	72	0	0	0	18	354	stimuli\Videos_short_600ms_vertflip\86.touch_top_to_bottom_with_hair_brush_short_vertflip_short_600ms.mp4	86.touch_top_to_bottom_with_hair_brush_short_vertflip_short_600ms.mp4	54.712950611372435	55.32120950688841	0.6082588955159736				
109.58203125	0.2	224424	19	72	0	0	0	19	333	stimuli\Videos_short_600ms_vertflip\67.single_touch_with_sponge_short_vertflip_short_600ms.mp4	67.single_touch_with_sponge_short_vertflip_short_600ms.mp4	55.51289207965601	56.12121842153829	0.6083263418822753				
110.38232421875	0.2	226063	20	72	0	0	0	20	44	stimuli\Videos_short_600ms\5.repeated_tap_with_finger_moving_from_top_to_bottom_short_short_600ms.mp4	5.repeated_tap_with_finger_moving_from_top_to_bottom_short_short_600ms.mp4	56.31298779484678	56.92119713194643	0.6082093370996517				
111.18212890625	0.2	227701	21	72	0	0	0	21	75	stimuli\Videos_short_600ms\78.single_stroke_top_to_bottom_with_soft_brush_short_short_600ms.mp4	78.single_stroke_top_to_bottom_with_soft_brush_short_short_600ms.mp4	57.11288410339057	57.72120516686118	0.608321063470612				
111.98193359375	0.2	229339	22	72	0	0	0	22	36	stimuli\Videos_short_600ms\42.single_slap_with_plastic_whisk_short_short_600ms.mp4	42.single_slap_with_plastic_whisk_short_short_600ms.mp4	57.91299272136439	58.5211920881311	0.608199366766712				
112.7822265625	0.2	230978	23	72	0	0	0	23	356	stimuli\Videos_short_600ms_vertflip\88.repeated_stroke_with_plastic_brush_short_vertflip_short_600ms.mp4	88.repeated_stroke_with_plastic_brush_short_vertflip_short_600ms.mp4	58.71291395573826	59.321166106617966	0.6082521508797072				
113.58203125	0.2	232616	24	72	0	0	0	24	321	stimuli\Videos_short_600ms_vertflip\56.repeated_touch_with_nail_file_short_vertflip_short_600ms.mp4	56.repeated_touch_with_nail_file_short_vertflip_short_600ms.mp4	59.51280821156615	60.12114804272096	0.608339831154808				
114.3818359375	0.2	234254	25	72	0	0	0	25	109	stimuli\Videos_short_600ms_horflip\27.single_push_with_a_plastic_whisk_short_horflip_short_600ms.mp4	27.single_push_with_a_plastic_whisk_short_horflip_short_600ms.mp4	60.31279190714031	60.92113261803024	0.6083407108899337				
115.18212890625	0.2	235893	26	72	0	0	0	26	329	stimuli\Videos_short_600ms_vertflip\63.stroke_top_to_bottom_with_screwdriver_short_vertflip_short_600ms.mp4	63.stroke_top_to_bottom_with_screwdriver_short_vertflip_short_600ms.mp4	61.112841289609605	61.72111455413415	0.6082732645245414				
115.98193359375	0.2	237531	27	72	0	0	0	27	93	stimuli\Videos_short_600ms_horflip\12.repeated_touch_with_nail_file_short_horflip_short_600ms.mp4	12.repeated_touch_with_nail_file_short_horflip_short_600ms.mp4	61.91282439869428	62.52109707672844	0.6082726780341545				
116.78173828125	0.2	239169	28	72	0	0	0	28	173	stimuli\Videos_short_600ms_horflip\85.touch_top_to_bottom_with_fabric_short_horflip_short_600ms.mp4	85.touch_top_to_bottom_with_fabric_short_horflip_short_600ms.mp4	62.71275003174378	63.32107989256656	0.6083298608227778				
117.58203125	0.2	240808	29	72	0	0	0	29	8	stimuli\Videos_short_600ms\17.repeated_touch_with_rolling_pin_short_short_600ms.mp4	17.repeated_touch_with_rolling_pin_short_short_600ms.mp4	63.51273460705306	64.12106329489598	0.6083286878429135				
118.3818359375	0.2	242446	30	72	0	0	0	30	65	stimuli\Videos_short_600ms\69.stroke_with_soft_sock_short_short_600ms.mp4	69.stroke_with_soft_sock_short_short_600ms.mp4	64.31279718555106	64.92104874994038	0.6082515643893203				
119.181640625	0.2	244084	31	72	0	0	0	31	88	stimuli\Videos_short_600ms\9.single_touch_with_hammer_short_short_600ms.mp4	9.single_touch_with_hammer_short_short_600ms.mp4	65.11280258126044	65.72101250484957	0.6082099235891292				
119.98193359375	0.2	245723	32	72	0	0	0	32	3	stimuli\Videos_short_600ms\12.repeated_touch_with_nail_file_short_short_600ms.mp4	12.repeated_touch_with_nail_file_short_short_600ms.mp4	65.91265519628814	66.5210140883728	0.6083588920846523				
120.78173828125	0.2	247361	33	72	0	0	0	33	185	stimuli\Videos_short_600ms_horvertflip\14.repeated_touch_with_pencil_short_horvertflip_short_600ms.mp4	14.repeated_touch_with_pencil_short_horvertflip_short_600ms.mp4	66.71264592974421	67.32098722712453	0.6083412973803206				
121.58154296875	0.2	248999	34	72	0	0	0	34	294	stimuli\Videos_short_600ms_vertflip\31.hand_grabbing_wrist_short_vertflip_short_600ms.mp4	31.hand_grabbing_wrist_short_vertflip_short_600ms.mp4	67.51264927273769	68.12096095236666	0.6083116796289687				
122.3818359375	0.2	250638	35	72	0	0	0	35	162	stimuli\Videos_short_600ms_horflip\75.(long)stroke_with_fingers_all_over_the_hand_short_horflip_short_600ms.mp4	75.(long)stroke_with_fingers_all_over_the_hand_short_horflip_short_600ms.mp4	68.31273443110604	68.92092060184495	0.608186170738918				
123.181640625	0.2	252276	36	72	0	0	0	36	297	stimuli\Videos_short_600ms_vertflip\34.repeated_punch_with_hand_short_vertflip_short_600ms.mp4	34.repeated_punch_with_hand_short_vertflip_short_600ms.mp4	69.11268938866306	69.72095473557056	0.6082653469075012				
123.9814453125	0.2	253914	37	72	0	0	0	37	286	stimuli\Videos_short_600ms_vertflip\24.single_stroke_top_to_bottom_with_a_spoon_short_vertflip_short_600ms.mp4	24.single_stroke_top_to_bottom_with_a_spoon_short_vertflip_short_600ms.mp4	69.91258892290261	70.52088594027737	0.6082970173747526				
124.78173828125	0.2	255553	38	72	0	0	0	38	51	stimuli\Videos_short_600ms\56.repeated_touch_with_nail_file_short_short_600ms.mp4	56.repeated_touch_with_nail_file_short_short_600ms.mp4	70.71265648656663	71.32089280221226	0.6082363156456267				
125.58154296875	0.2	257191	39	72	0	0	0	39	21	stimuli\Videos_short_600ms\29.single_pinch_with_tweezers_short_short_600ms.mp4	29.single_pinch_with_tweezers_short_short_600ms.mp4	71.5126542579037	72.12087796401102	0.6082237061073101				
126.38134765625	0.2	258829	40	72	0	0	0	40	166	stimuli\Videos_short_600ms_horflip\79.long_with_soft_brush_all_over_the_hand_short_horflip_short_600ms.mp4	79.long_with_soft_brush_all_over_the_hand_short_horflip_short_600ms.mp4	72.31254264883046	72.9208868786618	0.6083442298313457				
127.181640625	0.2	260468	41	72	0	0	0	41	215	stimuli\Videos_short_600ms_horvertflip\41.injection_with_blunt_syringe_short_horvertflip_short_600ms.mp4	41.injection_with_blunt_syringe_short_horvertflip_short_600ms.mp4	73.11261490441575	73.72086940125519	0.6082544968394359				
127.9814453125	0.2	262106	42	72	0	0	0	42	214	stimuli\Videos_short_600ms_horvertflip\40.repeated_push_with_finger_short_horvertflip_short_600ms.mp4	40.repeated_push_with_finger_short_horvertflip_short_600ms.mp4	73.91250622779262	74.52084488596756	0.6083386581749437				
128.78173828125	0.2	263745	43	72	0	0	0	43	213	stimuli\Videos_short_600ms_horvertflip\4.repeated_tap_with_finger_slow_short_horvertflip_short_600ms.mp4	4.repeated_tap_with_finger_slow_short_horvertflip_short_600ms.mp4	74.71248845714126	75.32082799505133	0.6083395379100693				
129.58154296875	0.2	265383	44	72	0	0	0	44	53	stimuli\Videos_short_600ms\58.single_slap_with_pencil_short_short_600ms.mp4	58.single_slap_with_pencil_short_short_600ms.mp4	75.5125832925969	76.12081257036061	0.6082292777637122				
130.38134765625	0.2	267021	45	72	0	0	0	45	16	stimuli\Videos_short_600ms\24.single_stroke_top_to_bottom_with_a_spoon_short_short_600ms.mp4	24.single_stroke_top_to_bottom_with_a_spoon_short_short_600ms.mp4	76.3124400130555	76.92079391997413	0.6083539069186372				
131.181640625	0.2	268660	46	72	0	0	0	46	1	stimuli\Videos_short_600ms\10.single_touch_with_knife_short_short_600ms.mp4	10.single_touch_with_knife_short_short_600ms.mp4	77.11254628506867	77.7207770290579	0.6082307439892247				
131.9814453125	0.2	270298	47	72	0	0	0	47	32	stimuli\Videos_short_600ms\39.single_stab_with_scissors_short_short_600ms.mp4	39.single_stab_with_scissors_short_short_600ms.mp4	77.91252030355554	78.52076043138732	0.6082401278317775				
132.78125	0.2	271936	48	72	0	0	0	48	197	stimuli\Videos_short_600ms_horvertflip\25.single_touch_with_stanley_knife_short_horvertflip_short_600ms.mp4	25.single_touch_with_stanley_knife_short_horvertflip_short_600ms.mp4	78.71239608494398	79.32074529994134	0.6083492149973608				
133.58154296875	0.2	273575	49	72	0	0	0	49	359	stimuli\Videos_short_600ms_vertflip\90.repeated_touch_with_sponge_short_vertflip_short_600ms.mp4	90.repeated_touch_with_sponge_short_vertflip_short_600ms.mp4	79.51250147722203	80.12072635631012	0.608224879088084				
134.38134765625	0.2	275213	50	72	0	0	0	50	127	stimuli\Videos_short_600ms_horflip\43.touch_top_to_bottom_with_sharp_wooden_stick_short_horflip_short_600ms.mp4	43.touch_top_to_bottom_with_sharp_wooden_stick_short_horflip_short_600ms.mp4	80.3124268170277	80.9207109316194	0.6082841145916973				
135.18115234375	0.2	276851	51	72	0	0	0	51	289	stimuli\Videos_short_600ms_vertflip\27.single_push_with_a_plastic_whisk_short_vertflip_short_600ms.mp4	27.single_push_with_a_plastic_whisk_short_vertflip_short_600ms.mp4	81.11252253221846	81.7206928677233	0.6081703355048376				
135.9814453125	0.2	278490	52	72	0	0	0	52	252	stimuli\Videos_short_600ms_horvertflip\75.(long)stroke_with_fingers_all_over_the_hand_short_horvertflip_short_600ms.mp4	75.(long)stroke_with_fingers_all_over_the_hand_short_horvertflip_short_600ms.mp4	81.91237221479514	82.52067656329655	0.6083043485014059				
136.78125	0.2	280128	53	72	0	0	0	53	12	stimuli\Videos_short_600ms\20.single_touch_with_screwdriver_short_short_600ms.mp4	20.single_touch_with_screwdriver_short_short_600ms.mp4	82.71233391698934	83.3206567399302	0.6083228229408633				
137.5810546875	0.2	281766	54	72	0	0	0	54	126	stimuli\Videos_short_600ms_horflip\42.single_slap_with_plastic_whisk_short_horflip_short_600ms.mp4	42.single_slap_with_plastic_whisk_short_horflip_short_600ms.mp4	83.51233638024769	84.12061111099683	0.6082747307491445				
138.38134765625	0.2	283405	55	72	0	0	0	55	52	stimuli\Videos_short_600ms\57.single_touch_with_nail_file_short_short_600ms.mp4	57.single_touch_with_nail_file_short_short_600ms.mp4	84.31228840535368	84.92058483623896	0.6082964308852752				
139.18115234375	0.2	285043	56	72	0	0	0	56	9	stimuli\Videos_short_600ms\18.single_stroke_from_top_to_bottom_with_rolling_pin_short_short_600ms.mp4	18.single_stroke_from_top_to_bottom_with_rolling_pin_short_short_600ms.mp4	85.11227004821285	85.7205670655876	0.6082970173747526				
139.98095703125	0.2	286681	57	72	0	0	0	57	26	stimuli\Videos_short_600ms\33.scratch_top_to_bottom_with_scissors_short_short_600ms.mp4	33.scratch_top_to_bottom_with_scissors_short_short_600ms.mp4	85.91225139782637	86.52057656672787	0.6083251689015015				
140.78125	0.2	288320	58	72	0	0	0	58	42	stimuli\Videos_short_600ms\48.single_slap_with_hand_short_short_600ms.mp4	48.single_slap_with_hand_short_short_600ms.mp4	86.71228611804236	87.32056612720316	0.6082800091608078				
141.5810546875	0.2	289958	59	72	0	0	1	59	378	stimuli\Targets_short_600ms_vertflip\brush-stroke_short_horvertflip_short_600ms.mp4	brush-stroke_short_horvertflip_short_600ms.mp4	87.51221732274917	88.12056741748165	0.6083500947324865				
142.380859375	0.2	291596	60	72	0	0	0	60	244	stimuli\Videos_short_600ms_horvertflip\68.stroke_top_to_bottom_with_shawl_short_horvertflip_short_600ms.mp4	68.stroke_top_to_bottom_with_shawl_short_horvertflip_short_600ms.mp4	88.3122016048128	88.92055257928132	0.6083509744685216				
143.18115234375	0.2	293235	61	72	0	0	0	61	195	stimuli\Videos_short_600ms_horvertflip\23.single_push_with_a_spoon_short_horvertflip_short_600ms.mp4	23.single_push_with_a_spoon_short_horvertflip_short_600ms.mp4	89.11221521138486	89.72052835723844	0.6083131458535718				
143.98095703125	0.2	294873	62	72	0	0	0	62	237	stimuli\Videos_short_600ms_horvertflip\61.single_hit_with_rolling_pin_short_horvertflip_short_600ms.mp4	61.single_hit_with_rolling_pin_short_horvertflip_short_600ms.mp4	89.91219450828248	90.52050853387118	0.6083140255886974				
144.78076171875	0.2	296511	63	72	0	0	0	63	353	stimuli\Videos_short_600ms_vertflip\85.touch_top_to_bottom_with_fabric_short_vertflip_short_600ms.mp4	85.touch_top_to_bottom_with_fabric_short_vertflip_short_600ms.mp4	90.71223069472398	91.32049281593572	0.6082621212117374				
145.5810546875	0.2	298150	64	72	0	0	0	64	105	stimuli\Videos_short_600ms_horflip\23.single_push_with_a_spoon_short_horflip_short_600ms.mp4	23.single_push_with_a_spoon_short_horflip_short_600ms.mp4	91.51223550394296	92.12047563177477	0.6082401278317775				
146.380859375	0.2	299788	65	72	0	0	0	65	157	stimuli\Videos_short_600ms_horflip\70.(long)stroke_with_finger_all_over_the_hand_short_horflip_short_600ms.mp4	70.(long)stroke_with_finger_all_over_the_hand_short_horflip_short_600ms.mp4	92.31212594758472	92.92045874085852	0.608332793273803				
147.18115234375	0.2	301427	66	72	0	0	1	66	360	stimuli\Targets_short_600ms\brush-stroke_short_short_600ms.mp4	brush-stroke_short_short_600ms.mp4	93.112108470179	93.72044243643268	0.6083339662536673				
147.98095703125	0.2	303065	67	72	0	0	0	67	156	stimuli\Videos_short_600ms_horflip\7.repeated_touch_with_hairbrush_short_horflip_short_600ms.mp4	7.repeated_touch_with_hairbrush_short_horflip_short_600ms.mp4	93.91213439304283	94.5204237860462	0.6082893930033606				
148.78076171875	0.2	304703	68	72	0	0	1	68	382	stimuli\Targets_short_600ms_vertflip\hand-pinch_short_horvertflip_short_600ms.mp4	hand-pinch_short_horvertflip_short_600ms.mp4	94.71206999642529	95.32040894784586	0.6083389514205919				
149.5810546875	0.2	306342	69	72	0	0	0	69	10	stimuli\Videos_short_600ms\19.single_touch_with_rolling_pin_short_short_600ms.mp4	19.single_touch_with_rolling_pin_short_short_600ms.mp4	95.51203228510984	96.12039147043924	0.608359185329391				
150.380859375	0.2	307980	70	72	0	0	0	70	150	stimuli\Videos_short_600ms_horflip\64.repeated_touch_with_screwdriver_short_horflip_short_600ms.mp4	64.repeated_touch_with_screwdriver_short_horflip_short_600ms.mp4	96.31211216506654	96.92037369978787	0.6082615347213505				
151.1806640625	0.2	309618	71	72	0	0	0	71	212	stimuli\Videos_short_600ms_horvertflip\39.single_stab_with_scissors_short_horvertflip_short_600ms.mp4	39.single_stab_with_scissors_short_horvertflip_short_600ms.mp4	97.11201023308058	97.72036912516523	0.6083588920846523				
151.98095703125	0.2	311257	72	72	0	0	0	72	300	stimuli\Videos_short_600ms_vertflip\37.single_stab_with_nail_file_short_vertflip_short_600ms.mp4	37.single_stab_with_nail_file_short_vertflip_short_600ms.mp4	97.9120103503783	98.52035311398411	0.6083427636058332				
152.78076171875	0.2	312895	73	72	0	0	0	73	330	stimuli\Videos_short_600ms_vertflip\64.repeated_touch_with_screwdriver_short_vertflip_short_600ms.mp4	64.repeated_touch_with_screwdriver_short_vertflip_short_600ms.mp4	98.7119937527068	99.32029458226862	0.6083008295618129				
153.58056640625	0.2	314533	74	72	0	0	0	74	95	stimuli\Videos_short_600ms_horflip\14.repeated_touch_with_pencil_short_horflip_short_600ms.mp4	14.repeated_touch_with_pencil_short_horflip_short_600ms.mp4	99.51196894417444	100.1202674277747	0.6082984836002652				
154.380859375	0.2	316172	75	72	0	0	0	75	134	stimuli\Videos_short_600ms_horflip\5.repeated_tap_with_finger_moving_from_top_to_bottom_short_horflip_short_600ms.mp4	5.repeated_tap_with_finger_moving_from_top_to_bottom_short_horflip_short_600ms.mp4	100.31196290332537	100.92024877738822	0.6082858740628581				
155.1806640625	0.2	317810	76	72	0	0	0	76	264	stimuli\Videos_short_600ms_horvertflip\86.touch_top_to_bottom_with_hair_brush_short_horvertflip_short_600ms.mp4	86.touch_top_to_bottom_with_hair_brush_short_horvertflip_short_600ms.mp4	101.11207885242676	101.72026971508603	0.6081908626592849				
155.98046875	0.2	319448	77	72	0	0	0	77	187	stimuli\Videos_short_600ms_horvertflip\16.repeated_touch_with_plastic_brush_short_horvertflip_short_600ms.mp4	16.repeated_touch_with_plastic_brush_short_horvertflip_short_600ms.mp4	101.9120681196573	102.52026308774748	0.6081949680901744				
156.78076171875	0.2	321087	78	72	0	0	0	78	84	stimuli\Videos_short_600ms\86.touch_top_to_bottom_with_hair_brush_short_short_600ms.mp4	86.touch_top_to_bottom_with_hair_brush_short_short_600ms.mp4	102.71190255349028	103.32023094808756	0.6083283945972653				
157.58056640625	0.2	322725	79	72	0	0	0	79	83	stimuli\Videos_short_600ms\85.touch_top_to_bottom_with_fabric_short_short_600ms.mp4	85.touch_top_to_bottom_with_fabric_short_short_600ms.mp4	103.51197334285008	104.1202375167777	0.6082641739276369				
158.38037109375	0.2	324363	80	72	0	0	1	80	374	stimuli\Targets_short_600ms_horvertflip\chopstickwood-tap_short_vertflip_short_600ms.mp4	chopstickwood-tap_short_vertflip_short_600ms.mp4	104.31192830040708	104.92021124201892	0.6082829416118329				
159.1806640625	0.2	326002	81	72	0	0	0	81	339	stimuli\Videos_short_600ms_vertflip\72.(short)stroke_with_finger_all_over_the_hand_short_vertflip_short_600ms.mp4	72.(short)stroke_with_finger_all_over_the_hand_short_vertflip_short_600ms.mp4	105.11185217398724	105.72020050924948	0.6083483352622352				
159.98046875	0.2	327640	82	72	0	0	0	82	178	stimuli\Videos_short_600ms_horflip\9.single_touch_with_hammer_short_horflip_short_600ms.mp4	9.single_touch_with_hammer_short_horflip_short_600ms.mp4	105.9118364560518	106.52017482098108	0.6083383649292955				
160.7802734375	0.2	329278	83	72	0	0	0	83	2	stimuli\Videos_short_600ms\11.single_touch_with_lighter_short_short_600ms.mp4	11.single_touch_with_lighter_short_short_600ms.mp4	106.71181956513556	107.32015910304564	0.6083395379100693				
161.58056640625	0.2	330917	84	72	0	0	0	84	235	stimuli\Videos_short_600ms_horvertflip\6.single_touch_with_flat_hand_short_horvertflip_short_600ms.mp4	6.single_touch_with_flat_hand_short_horvertflip_short_600ms.mp4	107.51182789329503	108.12014133239428	0.60831343909922				
162.38037109375	0.2	332555	85	72	0	0	0	85	28	stimuli\Videos_short_600ms\35.single_punch_with_hand_short_short_600ms.mp4	35.single_punch_with_hand_short_short_600ms.mp4	108.3117684818444	108.9201241482333	0.6083556663888885				
163.18017578125	0.2	334193	86	72	0	0	0	86	291	stimuli\Videos_short_600ms_vertflip\29.single_pinch_with_tweezers_short_vertflip_short_600ms.mp4	29.single_pinch_with_tweezers_short_vertflip_short_600ms.mp4	109.11174983145791	109.72010843029784	0.6083585988399136				
163.98046875	0.2	335832	87	72	0	0	1	87	366	stimuli\Targets_short_600ms_horflip\brush-stroke_short_horflip_short_600ms.mp4	brush-stroke_short_horflip_short_600ms.mp4	109.91173059458106	110.5200900731561	0.6083594785750392				
164.7802734375	0.2	337470	88	72	0	0	0	88	219	stimuli\Videos_short_600ms_horvertflip\45.scratching_with_finger_nails_short_horvertflip_short_600ms.mp4	45.scratching_with_finger_nails_short_horvertflip_short_600ms.mp4	110.71173628353516	111.32007494171012	0.6083386581749437				
165.580078125	0.2	339108	89	72	0	0	0	89	230	stimuli\Videos_short_600ms_horvertflip\55.touch_top_to_bottom_with_nail_file_short_horvertflip_short_600ms.mp4	55.touch_top_to_bottom_with_nail_file_short_horvertflip_short_600ms.mp4	111.51186102998872	112.1200601035098	0.6081990735210638				
166.38037109375	0.2	340747	90	72	0	0	0	90	43	stimuli\Videos_short_600ms\49.repeated_slap_with_hand_short_short_600ms.mp4	49.repeated_slap_with_hand_short_short_600ms.mp4	112.31168754620468	112.92004321259355	0.6083556663888885				
167.18017578125	0.2	342385	91	72	0	0	0	91	31	stimuli\Videos_short_600ms\38.double_slap_with_pencil_short_short_600ms.mp4	38.double_slap_with_pencil_short_short_600ms.mp4	113.11181346563808	113.72000989995377	0.6081964343156869				
167.98046875	0.2	344024	92	72	0	0	0	92	7	stimuli\Videos_short_600ms\16.repeated_touch_with_plastic_brush_short_short_600ms.mp4	16.repeated_touch_with_plastic_brush_short_short_600ms.mp4	113.911689833516	114.51999916718432	0.6083093336683305				
168.7802734375	0.2	345662	93	72	0	0	0	93	217	stimuli\Videos_short_600ms_horvertflip\43.touch_top_to_bottom_with_sharp_wooden_stick_short_horvertflip_short_600ms.mp4	43.touch_top_to_bottom_with_sharp_wooden_stick_short_horvertflip_short_600ms.mp4	114.7119846621099	115.31997083971056	0.607986177600651				
169.580078125	0.2	347300	94	72	0	0	0	94	292	stimuli\Videos_short_600ms_vertflip\3.single_push_with_finger_short_vertflip_short_600ms.mp4	3.single_push_with_finger_short_vertflip_short_600ms.mp4	115.51166543552608	116.1199322486591	0.6082668131330138	5.0	5.0	3.6210279588649423	1.0
206.7705078125	0.2	423466	95	72	1	0	0	0	247	stimuli\Videos_short_600ms_horvertflip\70.(long)stroke_with_finger_all_over_the_hand_short_horvertflip_short_600ms.mp4	70.(long)stroke_with_finger_all_over_the_hand_short_horvertflip_short_600ms.mp4	152.7024873340124	153.3109641106157	0.608476776603311				
207.57080078125	0.2	425105	96	72	1	0	0	1	137	stimuli\Videos_short_600ms_horflip\52.touch_top_to_bottom_with_hammer_short_horflip_short_600ms.mp4	52.touch_top_to_bottom_with_hammer_short_horflip_short_600ms.mp4	153.50251355012188	154.11084810286593	0.6083345527440542				
208.37060546875	0.2	426743	97	72	1	0	0	2	49	stimuli\Videos_short_600ms\54.repeated_touch_with_knife_short_short_600ms.mp4	54.repeated_touch_with_knife_short_short_600ms.mp4	154.3024984186759	154.91081948214742	0.6083210634715215				
209.17041015625	0.2	428381	98	72	1	0	0	3	243	stimuli\Videos_short_600ms_horvertflip\67.single_touch_with_sponge_short_horvertflip_short_600ms.mp4	67.single_touch_with_sponge_short_horvertflip_short_600ms.mp4	155.10247712908404	155.71078558301724	0.6083084539332049				
209.970703125	0.2	430020	99	72	1	0	0	4	315	stimuli\Videos_short_600ms_vertflip\50.single_(long)hard_push_with_thumb_short_vertflip_short_600ms.mp4	50.single_(long)hard_push_with_thumb_short_vertflip_short_600ms.mp4	155.90269776667537	156.51076429342447	0.6080665267490986				
210.7705078125	0.2	431658	100	72	1	0	0	5	71	stimuli\Videos_short_600ms\74.fingers_walking_from_top_to_bottom_short_short_600ms.mp4	74.fingers_walking_from_top_to_bottom_short_short_600ms.mp4	156.7025958346885	157.3107623580072	0.6081665233186868				
211.5703125	0.2	433296	101	72	1	0	0	6	159	stimuli\Videos_short_600ms_horflip\72.(short)stroke_with_finger_all_over_the_hand_short_horflip_short_600ms.mp4	72.(short)stroke_with_finger_all_over_the_hand_short_horflip_short_600ms.mp4	157.5025458070795	158.11074898603238	0.6082031789528628				
212.37060546875	0.2	434935	102	72	1	0	0	7	161	stimuli\Videos_short_600ms_horflip\74.fingers_walking_from_top_to_bottom_short_horflip_short_600ms.mp4	74.fingers_walking_from_top_to_bottom_short_horflip_short_600ms.mp4	158.30241073839989	158.91073297485127	0.6083222364513858				
213.17041015625	0.2	436573	103	72	1	0	0	8	56	stimuli\Videos_short_600ms\60.single_push_with_tip_of_pencil_short_short_600ms.mp4	60.single_push_with_tip_of_pencil_short_short_600ms.mp4	159.10239384748365	159.71070347439672	0.6083096269130692				
213.97021484375	0.2	438211	104	72	1	0	0	9	218	stimuli\Videos_short_600ms_horvertflip\44.pushing_top_to_bottom_with_finger_short_horvertflip_short_600ms.mp4	44.pushing_top_to_bottom_with_finger_short_horvertflip_short_600ms.mp4	159.90238956610574	160.51071356202738	0.6083239959216371				
214.7705078125	0.2	439850	105	72	1	0	0	10	66	stimuli\Videos_short_600ms\7.repeated_touch_with_hairbrush_short_short_600ms.mp4	7.repeated_touch_with_hairbrush_short_short_600ms.mp4	160.70238147254167	161.31069960356217	0.6083181310204964				
215.5703125	0.2	441488	106	72	1	0	1	11	383	stimuli\Targets_short_600ms_vertflip\hand-stroke_short_horvertflip_short_600ms.mp4	hand-stroke_short_horvertflip_short_600ms.mp4	161.50238745474144	162.11068769781195	0.6083002430705164				
216.3701171875	0.2	443126	107	72	1	0	0	12	63	stimuli\Videos_short_600ms\67.single_touch_with_sponge_short_short_600ms.mp4	67.single_touch_with_sponge_short_short_600ms.mp4	162.3024031140285	162.9106998381585	0.6082967241300139				
217.17041015625	0.2	444765	108	72	1	0	0	13	314	stimuli\Videos_short_600ms_vertflip\5.repeated_tap_with_finger_moving_from_top_to_bottom_short_vertflip_short_600ms.mp4	5.repeated_tap_with_finger_moving_from_top_to_bottom_short_vertflip_short_600ms.mp4	163.10230880641393	163.71069467704456	0.6083858706306273				
217.97021484375	0.2	446403	109	72	1	0	0	14	92	stimuli\Videos_short_600ms_horflip\11.single_touch_with_lighter_short_horflip_short_600ms.mp4	11.single_touch_with_lighter_short_horflip_short_600ms.mp4	163.90229455470308	164.51067250771757	0.6083779530144966				
218.77001953125	0.2	448041	110	72	1	0	0	15	227	stimuli\Videos_short_600ms_horvertflip\52.touch_top_to_bottom_with_hammer_short_horvertflip_short_600ms.mp4	52.touch_top_to_bottom_with_hammer_short_horvertflip_short_600ms.mp4	164.7022753178262	165.31065766951724	0.6083823516910343				
219.5703125	0.2	449680	111	72	1	0	0	16	202	stimuli\Videos_short_600ms_horvertflip\3.single_push_with_finger_short_horvertflip_short_600ms.mp4	3.single_push_with_finger_short_horvertflip_short_600ms.mp4	165.50225901340036	166.1106428313169	0.6083838179165468				
220.3701171875	0.2	451318	112	72	1	0	0	17	112	stimuli\Videos_short_600ms_horflip\3.single_push_with_finger_short_horflip_short_600ms.mp4	3.single_push_with_finger_short_horflip_short_600ms.mp4	166.30311012789298	166.91063503099758	0.6075249031046042				
221.169921875	0.2	452956	113	72	1	0	0	18	147	stimuli\Videos_short_600ms_horflip\61.single_hit_with_rolling_pin_short_horflip_short_600ms.mp4	61.single_hit_with_rolling_pin_short_horflip_short_600ms.mp4	167.10224370600827	167.71056711543952	0.6083234094312502				
221.97021484375	0.2	454595	114	72	1	0	0	19	164	stimuli\Videos_short_600ms_horflip\77.tapping_with_all_fingers_short_horflip_short_600ms.mp4	77.tapping_with_all_fingers_short_horflip_short_600ms.mp4	167.90220951363244	168.51054787856265	0.608338364930205				
222.77001953125	0.2	456233	115	72	1	0	0	20	141	stimuli\Videos_short_600ms_horflip\56.repeated_touch_with_nail_file_short_horflip_short_600ms.mp4	56.repeated_touch_with_nail_file_short_horflip_short_600ms.mp4	168.70219848761826	169.31053186738154	0.6083333797632804				
223.5703125	0.2	457872	116	72	1	0	0	21	57	stimuli\Videos_short_600ms\61.single_hit_with_rolling_pin_short_short_600ms.mp4	61.single_hit_with_rolling_pin_short_short_600ms.mp4	169.50236370189123	170.11050500613328	0.6081413042420536				
224.3701171875	0.2	459510	117	72	1	0	0	22	307	stimuli\Videos_short_600ms_vertflip\43.touch_top_to_bottom_with_sharp_wooden_stick_short_vertflip_short_600ms.mp4	43.touch_top_to_bottom_with_sharp_wooden_stick_short_vertflip_short_600ms.mp4	170.3021717436677	170.91049691256922	0.6083251689015015				
225.169921875	0.2	461148	118	72	1	0	0	23	108	stimuli\Videos_short_600ms_horflip\26.single_touch_with_a_blunt_syringe_short_horflip_short_600ms.mp4	26.single_touch_with_a_blunt_syringe_short_horflip_short_600ms.mp4	171.10215309328123	171.71046242694956	0.6083093336683305				
225.97021484375	0.2	462787	119	72	1	0	0	24	271	stimuli\Videos_short_600ms_vertflip\10.single_touch_with_knife_short_vertflip_short_600ms.mp4	10.single_touch_with_knife_short_vertflip_short_600ms.mp4	171.90226435046134	172.51042295616298	0.6081586057016466				
226.77001953125	0.2	464425	120	72	1	0	0	25	78	stimuli\Videos_short_600ms\80.stroke_with_sharp_stick_all_over_the_hand_short_short_600ms.mp4	80.stroke_with_sharp_stick_all_over_the_hand_short_short_600ms.mp4	172.70222224046847	173.31040665173714	0.6081844112686667				
227.56982421875	0.2	466063	121	72	1	0	0	26	351	stimuli\Videos_short_600ms_vertflip\83.single_stroke_top_to_bottom_with_cotton_bud_short_vertflip_short_600ms.mp4	83.single_stroke_top_to_bottom_with_cotton_bud_short_vertflip_short_600ms.mp4	173.50206987033016	174.11041087446574	0.6083410041355819				
228.3701171875	0.2	467702	122	72	1	0	0	27	158	stimuli\Videos_short_600ms_horflip\71.single_stroke_with_finger_top_to_bottom_short_horflip_short_600ms.mp4	71.single_stroke_with_finger_top_to_bottom_short_horflip_short_600ms.mp4	174.3020764390194	174.91039574301976	0.6083193040003607				
229.169921875	0.2	469340	123	72	1	0	0	28	14	stimuli\Videos_short_600ms\22.single_touch_with_metal_chopstick_short_short_600ms.mp4	22.single_touch_with_metal_chopstick_short_short_600ms.mp4	175.10219913275705	175.71040817661105	0.6082090438540035				
229.9697265625	0.2	470978	124	72	1	0	0	29	99	stimuli\Videos_short_600ms_horflip\18.single_stroke_from_top_to_bottom_with_rolling_pin_short_horflip_short_600ms.mp4	18.single_stroke_from_top_to_bottom_with_rolling_pin_short_horflip_short_600ms.mp4	175.90209016288918	176.51038893973418	0.6082987768450039				
230.77001953125	0.2	472617	125	72	1	0	0	30	5	stimuli\Videos_short_600ms\14.repeated_touch_with_pencil_short_short_600ms.mp4	14.repeated_touch_with_pencil_short_short_600ms.mp4	176.70212605608594	177.31036559742734	0.6082395413413906				
231.56982421875	0.2	474255	126	72	1	0	0	31	259	stimuli\Videos_short_600ms_horvertflip\81.single_stroke_top_to_bottom_with_cotton_pad_short_horvertflip_short_600ms.mp4	81.single_stroke_top_to_bottom_with_cotton_pad_short_horvertflip_short_600ms.mp4	177.50199274687657	178.11040119737845	0.6084084505018836				
232.36962890625	0.2	475893	127	72	1	0	1	32	362	stimuli\Targets_short_600ms\chopstickwood-tap_short_short_600ms.mp4	chopstickwood-tap_short_short_600ms.mp4	178.30197028430393	178.91038108076646	0.6084107964625218				
233.169921875	0.2	477532	128	72	1	0	0	33	167	stimuli\Videos_short_600ms_horflip\8.single_touch_with_hairbrush_short_horflip_short_600ms.mp4	8.single_touch_with_hairbrush_short_horflip_short_600ms.mp4	179.10200031259956	179.71030524759135	0.6083049349917928				
233.9697265625	0.2	479170	129	72	1	0	0	34	340	stimuli\Videos_short_600ms_vertflip\73.single_stroke_with_flat_hand_short_vertflip_short_600ms.mp4	73.single_stroke_with_flat_hand_short_vertflip_short_600ms.mp4	179.90206406407742	180.5102980337624	0.6082339696849886				
234.76953125	0.2	480808	130	72	1	0	0	35	0	stimuli\Videos_short_600ms\1.repeated_touch_with_finger_fast_short_short_600ms.mp4	1.repeated_touch_with_finger_fast_short_short_600ms.mp4	180.70206711382616	181.31028026311105	0.608213149284893				
235.56982421875	0.2	482447	131	72	1	0	0	36	144	stimuli\Videos_short_600ms_horflip\59.single_push_with_long_side_pencil_short_horflip_short_600ms.mp4	59.single_push_with_long_side_pencil_short_horflip_short_600ms.mp4	181.5019895211808	182.1102660114011	0.6082764902203053				
236.36962890625	0.2	484085	132	72	1	0	1	37	380	stimuli\Targets_short_600ms_vertflip\chopstickwood-tap_short_horvertflip_short_600ms.mp4	chopstickwood-tap_short_horvertflip_short_600ms.mp4	182.30190870283968	182.91025087995513	0.6083421771154462				
237.16943359375	0.2	485723	133	72	1	0	0	38	138	stimuli\Videos_short_600ms_horflip\53.touch_top_to_bottom_with_knife_short_horflip_short_600ms.mp4	53.touch_top_to_bottom_with_knife_short_horflip_short_600ms.mp4	183.1018727509936	183.71030231514032	0.6084295641467179				
237.9697265625	0.2	487362	134	72	1	0	0	39	246	stimuli\Videos_short_600ms_horvertflip\7.repeated_touch_with_hairbrush_short_horvertflip_short_600ms.mp4	7.repeated_touch_with_hairbrush_short_horvertflip_short_600ms.mp4	183.90185498034225	184.51021357918216	0.6083585988399136				
238.76953125	0.2	489000	135	72	1	0	0	40	72	stimuli\Videos_short_600ms\75.(long)stroke_with_fingers_all_over_the_hand_short_short_600ms.mp4	75.(long)stroke_with_fingers_all_over_the_hand_short_short_600ms.mp4	184.70184571379832	185.3102069518436	0.6083612380452905				
239.5693359375	0.2	490638	136	72	1	0	0	41	77	stimuli\Videos_short_600ms\8.single_touch_with_hairbrush_short_short_600ms.mp4	8.single_touch_with_hairbrush_short_short_600ms.mp4	185.5018470040768	186.11019123390815	0.6083442298313457				
240.36962890625	0.2	492277	137	72	1	0	0	42	22	stimuli\Videos_short_600ms\3.single_push_with_finger_short_short_600ms.mp4	3.single_push_with_finger_short_short_600ms.mp4	186.301926297544	186.91012361159483	0.6081973140508126				
241.16943359375	0.2	493915	138	72	1	0	0	43	278	stimuli\Videos_short_600ms_vertflip\17.repeated_touch_with_rolling_pin_short_vertflip_short_600ms.mp4	17.repeated_touch_with_rolling_pin_short_vertflip_short_600ms.mp4	187.1018073573432	187.71012724783395	0.6083198904907476				
241.9697265625	0.2	495554	139	72	1	0	0	44	268	stimuli\Videos_short_600ms_horvertflip\9.single_touch_with_hammer_short_horvertflip_short_600ms.mp4	9.single_touch_with_hammer_short_horvertflip_short_600ms.mp4	187.90189398193704	188.51009041625275	0.6081964343156869				
242.76953125	0.2	497192	140	72	1	0	0	45	176	stimuli\Videos_short_600ms_horflip\88.repeated_stroke_with_plastic_brush_short_horflip_short_600ms.mp4	88.repeated_stroke_with_plastic_brush_short_horflip_short_600ms.mp4	188.70177562822664	189.310119858058	0.6083442298313457				
243.5693359375	0.2	498830	141	72	1	0	0	46	118	stimuli\Videos_short_600ms_horflip\35.single_punch_with_hand_short_horflip_short_600ms.mp4	35.single_punch_with_hand_short_horflip_short_600ms.mp4	189.50175639134977	190.1100830264768	0.608326635127014				
244.36962890625	0.2	500469	142	72	1	0	0	47	323	stimuli\Videos_short_600ms_vertflip\58.single_slap_with_pencil_short_vertflip_short_600ms.mp4	58.single_slap_with_pencil_short_vertflip_short_600ms.mp4	190.3017412599038	190.9100893019213	0.6083480420174965				
245.16943359375	0.2	502107	143	72	1	0	1	48	361	stimuli\Targets_short_600ms\chopstick-silver-tap_short_short_600ms.mp4	chopstick-silver-tap_short_short_600ms.mp4	191.1017921085995	191.71007241100503	0.6082803024055465				
245.96923828125	0.2	503745	144	72	1	0	0	49	239	stimuli\Videos_short_600ms_horvertflip\63.stroke_top_to_bottom_with_screwdriver_short_horvertflip_short_600ms.mp4	63.stroke_top_to_bottom_with_screwdriver_short_horvertflip_short_600ms.mp4	191.9017907596717	192.5100490686982	0.6082583090264961				
246.76953125	0.2	505384	145	72	1	0	1	50	375	stimuli\Targets_short_600ms_horvertflip\finger-tap_short_vertflip_short_600ms.mp4	finger-tap_short_vertflip_short_600ms.mp4	192.7017662443841	193.3100310048012	0.6082647604171143				
247.5693359375	0.2	507022	146	72	1	0	0	51	248	stimuli\Videos_short_600ms_horvertflip\71.single_stroke_with_finger_top_to_bottom_short_horvertflip_short_600ms.mp4	71.single_stroke_with_finger_top_to_bottom_short_horvertflip_short_600ms.mp4	193.5016725232599	194.11001440713065	0.6083418838707075				
248.369140625	0.2	508660	147	72	1	0	0	52	245	stimuli\Videos_short_600ms_horvertflip\69.stroke_with_soft_sock_short_horvertflip_short_600ms.mp4	69.stroke_with_soft_sock_short_horvertflip_short_600ms.mp4	194.30166237697995	194.90999927568464	0.6083368987046924				
249.16943359375	0.2	510299	148	72	1	0	0	53	136	stimuli\Videos_short_600ms_horflip\51.repeated_touch_with_hammer_short_horflip_short_600ms.mp4	51.repeated_touch_with_hammer_short_horflip_short_600ms.mp4	195.10164226036795	195.71003898106756	0.6083967206996022				
249.96923828125	0.2	511937	149	72	1	0	0	54	267	stimuli\Videos_short_600ms_horvertflip\89.single_touch_with_plastic_brush_short_horvertflip_short_600ms.mp4	89.single_touch_with_plastic_brush_short_horvertflip_short_600ms.mp4	195.9017218470808	196.5099654938531	0.60824364677228				
250.76904296875	0.2	513575	150	72	1	0	0	55	318	stimuli\Videos_short_600ms_vertflip\53.touch_top_to_bottom_with_knife_short_vertflip_short_600ms.mp4	53.touch_top_to_bottom_with_knife_short_vertflip_short_600ms.mp4	196.70159557575337	197.3100776307674	0.6084820550140648				
251.5693359375	0.2	515214	151	72	1	0	0	56	313	stimuli\Videos_short_600ms_vertflip\49.repeated_slap_with_hand_short_vertflip_short_600ms.mp4	49.repeated_slap_with_hand_short_vertflip_short_600ms.mp4	197.50156988748495	198.1099302457951	0.6083603583101649				
252.369140625	0.2	516852	152	72	1	0	1	57	364	stimuli\Targets_short_600ms\hand-pinch_short_short_600ms.mp4	hand-pinch_short_short_600ms.mp4	198.30166589592136	198.90991394136927	0.6082480454479082				
253.1689453125	0.2	518490	153	72	1	0	0	58	172	stimuli\Videos_short_600ms_horflip\84.single_touch_with_cotton_bud_short_horflip_short_600ms.mp4	84.single_touch_with_cotton_bud_short_horflip_short_600ms.mp4	199.10153933134825	199.70989705045304	0.608357719104788				
253.96923828125	0.2	520129	154	72	1	0	1	59	377	stimuli\Targets_short_600ms_horvertflip\hand-stroke_short_vertflip_short_600ms.mp4	hand-stroke_short_vertflip_short_600ms.mp4	199.9015409148724	200.509889836625	0.6083489217526221				
254.76904296875	0.2	521767	155	72	1	0	0	60	81	stimuli\Videos_short_600ms\83.single_stroke_top_to_bottom_with_cotton_bud_short_short_600ms.mp4	83.single_stroke_top_to_bottom_with_cotton_bud_short_short_600ms.mp4	200.70175392809145	201.30983599682983	0.6080820687384403				
255.56884765625	0.2	523405	156	72	1	0	0	61	13	stimuli\Videos_short_600ms\21.repeated_touch_with_metal_chopstick_short_short_600ms.mp4	21.repeated_touch_with_metal_chopstick_short_short_600ms.mp4	201.5016989153164	202.10980532339545	0.6081064080790384				
256.369140625	0.2	525044	157	72	1	0	0	62	201	stimuli\Videos_short_600ms_horvertflip\29.single_pinch_with_tweezers_short_horvertflip_short_600ms.mp4	29.single_pinch_with_tweezers_short_horvertflip_short_600ms.mp4	202.3015961035944	202.90978931221431	0.6081932086199231				
257.1689453125	0.2	526682	158	72	1	0	0	63	225	stimuli\Videos_short_600ms_horvertflip\50.single_(long)hard_push_with_thumb_short_horvertflip_short_600ms.mp4	50.single_(long)hard_push_with_thumb_short_horvertflip_short_600ms.mp4	203.1014847877659	203.7097724212981	0.6082876335321998				
257.96875	0.2	528320	159	72	1	0	0	64	41	stimuli\Videos_short_600ms\47.(long)scratching_with_finger_nails_short_short_600ms.mp4	47.(long)scratching_with_finger_nails_short_short_600ms.mp4	203.9014972213563	204.5097772305171	0.6082800091608078				
258.76904296875	0.2	529959	160	72	1	0	1	65	370	stimuli\Targets_short_600ms_horflip\hand-pinch_short_horflip_short_600ms.mp4	hand-pinch_short_horflip_short_600ms.mp4	204.7016032001247	205.3097647382774	0.6081615381526717				
259.56884765625	0.2	531597	161	72	1	0	0	66	17	stimuli\Videos_short_600ms\25.single_touch_with_stanley_knife_short_short_600ms.mp4	25.single_touch_with_stanley_knife_short_short_600ms.mp4	205.5015432021837	206.10976632180063	0.6082231196169232				
260.36865234375	0.2	533235	162	72	1	0	0	67	74	stimuli\Videos_short_600ms\77.tapping_with_all_fingers_short_short_600ms.mp4	77.tapping_with_all_fingers_short_short_600ms.mp4	206.30143364582543	206.9097626269131	0.6083289810876522				
261.1689453125	0.2	534874	163	72	1	0	0	68	149	stimuli\Videos_short_600ms_horflip\63.stroke_top_to_bottom_with_screwdriver_short_horflip_short_600ms.mp4	63.stroke_top_to_bottom_with_screwdriver_short_horflip_short_600ms.mp4	207.1015188041938	207.7097299007628	0.6082110965689935				
261.96875	0.2	536512	164	72	1	0	0	69	199	stimuli\Videos_short_600ms_horvertflip\27.single_push_with_a_plastic_whisk_short_horvertflip_short_600ms.mp4	27.single_push_with_a_plastic_whisk_short_horvertflip_short_600ms.mp4	207.9014541143315	208.50972327342424	0.6082691590927425				
262.76904296875	0.2	538151	165	72	1	0	0	70	280	stimuli\Videos_short_600ms_vertflip\19.single_touch_with_rolling_pin_short_vertflip_short_600ms.mp4	19.single_touch_with_rolling_pin_short_vertflip_short_600ms.mp4	208.70153985918932	209.3096972919111	0.6081574327217822				
263.56884765625	0.2	539789	166	72	1	0	0	71	119	stimuli\Videos_short_600ms_horflip\36.single_slap_with_full_hand_short_horflip_short_600ms.mp4	36.single_slap_with_full_hand_short_horflip_short_600ms.mp4	209.50144115289913	210.10967952125975	0.6082383683606167				
264.36865234375	0.2	541427	167	72	1	0	0	72	82	stimuli\Videos_short_600ms\84.single_touch_with_cotton_bud_short_short_600ms.mp4	84.single_touch_with_cotton_bud_short_short_600ms.mp4	210.3014354052957	210.90966438981468	0.6082289845189734				
265.1689453125	0.2	543066	168	72	1	0	1	73	367	stimuli\Targets_short_600ms_horflip\chopstick-silver-tap_short_horflip_short_600ms.mp4	chopstick-silver-tap_short_horflip_short_600ms.mp4	211.10144138749547	211.70964456644745	0.6082031789519533				
265.96875	0.2	544704	169	72	1	0	0	74	211	stimuli\Videos_short_600ms_horvertflip\38.double_slap_with_pencil_short_horvertflip_short_600ms.mp4	38.double_slap_with_pencil_short_horvertflip_short_600ms.mp4	211.90127376861255	212.50962884851197	0.6083550798994111				
266.7685546875	0.2	546342	170	72	1	0	0	75	265	stimuli\Videos_short_600ms_horvertflip\87.single_stroke_top_to_bottom_with_plastic_brush_short_horvertflip_short_600ms.mp4	87.single_stroke_top_to_bottom_with_plastic_brush_short_horvertflip_short_600ms.mp4	212.70124983981532	213.30961489004676	0.6083650502314413				
267.56884765625	0.2	547981	171	72	1	0	0	76	347	stimuli\Videos_short_600ms_vertflip\8.single_touch_with_hairbrush_short_vertflip_short_600ms.mp4	8.single_touch_with_hairbrush_short_vertflip_short_600ms.mp4	213.50131036559745	214.10959594641463	0.6082855808172098				
268.36865234375	0.2	549619	172	72	1	0	0	77	312	stimuli\Videos_short_600ms_vertflip\48.single_slap_with_hand_short_vertflip_short_600ms.mp4	48.single_slap_with_hand_short_vertflip_short_600ms.mp4	214.30124245003935	214.9095811082143	0.6083386581749437				
269.16845703125	0.2	551257	173	72	1	0	0	78	228	stimuli\Videos_short_600ms_horvertflip\53.touch_top_to_bottom_with_knife_short_horvertflip_short_600ms.mp4	53.touch_top_to_bottom_with_knife_short_horvertflip_short_600ms.mp4	215.1012718918446	215.70956275107255	0.6082908592279637				
269.96875	0.2	552896	174	72	1	0	0	79	102	stimuli\Videos_short_600ms_horflip\20.single_touch_with_screwdriver_short_horflip_short_600ms.mp4	20.single_touch_with_screwdriver_short_horflip_short_600ms.mp4	215.90133710954797	216.509526212737	0.6081891031890336				
270.7685546875	0.2	554534	175	72	1	0	0	80	224	stimuli\Videos_short_600ms_horvertflip\5.repeated_tap_with_finger_moving_from_top_to_bottom_short_horvertflip_short_600ms.mp4	5.repeated_tap_with_finger_moving_from_top_to_bottom_short_horvertflip_short_600ms.mp4	216.70119734894703	217.30949407307708	0.6082967241300139				
271.568359375	0.2	556172	176	72	1	0	0	81	223	stimuli\Videos_short_600ms_horvertflip\49.repeated_slap_with_hand_short_horvertflip_short_600ms.mp4	49.repeated_slap_with_hand_short_horvertflip_short_600ms.mp4	217.50130450069628	218.10949184441503	0.6081873437187824				
272.36865234375	0.2	557811	177	72	1	0	0	82	256	stimuli\Videos_short_600ms_horvertflip\79.long_with_soft_brush_all_over_the_hand_short_horvertflip_short_600ms.mp4	79.long_with_soft_brush_all_over_the_hand_short_horvertflip_short_600ms.mp4	218.30138438065296	218.90945706554976	0.608072684896797				
273.16845703125	0.2	559449	178	72	1	0	0	83	334	stimuli\Videos_short_600ms_vertflip\68.stroke_top_to_bottom_with_shawl_short_vertflip_short_600ms.mp4	68.stroke_top_to_bottom_with_shawl_short_vertflip_short_600ms.mp4	219.10113963831736	219.70944369357403	0.6083040552566672				
273.96826171875	0.2	561087	179	72	1	0	0	84	48	stimuli\Videos_short_600ms\53.touch_top_to_bottom_with_knife_short_short_600ms.mp4	53.touch_top_to_bottom_with_knife_short_short_600ms.mp4	219.90125089549747	220.50946609749735	0.608215201999883				
274.7685546875	0.2	562726	180	72	1	0	0	85	181	stimuli\Videos_short_600ms_horvertflip\10.single_touch_with_knife_short_horvertflip_short_600ms.mp4	10.single_touch_with_knife_short_horvertflip_short_600ms.mp4	220.70118737861503	221.3094357173086	0.6082483386935564				
275.568359375	0.2	564364	181	72	1	0	0	86	345	stimuli\Videos_short_600ms_vertflip\78.single_stroke_top_to_bottom_with_soft_brush_short_vertflip_short_600ms.mp4	78.single_stroke_top_to_bottom_with_soft_brush_short_vertflip_short_600ms.mp4	221.50109013854944	222.1094323156658	0.6083421771163557				
276.3681640625	0.2	566002	182	72	1	0	0	87	151	stimuli\Videos_short_600ms_horflip\65.stroke_top_to_bottom_with_stanley_knife_short_horflip_short_600ms.mp4	65.stroke_top_to_bottom_with_stanley_knife_short_horflip_short_600ms.mp4	222.30115271704744	222.9094121990538	0.6082594820063605				
277.16845703125	0.2	567641	183	72	1	0	0	88	45	stimuli\Videos_short_600ms\50.single_(long)hard_push_with_thumb_short_short_600ms.mp4	50.single_(long)hard_push_with_thumb_short_short_600ms.mp4	223.10112761526943	223.7094064514504	0.6082788361809435				
277.96826171875	0.2	569279	184	72	1	0	0	89	350	stimuli\Videos_short_600ms_vertflip\82.repeated_touch_with_cotton_bud_short_vertflip_short_600ms.mp4	82.repeated_touch_with_cotton_bud_short_vertflip_short_600ms.mp4	223.90109987428605	224.50937988344683	0.6082800091608078				
278.76806640625	0.2	570917	185	72	1	0	0	90	132	stimuli\Videos_short_600ms_horflip\48.single_slap_with_hand_short_horflip_short_600ms.mp4	48.single_slap_with_hand_short_horflip_short_600ms.mp4	224.70104984667705	225.309361526306	0.6083116796289687				
279.568359375	0.2	572556	186	72	1	0	0	91	80	stimuli\Videos_short_600ms\82.repeated_touch_with_cotton_bud_short_short_600ms.mp4	82.repeated_touch_with_cotton_bud_short_short_600ms.mp4	225.50100451098933	226.1093461016153	0.6083415906259688				
280.3681640625	0.2	574194	187	72	1	0	0	92	194	stimuli\Videos_short_600ms_horvertflip\22.single_touch_with_metal_chopstick_short_horvertflip_short_600ms.mp4	22.single_touch_with_metal_chopstick_short_horvertflip_short_600ms.mp4	226.30098996603377	226.90932891745345	0.6083389514196824				
281.16796875	0.2	575832	188	72	1	0	0	93	298	stimuli\Videos_short_600ms_vertflip\35.single_punch_with_hand_short_vertflip_short_600ms.mp4	35.single_punch_with_hand_short_vertflip_short_600ms.mp4	227.10095313445257	227.7093114400477	0.6083583055951749				
281.96826171875	0.2	577471	189	72	1	0	0	94	155	stimuli\Videos_short_600ms_horflip\69.stroke_with_soft_sock_short_horflip_short_600ms.mp4	69.stroke_with_soft_sock_short_horflip_short_600ms.mp4	227.90105969971137	228.5092939626411	0.6082342629297273				
282.76806640625	0.2	579109	190	72	1	0	0	95	123	stimuli\Videos_short_600ms_horflip\4.repeated_tap_with_finger_slow_short_horflip_short_600ms.mp4	4.repeated_tap_with_finger_slow_short_horflip_short_600ms.mp4	228.7010445682654	229.3092785379504	0.6082339696849886				
283.568359375	0.2	580748	191	72	1	0	0	96	316	stimuli\Videos_short_600ms_vertflip\51.repeated_touch_with_hammer_short_vertflip_short_600ms.mp4	51.repeated_touch_with_hammer_short_vertflip_short_600ms.mp4	229.5009951271468	230.10926164703417	0.6082665198873656				
284.3681640625	0.2	582386	192	72	1	0	0	97	288	stimuli\Videos_short_600ms_vertflip\26.single_touch_with_a_blunt_syringe_short_vertflip_short_600ms.mp4	26.single_touch_with_a_blunt_syringe_short_vertflip_short_600ms.mp4	230.30101723782536	230.90924416962844	0.608226931803074				
285.16796875	0.2	584024	193	72	1	0	0	98	117	stimuli\Videos_short_600ms_horflip\34.repeated_punch_with_hand_short_horflip_short_600ms.mp4	34.repeated_punch_with_hand_short_horflip_short_600ms.mp4	231.1008821691457	231.7092278652026	0.6083456960568583	9.0	9.0	3.070305505646502	1.0
320.10009765625	0.2	655565	194	72	2	0	0	0	190	stimuli\Videos_short_600ms_horvertflip\19.single_touch_with_rolling_pin_short_horvertflip_short_600ms.mp4	19.single_touch_with_rolling_pin_short_horvertflip_short_600ms.mp4	266.0334985573809	266.64183311012494	0.6083345527440542				
320.900390625	0.2	657204	195	72	2	0	0	1	87	stimuli\Videos_short_600ms\89.single_touch_with_plastic_brush_short_short_600ms.mp4	89.single_touch_with_plastic_brush_short_short_600ms.mp4	266.833474335338	267.44180683536706	0.6083325000290642				
321.7001953125	0.2	658842	196	72	2	0	0	2	232	stimuli\Videos_short_600ms_horvertflip\57.single_touch_with_nail_file_short_horvertflip_short_600ms.mp4	57.single_touch_with_nail_file_short_horvertflip_short_600ms.mp4	267.6334659485292	268.2417917039211	0.6083257553918884				
322.5	0.2	660480	197	72	2	0	0	3	69	stimuli\Videos_short_600ms\72.(short)stroke_with_finger_all_over_the_hand_short_short_600ms.mp4	72.(short)stroke_with_finger_all_over_the_hand_short_short_600ms.mp4	268.43344553867246	269.04173581141094	0.6082902727384862				
323.30029296875	0.2	662119	198	72	2	0	0	4	152	stimuli\Videos_short_600ms_horflip\66.stroke_top_to_bottom_with_sponge_short_horflip_short_600ms.mp4	66.stroke_top_to_bottom_with_sponge_short_horflip_short_600ms.mp4	269.23349345491715	269.8417209732106	0.6082275182934609				
324.10009765625	0.2	663757	199	72	2	0	0	5	171	stimuli\Videos_short_600ms_horflip\83.single_stroke_top_to_bottom_with_cotton_bud_short_horflip_short_600ms.mp4	83.single_stroke_top_to_bottom_with_cotton_bud_short_horflip_short_600ms.mp4	270.03340383922296	270.64170466878386	0.6083008295609034				
324.89990234375	0.2	665395	200	72	2	0	0	6	125	stimuli\Videos_short_600ms_horflip\41.injection_with_blunt_syringe_short_horflip_short_600ms.mp4	41.injection_with_blunt_syringe_short_horflip_short_600ms.mp4	270.8334001443354	271.44171710237515	0.6083169580397225				
325.7001953125	0.2	667034	201	72	2	0	0	7	276	stimuli\Videos_short_600ms_vertflip\15.single_stroke_top_to_bottom_with_a_plastic_whisk_short_vertflip_short_600ms.mp4	15.single_stroke_top_to_bottom_with_a_plastic_whisk_short_vertflip_short_600ms.mp4	271.63344952680563	272.24169493304817	0.6082454062425313				
326.5	0.2	668672	202	72	2	0	0	8	357	stimuli\Videos_short_600ms_vertflip\89.single_touch_with_plastic_brush_short_vertflip_short_600ms.mp4	89.single_touch_with_plastic_brush_short_vertflip_short_600ms.mp4	272.43344495218207	273.04170883286406	0.6082638806819887				
327.2998046875	0.2	670310	203	72	2	0	0	9	229	stimuli\Videos_short_600ms_horvertflip\54.repeated_touch_with_knife_short_horvertflip_short_600ms.mp4	54.repeated_touch_with_knife_short_horvertflip_short_600ms.mp4	273.23333627555894	273.8420303467592	0.6086940712002615				
328.10009765625	0.2	671949	204	72	2	0	0	10	198	stimuli\Videos_short_600ms_horvertflip\26.single_touch_with_a_blunt_syringe_short_horvertflip_short_600ms.mp4	26.single_touch_with_a_blunt_syringe_short_horvertflip_short_600ms.mp4	274.0333199711331	274.6416659604347	0.608345989301597				
328.89990234375	0.2	673587	205	72	2	0	0	11	59	stimuli\Videos_short_600ms\63.stroke_top_to_bottom_with_screwdriver_short_short_600ms.mp4	63.stroke_top_to_bottom_with_screwdriver_short_short_600ms.mp4	274.83330220048174	275.4416470168035	0.6083448163217327				
329.7001953125	0.2	675226	206	72	2	0	0	12	113	stimuli\Videos_short_600ms_horflip\30.finger_pulling_back_another_finger_short_horflip_short_600ms.mp4	30.finger_pulling_back_another_finger_short_horflip_short_600ms.mp4	275.633286775791	276.241631298868	0.6083445230769939				
330.50830078125	0.2	676881	207	72	2	0	0	13	348	stimuli\Videos_short_600ms_vertflip\80.stroke_with_sharp_stick_all_over_the_hand_short_vertflip_short_600ms.mp4	80.stroke_with_sharp_stick_all_over_the_hand_short_vertflip_short_600ms.mp4	276.4416291288544	277.0499056190747	0.6082764902203053				
331.30810546875	0.2	678519	208	72	2	0	0	14	311	stimuli\Videos_short_600ms_vertflip\47.(long)scratching_with_finger_nails_short_vertflip_short_600ms.mp4	47.(long)scratching_with_finger_nails_short_vertflip_short_600ms.mp4	277.2416116514478	277.84998784499203	0.6083761935442453				
332.1083984375	0.2	680158	209	72	2	0	0	15	328	stimuli\Videos_short_600ms_vertflip\62.touch_top_to_bottom_with_scissors_short_vertflip_short_600ms.mp4	62.touch_top_to_bottom_with_scissors_short_vertflip_short_600ms.mp4	278.0415686617207	278.6499222753946	0.6083536136738985				
332.908203125	0.2	681796	210	72	2	0	0	16	191	stimuli\Videos_short_600ms_horvertflip\2.single_touch_with_finger_short_horvertflip_short_600ms.mp4	2.single_touch_with_finger_short_horvertflip_short_600ms.mp4	278.84160719412284	279.4498980533517	0.6082908592288732				
333.7080078125	0.2	683434	211	72	2	0	0	17	58	stimuli\Videos_short_600ms\62.touch_top_to_bottom_with_scissors_short_short_600ms.mp4	62.touch_top_to_bottom_with_scissors_short_short_600ms.mp4	279.6415583394937	280.2498890800525	0.608330740558813				
334.50830078125	0.2	685073	212	72	2	0	0	18	317	stimuli\Videos_short_600ms_vertflip\52.touch_top_to_bottom_with_hammer_short_vertflip_short_600ms.mp4	52.touch_top_to_bottom_with_hammer_short_vertflip_short_600ms.mp4	280.44164349786297	281.049862512049	0.6082190141860337				
335.30810546875	0.2	686711	213	72	2	0	0	19	60	stimuli\Videos_short_600ms\64.repeated_touch_with_screwdriver_short_short_600ms.mp4	64.repeated_touch_with_screwdriver_short_short_600ms.mp4	281.2415664917071	281.8498485535838	0.6082820618767073				
336.10791015625	0.2	688349	214	72	2	0	0	20	120	stimuli\Videos_short_600ms_horflip\37.single_stab_with_nail_file_short_horflip_short_600ms.mp4	37.single_stab_with_nail_file_short_horflip_short_600ms.mp4	282.0420797878787	282.6498304896868	0.6077507018080723				
336.908203125	0.2	689988	215	72	2	0	0	21	130	stimuli\Videos_short_600ms_horflip\46.scratching_top_to_bottom_with_finger_nails_short_horflip_short_600ms.mp4	46.scratching_top_to_bottom_with_finger_nails_short_horflip_short_600ms.mp4	282.8415734709397	283.44981154605557	0.608238075115878				
337.7080078125	0.2	691626	216	72	2	0	0	22	25	stimuli\Videos_short_600ms\32.single_(long)pinch_with_fingers_short_short_600ms.mp4	32.single_(long)pinch_with_fingers_short_short_600ms.mp4	283.6414627416016	284.24977999288603	0.6083172512844612				
338.5078125	0.2	693264	217	72	2	0	1	23	368	stimuli\Targets_short_600ms_horflip\chopstickwood-tap_short_horflip_short_600ms.mp4	chopstickwood-tap_short_horflip_short_600ms.mp4	284.4414135937277	285.04977453852734	0.6083609447996423				
339.30810546875	0.2	694903	218	72	2	0	0	24	322	stimuli\Videos_short_600ms_vertflip\57.single_touch_with_nail_file_short_vertflip_short_600ms.mp4	57.single_touch_with_nail_file_short_vertflip_short_600ms.mp4	285.24139728930186	285.84976263277804	0.60836534347618				
340.10791015625	0.2	696541	219	72	2	0	1	25	373	stimuli\Targets_short_600ms_horvertflip\chopstick-silver-tap_short_vertflip_short_600ms.mp4	chopstick-silver-tap_short_vertflip_short_600ms.mp4	286.04136661586745	286.64974398239156	0.6083773665241097				
340.90771484375	0.2	698179	220	72	2	0	0	26	287	stimuli\Videos_short_600ms_vertflip\25.single_touch_with_stanley_knife_short_vertflip_short_600ms.mp4	25.single_touch_with_stanley_knife_short_vertflip_short_600ms.mp4	286.8415066110638	287.44972738472006	0.608220773656285				
341.7080078125	0.2	699818	221	72	2	0	0	27	170	stimuli\Videos_short_600ms_horflip\82.repeated_touch_with_cotton_bud_short_horflip_short_600ms.mp4	82.repeated_touch_with_cotton_bud_short_horflip_short_600ms.mp4	287.64141259669395	288.24968703419836	0.6082744375044058				
342.5078125	0.2	701456	222	72	2	0	0	28	358	stimuli\Videos_short_600ms_vertflip\9.single_touch_with_hammer_short_vertflip_short_600ms.mp4	9.single_touch_with_hammer_short_vertflip_short_600ms.mp4	288.4413567041838	289.0496789406352	0.6083222364513858				
343.3076171875	0.2	703094	223	72	2	0	0	29	203	stimuli\Videos_short_600ms_horvertflip\30.finger_pulling_back_another_finger_short_horvertflip_short_600ms.mp4	30.finger_pulling_back_another_finger_short_horvertflip_short_600ms.mp4	289.2413101955153	289.84965354561155	0.6083433500962201				
344.10791015625	0.2	704733	224	72	2	0	0	30	61	stimuli\Videos_short_600ms\65.stroke_top_to_bottom_with_stanley_knife_short_short_600ms.mp4	65.stroke_top_to_bottom_with_stanley_knife_short_short_600ms.mp4	290.0413273210279	290.6496158342952	0.6082885132673255				
344.90771484375	0.2	706371	225	72	2	0	0	31	40	stimuli\Videos_short_600ms\46.scratching_top_to_bottom_with_finger_nails_short_short_600ms.mp4	46.scratching_top_to_bottom_with_finger_nails_short_short_600ms.mp4	290.84132274640433	291.44960568801616	0.6082829416118329				
345.7080078125	0.2	708010	226	72	2	0	0	32	46	stimuli\Videos_short_600ms\51.repeated_touch_with_hammer_short_short_600ms.mp4	51.repeated_touch_with_hammer_short_short_600ms.mp4	291.641280049922	292.2496072715394	0.6083272216174009				
346.5078125	0.2	709648	227	72	2	0	0	33	139	stimuli\Videos_short_600ms_horflip\54.repeated_touch_with_knife_short_horflip_short_600ms.mp4	54.repeated_touch_with_knife_short_horflip_short_600ms.mp4	292.44128955106225	293.04961120102325	0.6083216499609989				
347.3076171875	0.2	711286	228	72	2	0	0	34	175	stimuli\Videos_short_600ms_horflip\87.single_stroke_top_to_bottom_with_plastic_brush_short_horflip_short_600ms.mp4	87.single_stroke_top_to_bottom_with_plastic_brush_short_horflip_short_600ms.mp4	293.2412521329916	293.84966967409036	0.6084175410987882				
348.10791015625	0.2	712925	229	72	2	0	0	35	39	stimuli\Videos_short_600ms\45.scratching_with_finger_nails_short_short_600ms.mp4	45.scratching_with_finger_nails_short_short_600ms.mp4	294.04123260286997	294.64963489522506	0.6084022923550947				
348.90771484375	0.2	714563	230	72	2	0	0	36	326	stimuli\Videos_short_600ms_vertflip\60.single_push_with_tip_of_pencil_short_vertflip_short_600ms.mp4	60.single_push_with_tip_of_pencil_short_vertflip_short_600ms.mp4	294.841215418709	295.4496526072271	0.6084371885181099				
349.70751953125	0.2	716201	231	72	2	0	0	37	233	stimuli\Videos_short_600ms_horvertflip\58.single_slap_with_pencil_short_horvertflip_short_600ms.mp4	58.single_slap_with_pencil_short_horvertflip_short_600ms.mp4	295.6411967683225	296.2495412913986	0.6083445230760844				
350.5078125	0.2	717840	232	72	2	0	0	38	250	stimuli\Videos_short_600ms_horvertflip\73.single_stroke_with_flat_hand_short_horvertflip_short_600ms.mp4	73.single_stroke_with_flat_hand_short_horvertflip_short_600ms.mp4	296.44119923158087	297.04952440048237	0.6083251689015015				
351.3076171875	0.2	719478	233	72	2	0	0	39	220	stimuli\Videos_short_600ms_horvertflip\46.scratching_top_to_bottom_with_finger_nails_short_horvertflip_short_600ms.mp4	46.scratching_top_to_bottom_with_finger_nails_short_horvertflip_short_600ms.mp4	297.2411896717913	297.8495083893022	0.6083187175108833				
352.107421875	0.2	721116	234	72	2	0	0	40	146	stimuli\Videos_short_600ms_horflip\60.single_push_with_tip_of_pencil_short_horflip_short_600ms.mp4	60.single_push_with_tip_of_pencil_short_horflip_short_600ms.mp4	298.0411666227292	298.64949149838594	0.6083248756567627				
352.90771484375	0.2	722755	235	72	2	0	0	41	50	stimuli\Videos_short_600ms\55.touch_top_to_bottom_with_nail_file_short_short_600ms.mp4	55.touch_top_to_bottom_with_nail_file_short_short_600ms.mp4	298.84110955723827	299.449474314225	0.6083647569867026				
353.70751953125	0.2	724393	236	72	2	0	0	42	188	stimuli\Videos_short_600ms_horvertflip\17.repeated_touch_with_rolling_pin_short_horvertflip_short_600ms.mp4	17.repeated_touch_with_rolling_pin_short_horvertflip_short_600ms.mp4	299.6411598194436	300.2494559570832	0.608296137639627				
354.50732421875	0.2	726031	237	72	2	0	1	43	371	stimuli\Targets_short_600ms_horflip\hand-stroke_short_horflip_short_600ms.mp4	hand-stroke_short_horflip_short_600ms.mp4	300.4411707868094	301.0494173660318	0.6082465792223957				
355.3076171875	0.2	727670	238	72	2	0	0	44	260	stimuli\Videos_short_600ms_horvertflip\82.repeated_touch_with_cotton_bud_short_horvertflip_short_600ms.mp4	82.repeated_touch_with_cotton_bud_short_horvertflip_short_600ms.mp4	301.2410811711152	301.8494001818708	0.608319010755622				
356.107421875	0.2	729308	239	72	2	0	0	45	186	stimuli\Videos_short_600ms_horvertflip\15.single_stroke_top_to_bottom_with_a_plastic_whisk_short_horvertflip_short_600ms.mp4	15.single_stroke_top_to_bottom_with_a_plastic_whisk_short_horvertflip_short_600ms.mp4	302.0410458057595	302.64938182472906	0.6083360189695668				
356.9072265625	0.2	730946	240	72	2	0	0	46	295	stimuli\Videos_short_600ms_vertflip\32.single_(long)pinch_with_fingers_short_vertflip_short_600ms.mp4	32.single_(long)pinch_with_fingers_short_vertflip_short_600ms.mp4	302.84107876650614	303.44936903924463	0.6082902727384862				
357.70751953125	0.2	732585	241	72	2	0	1	47	381	stimuli\Targets_short_600ms_vertflip\finger-tap_short_horvertflip_short_600ms.mp4	finger-tap_short_horvertflip_short_600ms.mp4	303.64117066951076	304.2493292752124	0.6081586057016466				
358.50732421875	0.2	734223	242	72	2	0	0	48	282	stimuli\Videos_short_600ms_vertflip\20.single_touch_with_screwdriver_short_vertflip_short_600ms.mp4	20.single_touch_with_screwdriver_short_vertflip_short_600ms.mp4	304.4410109682458	305.04930886535567	0.6082978971098782				
359.30712890625	0.2	735861	243	72	2	0	0	49	129	stimuli\Videos_short_600ms_horflip\45.scratching_with_finger_nails_short_horflip_short_600ms.mp4	45.scratching_with_finger_nails_short_horflip_short_600ms.mp4	305.2410187099158	305.84929197443944	0.608273264523632				
360.107421875	0.2	737500	244	72	2	0	0	50	332	stimuli\Videos_short_600ms_vertflip\66.stroke_top_to_bottom_with_sponge_short_vertflip_short_600ms.mp4	66.stroke_top_to_bottom_with_sponge_short_vertflip_short_600ms.mp4	306.0409777729037	306.64928153491564	0.6083037620119285				
360.9072265625	0.2	739138	245	72	2	0	0	51	324	stimuli\Videos_short_600ms_vertflip\59.single_push_with_long_side_pencil_short_vertflip_short_600ms.mp4	59.single_push_with_long_side_pencil_short_vertflip_short_600ms.mp4	306.84096205496826	307.4492637642643	0.608301709296029				
361.70703125	0.2	740776	246	72	2	0	0	52	86	stimuli\Videos_short_600ms\88.repeated_stroke_with_plastic_brush_short_short_600ms.mp4	88.repeated_stroke_with_plastic_brush_short_short_600ms.mp4	307.6409434045818	308.24934892263263	0.6084055180508585				
362.50732421875	0.2	742415	247	72	2	0	0	53	270	stimuli\Videos_short_600ms_vertflip\1.repeated_touch_with_finger_fast_short_vertflip_short_600ms.mp4	1.repeated_touch_with_finger_fast_short_vertflip_short_600ms.mp4	308.4409268069103	309.04926781104587	0.6083410041355819				
363.30712890625	0.2	744053	248	72	2	0	0	54	310	stimuli\Videos_short_600ms_vertflip\46.scratching_top_to_bottom_with_finger_nails_short_vertflip_short_600ms.mp4	46.scratching_top_to_bottom_with_finger_nails_short_vertflip_short_600ms.mp4	309.2409096227493	309.84930575695853	0.6083961342092152				
364.10693359375	0.2	745691	249	72	2	0	0	55	163	stimuli\Videos_short_600ms_horflip\76.tickle_with_fingers_from_top_to_bottom_short_horflip_short_600ms.mp4	76.tickle_with_fingers_from_top_to_bottom_short_horflip_short_600ms.mp4	310.04089185209796	310.6493126188925	0.608420766794552				
364.9072265625	0.2	747330	250	72	2	0	0	56	104	stimuli\Videos_short_600ms_horflip\22.single_touch_with_metal_chopstick_short_horflip_short_600ms.mp4	22.single_touch_with_metal_chopstick_short_horflip_short_600ms.mp4	310.84087848012314	311.4492150855822	0.6083366054590442				
365.70703125	0.2	748968	251	72	2	0	0	57	18	stimuli\Videos_short_600ms\26.single_touch_with_a_blunt_syringe_short_short_600ms.mp4	26.single_touch_with_a_blunt_syringe_short_short_600ms.mp4	311.6409088016626	312.2491976081765	0.6082888065138832				
366.50732421875	0.2	750607	252	72	2	0	0	58	269	stimuli\Videos_short_600ms_horvertflip\90.repeated_touch_with_sponge_short_horvertflip_short_600ms.mp4	90.repeated_touch_with_sponge_short_horvertflip_short_600ms.mp4	312.4409291528709	313.04918276997523	0.6082536171043103				
367.30712890625	0.2	752245	253	72	2	0	0	59	23	stimuli\Videos_short_600ms\30.finger_pulling_back_another_finger_short_short_600ms.mp4	30.finger_pulling_back_another_finger_short_short_600ms.mp4	313.24082722088406	313.84916822501964	0.6083410041355819				
368.10693359375	0.2	753883	254	72	2	0	0	60	182	stimuli\Videos_short_600ms_horvertflip\11.single_touch_with_lighter_short_horvertflip_short_600ms.mp4	11.single_touch_with_lighter_short_horvertflip_short_600ms.mp4	314.04079038930377	314.64915221383944	0.6083618245356774				
368.9072265625	0.2	755522	255	72	2	0	0	61	189	stimuli\Videos_short_600ms_horvertflip\18.single_stroke_from_top_to_bottom_with_rolling_pin_short_horvertflip_short_600ms.mp4	18.single_stroke_from_top_to_bottom_with_rolling_pin_short_horvertflip_short_600ms.mp4	314.8407960782579	315.44913708239346	0.6083410041355819				
369.70703125	0.2	757160	256	72	2	0	0	62	35	stimuli\Videos_short_600ms\41.injection_with_blunt_syringe_short_short_600ms.mp4	41.injection_with_blunt_syringe_short_short_600ms.mp4	315.6407621791277	316.24909731836215	0.6083351392344412				
370.5068359375	0.2	758798	257	72	2	0	0	63	110	stimuli\Videos_short_600ms_horflip\28.single_injection_with_sharp_needle_short_horflip_short_600ms.mp4	28.single_injection_with_sharp_needle_short_horflip_short_600ms.mp4	316.44075907072965	317.04907866797566	0.6083195972460089				
371.30712890625	0.2	760437	258	72	2	0	0	64	6	stimuli\Videos_short_600ms\15.single_stroke_top_to_bottom_with_a_plastic_whisk_short_short_600ms.mp4	15.single_stroke_top_to_bottom_with_a_plastic_whisk_short_short_600ms.mp4	317.24074657848996	317.84906060407957	0.6083140255896069				
372.10693359375	0.2	762075	259	72	2	0	0	65	263	stimuli\Videos_short_600ms_horvertflip\85.touch_top_to_bottom_with_fabric_short_horvertflip_short_600ms.mp4	85.touch_top_to_bottom_with_fabric_short_horvertflip_short_600ms.mp4	318.0407522674441	318.6490662930337	0.6083140255896069				
372.90673828125	0.2	763713	260	72	2	0	0	66	143	stimuli\Videos_short_600ms_horflip\58.single_slap_with_pencil_short_horflip_short_600ms.mp4	58.single_slap_with_pencil_short_horflip_short_600ms.mp4	318.8408274554804	319.44901040052355	0.6081829450431542				
373.70703125	0.2	765352	261	72	2	0	0	67	325	stimuli\Videos_short_600ms_vertflip\6.single_touch_with_flat_hand_short_vertflip_short_600ms.mp4	6.single_touch_with_flat_hand_short_vertflip_short_600ms.mp4	319.6408155497302	320.24899087040103	0.6081753206708527				
374.5068359375	0.2	766990	262	72	2	0	0	68	253	stimuli\Videos_short_600ms_horvertflip\76.tickle_with_fingers_from_top_to_bottom_short_horvertflip_short_600ms.mp4	76.tickle_with_fingers_from_top_to_bottom_short_horvertflip_short_600ms.mp4	320.44079367364793	321.04900564995296	0.6082119763050287				
375.306640625	0.2	768628	263	72	2	0	0	69	283	stimuli\Videos_short_600ms_vertflip\21.repeated_touch_with_metal_chopstick_short_vertflip_short_600ms.mp4	21.repeated_touch_with_metal_chopstick_short_vertflip_short_600ms.mp4	321.240787339555	321.84895562234396	0.6081682827889381				
376.10693359375	0.2	770267	264	72	2	0	0	70	85	stimuli\Videos_short_600ms\87.single_stroke_top_to_bottom_with_plastic_brush_short_short_600ms.mp4	87.single_stroke_top_to_bottom_with_plastic_brush_short_short_600ms.mp4	322.0407440565823	322.6490384347517	0.6082943781693757				
376.90673828125	0.2	771905	265	72	2	0	0	71	73	stimuli\Videos_short_600ms\76.tickle_with_fingers_from_top_to_bottom_short_short_600ms.mp4	76.tickle_with_fingers_from_top_to_bottom_short_short_600ms.mp4	322.84060400273665	323.4490092275428	0.6084052248061198				
377.70654296875	0.2	773543	266	72	2	0	0	72	30	stimuli\Videos_short_600ms\37.single_stab_with_nail_file_short_short_600ms.mp4	37.single_stab_with_nail_file_short_short_600ms.mp4	323.6406000146035	324.24890553608566	0.6083055214821798				
378.5068359375	0.2	775182	267	72	2	0	0	73	262	stimuli\Videos_short_600ms_horvertflip\84.single_touch_with_cotton_bud_short_horvertflip_short_600ms.mp4	84.single_touch_with_cotton_bud_short_horvertflip_short_600ms.mp4	324.4405848831584	325.0489264737844	0.6083415906259688				
379.306640625	0.2	776820	268	72	2	0	0	74	179	stimuli\Videos_short_600ms_horflip\90.repeated_touch_with_sponge_short_horflip_short_600ms.mp4	90.repeated_touch_with_sponge_short_horflip_short_600ms.mp4	325.2405662327719	325.8490397836795	0.6084735509075472				
380.1064453125	0.2	778458	269	72	2	0	1	75	369	stimuli\Targets_short_600ms_horflip\finger-tap_short_horflip_short_600ms.mp4	finger-tap_short_horflip_short_600ms.mp4	326.0405499283461	326.649003245343	0.6084533169969291				
380.90673828125	0.2	780097	270	72	2	0	0	76	11	stimuli\Videos_short_600ms\2.single_touch_with_finger_short_short_600ms.mp4	2.single_touch_with_finger_short_short_600ms.mp4	326.840533917165	327.44898899363307	0.6084550764680898				
381.70654296875	0.2	781735	271	72	2	0	0	77	38	stimuli\Videos_short_600ms\44.pushing_top_to_bottom_with_finger_short_short_600ms.mp4	44.pushing_top_to_bottom_with_finger_short_short_600ms.mp4	327.640513800553	328.2489515755624	0.6084377750094063				
382.50634765625	0.2	783373	272	72	2	0	0	78	193	stimuli\Videos_short_600ms_horvertflip\21.repeated_touch_with_metal_chopstick_short_horvertflip_short_600ms.mp4	21.repeated_touch_with_metal_chopstick_short_horvertflip_short_600ms.mp4	328.4405840034233	329.04884436516386	0.6082603617405766				
383.306640625	0.2	785012	273	72	2	0	0	79	338	stimuli\Videos_short_600ms_vertflip\71.single_stroke_with_finger_top_to_bottom_short_vertflip_short_600ms.mp4	71.single_stroke_with_finger_top_to_bottom_short_vertflip_short_600ms.mp4	329.24055802191015	329.8488251282879	0.6082671063777525				
384.1064453125	0.2	786650	274	72	2	0	0	80	29	stimuli\Videos_short_600ms\36.single_slap_with_full_hand_short_short_600ms.mp4	36.single_slap_with_full_hand_short_short_600ms.mp4	330.0404402546892	330.64880823737167	0.6083679826824664				
384.90625	0.2	788288	275	72	2	0	0	81	90	stimuli\Videos_short_600ms_horflip\1.repeated_touch_with_finger_fast_short_horflip_short_600ms.mp4	1.repeated_touch_with_finger_fast_short_horflip_short_600ms.mp4	330.8404521017901	331.44879134645544	0.6083392446653306				
385.70654296875	0.2	789927	276	72	2	0	0	82	308	stimuli\Videos_short_600ms_vertflip\44.pushing_top_to_bottom_with_finger_short_vertflip_short_600ms.mp4	44.pushing_top_to_bottom_with_finger_short_vertflip_short_600ms.mp4	331.64061379712166	332.24877680149984	0.6081630043781843				
386.50634765625	0.2	791565	277	72	2	0	0	83	204	stimuli\Videos_short_600ms_horvertflip\31.hand_grabbing_wrist_short_horvertflip_short_600ms.mp4	31.hand_grabbing_wrist_short_horvertflip_short_600ms.mp4	332.4405669952084	333.0487387969388	0.6081718017303501				
387.306640625	0.2	793204	278	72	2	0	0	84	160	stimuli\Videos_short_600ms_horflip\73.single_stroke_with_flat_hand_short_horflip_short_600ms.mp4	73.single_stroke_with_flat_hand_short_horflip_short_600ms.mp4	333.24044600229263	333.84871838708204	0.6082723847894158				
388.1064453125	0.2	794842	279	72	2	0	0	85	103	stimuli\Videos_short_600ms_horflip\21.repeated_touch_with_metal_chopstick_short_horflip_short_600ms.mp4	21.repeated_touch_with_metal_chopstick_short_horflip_short_600ms.mp4	334.04051649840767	334.64870882729247	0.6081923288847975				
388.90625	0.2	796480	280	72	2	0	0	86	200	stimuli\Videos_short_600ms_horvertflip\28.single_injection_with_sharp_needle_short_horvertflip_short_600ms.mp4	28.single_injection_with_sharp_needle_short_horvertflip_short_600ms.mp4	334.8403740986014	335.4486678902804	0.6082937916789888				
389.70654296875	0.2	798119	281	72	2	0	0	87	344	stimuli\Videos_short_600ms_vertflip\77.tapping_with_all_fingers_short_vertflip_short_600ms.mp4	77.tapping_with_all_fingers_short_vertflip_short_600ms.mp4	335.6403545684798	336.2487181524857	0.6083635840059287				
390.50634765625	0.2	799757	282	72	2	0	0	88	115	stimuli\Videos_short_600ms_horflip\32.single_(long)pinch_with_fingers_short_horflip_short_600ms.mp4	32.single_(long)pinch_with_fingers_short_horflip_short_600ms.mp4	336.4403323991528	337.0486505301724	0.6083181310195869				
391.30615234375	0.2	801395	283	72	2	0	0	89	342	stimuli\Videos_short_600ms_vertflip\75.(long)stroke_with_fingers_all_over_the_hand_short_vertflip_short_600ms.mp4	75.(long)stroke_with_fingers_all_over_the_hand_short_vertflip_short_600ms.mp4	337.2403199069122	337.8486436095891	0.6083237026768984				
392.1064453125	0.2	803034	284	72	2	0	0	90	275	stimuli\Videos_short_600ms_vertflip\14.repeated_touch_with_pencil_short_vertflip_short_600ms.mp4	14.repeated_touch_with_pencil_short_vertflip_short_600ms.mp4	338.0404062382613	338.6486199740366	0.6082137357752799				
392.90625	0.2	804672	285	72	2	0	0	91	251	stimuli\Videos_short_600ms_horvertflip\74.fingers_walking_from_top_to_bottom_short_horvertflip_short_600ms.mp4	74.fingers_walking_from_top_to_bottom_short_horvertflip_short_600ms.mp4	338.84043362735065	339.4486734619368	0.6082398345861293				
393.7060546875	0.2	806310	286	72	2	0	0	92	241	stimuli\Videos_short_600ms_horvertflip\65.stroke_top_to_bottom_with_stanley_knife_short_horvertflip_short_600ms.mp4	65.stroke_top_to_bottom_with_stanley_knife_short_horvertflip_short_600ms.mp4	339.6403715766937	340.2486298857193	0.6082583090255866				
394.50634765625	0.2	807949	287	72	2	0	0	93	168	stimuli\Videos_short_600ms_horflip\80.stroke_with_sharp_stick_all_over_the_hand_short_horflip_short_600ms.mp4	80.stroke_with_sharp_stick_all_over_the_hand_short_horflip_short_600ms.mp4	340.44024442563114	341.0486499436829	0.608405518051768				
395.30615234375	0.2	809587	288	72	2	0	0	94	304	stimuli\Videos_short_600ms_vertflip\40.repeated_push_with_finger_short_vertflip_short_600ms.mp4	40.repeated_push_with_finger_short_vertflip_short_600ms.mp4	341.24023046716593	341.8485755767324	0.6083451095664714	5.0	5.0	3.82549865591136	1.0
430.23828125	0.2	881128	289	72	3	0	0	0	196	stimuli\Videos_short_600ms_horvertflip\24.single_stroke_top_to_bottom_with_a_spoon_short_horvertflip_short_600ms.mp4	24.single_stroke_top_to_bottom_with_a_spoon_short_horvertflip_short_600ms.mp4	376.17284304321583	376.7811646931768	0.6083216499609989				
431.0380859375	0.2	882766	290	72	3	0	0	1	257	stimuli\Videos_short_600ms_horvertflip\8.single_touch_with_hairbrush_short_horvertflip_short_600ms.mp4	8.single_touch_with_hairbrush_short_horvertflip_short_600ms.mp4	376.9728023994485	377.5811460427903	0.6083436433418683				
431.83837890625	0.2	884405	291	72	3	0	0	2	205	stimuli\Videos_short_600ms_horvertflip\32.single_(long)pinch_with_fingers_short_horvertflip_short_600ms.mp4	32.single_(long)pinch_with_fingers_short_horvertflip_short_600ms.mp4	377.7727863882674	378.3811317910795	0.6083454028121196				
432.63818359375	0.2	886043	292	72	3	0	0	3	89	stimuli\Videos_short_600ms\90.repeated_touch_with_sponge_short_short_600ms.mp4	90.repeated_touch_with_sponge_short_short_600ms.mp4	378.57276891086167	379.18111343393775	0.6083445230760844				
433.43798828125	0.2	887681	293	72	3	0	0	4	261	stimuli\Videos_short_600ms_horvertflip\83.single_stroke_top_to_bottom_with_cotton_bud_short_horvertflip_short_600ms.mp4	83.single_stroke_top_to_bottom_with_cotton_bud_short_horvertflip_short_600ms.mp4	379.3727608172976	379.9810991822278	0.608338364930205				
434.23828125	0.2	889320	294	72	3	0	0	5	285	stimuli\Videos_short_600ms_vertflip\23.single_push_with_a_spoon_short_vertflip_short_600ms.mp4	23.single_push_with_a_spoon_short_vertflip_short_600ms.mp4	380.1728031618859	380.7810770128999	0.6082738510140189				
435.0380859375	0.2	890958	295	72	3	0	0	6	106	stimuli\Videos_short_600ms_horflip\24.single_stroke_top_to_bottom_with_a_spoon_short_horflip_short_600ms.mp4	24.single_stroke_top_to_bottom_with_a_spoon_short_horflip_short_600ms.mp4	380.9728047454091	381.58105924224947	0.6082544968403454				
435.83837890625	0.2	892597	296	72	3	0	0	7	19	stimuli\Videos_short_600ms\27.single_push_with_a_plastic_whisk_short_short_600ms.mp4	27.single_push_with_a_plastic_whisk_short_short_600ms.mp4	381.77270193368713	382.3810423513333	0.6083404176461045				
436.63818359375	0.2	894235	297	72	3	0	0	8	165	stimuli\Videos_short_600ms_horflip\78.single_stroke_top_to_bottom_with_soft_brush_short_horflip_short_600ms.mp4	78.single_stroke_top_to_bottom_with_soft_brush_short_horflip_short_600ms.mp4	382.5727976488788	383.1810263401522	0.6082286912733252				
437.43798828125	0.2	895873	298	72	3	0	0	9	222	stimuli\Videos_short_600ms_horvertflip\48.single_slap_with_hand_short_horvertflip_short_600ms.mp4	48.single_slap_with_hand_short_horvertflip_short_600ms.mp4	383.37266932483544	383.9810115019518	0.6083421771163557				
438.23828125	0.2	897512	299	72	3	0	0	10	279	stimuli\Videos_short_600ms_vertflip\18.single_stroke_from_top_to_bottom_with_rolling_pin_short_vertflip_short_600ms.mp4	18.single_stroke_from_top_to_bottom_with_rolling_pin_short_vertflip_short_600ms.mp4	384.1732198631307	384.7809822947429	0.6077624316121728				
439.0380859375	0.2	899150	300	72	3	0	0	11	100	stimuli\Videos_short_600ms_horflip\19.single_touch_with_rolling_pin_short_horflip_short_600ms.mp4	19.single_touch_with_rolling_pin_short_horflip_short_600ms.mp4	384.9728798161468	385.5809539672691	0.6080741511223096				
439.837890625	0.2	900788	301	72	3	0	0	12	301	stimuli\Videos_short_600ms_vertflip\38.double_slap_with_pencil_short_vertflip_short_600ms.mp4	38.double_slap_with_pencil_short_vertflip_short_600ms.mp4	385.77270955805943	386.38091244376665	0.6082028857072146				
440.63818359375	0.2	902427	302	72	3	0	0	13	226	stimuli\Videos_short_600ms_horvertflip\51.repeated_touch_with_hammer_short_horvertflip_short_600ms.mp4	51.repeated_touch_with_hammer_short_horvertflip_short_600ms.mp4	386.5725903246139	387.1808955528504	0.6083052282365315				
441.43798828125	0.2	904065	303	72	3	0	0	14	337	stimuli\Videos_short_600ms_vertflip\70.(long)stroke_with_finger_all_over_the_hand_short_vertflip_short_600ms.mp4	70.(long)stroke_with_finger_all_over_the_hand_short_vertflip_short_600ms.mp4	387.37258164455943	387.9808771957096	0.6082955511501495				
442.23779296875	0.2	905703	304	72	3	0	0	15	293	stimuli\Videos_short_600ms_vertflip\30.finger_pulling_back_another_finger_short_vertflip_short_600ms.mp4	30.finger_pulling_back_another_finger_short_vertflip_short_600ms.mp4	388.17254569271427	388.7809101564553	0.6083644637410544				
443.0380859375	0.2	907342	305	72	3	0	0	16	242	stimuli\Videos_short_600ms_horvertflip\66.stroke_top_to_bottom_with_sponge_short_horvertflip_short_600ms.mp4	66.stroke_top_to_bottom_with_sponge_short_horvertflip_short_600ms.mp4	388.9726695594318	389.580895318255	0.6082257588232096				
443.837890625	0.2	908980	306	72	3	0	1	17	376	stimuli\Targets_short_600ms_horvertflip\hand-pinch_short_vertflip_short_600ms.mp4	hand-pinch_short_vertflip_short_600ms.mp4	389.7725280393606	390.38087432190787	0.6083462825472452				
444.6376953125	0.2	910618	307	72	3	0	0	18	306	stimuli\Videos_short_600ms_vertflip\42.single_slap_with_plastic_whisk_short_vertflip_short_600ms.mp4	42.single_slap_with_plastic_whisk_short_vertflip_short_600ms.mp4	390.57251290791464	391.1808668148342	0.6083539069195467				
445.43798828125	0.2	912257	308	72	3	0	0	19	346	stimuli\Videos_short_600ms_vertflip\79.long_with_soft_brush_all_over_the_hand_short_vertflip_short_600ms.mp4	79.long_with_soft_brush_all_over_the_hand_short_vertflip_short_600ms.mp4	391.37249982918456	391.9808387806051	0.6083389514205919				
446.23779296875	0.2	913895	309	72	3	0	0	20	277	stimuli\Videos_short_600ms_vertflip\16.repeated_touch_with_plastic_brush_short_vertflip_short_600ms.mp4	16.repeated_touch_with_plastic_brush_short_vertflip_short_600ms.mp4	392.17247883283744	392.7808215964442	0.6083427636067427				
447.03759765625	0.2	915533	310	72	3	0	0	21	24	stimuli\Videos_short_600ms\31.hand_grabbing_wrist_short_short_600ms.mp4	31.hand_grabbing_wrist_short_short_600ms.mp4	392.972461062187	393.5808023595673	0.6083412973803206				
447.837890625	0.2	917172	311	72	3	0	0	22	79	stimuli\Videos_short_600ms\81.single_stroke_top_to_bottom_with_cotton_pad_short_short_600ms.mp4	81.single_stroke_top_to_bottom_with_cotton_pad_short_short_600ms.mp4	393.772588447845	394.38078664163186	0.6081981937868477				
448.6376953125	0.2	918810	312	72	3	0	0	23	290	stimuli\Videos_short_600ms_vertflip\28.single_injection_with_sharp_needle_short_vertflip_short_600ms.mp4	28.single_injection_with_sharp_needle_short_vertflip_short_600ms.mp4	394.5725466310978	395.18076945747	0.6082228263721845				
449.4375	0.2	920448	313	72	3	0	0	24	128	stimuli\Videos_short_600ms_horflip\44.pushing_top_to_bottom_with_finger_short_horflip_short_600ms.mp4	44.pushing_top_to_bottom_with_finger_short_horflip_short_600ms.mp4	395.37249015209727	395.98075315304413	0.608263000946863				
450.23779296875	0.2	922087	314	72	3	0	0	25	231	stimuli\Videos_short_600ms_horvertflip\56.repeated_touch_with_nail_file_short_horvertflip_short_600ms.mp4	56.repeated_touch_with_nail_file_short_horvertflip_short_600ms.mp4	396.172455373232	396.7807362621288	0.608280888896843				
451.03759765625	0.2	923725	315	72	3	0	0	26	355	stimuli\Videos_short_600ms_vertflip\87.single_stroke_top_to_bottom_with_plastic_brush_short_vertflip_short_600ms.mp4	87.single_stroke_top_to_bottom_with_plastic_brush_short_vertflip_short_600ms.mp4	396.9723528547556	397.58072259690834	0.6083697421527177				
451.83740234375	0.2	925363	316	72	3	0	0	27	94	stimuli\Videos_short_600ms_horflip\13.single_touch_with_pen_short_horflip_short_600ms.mp4	13.single_touch_with_pen_short_horflip_short_600ms.mp4	397.7723400692703	398.38070453301225	0.6083644637419638				
452.6376953125	0.2	927002	317	72	3	0	0	28	122	stimuli\Videos_short_600ms_horflip\39.single_stab_with_scissors_short_horflip_short_600ms.mp4	39.single_stab_with_scissors_short_horflip_short_600ms.mp4	398.5723261108051	399.18068852183114	0.6083624110260644				
453.4375	0.2	928640	318	72	3	0	0	29	335	stimuli\Videos_short_600ms_vertflip\69.stroke_with_soft_sock_short_vertflip_short_600ms.mp4	69.stroke_with_soft_sock_short_vertflip_short_600ms.mp4	399.3724001258606	399.980667525484	0.6082673996234007				
454.2373046875	0.2	930278	319	72	3	0	0	30	135	stimuli\Videos_short_600ms_horflip\50.single_(long)hard_push_with_thumb_short_horflip_short_600ms.mp4	50.single_(long)hard_push_with_thumb_short_horflip_short_600ms.mp4	400.17231138990246	400.7806248290017	0.60831343909922				
455.03759765625	0.2	931917	320	72	3	0	0	31	281	stimuli\Videos_short_600ms_vertflip\2.single_touch_with_finger_short_vertflip_short_600ms.mp4	2.single_touch_with_finger_short_vertflip_short_600ms.mp4	400.9723763143611	401.5805868244406	0.6082105100795161				
455.83740234375	0.2	933555	321	72	3	0	0	32	111	stimuli\Videos_short_600ms_horflip\29.single_pinch_with_tweezers_short_horflip_short_600ms.mp4	29.single_pinch_with_tweezers_short_horflip_short_600ms.mp4	401.7723764316597	402.380572279485	0.6081958478253				
456.6376953125	0.2	935194	322	72	3	0	0	33	299	stimuli\Videos_short_600ms_vertflip\36.single_slap_with_full_hand_short_vertflip_short_600ms.mp4	36.single_slap_with_full_hand_short_vertflip_short_600ms.mp4	402.5722929741123	403.1805756224785	0.6082826483661847				
457.4375	0.2	936832	323	72	3	0	0	34	116	stimuli\Videos_short_600ms_horflip\33.scratch_top_to_bottom_with_scissors_short_horflip_short_600ms.mp4	33.scratch_top_to_bottom_with_scissors_short_horflip_short_600ms.mp4	403.3723045279676	403.9805904020304	0.6082858740628581				
458.2373046875	0.2	938470	324	72	3	0	0	35	327	stimuli\Videos_short_600ms_vertflip\61.single_hit_with_rolling_pin_short_vertflip_short_600ms.mp4	61.single_hit_with_rolling_pin_short_vertflip_short_600ms.mp4	404.1722196041955	404.7805280581288	0.6083084539332049				
459.03759765625	0.2	940109	325	72	3	0	0	36	140	stimuli\Videos_short_600ms_horflip\55.touch_top_to_bottom_with_nail_file_short_horflip_short_600ms.mp4	55.touch_top_to_bottom_with_nail_file_short_horflip_short_600ms.mp4	404.9722053524856	405.58055310125746	0.6083477487718483				
459.83740234375	0.2	941747	326	72	3	0	0	37	153	stimuli\Videos_short_600ms_horflip\67.single_touch_with_sponge_short_horflip_short_600ms.mp4	67.single_touch_with_sponge_short_horflip_short_600ms.mp4	405.7722125076653	406.38054324822315	0.6083307405579035				
460.63720703125	0.2	943385	327	72	3	0	0	38	124	stimuli\Videos_short_600ms_horflip\40.repeated_push_with_finger_short_horflip_short_600ms.mp4	40.repeated_push_with_finger_short_horflip_short_600ms.mp4	406.5721686382022	407.1805131612791	0.6083445230769939				
461.4375	0.2	945024	328	72	3	0	0	39	67	stimuli\Videos_short_600ms\70.(long)stroke_with_finger_all_over_the_hand_short_short_600ms.mp4	70.(long)stroke_with_finger_all_over_the_hand_short_short_600ms.mp4	407.3721514540411	407.9804956838725	0.6083442298313457				
462.2373046875	0.2	946662	329	72	3	0	0	40	98	stimuli\Videos_short_600ms_horflip\17.repeated_touch_with_rolling_pin_short_horflip_short_600ms.mp4	17.repeated_touch_with_rolling_pin_short_horflip_short_600ms.mp4	408.17222928128285	408.7804837781232	0.6082544968403454				
463.037109375	0.2	948300	330	72	3	0	0	41	62	stimuli\Videos_short_600ms\66.stroke_top_to_bottom_with_sponge_short_short_600ms.mp4	66.stroke_top_to_bottom_with_sponge_short_short_600ms.mp4	408.9720836557808	409.5804627817761	0.6083791259952704				
463.83740234375	0.2	949939	331	72	3	0	0	42	177	stimuli\Videos_short_600ms_horflip\89.single_touch_with_plastic_brush_short_horflip_short_600ms.mp4	89.single_touch_with_plastic_brush_short_horflip_short_600ms.mp4	409.7721303990447	410.38044589085985	0.6083154918151195				
464.63720703125	0.2	951577	332	72	3	0	0	43	208	stimuli\Videos_short_600ms_horvertflip\35.single_punch_with_hand_short_horvertflip_short_600ms.mp4	35.single_punch_with_hand_short_horvertflip_short_600ms.mp4	410.57208682282726	411.1804301729235	0.6083433500962201				
465.43701171875	0.2	953215	333	72	3	0	0	44	169	stimuli\Videos_short_600ms_horflip\81.single_stroke_top_to_bottom_with_cotton_pad_short_horflip_short_600ms.mp4	81.single_stroke_top_to_bottom_with_cotton_pad_short_horflip_short_600ms.mp4	411.3720772630386	411.98041181578265	0.6083345527440542				
466.2373046875	0.2	954854	334	72	3	0	0	45	274	stimuli\Videos_short_600ms_vertflip\13.single_touch_with_pen_short_vertflip_short_600ms.mp4	13.single_touch_with_pen_short_vertflip_short_600ms.mp4	412.172029874635	412.7803925789058	0.6083627042708031				
467.037109375	0.2	956492	335	72	3	0	0	46	255	stimuli\Videos_short_600ms_horvertflip\78.single_stroke_top_to_bottom_with_soft_brush_short_horvertflip_short_600ms.mp4	78.single_stroke_top_to_bottom_with_soft_brush_short_horvertflip_short_600ms.mp4	412.9720335108741	413.5803780339502	0.6083445230760844				
467.8369140625	0.2	958130	336	72	3	0	1	47	372	stimuli\Targets_short_600ms_horvertflip\brush-stroke_short_vertflip_short_600ms.mp4	brush-stroke_short_vertflip_short_600ms.mp4	413.77206588512945	414.3803602632988	0.6082943781693757				
468.63720703125	0.2	959769	337	72	3	0	0	48	266	stimuli\Videos_short_600ms_horvertflip\88.repeated_stroke_with_plastic_brush_short_horvertflip_short_600ms.mp4	88.repeated_stroke_with_plastic_brush_short_horvertflip_short_600ms.mp4	414.5721296366082	415.18032431145366	0.6081946748454357				
469.43701171875	0.2	961407	338	72	3	0	0	49	216	stimuli\Videos_short_600ms_horvertflip\42.single_slap_with_plastic_whisk_short_horvertflip_short_600ms.mp4	42.single_slap_with_plastic_whisk_short_horvertflip_short_600ms.mp4	415.3719895827626	415.9803112327236	0.6083216499609989				
470.23681640625	0.2	963045	339	72	3	0	0	50	154	stimuli\Videos_short_600ms_horflip\68.stroke_top_to_bottom_with_shawl_short_horflip_short_600ms.mp4	68.stroke_top_to_bottom_with_shawl_short_horflip_short_600ms.mp4	416.1719694661506	416.7802635510752	0.608294084924637				
471.037109375	0.2	964684	340	72	3	0	0	51	309	stimuli\Videos_short_600ms_vertflip\45.scratching_with_finger_nails_short_vertflip_short_600ms.mp4	45.scratching_with_finger_nails_short_vertflip_short_600ms.mp4	416.9719496427834	417.58028742122315	0.6083377784398181				
471.8369140625	0.2	966322	341	72	3	0	0	52	320	stimuli\Videos_short_600ms_vertflip\55.touch_top_to_bottom_with_nail_file_short_vertflip_short_600ms.mp4	55.touch_top_to_bottom_with_nail_file_short_vertflip_short_600ms.mp4	417.7719641290905	418.3802291827524	0.608265053661853				
472.63671875	0.2	967960	342	72	3	0	0	53	70	stimuli\Videos_short_600ms\73.single_stroke_with_flat_hand_short_short_600ms.mp4	73.single_stroke_with_flat_hand_short_short_600ms.mp4	418.5718894688953	419.18024015011815	0.6083506812228734				
473.43701171875	0.2	969599	343	72	3	0	0	54	254	stimuli\Videos_short_600ms_horvertflip\77.tapping_with_all_fingers_short_horvertflip_short_600ms.mp4	77.tapping_with_all_fingers_short_horvertflip_short_600ms.mp4	419.37196231097096	419.9802203267518	0.6082580157808479				
474.23681640625	0.2	971237	344	72	3	0	0	55	76	stimuli\Videos_short_600ms\79.long_with_soft_brush_all_over_the_hand_short_short_600ms.mp4	79.long_with_soft_brush_all_over_the_hand_short_short_600ms.mp4	420.1719832486688	420.78022836166656	0.6082451129977926				
475.03662109375	0.2	972875	345	72	3	0	0	56	343	stimuli\Videos_short_600ms_vertflip\76.tickle_with_fingers_from_top_to_bottom_short_vertflip_short_600ms.mp4	76.tickle_with_fingers_from_top_to_bottom_short_vertflip_short_600ms.mp4	420.9719426049023	421.58021645591634	0.6082738510140189				
475.8369140625	0.2	974514	346	72	3	0	0	57	209	stimuli\Videos_short_600ms_horvertflip\36.single_slap_with_full_hand_short_horvertflip_short_600ms.mp4	36.single_slap_with_full_hand_short_horvertflip_short_600ms.mp4	421.7718444851016	422.38019340685423	0.6083489217526221				
476.63671875	0.2	976152	347	72	3	0	0	58	240	stimuli\Videos_short_600ms_horvertflip\64.repeated_touch_with_screwdriver_short_horvertflip_short_600ms.mp4	64.repeated_touch_with_screwdriver_short_horvertflip_short_600ms.mp4	422.57201028586405	423.18017475646775	0.6081644706036968				
477.43701171875	0.2	977791	348	72	3	0	0	59	303	stimuli\Videos_short_600ms_vertflip\4.repeated_tap_with_finger_slow_short_vertflip_short_600ms.mp4	4.repeated_tap_with_finger_slow_short_vertflip_short_600ms.mp4	423.3717895896243	423.98015463985575	0.6083650502314413				
478.23681640625	0.2	979429	349	72	3	0	0	60	180	stimuli\Videos_short_600ms_horvertflip\1.repeated_touch_with_finger_fast_short_horvertflip_short_600ms.mp4	1.repeated_touch_with_finger_fast_short_horvertflip_short_600ms.mp4	424.1718181516944	424.78014009490016	0.6083219432057376				
479.03662109375	0.2	981067	350	72	3	0	0	61	302	stimuli\Videos_short_600ms_vertflip\39.single_stab_with_scissors_short_vertflip_short_600ms.mp4	39.single_stab_with_scissors_short_vertflip_short_600ms.mp4	424.9718062459442	425.58012056477855	0.6083143188343456				
479.8369140625	0.2	982706	351	72	3	0	0	62	96	stimuli\Videos_short_600ms_horflip\15.single_stroke_top_to_bottom_with_a_plastic_whisk_short_horflip_short_600ms.mp4	15.single_stroke_top_to_bottom_with_a_plastic_whisk_short_horflip_short_600ms.mp4	425.77197908458857	426.3801033806176	0.6081242960290183				
480.63671875	0.2	984344	352	72	3	0	0	63	234	stimuli\Videos_short_600ms_horvertflip\59.single_push_with_long_side_pencil_short_horvertflip_short_600ms.mp4	59.single_push_with_long_side_pencil_short_horvertflip_short_600ms.mp4	426.57188360399414	427.18008648970135	0.6082028857072146				
481.4365234375	0.2	985982	353	72	3	0	0	64	64	stimuli\Videos_short_600ms\68.stroke_top_to_bottom_with_shawl_short_short_600ms.mp4	68.stroke_top_to_bottom_with_shawl_short_short_600ms.mp4	427.371947355472	427.9800713582554	0.6081240027833701				
482.23681640625	0.2	987621	354	72	3	0	0	65	15	stimuli\Videos_short_600ms\23.single_push_with_a_spoon_short_short_600ms.mp4	23.single_push_with_a_spoon_short_short_600ms.mp4	428.1717776838741	428.7800532943593	0.6082756104851796				
483.03662109375	0.2	989259	355	72	3	0	0	66	349	stimuli\Videos_short_600ms_vertflip\81.single_stroke_top_to_bottom_with_cotton_pad_short_vertflip_short_600ms.mp4	81.single_stroke_top_to_bottom_with_cotton_pad_short_vertflip_short_600ms.mp4	428.9716728194371	429.5800375764238	0.6083647569867026				
483.83642578125	0.2	990897	356	72	3	0	0	67	114	stimuli\Videos_short_600ms_horflip\31.hand_grabbing_wrist_short_horflip_short_600ms.mp4	31.hand_grabbing_wrist_short_horflip_short_600ms.mp4	429.77173158574897	430.379993413716	0.6082618279669987				
484.63671875	0.2	992536	357	72	3	0	0	68	352	stimuli\Videos_short_600ms_vertflip\84.single_touch_with_cotton_bud_short_vertflip_short_600ms.mp4	84.single_touch_with_cotton_bud_short_vertflip_short_600ms.mp4	430.5717809682192	431.1799659659773	0.6081849977581442				
485.4365234375	0.2	994174	358	72	3	0	0	69	34	stimuli\Videos_short_600ms\40.repeated_push_with_finger_short_short_600ms.mp4	40.repeated_push_with_finger_short_short_600ms.mp4	431.3717860706838	431.9799379317483	0.6081518610644707				
486.236328125	0.2	995812	359	72	3	0	0	70	305	stimuli\Videos_short_600ms_vertflip\41.injection_with_blunt_syringe_short_vertflip_short_600ms.mp4	41.injection_with_blunt_syringe_short_vertflip_short_600ms.mp4	432.17162226398705	432.7799204543426	0.6082981903555265				
487.03662109375	0.2	997451	360	72	3	0	0	71	210	stimuli\Videos_short_600ms_horvertflip\37.single_stab_with_nail_file_short_horvertflip_short_600ms.mp4	37.single_stab_with_nail_file_short_horvertflip_short_600ms.mp4	432.9716074257867	433.5799047364062	0.6082973106194913				
487.83642578125	0.2	999089	361	72	3	0	0	72	107	stimuli\Videos_short_600ms_horflip\25.single_touch_with_stanley_knife_short_horflip_short_600ms.mp4	25.single_touch_with_stanley_knife_short_horflip_short_600ms.mp4	433.7715829104982	434.37992508761454	0.6083421771163557				
488.63623046875	0.2	1000727	362	72	3	0	0	73	238	stimuli\Videos_short_600ms_horvertflip\62.touch_top_to_bottom_with_scissors_short_horvertflip_short_600ms.mp4	62.touch_top_to_bottom_with_scissors_short_horvertflip_short_600ms.mp4	434.5715712979936	435.17989558716	0.6083242891663758				
489.4365234375	0.2	1002366	363	72	3	0	0	74	133	stimuli\Videos_short_600ms_horflip\49.repeated_slap_with_hand_short_horflip_short_600ms.mp4	49.repeated_slap_with_hand_short_horflip_short_600ms.mp4	435.37155206111674	435.9799053815459	0.6083533204291598				
490.236328125	0.2	1004004	364	72	3	0	0	75	331	stimuli\Videos_short_600ms_vertflip\65.stroke_top_to_bottom_with_stanley_knife_short_vertflip_short_600ms.mp4	65.stroke_top_to_bottom_with_stanley_knife_short_vertflip_short_600ms.mp4	436.1715633217282	436.7798905433456	0.6083272216174009				
491.0361328125	0.2	1005642	365	72	3	0	0	76	131	stimuli\Videos_short_600ms_horflip\47.(long)scratching_with_finger_nails_short_horflip_short_600ms.mp4	47.(long)scratching_with_finger_nails_short_horflip_short_600ms.mp4	436.9715455510768	437.5798628023613	0.6083172512844612				
491.83642578125	0.2	1007281	366	72	3	0	0	77	91	stimuli\Videos_short_600ms_horflip\10.single_touch_with_knife_short_horflip_short_600ms.mp4	10.single_touch_with_knife_short_horflip_short_600ms.mp4	437.7715031478392	438.3798462046907	0.6083430568514814				
492.63623046875	0.2	1008919	367	72	3	0	0	78	142	stimuli\Videos_short_600ms_horflip\57.single_touch_with_nail_file_short_horflip_short_600ms.mp4	57.single_touch_with_nail_file_short_horflip_short_600ms.mp4	438.571486256923	439.1798304867543	0.6083442298313457				
493.43603515625	0.2	1010557	368	72	3	0	0	79	33	stimuli\Videos_short_600ms\4.repeated_tap_with_finger_slow_short_short_600ms.mp4	4.repeated_tap_with_finger_slow_short_short_600ms.mp4	439.371469072762	439.9798144755742	0.6083454028121196				
494.236328125	0.2	1012196	369	72	3	0	0	80	284	stimuli\Videos_short_600ms_vertflip\22.single_touch_with_metal_chopstick_short_vertflip_short_600ms.mp4	22.single_touch_with_metal_chopstick_short_vertflip_short_600ms.mp4	440.17145188860104	440.77979934412815	0.6083474555271096				
495.0361328125	0.2	1013834	370	72	3	0	0	81	148	stimuli\Videos_short_600ms_horflip\62.touch_top_to_bottom_with_scissors_short_horflip_short_600ms.mp4	62.touch_top_to_bottom_with_scissors_short_horflip_short_600ms.mp4	440.9714127110601	441.5797774680459	0.6083647569857931				
495.8359375	0.2	1015472	371	72	3	0	0	82	55	stimuli\Videos_short_600ms\6.single_touch_with_flat_hand_short_short_600ms.mp4	6.single_touch_with_flat_hand_short_short_600ms.mp4	441.7713996323291	442.3797626298456	0.6083629975164513				
496.63623046875	0.2	1017111	372	72	3	0	0	83	258	stimuli\Videos_short_600ms_horvertflip\80.stroke_with_sharp_stick_all_over_the_hand_short_horvertflip_short_600ms.mp4	80.stroke_with_sharp_stick_all_over_the_hand_short_horvertflip_short_600ms.mp4	442.57137746300214	443.1797454456846	0.6083679826824664				
497.43603515625	0.2	1018749	373	72	3	0	0	84	97	stimuli\Videos_short_600ms_horflip\16.repeated_touch_with_plastic_brush_short_horflip_short_600ms.mp4	16.repeated_touch_with_plastic_brush_short_horflip_short_600ms.mp4	443.37136233155616	443.97972620880773	0.6083638772515769				
