onset	duration	onsetsample	eventnumber	subjectnr	sequencenumber	blocksequencenumber	istarget	presentationnumber	stimnumber	stim	stimname	time_stimon	time_stimoff	stimdur	cresp	resp	rt	correct
27.01416015625	0.2	55325	0	18	0	0	0	0	268	stimuli\Videos_short_600ms_horvertflip\9.single_touch_with_hammer_short_horvertflip_short_600ms.mp4	9.single_touch_with_hammer_short_horvertflip_short_600ms.mp4	116.4608767408181	117.0668536207222	0.6059768799041194				
27.814453125	0.2	56964	1	18	0	0	0	1	357	stimuli\Videos_short_600ms_vertflip\89.single_touch_with_plastic_brush_short_vertflip_short_600ms.mp4	89.single_touch_with_plastic_brush_short_vertflip_short_600ms.mp4	117.26688429424668	117.87516813988532	0.6082838456386526				
28.6142578125	0.2	58602	2	18	0	0	0	2	282	stimuli\Videos_short_600ms_vertflip\20.single_touch_with_screwdriver_short_vertflip_short_600ms.mp4	20.single_touch_with_screwdriver_short_vertflip_short_600ms.mp4	118.06683514622864	118.6751556476088	0.6083205013801489				
29.4140625	0.2	60240	3	18	0	0	0	3	88	stimuli\Videos_short_600ms\9.single_touch_with_hammer_short_short_600ms.mp4	9.single_touch_with_hammer_short_short_600ms.mp4	118.8668182552633	119.47513729041384	0.6083190351505436				
30.21435546875	0.2	61879	4	18	0	0	0	4	272	stimuli\Videos_short_600ms_vertflip\11.single_touch_with_lighter_short_vertflip_short_600ms.mp4	11.single_touch_with_lighter_short_vertflip_short_600ms.mp4	119.66680781570813	120.27513036980965	0.6083225541015054				
31.01416015625	0.2	63517	5	18	0	0	0	5	310	stimuli\Videos_short_600ms_vertflip\46.scratching_top_to_bottom_with_finger_nails_short_vertflip_short_600ms.mp4	46.scratching_top_to_bottom_with_finger_nails_short_vertflip_short_600ms.mp4	120.466787699037	121.07510702743366	0.6083193283966466				
31.81396484375	0.2	65155	6	18	0	0	0	6	240	stimuli\Videos_short_600ms_horvertflip\64.repeated_touch_with_screwdriver_short_horvertflip_short_600ms.mp4	64.repeated_touch_with_screwdriver_short_horvertflip_short_600ms.mp4	121.26675321331597	121.87509512164888	0.6083419083329318				
32.6142578125	0.2	66794	7	18	0	0	0	7	262	stimuli\Videos_short_600ms_horvertflip\84.single_touch_with_cotton_bud_short_horvertflip_short_600ms.mp4	84.single_touch_with_cotton_bud_short_horvertflip_short_600ms.mp4	122.06675802254904	122.67507881717528	0.6083207946262519				
33.4140625	0.2	68432	8	18	0	0	0	8	337	stimuli\Videos_short_600ms_vertflip\70.(long)stroke_with_finger_all_over_the_hand_short_vertflip_short_600ms.mp4	70.(long)stroke_with_finger_all_over_the_hand_short_vertflip_short_600ms.mp4	122.86677514811116	123.47506544516092	0.6082902970497344				
34.2138671875	0.2	70070	9	18	0	0	0	9	117	stimuli\Videos_short_600ms_horflip\34.repeated_punch_with_hand_short_horflip_short_600ms.mp4	34.repeated_punch_with_hand_short_horflip_short_600ms.mp4	123.66674154212753	124.2750350648821	0.6082935227545931				
35.01416015625	0.2	71709	10	18	0	0	0	10	224	stimuli\Videos_short_600ms_horvertflip\5.repeated_tap_with_finger_moving_from_top_to_bottom_short_horvertflip_short_600ms.mp4	5.repeated_tap_with_finger_moving_from_top_to_bottom_short_horvertflip_short_600ms.mp4	124.46672758362138	125.0750143617197	0.6082867780983179				
35.81396484375	0.2	73347	11	18	0	0	1	11	373	stimuli\Targets_short_600ms_horvertflip\chopstick-silver-tap_short_vertflip_short_600ms.mp4	chopstick-silver-tap_short_vertflip_short_600ms.mp4	125.2667027750158	125.87499981672136	0.6082970417055549				
36.61376953125	0.2	74985	12	18	0	0	0	12	263	stimuli\Videos_short_600ms_horvertflip\85.touch_top_to_bottom_with_fabric_short_horvertflip_short_600ms.mp4	85.touch_top_to_bottom_with_fabric_short_horvertflip_short_600ms.mp4	126.06668705703396	126.67499055015014	0.6083034931161819				
37.4140625	0.2	76624	13	18	0	0	0	13	216	stimuli\Videos_short_600ms_horvertflip\42.single_slap_with_plastic_whisk_short_horvertflip_short_600ms.mp4	42.single_slap_with_plastic_whisk_short_horvertflip_short_600ms.mp4	126.86667397826524	127.47497981734888	0.6083058390836413				
38.2138671875	0.2	78262	14	18	0	0	0	14	291	stimuli\Videos_short_600ms_vertflip\29.single_pinch_with_tweezers_short_vertflip_short_600ms.mp4	29.single_pinch_with_tweezers_short_vertflip_short_600ms.mp4	127.6666617792348	128.2749840400902	0.6083222608554024				
39.013671875	0.2	79900	15	18	0	0	0	15	109	stimuli\Videos_short_600ms_horflip\27.single_push_with_a_plastic_whisk_short_horflip_short_600ms.mp4	27.single_push_with_a_plastic_whisk_short_horflip_short_600ms.mp4	128.4666451815151	129.0749765329947	0.6083313514795918				
39.81396484375	0.2	81539	16	18	0	0	0	16	349	stimuli\Videos_short_600ms_vertflip\81.single_stroke_top_to_bottom_with_cotton_pad_short_vertflip_short_600ms.mp4	81.single_stroke_top_to_bottom_with_cotton_pad_short_vertflip_short_600ms.mp4	129.26663122300852	129.87495465684833	0.6083234338398142				
40.61376953125	0.2	83177	17	18	0	0	0	17	339	stimuli\Videos_short_600ms_vertflip\72.(short)stroke_with_finger_all_over_the_hand_short_vertflip_short_600ms.mp4	72.(short)stroke_with_finger_all_over_the_hand_short_vertflip_short_600ms.mp4	130.0666175577485	130.67493717939078	0.6083196216422948				
41.41357421875	0.2	84815	18	18	0	0	0	18	46	stimuli\Videos_short_600ms\51.repeated_touch_with_hammer_short_short_600ms.mp4	51.repeated_touch_with_hammer_short_short_600ms.mp4	130.8666021330123	131.47492292763854	0.6083207946262519				
42.2138671875	0.2	86454	19	18	0	0	0	19	250	stimuli\Videos_short_600ms_horvertflip\73.single_stroke_with_flat_hand_short_horvertflip_short_600ms.mp4	73.single_stroke_with_flat_hand_short_horvertflip_short_600ms.mp4	131.6665861217848	132.2749098488698	0.6083237270850077				
43.013671875	0.2	88092	20	18	0	0	0	20	2	stimuli\Videos_short_600ms\11.single_touch_with_lighter_short_short_600ms.mp4	11.single_touch_with_lighter_short_short_600ms.mp4	132.46657656196749	133.07489471738018	0.6083181554126895				
43.81396484375	0.2	89731	21	18	0	0	0	21	107	stimuli\Videos_short_600ms_horflip\25.single_touch_with_stanley_knife_short_horflip_short_600ms.mp4	25.single_touch_with_stanley_knife_short_horflip_short_600ms.mp4	133.2665599642478	133.87488017238184	0.608320208134046				
44.61376953125	0.2	91369	22	18	0	0	0	22	17	stimuli\Videos_short_600ms\25.single_touch_with_stanley_knife_short_short_600ms.mp4	25.single_touch_with_stanley_knife_short_short_600ms.mp4	134.06652929072334	134.67486240167864	0.6083331109553001				
45.41357421875	0.2	93007	23	18	0	0	0	23	54	stimuli\Videos_short_600ms\59.single_push_with_long_side_pencil_short_short_600ms.mp4	59.single_push_with_long_side_pencil_short_short_600ms.mp4	134.86653322021857	135.4748475634342	0.6083143432156248				
46.2138671875	0.2	94646	24	18	0	0	0	24	244	stimuli\Videos_short_600ms_horvertflip\68.stroke_top_to_bottom_with_shawl_short_horvertflip_short_600ms.mp4	68.stroke_top_to_bottom_with_shawl_short_horvertflip_short_600ms.mp4	135.66649257633298	136.27483507115767	0.6083424948246829				
47.013671875	0.2	96284	25	18	0	0	0	25	11	stimuli\Videos_short_600ms\2.single_touch_with_finger_short_short_600ms.mp4	2.single_touch_with_finger_short_short_600ms.mp4	136.46649709231997	137.07481847343797	0.608321381118003				
47.8134765625	0.2	97922	26	18	0	0	0	26	168	stimuli\Videos_short_600ms_horflip\80.stroke_with_sharp_stick_all_over_the_hand_short_horflip_short_600ms.mp4	80.stroke_with_sharp_stick_all_over_the_hand_short_horflip_short_600ms.mp4	137.26648342705994	137.8748109663425	0.6083275392825271				
48.6220703125	0.2	99578	27	18	0	0	0	27	133	stimuli\Videos_short_600ms_horflip\49.repeated_slap_with_hand_short_horflip_short_600ms.mp4	49.repeated_slap_with_hand_short_horflip_short_600ms.mp4	138.0664982066546	138.67479084967135	0.608292643016739				
49.421875	0.2	101216	28	18	0	0	0	28	247	stimuli\Videos_short_600ms_horvertflip\70.(long)stroke_with_finger_all_over_the_hand_short_horvertflip_short_600ms.mp4	70.(long)stroke_with_finger_all_over_the_hand_short_horvertflip_short_600ms.mp4	138.8747968905377	139.48311240673684	0.6083155161991272				
50.2216796875	0.2	102854	29	18	0	0	0	29	158	stimuli\Videos_short_600ms_horflip\71.single_stroke_with_finger_top_to_bottom_short_horflip_short_600ms.mp4	71.single_stroke_with_finger_top_to_bottom_short_horflip_short_600ms.mp4	139.67477178868603	140.28309903472243	0.6083272460364242				
51.02197265625	0.2	104493	30	18	0	0	0	30	40	stimuli\Videos_short_600ms\46.scratching_top_to_bottom_with_finger_nails_short_short_600ms.mp4	46.scratching_top_to_bottom_with_finger_nails_short_short_600ms.mp4	140.47476545457403	141.08308536946197	0.608319914887943				
51.82177734375	0.2	106131	31	18	0	0	0	31	110	stimuli\Videos_short_600ms_horflip\28.single_injection_with_sharp_needle_short_horflip_short_600ms.mp4	28.single_injection_with_sharp_needle_short_horflip_short_600ms.mp4	141.27474328518156	141.88306877174273	0.6083254865611707				
52.62158203125	0.2	107769	32	18	0	0	0	32	296	stimuli\Videos_short_600ms_vertflip\33.scratch_top_to_bottom_with_scissors_short_vertflip_short_600ms.mp4	33.scratch_top_to_bottom_with_scissors_short_vertflip_short_600ms.mp4	142.0747085062144	142.6830559862201	0.6083474800057047				
53.421875	0.2	109408	33	18	0	0	0	33	351	stimuli\Videos_short_600ms_vertflip\83.single_stroke_top_to_bottom_with_cotton_bud_short_vertflip_short_600ms.mp4	83.single_stroke_top_to_bottom_with_cotton_bud_short_vertflip_short_600ms.mp4	142.8747191803659	143.48304320069747	0.6083240203315654				
54.2216796875	0.2	111046	34	18	0	0	0	34	274	stimuli\Videos_short_600ms_vertflip\13.single_touch_with_pen_short_vertflip_short_600ms.mp4	13.single_touch_with_pen_short_vertflip_short_600ms.mp4	143.67471753818882	144.28300871497595	0.6082911767871337				
55.021484375	0.2	112684	35	18	0	0	0	35	350	stimuli\Videos_short_600ms_vertflip\82.repeated_touch_with_cotton_bud_short_vertflip_short_600ms.mp4	82.repeated_touch_with_cotton_bud_short_vertflip_short_600ms.mp4	144.47469566204245	145.08299475646982	0.6082990944273661				
55.82177734375	0.2	114323	36	18	0	0	0	36	295	stimuli\Videos_short_600ms_vertflip\32.single_(long)pinch_with_fingers_short_vertflip_short_600ms.mp4	32.single_(long)pinch_with_fingers_short_vertflip_short_600ms.mp4	145.27480046813798	145.88297288032345	0.6081724121854677				
56.62158203125	0.2	115961	37	18	0	0	0	37	270	stimuli\Videos_short_600ms_vertflip\1.repeated_touch_with_finger_fast_short_vertflip_short_600ms.mp4	1.repeated_touch_with_finger_fast_short_vertflip_short_600ms.mp4	146.0746615868652	146.68295892181686	0.6082973349516578				
57.421875	0.2	117600	38	18	0	0	0	38	212	stimuli\Videos_short_600ms_horvertflip\39.single_stab_with_scissors_short_horvertflip_short_600ms.mp4	39.single_stab_with_scissors_short_horvertflip_short_600ms.mp4	146.87464557563771	147.48296900947707	0.6083234338393595				
58.2216796875	0.2	119238	39	18	0	0	0	39	114	stimuli\Videos_short_600ms_horflip\31.hand_grabbing_wrist_short_horflip_short_600ms.mp4	31.hand_grabbing_wrist_short_horflip_short_600ms.mp4	147.67463337660683	148.28295593070834	0.6083225541015054				
59.021484375	0.2	120876	40	18	0	0	0	40	156	stimuli\Videos_short_600ms_horflip\7.repeated_touch_with_hairbrush_short_horflip_short_600ms.mp4	7.repeated_touch_with_hairbrush_short_horflip_short_600ms.mp4	148.47461824511674	149.08297246977918	0.6083542246624347				
59.82177734375	0.2	122515	41	18	0	0	0	41	199	stimuli\Videos_short_600ms_horvertflip\27.single_push_with_a_plastic_whisk_short_horvertflip_short_600ms.mp4	27.single_push_with_a_plastic_whisk_short_horvertflip_short_600ms.mp4	149.2746242273338	149.8829341718606	0.608309944526809				
60.62158203125	0.2	124153	42	18	0	0	1	42	365	stimuli\Targets_short_600ms\hand-stroke_short_short_600ms.mp4	hand-stroke_short_short_600ms.mp4	150.07458856862877	150.68291258895988	0.6083240203311107				
61.42138671875	0.2	125791	43	18	0	0	0	43	60	stimuli\Videos_short_600ms\64.repeated_touch_with_screwdriver_short_short_600ms.mp4	64.repeated_touch_with_screwdriver_short_short_600ms.mp4	150.87457373038478	151.48291006704494	0.6083363366601588				
62.2216796875	0.2	127430	44	18	0	0	0	44	111	stimuli\Videos_short_600ms_horflip\29.single_pinch_with_tweezers_short_horflip_short_600ms.mp4	29.single_pinch_with_tweezers_short_horflip_short_600ms.mp4	151.6745615313539	152.28288320571755	0.6083216743636513				
63.021484375	0.2	129068	45	18	0	0	0	45	6	stimuli\Videos_short_600ms\15.single_stroke_top_to_bottom_with_a_plastic_whisk_short_short_600ms.mp4	15.single_stroke_top_to_bottom_with_a_plastic_whisk_short_short_600ms.mp4	152.47454229442064	153.0828677809818	0.6083254865611707				
63.8212890625	0.2	130706	46	18	0	0	1	46	368	stimuli\Targets_short_600ms_horflip\chopstickwood-tap_short_horflip_short_600ms.mp4	chopstickwood-tap_short_horflip_short_600ms.mp4	153.2745280426684	153.88285470221354	0.6083266595451278				
64.62158203125	0.2	132345	47	18	0	0	0	47	234	stimuli\Videos_short_600ms_horvertflip\59.single_push_with_long_side_pencil_short_horvertflip_short_600ms.mp4	59.single_push_with_long_side_pencil_short_horvertflip_short_600ms.mp4	154.07451320442442	154.6828398639691	0.608326659544673				
65.42138671875	0.2	133983	48	18	0	0	0	48	293	stimuli\Videos_short_600ms_vertflip\30.finger_pulling_back_another_finger_short_vertflip_short_600ms.mp4	30.finger_pulling_back_another_finger_short_vertflip_short_600ms.mp4	154.8744813579165	155.48282590546296	0.6083445475464941				
66.22119140625	0.2	135621	49	18	0	0	0	49	206	stimuli\Videos_short_600ms_horvertflip\33.scratch_top_to_bottom_with_scissors_short_horvertflip_short_600ms.mp4	33.scratch_top_to_bottom_with_scissors_short_horvertflip_short_600ms.mp4	155.6744940847898	156.28280960098937	0.6083155161995819				
67.021484375	0.2	137260	50	18	0	0	0	50	186	stimuli\Videos_short_600ms_horvertflip\15.single_stroke_top_to_bottom_with_a_plastic_whisk_short_horvertflip_short_600ms.mp4	15.single_stroke_top_to_bottom_with_a_plastic_whisk_short_horvertflip_short_600ms.mp4	156.47447103565992	157.08279681546674	0.6083257798068189				
67.8212890625	0.2	138898	51	18	0	0	0	51	215	stimuli\Videos_short_600ms_horvertflip\41.injection_with_blunt_syringe_short_horvertflip_short_600ms.mp4	41.injection_with_blunt_syringe_short_horvertflip_short_600ms.mp4	157.27446528803966	157.88278315020625	0.6083178621665866				
68.62109375	0.2	140536	52	18	0	0	0	52	47	stimuli\Videos_short_600ms\52.touch_top_to_bottom_with_hammer_short_short_600ms.mp4	52.touch_top_to_bottom_with_hammer_short_short_600ms.mp4	158.0745237612782	158.68276537950305	0.608241618224838				
69.42138671875	0.2	142175	53	18	0	0	0	53	9	stimuli\Videos_short_600ms\18.single_stroke_from_top_to_bottom_with_rolling_pin_short_short_600ms.mp4	18.single_stroke_from_top_to_bottom_with_rolling_pin_short_short_600ms.mp4	158.8744364912891	159.48275171424257	0.608315222953479				
70.22119140625	0.2	143813	54	18	0	0	0	54	92	stimuli\Videos_short_600ms_horflip\11.single_touch_with_lighter_short_horflip_short_600ms.mp4	11.single_touch_with_lighter_short_horflip_short_600ms.mp4	159.67442693147177	160.28271282983224	0.6082858983604638				
71.02099609375	0.2	145451	55	18	0	0	0	55	294	stimuli\Videos_short_600ms_vertflip\31.hand_grabbing_wrist_short_vertflip_short_600ms.mp4	31.hand_grabbing_wrist_short_vertflip_short_600ms.mp4	160.4744123864739	161.08270913493334	0.6082967484594519				
71.8212890625	0.2	147090	56	18	0	0	0	56	84	stimuli\Videos_short_600ms\86.touch_top_to_bottom_with_hair_brush_short_short_600ms.mp4	86.touch_top_to_bottom_with_hair_brush_short_short_600ms.mp4	161.27439168331102	161.88269576291896	0.6083040796079331				
72.62109375	0.2	148728	57	18	0	0	0	57	205	stimuli\Videos_short_600ms_horvertflip\32.single_(long)pinch_with_fingers_short_horvertflip_short_600ms.mp4	32.single_(long)pinch_with_fingers_short_horvertflip_short_600ms.mp4	162.07437361936172	162.68267447326434	0.6083008539026196				
73.4208984375	0.2	150366	58	18	0	0	0	58	19	stimuli\Videos_short_600ms\27.single_push_with_a_plastic_whisk_short_short_600ms.mp4	27.single_push_with_a_plastic_whisk_short_short_600ms.mp4	162.8743596608556	163.48268749338376	0.6083278325281753				
74.22119140625	0.2	152005	59	18	0	0	0	59	41	stimuli\Videos_short_600ms\47.(long)scratching_with_finger_nails_short_short_600ms.mp4	47.(long)scratching_with_finger_nails_short_short_600ms.mp4	163.6743471685786	164.28270139324104	0.6083542246624347				
75.02099609375	0.2	153643	60	18	0	0	0	60	85	stimuli\Videos_short_600ms\87.single_stroke_top_to_bottom_with_plastic_brush_short_short_600ms.mp4	87.single_stroke_top_to_bottom_with_plastic_brush_short_short_600ms.mp4	164.47433262358072	165.08266309532246	0.6083304717417377				
75.82080078125	0.2	155281	61	18	0	0	0	61	198	stimuli\Videos_short_600ms_horvertflip\26.single_touch_with_a_blunt_syringe_short_horvertflip_short_600ms.mp4	26.single_touch_with_a_blunt_syringe_short_horvertflip_short_600ms.mp4	165.27431514612317	165.8826423921596	0.6083272460364242				
76.62109375	0.2	156920	62	18	0	0	0	62	147	stimuli\Videos_short_600ms_horflip\61.single_hit_with_rolling_pin_short_horflip_short_600ms.mp4	61.single_hit_with_rolling_pin_short_horflip_short_600ms.mp4	166.07430236060054	166.68263165935878	0.6083292987582354				
77.4208984375	0.2	158558	63	18	0	0	0	63	94	stimuli\Videos_short_600ms_horflip\13.single_touch_with_pen_short_horflip_short_600ms.mp4	13.single_touch_with_pen_short_horflip_short_600ms.mp4	166.8742634761902	167.4826094899663	0.6083460137760994				
78.22119140625	0.2	160197	64	18	0	0	0	64	93	stimuli\Videos_short_600ms_horflip\12.repeated_touch_with_nail_file_short_horflip_short_600ms.mp4	12.repeated_touch_with_nail_file_short_horflip_short_600ms.mp4	167.67427385709607	168.28259758418153	0.6083237270854625				
79.02099609375	0.2	161835	65	18	0	0	0	65	105	stimuli\Videos_short_600ms_horflip\23.single_push_with_a_spoon_short_horflip_short_600ms.mp4	23.single_push_with_a_spoon_short_horflip_short_600ms.mp4	168.4742607783278	169.08257981347833	0.6083190351505436				
79.82080078125	0.2	163473	66	18	0	0	0	66	242	stimuli\Videos_short_600ms_horvertflip\66.stroke_top_to_bottom_with_sponge_short_horvertflip_short_600ms.mp4	66.stroke_top_to_bottom_with_sponge_short_horvertflip_short_600ms.mp4	169.2742424211324	169.88256878743096	0.6083263662985701				
80.62109375	0.2	165112	67	18	0	0	0	67	79	stimuli\Videos_short_600ms\81.single_stroke_top_to_bottom_with_cotton_pad_short_short_600ms.mp4	81.single_stroke_top_to_bottom_with_cotton_pad_short_short_600ms.mp4	170.0742305153476	170.68255482892482	0.6083243135772136				
81.4208984375	0.2	166750	68	18	0	0	0	68	39	stimuli\Videos_short_600ms\45.scratching_with_finger_nails_short_short_600ms.mp4	45.scratching_with_finger_nails_short_short_600ms.mp4	170.87421714333323	171.48253559199202	0.6083184486587925				
82.220703125	0.2	168388	69	18	0	0	0	69	352	stimuli\Videos_short_600ms_vertflip\84.single_touch_with_cotton_bud_short_vertflip_short_600ms.mp4	84.single_touch_with_cotton_bud_short_vertflip_short_600ms.mp4	171.67419878613782	172.28252515243685	0.6083263662990248				
83.02099609375	0.2	170027	70	18	0	0	0	70	134	stimuli\Videos_short_600ms_horflip\5.repeated_tap_with_finger_moving_from_top_to_bottom_short_horflip_short_600ms.mp4	5.repeated_tap_with_finger_moving_from_top_to_bottom_short_horflip_short_600ms.mp4	172.474188053337	173.08251266016032	0.6083246068233166				
83.82080078125	0.2	171665	71	18	0	0	0	71	57	stimuli\Videos_short_600ms\61.single_hit_with_rolling_pin_short_short_600ms.mp4	61.single_hit_with_rolling_pin_short_short_600ms.mp4	173.27414887568057	173.88249811516198	0.608349239481413				
84.62060546875	0.2	173303	72	18	0	0	0	72	257	stimuli\Videos_short_600ms_horvertflip\8.single_touch_with_hairbrush_short_horvertflip_short_600ms.mp4	8.single_touch_with_hairbrush_short_horvertflip_short_600ms.mp4	174.07416072281603	174.68247946472093	0.6083187419048954				
85.4208984375	0.2	174942	73	18	0	0	0	73	141	stimuli\Videos_short_600ms_horflip\56.repeated_touch_with_nail_file_short_horflip_short_600ms.mp4	56.repeated_touch_with_nail_file_short_horflip_short_600ms.mp4	174.8741479372934	175.482468438674	0.6083205013806037				
86.220703125	0.2	176580	74	18	0	0	0	74	68	stimuli\Videos_short_600ms\71.single_stroke_with_finger_top_to_bottom_short_short_600ms.mp4	71.single_stroke_with_finger_top_to_bottom_short_short_600ms.mp4	175.6741401369518	176.28243571242774	0.6082955754759496				
87.0205078125	0.2	178218	75	18	0	0	0	75	358	stimuli\Videos_short_600ms_vertflip\9.single_touch_with_hammer_short_vertflip_short_600ms.mp4	9.single_touch_with_hammer_short_vertflip_short_600ms.mp4	176.47411767431367	177.08241442277358	0.6082967484599067				
87.82080078125	0.2	179857	76	18	0	0	0	76	271	stimuli\Videos_short_600ms_vertflip\10.single_touch_with_knife_short_vertflip_short_600ms.mp4	10.single_touch_with_knife_short_vertflip_short_600ms.mp4	177.27410371580754	177.8824250969251	0.6083213811175483				
88.62060546875	0.2	181495	77	18	0	0	0	77	131	stimuli\Videos_short_600ms_horflip\47.(long)scratching_with_finger_nails_short_horflip_short_600ms.mp4	47.(long)scratching_with_finger_nails_short_horflip_short_600ms.mp4	178.07408858431745	178.68240673973014	0.6083181554126895				
89.42041015625	0.2	183133	78	18	0	0	0	78	101	stimuli\Videos_short_600ms_horflip\2.single_touch_with_finger_short_horflip_short_600ms.mp4	2.single_touch_with_finger_short_horflip_short_600ms.mp4	178.87407315958126	179.48239688666672	0.6083237270854625				
90.220703125	0.2	184772	79	18	0	0	0	79	192	stimuli\Videos_short_600ms_horvertflip\20.single_touch_with_screwdriver_short_horvertflip_short_600ms.mp4	20.single_touch_with_screwdriver_short_horvertflip_short_600ms.mp4	179.67405832133727	180.2823873268494	0.6083290055121324				
91.0205078125	0.2	186410	80	18	0	0	0	80	319	stimuli\Videos_short_600ms_vertflip\54.repeated_touch_with_knife_short_vertflip_short_600ms.mp4	54.repeated_touch_with_knife_short_vertflip_short_600ms.mp4	180.47401914368083	181.08237395483505	0.6083548111541859				
91.8203125	0.2	188048	81	18	0	0	0	81	135	stimuli\Videos_short_600ms_horflip\50.single_(long)hard_push_with_thumb_short_horflip_short_600ms.mp4	50.single_(long)hard_push_with_thumb_short_horflip_short_600ms.mp4	181.27403216380023	181.8823550111479	0.6083228473476083				
92.62060546875	0.2	189687	82	18	0	0	0	82	160	stimuli\Videos_short_600ms_horflip\73.single_stroke_with_flat_hand_short_horflip_short_600ms.mp4	73.single_stroke_with_flat_hand_short_horflip_short_600ms.mp4	182.07399415912775	182.68233958641213	0.6083454272843483				
93.42041015625	0.2	191325	83	18	0	0	0	83	69	stimuli\Videos_short_600ms\72.(short)stroke_with_finger_all_over_the_hand_short_short_600ms.mp4	72.(short)stroke_with_finger_all_over_the_hand_short_short_600ms.mp4	182.87400190082008	183.48232474816768	0.6083228473476083				
94.22021484375	0.2	192963	84	18	0	0	0	84	297	stimuli\Videos_short_600ms_vertflip\34.repeated_punch_with_hand_short_vertflip_short_600ms.mp4	34.repeated_punch_with_hand_short_vertflip_short_600ms.mp4	183.6739885288057	184.28231049641545	0.6083219676097542				
95.0205078125	0.2	194602	85	18	0	0	0	85	201	stimuli\Videos_short_600ms_horvertflip\29.single_pinch_with_tweezers_short_horvertflip_short_600ms.mp4	29.single_pinch_with_tweezers_short_horvertflip_short_600ms.mp4	184.47397017161072	185.08229859063067	0.6083284190199265				
95.8203125	0.2	196240	86	18	0	0	0	86	144	stimuli\Videos_short_600ms_horflip\59.single_push_with_long_side_pencil_short_horflip_short_600ms.mp4	59.single_push_with_long_side_pencil_short_horflip_short_600ms.mp4	185.27395973205557	185.8822814064192	0.6083216743636513				
96.62060546875	0.2	197879	87	18	0	0	0	87	181	stimuli\Videos_short_600ms_horvertflip\10.single_touch_with_knife_short_horvertflip_short_600ms.mp4	10.single_touch_with_knife_short_horvertflip_short_600ms.mp4	186.0739278855476	186.6822689141427	0.6083410285950777				
97.42041015625	0.2	199517	88	18	0	0	0	88	311	stimuli\Videos_short_600ms_vertflip\47.(long)scratching_with_finger_nails_short_vertflip_short_600ms.mp4	47.(long)scratching_with_finger_nails_short_vertflip_short_600ms.mp4	186.87390571615515	187.4822558353744	0.6083501192192671				
98.22021484375	0.2	201155	89	18	0	0	0	89	221	stimuli\Videos_short_600ms_horvertflip\47.(long)scratching_with_finger_nails_short_horvertflip_short_600ms.mp4	47.(long)scratching_with_finger_nails_short_horvertflip_short_600ms.mp4	187.6739014347645	188.28223894440865	0.6083375096441159				
99.0205078125	0.2	202794	90	18	0	0	0	90	140	stimuli\Videos_short_600ms_horflip\55.touch_top_to_bottom_with_nail_file_short_horflip_short_600ms.mp4	55.touch_top_to_bottom_with_nail_file_short_horflip_short_600ms.mp4	188.47390155206313	189.08222498590249	0.6083234338393595				
99.8203125	0.2	204432	91	18	0	0	0	91	273	stimuli\Videos_short_600ms_vertflip\12.repeated_touch_with_nail_file_short_vertflip_short_600ms.mp4	12.repeated_touch_with_nail_file_short_vertflip_short_600ms.mp4	189.27392043710097	189.88219284614843	0.6082724090474585				
100.6201171875	0.2	206070	92	18	0	0	0	92	202	stimuli\Videos_short_600ms_horvertflip\3.single_push_with_finger_short_horvertflip_short_600ms.mp4	3.single_push_with_finger_short_horvertflip_short_600ms.mp4	190.07388184593628	190.68217184973992	0.6082900038036314	3.0	3.0	2.4447417632350152	1.0
136.7109375	0.2	279984	93	18	1	0	0	0	65	stimuli\Videos_short_600ms\69.stroke_with_soft_sock_short_short_600ms.mp4	69.stroke_with_soft_sock_short_short_600ms.mp4	226.96492045557537	227.57321104587072	0.6082905902953826				
137.5107421875	0.2	281622	94	18	1	0	1	1	377	stimuli\Targets_short_600ms_horvertflip\hand-stroke_short_vertflip_short_600ms.mp4	hand-stroke_short_vertflip_short_600ms.mp4	227.76484638165311	228.37319474139667	0.6083483597435588				
138.310546875	0.2	283260	95	18	1	0	0	2	159	stimuli\Videos_short_600ms_horflip\72.(short)stroke_with_finger_all_over_the_hand_short_horflip_short_600ms.mp4	72.(short)stroke_with_finger_all_over_the_hand_short_horflip_short_600ms.mp4	228.56484122052507	229.1731828356119	0.6083416150868288				
139.11083984375	0.2	284899	96	18	1	0	0	3	340	stimuli\Videos_short_600ms_vertflip\73.single_stroke_with_flat_hand_short_vertflip_short_600ms.mp4	73.single_stroke_with_flat_hand_short_vertflip_short_600ms.mp4	229.36483723238007	229.9731662378922	0.6083290055121324				
139.91064453125	0.2	286537	97	18	1	0	0	4	317	stimuli\Videos_short_600ms_vertflip\52.touch_top_to_bottom_with_hammer_short_vertflip_short_600ms.mp4	52.touch_top_to_bottom_with_hammer_short_vertflip_short_600ms.mp4	230.1648308982681	230.77314905368075	0.6083181554126895				
140.71044921875	0.2	288175	98	18	1	0	0	5	203	stimuli\Videos_short_600ms_horvertflip\30.finger_pulling_back_another_finger_short_horvertflip_short_600ms.mp4	30.finger_pulling_back_another_finger_short_horvertflip_short_600ms.mp4	230.9648192857294	231.57313509517465	0.6083158094452301				
141.5107421875	0.2	289814	99	18	1	0	0	6	338	stimuli\Videos_short_600ms_vertflip\71.single_stroke_with_finger_top_to_bottom_short_vertflip_short_600ms.mp4	71.single_stroke_with_finger_top_to_bottom_short_vertflip_short_600ms.mp4	231.7648029812558	232.3731270015869	0.6083240203311107				
142.310546875	0.2	291452	100	18	1	0	1	7	382	stimuli\Targets_short_600ms_vertflip\hand-pinch_short_horvertflip_short_600ms.mp4	hand-pinch_short_horvertflip_short_600ms.mp4	232.5647802253716	233.1731130430808	0.6083328177091971				
143.1103515625	0.2	293090	101	18	1	0	0	8	71	stimuli\Videos_short_600ms\74.fingers_walking_from_top_to_bottom_short_short_600ms.mp4	74.fingers_walking_from_top_to_bottom_short_short_600ms.mp4	233.3647709587999	233.97306360181665	0.608292643016739				
143.91064453125	0.2	294729	102	18	1	0	0	9	336	stimuli\Videos_short_600ms_vertflip\7.repeated_touch_with_hairbrush_short_vertflip_short_600ms.mp4	7.repeated_touch_with_hairbrush_short_vertflip_short_600ms.mp4	234.16475260160496	234.77304143242463	0.6082888308196743				
144.71044921875	0.2	296367	103	18	1	0	0	10	97	stimuli\Videos_short_600ms_horflip\16.repeated_touch_with_plastic_brush_short_horflip_short_600ms.mp4	16.repeated_touch_with_plastic_brush_short_horflip_short_600ms.mp4	234.96473805660665	235.5730430159524	0.6083049593457872				
145.51025390625	0.2	298005	104	18	1	0	0	11	127	stimuli\Videos_short_600ms_horflip\43.touch_top_to_bottom_with_sharp_wooden_stick_short_horflip_short_600ms.mp4	43.touch_top_to_bottom_with_sharp_wooden_stick_short_horflip_short_600ms.mp4	235.7647249778379	236.3730208465599	0.6082958687220525				
146.310546875	0.2	299644	105	18	1	0	0	12	210	stimuli\Videos_short_600ms_horvertflip\37.single_stab_with_nail_file_short_horvertflip_short_600ms.mp4	37.single_stab_with_nail_file_short_horvertflip_short_600ms.mp4	236.5647101395939	237.17299750418397	0.608287364590069				
147.1103515625	0.2	301282	106	18	1	0	0	13	38	stimuli\Videos_short_600ms\44.pushing_top_to_bottom_with_finger_short_short_600ms.mp4	44.pushing_top_to_bottom_with_finger_short_short_600ms.mp4	237.364695594596	237.97298677138315	0.6082911767871337				
147.91015625	0.2	302920	107	18	1	0	0	14	106	stimuli\Videos_short_600ms_horflip\24.single_stroke_top_to_bottom_with_a_spoon_short_horflip_short_600ms.mp4	24.single_stroke_top_to_bottom_with_a_spoon_short_horflip_short_600ms.mp4	238.16468134284375	238.7729525789077	0.6082712360639562				
148.71044921875	0.2	304559	108	18	1	0	0	15	169	stimuli\Videos_short_600ms_horflip\81.single_stroke_top_to_bottom_with_cotton_pad_short_horflip_short_600ms.mp4	81.single_stroke_top_to_bottom_with_cotton_pad_short_horflip_short_600ms.mp4	238.96466679784544	239.57293011626916	0.6082633184237238				
149.51025390625	0.2	306197	109	18	1	0	0	16	58	stimuli\Videos_short_600ms\62.touch_top_to_bottom_with_scissors_short_short_600ms.mp4	62.touch_top_to_bottom_with_scissors_short_short_600ms.mp4	239.76465313258495	240.3729082401228	0.6082551075378433				
150.310546875	0.2	307836	110	18	1	0	0	17	283	stimuli\Videos_short_600ms_vertflip\21.repeated_touch_with_metal_chopstick_short_vertflip_short_600ms.mp4	21.repeated_touch_with_metal_chopstick_short_vertflip_short_600ms.mp4	240.56463712135744	241.17289545460017	0.6082583332427021				
151.1103515625	0.2	309474	111	18	1	0	0	18	288	stimuli\Videos_short_600ms_vertflip\26.single_touch_with_a_blunt_syringe_short_vertflip_short_600ms.mp4	26.single_touch_with_a_blunt_syringe_short_vertflip_short_600ms.mp4	241.36461759117856	241.9728996773415	0.6082820861629443				
151.91015625	0.2	311112	112	18	1	0	0	19	266	stimuli\Videos_short_600ms_horvertflip\88.repeated_stroke_with_plastic_brush_short_horvertflip_short_600ms.mp4	88.repeated_stroke_with_plastic_brush_short_horvertflip_short_600ms.mp4	242.1645968880157	242.7728833728679	0.6082864848522149				
152.71044921875	0.2	312751	113	18	1	0	1	20	381	stimuli\Targets_short_600ms_vertflip\finger-tap_short_horvertflip_short_600ms.mp4	finger-tap_short_horvertflip_short_600ms.mp4	242.96457383888537	243.57286912111567	0.6082952822303014				
153.51025390625	0.2	314389	114	18	1	0	0	21	241	stimuli\Videos_short_600ms_horvertflip\65.stroke_top_to_bottom_with_stanley_knife_short_horvertflip_short_600ms.mp4	65.stroke_top_to_bottom_with_stanley_knife_short_horvertflip_short_600ms.mp4	243.7645595871331	244.37285193690423	0.6082923497710908				
154.31005859375	0.2	316027	115	18	1	0	0	22	78	stimuli\Videos_short_600ms\80.stroke_with_sharp_stick_all_over_the_hand_short_short_600ms.mp4	80.stroke_with_sharp_stick_all_over_the_hand_short_short_600ms.mp4	244.56454474888915	245.17284003111945	0.6082952822303014				
155.1103515625	0.2	317666	116	18	1	0	0	23	146	stimuli\Videos_short_600ms_horflip\60.single_push_with_tip_of_pencil_short_horflip_short_600ms.mp4	60.single_push_with_tip_of_pencil_short_horflip_short_600ms.mp4	245.36455688927072	245.97282489962936	0.6082680103586426				
155.91015625	0.2	319304	117	18	1	0	0	24	145	stimuli\Videos_short_600ms_horflip\6.single_touch_with_flat_hand_short_horflip_short_600ms.mp4	6.single_touch_with_flat_hand_short_horflip_short_600ms.mp4	246.16454527673204	246.7728173925334	0.6082721158013555				
156.7099609375	0.2	320942	118	18	1	0	0	25	108	stimuli\Videos_short_600ms_horflip\26.single_touch_with_a_blunt_syringe_short_horflip_short_600ms.mp4	26.single_touch_with_a_blunt_syringe_short_horflip_short_600ms.mp4	246.96452985199585	247.57279756910884	0.6082677171129944				
157.51025390625	0.2	322581	119	18	1	0	0	26	353	stimuli\Videos_short_600ms_vertflip\85.touch_top_to_bottom_with_fabric_short_vertflip_short_600ms.mp4	85.touch_top_to_bottom_with_fabric_short_vertflip_short_600ms.mp4	247.76451911919503	248.3727897687668	0.6082706495717503				
158.31005859375	0.2	324219	120	18	1	0	0	27	15	stimuli\Videos_short_600ms\23.single_push_with_a_spoon_short_short_600ms.mp4	23.single_push_with_a_spoon_short_short_600ms.mp4	248.56449548357295	249.17276965209612	0.6082741685231667				
159.10986328125	0.2	325857	121	18	1	0	0	28	23	stimuli\Videos_short_600ms\30.finger_pulling_back_another_finger_short_short_600ms.mp4	30.finger_pulling_back_another_finger_short_short_600ms.mp4	249.3644815250668	249.97275364086815	0.6082721158013555				
159.91015625	0.2	327496	122	18	1	0	0	29	286	stimuli\Videos_short_600ms_vertflip\24.single_stroke_top_to_bottom_with_a_spoon_short_vertflip_short_600ms.mp4	24.single_stroke_top_to_bottom_with_a_spoon_short_vertflip_short_600ms.mp4	250.16446522059277	250.77274261482123	0.6082773942284803				
160.7099609375	0.2	329134	123	18	1	0	0	30	32	stimuli\Videos_short_600ms\39.single_stab_with_scissors_short_short_600ms.mp4	39.single_stab_with_scissors_short_short_600ms.mp4	250.9644500891031	251.57273334825004	0.6082832591469014				
161.509765625	0.2	330772	124	18	1	0	0	31	26	stimuli\Videos_short_600ms\33.scratch_top_to_bottom_with_scissors_short_short_600ms.mp4	33.scratch_top_to_bottom_with_scissors_short_short_600ms.mp4	251.764438476564	252.37271235184153	0.6082738752775185				
162.31005859375	0.2	332411	125	18	1	0	0	32	305	stimuli\Videos_short_600ms_vertflip\41.injection_with_blunt_syringe_short_vertflip_short_600ms.mp4	41.injection_with_blunt_syringe_short_vertflip_short_600ms.mp4	252.56442334507392	253.1726995663189	0.6082762212449779				
163.10986328125	0.2	334049	126	18	1	0	0	33	300	stimuli\Videos_short_600ms_vertflip\37.single_stab_with_nail_file_short_vertflip_short_600ms.mp4	37.single_stab_with_nail_file_short_vertflip_short_600ms.mp4	253.3644099730595	253.97268326184485	0.6082732887853126				
163.90966796875	0.2	335687	127	18	1	0	0	34	232	stimuli\Videos_short_600ms_horvertflip\57.single_touch_with_nail_file_short_horvertflip_short_600ms.mp4	57.single_touch_with_nail_file_short_horvertflip_short_600ms.mp4	254.1643945483238	254.77266871684697	0.6082741685231667				
164.7099609375	0.2	337326	128	18	1	0	0	35	4	stimuli\Videos_short_600ms\13.single_touch_with_pen_short_short_600ms.mp4	13.single_touch_with_pen_short_short_600ms.mp4	254.96438117630944	255.57265299886512	0.6082718225557073				
165.509765625	0.2	338964	129	18	1	0	0	36	34	stimuli\Videos_short_600ms\40.repeated_push_with_finger_short_short_600ms.mp4	40.repeated_push_with_finger_short_short_600ms.mp4	255.76436604481933	256.37263933360464	0.6082732887853126				
166.3095703125	0.2	340602	130	18	1	0	0	37	43	stimuli\Videos_short_600ms\49.repeated_slap_with_hand_short_short_600ms.mp4	49.repeated_slap_with_hand_short_short_600ms.mp4	256.5643503268375	257.17262420211455	0.6082738752770638				
167.10986328125	0.2	342241	131	18	1	0	0	38	155	stimuli\Videos_short_600ms_horflip\69.stroke_with_soft_sock_short_horflip_short_600ms.mp4	69.stroke_with_soft_sock_short_horflip_short_600ms.mp4	257.36433167639643	257.9726099503623	0.6082782739658796				
167.90966796875	0.2	343879	132	18	1	0	0	39	178	stimuli\Videos_short_600ms_horflip\9.single_touch_with_hammer_short_horflip_short_600ms.mp4	9.single_touch_with_hammer_short_horflip_short_600ms.mp4	258.1643232895626	258.7725989243154	0.608275634752772				
168.7099609375	0.2	345518	133	18	1	0	0	40	264	stimuli\Videos_short_600ms_horvertflip\86.touch_top_to_bottom_with_hair_brush_short_horvertflip_short_600ms.mp4	86.touch_top_to_bottom_with_hair_brush_short_horvertflip_short_600ms.mp4	258.96428704436585	259.57258291308744	0.6082958687215978				
169.509765625	0.2	347156	134	18	1	0	0	41	277	stimuli\Videos_short_600ms_vertflip\16.repeated_touch_with_plastic_brush_short_vertflip_short_600ms.mp4	16.repeated_touch_with_plastic_brush_short_vertflip_short_600ms.mp4	259.76425695733315	260.37258713582924	0.6083301784960895				
170.3095703125	0.2	348794	135	18	1	0	0	42	16	stimuli\Videos_short_600ms\24.single_stroke_top_to_bottom_with_a_spoon_short_short_600ms.mp4	24.single_stroke_top_to_bottom_with_a_spoon_short_short_600ms.mp4	260.564260007091	261.1725722975848	0.6083122904938136				
171.10986328125	0.2	350433	136	18	1	0	0	43	275	stimuli\Videos_short_600ms_vertflip\14.repeated_touch_with_pencil_short_vertflip_short_600ms.mp4	14.repeated_touch_with_pencil_short_vertflip_short_600ms.mp4	261.36427361370215	261.97254367678215	0.6082700630799991				
171.90966796875	0.2	352071	137	18	1	0	0	44	119	stimuli\Videos_short_600ms_horflip\36.single_slap_with_full_hand_short_horflip_short_600ms.mp4	36.single_slap_with_full_hand_short_horflip_short_600ms.mp4	262.1642614146713	262.77254731303174	0.6082858983604638				
172.70947265625	0.2	353709	138	18	1	0	1	45	379	stimuli\Targets_short_600ms_vertflip\chopstick-silver-tap_short_horvertflip_short_600ms.mp4	chopstick-silver-tap_short_horvertflip_short_600ms.mp4	262.96424745616514	263.57252221118006	0.6082747550149179				
173.509765625	0.2	355348	139	18	1	0	0	46	355	stimuli\Videos_short_600ms_vertflip\87.single_stroke_top_to_bottom_with_plastic_brush_short_vertflip_short_600ms.mp4	87.single_stroke_top_to_bottom_with_plastic_brush_short_vertflip_short_600ms.mp4	263.7642232340513	264.3725466678907	0.6083234338393595				
174.3095703125	0.2	356986	140	18	1	0	0	47	180	stimuli\Videos_short_600ms_horvertflip\1.repeated_touch_with_finger_fast_short_horvertflip_short_600ms.mp4	1.repeated_touch_with_finger_fast_short_horvertflip_short_600ms.mp4	264.5642089822991	265.1724840305601	0.6082750482610209				
175.109375	0.2	358624	141	18	1	0	0	48	121	stimuli\Videos_short_600ms_horflip\38.double_slap_with_pencil_short_horflip_short_600ms.mp4	38.double_slap_with_pencil_short_horflip_short_600ms.mp4	265.3641950237925	265.9724785761855	0.6082835523930044				
175.90966796875	0.2	360263	142	18	1	0	0	49	187	stimuli\Videos_short_600ms_horvertflip\16.repeated_touch_with_plastic_brush_short_horvertflip_short_600ms.mp4	16.repeated_touch_with_plastic_brush_short_horvertflip_short_600ms.mp4	266.16418077204025	266.7725062586014	0.6083254865611707				
176.70947265625	0.2	361901	143	18	1	0	0	50	21	stimuli\Videos_short_600ms\29.single_pinch_with_tweezers_short_short_600ms.mp4	29.single_pinch_with_tweezers_short_short_600ms.mp4	266.9641656405506	267.57249259334094	0.6083269527903212				
177.50927734375	0.2	363539	144	18	1	0	0	51	285	stimuli\Videos_short_600ms_vertflip\23.single_push_with_a_spoon_short_vertflip_short_600ms.mp4	23.single_push_with_a_spoon_short_vertflip_short_600ms.mp4	267.76415226853624	268.3724844997532	0.6083322312169912				
178.3095703125	0.2	365178	145	18	1	0	0	52	73	stimuli\Videos_short_600ms\76.tickle_with_fingers_from_top_to_bottom_short_short_600ms.mp4	76.tickle_with_fingers_from_top_to_bottom_short_short_600ms.mp4	268.5641377235379	269.1724620371151	0.6083243135772136				
179.109375	0.2	366816	146	18	1	0	0	53	83	stimuli\Videos_short_600ms\85.touch_top_to_bottom_with_fabric_short_short_600ms.mp4	85.touch_top_to_bottom_with_fabric_short_short_600ms.mp4	269.36412347178566	269.97244895834683	0.6083254865611707				
179.9091796875	0.2	368454	147	18	1	0	0	54	86	stimuli\Videos_short_600ms\88.repeated_stroke_with_plastic_brush_short_short_600ms.mp4	88.repeated_stroke_with_plastic_brush_short_short_600ms.mp4	270.16410834029557	270.7724314808893	0.6083231405937113				
180.70947265625	0.2	370093	148	18	1	0	0	55	259	stimuli\Videos_short_600ms_horvertflip\81.single_stroke_top_to_bottom_with_cotton_pad_short_horvertflip_short_600ms.mp4	81.single_stroke_top_to_bottom_with_cotton_pad_short_horvertflip_short_600ms.mp4	270.9640952615273	271.57241840212055	0.6083231405932565				
181.50927734375	0.2	371731	149	18	1	0	0	56	344	stimuli\Videos_short_600ms_vertflip\77.tapping_with_all_fingers_short_vertflip_short_600ms.mp4	77.tapping_with_all_fingers_short_vertflip_short_600ms.mp4	271.7640833557425	272.3724041503683	0.6083207946257971				
182.30908203125	0.2	373369	150	18	1	0	1	57	362	stimuli\Targets_short_600ms\chopstickwood-tap_short_short_600ms.mp4	chopstickwood-tap_short_short_600ms.mp4	272.56406705126847	273.1723893121243	0.6083222608558572				
183.109375	0.2	375008	151	18	1	0	0	58	306	stimuli\Videos_short_600ms_vertflip\42.single_slap_with_plastic_whisk_short_vertflip_short_600ms.mp4	42.single_slap_with_plastic_whisk_short_vertflip_short_600ms.mp4	273.3640354980066	273.97238063204486	0.6083451340382453				
183.9091796875	0.2	376646	152	18	1	0	0	59	63	stimuli\Videos_short_600ms\67.single_touch_with_sponge_short_short_600ms.mp4	67.single_touch_with_sponge_short_short_600ms.mp4	274.1640376680266	274.77236080861985	0.6083231405932565				
184.708984375	0.2	378284	153	18	1	0	0	60	76	stimuli\Videos_short_600ms\79.long_with_soft_brush_all_over_the_hand_short_short_600ms.mp4	79.long_with_soft_brush_all_over_the_hand_short_short_600ms.mp4	274.9640242960122	275.57234743660547	0.6083231405932565				
185.50927734375	0.2	379923	154	18	1	0	0	61	200	stimuli\Videos_short_600ms_horvertflip\28.single_injection_with_sharp_needle_short_horvertflip_short_600ms.mp4	28.single_injection_with_sharp_needle_short_horvertflip_short_600ms.mp4	275.76398893055284	276.3723340645911	0.6083451340382453				
186.30908203125	0.2	381561	155	18	1	0	0	62	211	stimuli\Videos_short_600ms_horvertflip\38.double_slap_with_pencil_short_horvertflip_short_600ms.mp4	38.double_slap_with_pencil_short_horvertflip_short_600ms.mp4	276.563997551983	277.172318933101	0.608321381118003				
187.109375	0.2	383200	156	18	1	0	0	63	162	stimuli\Videos_short_600ms_horflip\75.(long)stroke_with_fingers_all_over_the_hand_short_horflip_short_600ms.mp4	75.(long)stroke_with_fingers_all_over_the_hand_short_horflip_short_600ms.mp4	277.3639595473105	277.97231201249724	0.6083524651867265				
187.9091796875	0.2	384838	157	18	1	0	1	64	367	stimuli\Targets_short_600ms_horflip\chopstick-silver-tap_short_horflip_short_600ms.mp4	chopstick-silver-tap_short_horflip_short_600ms.mp4	278.1639690484785	278.77224908192056	0.6082800334420426				
188.708984375	0.2	386476	158	18	1	0	0	65	104	stimuli\Videos_short_600ms_horflip\22.single_touch_with_metal_chopstick_short_horflip_short_600ms.mp4	22.single_touch_with_metal_chopstick_short_horflip_short_600ms.mp4	278.96395303725103	279.572253597908	0.6083005606569714				
189.50927734375	0.2	388115	159	18	1	0	0	66	61	stimuli\Videos_short_600ms\65.stroke_top_to_bottom_with_stanley_knife_short_short_600ms.mp4	65.stroke_top_to_bottom_with_stanley_knife_short_short_600ms.mp4	279.76395022209	280.3722598733707	0.608309651280706				
190.30908203125	0.2	389753	160	18	1	0	0	67	176	stimuli\Videos_short_600ms_horflip\88.repeated_stroke_with_plastic_brush_short_horflip_short_600ms.mp4	88.repeated_stroke_with_plastic_brush_short_horflip_short_600ms.mp4	280.5639248269922	281.17224444863496	0.6083196216427496				
191.10888671875	0.2	391391	161	18	1	0	1	68	380	stimuli\Targets_short_600ms_vertflip\chopstickwood-tap_short_horvertflip_short_600ms.mp4	chopstickwood-tap_short_horvertflip_short_600ms.mp4	281.36390940225647	281.97223928750645	0.6083298852499865				
191.9091796875	0.2	393030	162	18	1	0	0	69	35	stimuli\Videos_short_600ms\41.injection_with_blunt_syringe_short_short_600ms.mp4	41.injection_with_blunt_syringe_short_short_600ms.mp4	282.16389515050423	282.77222298303286	0.6083278325286301				
192.708984375	0.2	394668	163	18	1	0	0	70	238	stimuli\Videos_short_600ms_horvertflip\62.touch_top_to_bottom_with_scissors_short_horvertflip_short_600ms.mp4	62.touch_top_to_bottom_with_scissors_short_horvertflip_short_600ms.mp4	282.96388031226024	283.57221312996944	0.6083328177091971				
193.5087890625	0.2	396306	164	18	1	0	0	71	359	stimuli\Videos_short_600ms_vertflip\90.repeated_touch_with_sponge_short_vertflip_short_600ms.mp4	90.repeated_touch_with_sponge_short_vertflip_short_600ms.mp4	283.76386664699976	284.3721912538231	0.6083246068233166				
194.30908203125	0.2	397945	165	18	1	0	1	72	383	stimuli\Targets_short_600ms_vertflip\hand-stroke_short_horvertflip_short_600ms.mp4	hand-stroke_short_horvertflip_short_600ms.mp4	284.5638521020019	285.172176122333	0.6083240203311107				
195.10888671875	0.2	399583	166	18	1	0	0	73	137	stimuli\Videos_short_600ms_horflip\52.touch_top_to_bottom_with_hammer_short_horflip_short_600ms.mp4	52.touch_top_to_bottom_with_hammer_short_horflip_short_600ms.mp4	285.36383755700354	285.9721642165482	0.608326659544673				
195.90869140625	0.2	401221	167	18	1	0	0	74	116	stimuli\Videos_short_600ms_horflip\33.scratch_top_to_bottom_with_scissors_short_horflip_short_600ms.mp4	33.scratch_top_to_bottom_with_scissors_short_horflip_short_600ms.mp4	286.16382389174305	286.77214879181247	0.6083249000694195				
196.708984375	0.2	402860	168	18	1	0	0	75	307	stimuli\Videos_short_600ms_vertflip\43.touch_top_to_bottom_with_sharp_wooden_stick_short_vertflip_short_600ms.mp4	43.touch_top_to_bottom_with_sharp_wooden_stick_short_vertflip_short_600ms.mp4	286.96380905349906	287.57213541979763	0.6083263662985701				
197.5087890625	0.2	404498	169	18	1	0	0	76	333	stimuli\Videos_short_600ms_vertflip\67.single_touch_with_sponge_short_vertflip_short_600ms.mp4	67.single_touch_with_sponge_short_vertflip_short_600ms.mp4	287.76380418561666	288.3721197018158	0.6083155161991272				
198.30859375	0.2	406136	170	18	1	0	0	77	167	stimuli\Videos_short_600ms_horflip\8.single_touch_with_hairbrush_short_horflip_short_600ms.mp4	8.single_touch_with_hairbrush_short_horflip_short_600ms.mp4	288.56378729465087	289.1721066230475	0.6083193283966466				
199.10888671875	0.2	407775	171	18	1	0	0	78	231	stimuli\Videos_short_600ms_horvertflip\56.repeated_touch_with_nail_file_short_horvertflip_short_600ms.mp4	56.repeated_touch_with_nail_file_short_horvertflip_short_600ms.mp4	289.36375192919195	289.97208914558996	0.608337216398013				
199.90869140625	0.2	409413	172	18	1	0	0	79	190	stimuli\Videos_short_600ms_horvertflip\19.single_touch_with_rolling_pin_short_horvertflip_short_600ms.mp4	19.single_touch_with_rolling_pin_short_horvertflip_short_600ms.mp4	290.1637312260291	290.7720297339647	0.6082985079356149				
200.70849609375	0.2	411051	173	18	1	0	0	80	329	stimuli\Videos_short_600ms_vertflip\63.stroke_top_to_bottom_with_screwdriver_short_vertflip_short_600ms.mp4	63.stroke_top_to_bottom_with_screwdriver_short_vertflip_short_600ms.mp4	290.9637178540147	291.5720635745447	0.6083457205299965				
201.5087890625	0.2	412690	174	18	1	0	0	81	44	stimuli\Videos_short_600ms\5.repeated_tap_with_finger_moving_from_top_to_bottom_short_short_600ms.mp4	5.repeated_tap_with_finger_moving_from_top_to_bottom_short_short_600ms.mp4	291.7637314606259	292.3720487363007	0.6083172756748354				
202.30859375	0.2	414328	175	18	1	0	0	82	330	stimuli\Videos_short_600ms_vertflip\64.repeated_touch_with_screwdriver_short_vertflip_short_600ms.mp4	64.repeated_touch_with_screwdriver_short_vertflip_short_600ms.mp4	292.5637125169387	293.172040642713	0.6083281257742783				
203.1083984375	0.2	415966	176	18	1	0	0	83	13	stimuli\Videos_short_600ms\21.repeated_touch_with_metal_chopstick_short_short_600ms.mp4	21.repeated_touch_with_metal_chopstick_short_short_600ms.mp4	293.36369914492434	293.9720164205992	0.6083172756748354				
203.90869140625	0.2	417605	177	18	1	0	0	84	96	stimuli\Videos_short_600ms_horflip\15.single_stroke_top_to_bottom_with_a_plastic_whisk_short_horflip_short_600ms.mp4	15.single_stroke_top_to_bottom_with_a_plastic_whisk_short_horflip_short_600ms.mp4	294.16368401343425	294.7720033418309	0.6083193283966466				
204.70849609375	0.2	419243	178	18	1	0	0	85	267	stimuli\Videos_short_600ms_horvertflip\89.single_touch_with_plastic_brush_short_horvertflip_short_600ms.mp4	89.single_touch_with_plastic_brush_short_horvertflip_short_600ms.mp4	294.963669761682	295.57196592365017	0.6082961619681555				
205.5087890625	0.2	420882	179	18	1	0	1	86	370	stimuli\Targets_short_600ms_horflip\hand-pinch_short_horflip_short_600ms.mp4	hand-pinch_short_horflip_short_600ms.mp4	295.7636516977327	296.3719522583897	0.6083005606569714				
206.30859375	0.2	422520	180	18	1	0	0	87	14	stimuli\Videos_short_600ms\22.single_touch_with_metal_chopstick_short_short_600ms.mp4	22.single_touch_with_metal_chopstick_short_short_600ms.mp4	296.56363861896443	297.1719635190334	0.6083249000689648				
207.1083984375	0.2	424158	181	18	1	0	0	88	45	stimuli\Videos_short_600ms\50.single_(long)hard_push_with_thumb_short_short_600ms.mp4	50.single_(long)hard_push_with_thumb_short_short_600ms.mp4	297.3636223144904	297.97195073351077	0.6083284190203813				
207.90869140625	0.2	425797	182	18	1	0	0	89	12	stimuli\Videos_short_600ms\20.single_touch_with_screwdriver_short_short_600ms.mp4	20.single_touch_with_screwdriver_short_short_600ms.mp4	298.1636109951978	298.77194410615266	0.6083331109548453				
208.70849609375	0.2	427435	183	18	1	0	0	90	62	stimuli\Videos_short_600ms\66.stroke_top_to_bottom_with_sponge_short_short_600ms.mp4	66.stroke_top_to_bottom_with_sponge_short_short_600ms.mp4	298.96359322449416	299.5719207637767	0.6083275392825271				
209.50830078125	0.2	429073	184	18	1	0	0	91	314	stimuli\Videos_short_600ms_vertflip\5.repeated_tap_with_finger_moving_from_top_to_bottom_short_vertflip_short_600ms.mp4	5.repeated_tap_with_finger_moving_from_top_to_bottom_short_vertflip_short_600ms.mp4	299.7635798524798	300.37191706887825	0.6083372163984677				
210.30859375	0.2	430712	185	18	1	0	0	92	56	stimuli\Videos_short_600ms\60.single_push_with_tip_of_pencil_short_short_600ms.mp4	60.single_push_with_tip_of_pencil_short_short_600ms.mp4	300.56356589397365	301.17189020755086	0.6083243135772136				
211.1083984375	0.2	432350	186	18	1	0	0	93	172	stimuli\Videos_short_600ms_horflip\84.single_touch_with_cotton_bud_short_horflip_short_600ms.mp4	84.single_touch_with_cotton_bud_short_horflip_short_600ms.mp4	301.36355076248356	301.9718768355365	0.6083260730529219				
211.908203125	0.2	433988	187	18	1	0	0	94	49	stimuli\Videos_short_600ms\54.repeated_touch_with_knife_short_short_600ms.mp4	54.repeated_touch_with_knife_short_short_600ms.mp4	302.1635582109302	302.7718617040464	0.6083034931161819				
212.70849609375	0.2	435627	188	18	1	0	0	95	325	stimuli\Videos_short_600ms_vertflip\6.single_touch_with_flat_hand_short_vertflip_short_600ms.mp4	6.single_touch_with_flat_hand_short_vertflip_short_600ms.mp4	302.96352284547083	303.57184774554025	0.6083249000694195				
213.50830078125	0.2	437265	189	18	1	0	0	96	196	stimuli\Videos_short_600ms_horvertflip\24.single_stroke_top_to_bottom_with_a_spoon_short_horvertflip_short_600ms.mp4	24.single_stroke_top_to_bottom_with_a_spoon_short_horvertflip_short_600ms.mp4	303.7635320533932	304.37183378703367	0.6083017336404737				
214.30810546875	0.2	438903	190	18	1	0	0	97	142	stimuli\Videos_short_600ms_horflip\57.single_touch_with_nail_file_short_horflip_short_600ms.mp4	57.single_touch_with_nail_file_short_horflip_short_600ms.mp4	304.5634729350136	305.1718183622979	0.6083454272843483				
215.1083984375	0.2	440542	191	18	1	0	0	98	356	stimuli\Videos_short_600ms_vertflip\88.repeated_stroke_with_plastic_brush_short_vertflip_short_600ms.mp4	88.repeated_stroke_with_plastic_brush_short_vertflip_short_600ms.mp4	305.3634812631981	305.97180499028354	0.6083237270854625	9.0	7.0	2.6340575237081794	0.0
253.30712890625	0.2	518773	192	18	2	0	0	0	189	stimuli\Videos_short_600ms_horvertflip\18.single_stroke_from_top_to_bottom_with_rolling_pin_short_horvertflip_short_600ms.mp4	18.single_stroke_from_top_to_bottom_with_rolling_pin_short_horvertflip_short_600ms.mp4	343.56280052209513	344.17112043698353	0.6083199148883978				
254.10693359375	0.2	520411	193	18	2	0	0	1	229	stimuli\Videos_short_600ms_horvertflip\54.repeated_touch_with_knife_short_horvertflip_short_600ms.mp4	54.repeated_touch_with_knife_short_horvertflip_short_600ms.mp4	344.3627850973594	344.9711158623468	0.6083307649873859				
254.90673828125	0.2	522049	194	18	2	0	0	2	170	stimuli\Videos_short_600ms_horflip\82.repeated_touch_with_cotton_bud_short_horflip_short_600ms.mp4	82.repeated_touch_with_cotton_bud_short_horflip_short_600ms.mp4	345.1627711388528	345.771093106463	0.608321967610209				
255.70703125	0.2	523688	195	18	2	0	0	3	193	stimuli\Videos_short_600ms_horvertflip\21.repeated_touch_with_metal_chopstick_short_horvertflip_short_600ms.mp4	21.repeated_touch_with_metal_chopstick_short_horvertflip_short_600ms.mp4	345.9627563006088	346.57108882507237	0.6083325244635489				
256.5068359375	0.2	525326	196	18	2	0	0	4	182	stimuli\Videos_short_600ms_horvertflip\11.single_touch_with_lighter_short_horvertflip_short_600ms.mp4	11.single_touch_with_lighter_short_horvertflip_short_600ms.mp4	346.7627399961352	347.3710613772532	0.608321381118003				
257.30712890625	0.2	526965	197	18	2	0	0	5	75	stimuli\Videos_short_600ms\78.single_stroke_top_to_bottom_with_soft_brush_short_short_600ms.mp4	78.single_stroke_top_to_bottom_with_soft_brush_short_short_600ms.mp4	347.5627351282528	348.17104741874664	0.6083122904938136				
258.10693359375	0.2	528603	198	18	2	0	1	6	378	stimuli\Targets_short_600ms_vertflip\brush-stroke_short_horvertflip_short_600ms.mp4	brush-stroke_short_horvertflip_short_600ms.mp4	348.36271002640115	348.97103404673226	0.6083240203311107				
258.90673828125	0.2	530241	199	18	2	0	0	7	323	stimuli\Videos_short_600ms_vertflip\58.single_slap_with_pencil_short_vertflip_short_600ms.mp4	58.single_slap_with_pencil_short_vertflip_short_600ms.mp4	349.16269342868145	349.7710200882261	0.608326659544673				
259.70703125	0.2	531880	200	18	2	0	0	8	87	stimuli\Videos_short_600ms\89.single_touch_with_plastic_brush_short_short_600ms.mp4	89.single_touch_with_plastic_brush_short_short_600ms.mp4	349.9626642213866	350.5710029040147	0.608338682628073				
260.5068359375	0.2	533518	201	18	2	0	0	9	246	stimuli\Videos_short_600ms_horvertflip\7.repeated_touch_with_hairbrush_short_horvertflip_short_600ms.mp4	7.repeated_touch_with_hairbrush_short_horvertflip_short_600ms.mp4	350.7626713765876	351.37098894550854	0.6083175689209384				
261.306640625	0.2	535156	202	18	2	0	0	10	245	stimuli\Videos_short_600ms_horvertflip\69.stroke_with_soft_sock_short_horvertflip_short_600ms.mp4	69.stroke_with_soft_sock_short_horvertflip_short_600ms.mp4	351.56265038017864	352.17097528024806	0.6083249000694195				
262.10693359375	0.2	536795	203	18	2	0	0	11	153	stimuli\Videos_short_600ms_horflip\67.single_touch_with_sponge_short_horflip_short_600ms.mp4	67.single_touch_with_sponge_short_horflip_short_600ms.mp4	352.3626135484901	352.9709619082337	0.6083483597435588				
262.90673828125	0.2	538433	204	18	2	0	0	12	151	stimuli\Videos_short_600ms_horflip\65.stroke_top_to_bottom_with_stanley_knife_short_horflip_short_600ms.mp4	65.stroke_top_to_bottom_with_stanley_knife_short_horflip_short_600ms.mp4	353.1626218766746	353.77094765648144	0.6083257798068189				
263.70654296875	0.2	540071	205	18	2	0	0	13	143	stimuli\Videos_short_600ms_horflip\58.single_slap_with_pencil_short_horflip_short_600ms.mp4	58.single_slap_with_pencil_short_horflip_short_600ms.mp4	353.96262111423493	354.5709348709588	0.6083137567238737				
264.5068359375	0.2	541710	206	18	2	0	0	14	320	stimuli\Videos_short_600ms_vertflip\55.touch_top_to_bottom_with_nail_file_short_vertflip_short_600ms.mp4	55.touch_top_to_bottom_with_nail_file_short_vertflip_short_600ms.mp4	354.76259777185896	355.3708948135645	0.6082970417055549				
265.306640625	0.2	543348	207	18	2	0	0	15	123	stimuli\Videos_short_600ms_horflip\4.repeated_tap_with_finger_slow_short_horflip_short_600ms.mp4	4.repeated_tap_with_finger_slow_short_horflip_short_600ms.mp4	355.56258791879554	356.17090666070044	0.6083187419048954				
266.1064453125	0.2	544986	208	18	2	0	0	16	324	stimuli\Videos_short_600ms_vertflip\59.single_push_with_long_side_pencil_short_vertflip_short_600ms.mp4	59.single_push_with_long_side_pencil_short_vertflip_short_600ms.mp4	356.36256574940353	356.9708853710458	0.6083196216422948				
266.90673828125	0.2	546625	209	18	2	0	0	17	217	stimuli\Videos_short_600ms_horvertflip\43.touch_top_to_bottom_with_sharp_wooden_stick_short_horvertflip_short_600ms.mp4	43.touch_top_to_bottom_with_sharp_wooden_stick_short_horvertflip_short_600ms.mp4	357.1625655734556	357.7708772774581	0.6083117040025172				
267.70654296875	0.2	548263	210	18	2	0	0	18	53	stimuli\Videos_short_600ms\58.single_slap_with_pencil_short_short_600ms.mp4	58.single_slap_with_pencil_short_short_600ms.mp4	357.9625392986204	358.57085804052485	0.6083187419044407				
268.50634765625	0.2	549901	211	18	2	0	0	19	230	stimuli\Videos_short_600ms_horvertflip\55.touch_top_to_bottom_with_nail_file_short_horvertflip_short_600ms.mp4	55.touch_top_to_bottom_with_nail_file_short_horvertflip_short_600ms.mp4	358.7625244603764	359.3708775120549	0.6083530516784776				
269.306640625	0.2	551540	212	18	2	0	0	20	328	stimuli\Videos_short_600ms_vertflip\62.touch_top_to_bottom_with_scissors_short_vertflip_short_600ms.mp4	62.touch_top_to_bottom_with_scissors_short_vertflip_short_600ms.mp4	359.56250903564023	360.1708427330873	0.6083336974470512				
270.1064453125	0.2	553178	213	18	2	0	0	21	70	stimuli\Videos_short_600ms\73.single_stroke_with_flat_hand_short_short_600ms.mp4	73.single_stroke_with_flat_hand_short_short_600ms.mp4	360.362494783888	360.9708176312356	0.6083228473476083				
270.90625	0.2	554816	214	18	2	0	0	22	98	stimuli\Videos_short_600ms_horflip\17.repeated_touch_with_rolling_pin_short_horflip_short_600ms.mp4	17.repeated_touch_with_rolling_pin_short_horflip_short_600ms.mp4	361.1624843443333	361.7708086579105	0.6083243135772136				
271.70654296875	0.2	556455	215	18	2	0	0	23	124	stimuli\Videos_short_600ms_horflip\40.repeated_push_with_finger_short_horflip_short_600ms.mp4	40.repeated_push_with_finger_short_horflip_short_600ms.mp4	361.9624677466136	362.5707888344855	0.6083210878719001				
272.50634765625	0.2	558093	216	18	2	0	0	24	50	stimuli\Videos_short_600ms\55.touch_top_to_bottom_with_nail_file_short_short_600ms.mp4	55.touch_top_to_bottom_with_nail_file_short_short_600ms.mp4	362.76245613407445	363.3707745827333	0.6083184486587925				
273.30615234375	0.2	559731	217	18	2	0	0	25	95	stimuli\Videos_short_600ms_horflip\14.repeated_touch_with_pencil_short_horflip_short_600ms.mp4	14.repeated_touch_with_pencil_short_horflip_short_600ms.mp4	363.56243836337126	364.17076121071887	0.6083228473476083				
274.1064453125	0.2	561370	218	18	2	0	1	26	366	stimuli\Targets_short_600ms_horflip\brush-stroke_short_horflip_short_600ms.mp4	brush-stroke_short_horflip_short_600ms.mp4	364.3624208859137	364.9707457859827	0.6083249000689648				
274.90625	0.2	563008	219	18	2	0	0	27	309	stimuli\Videos_short_600ms_vertflip\45.scratching_with_finger_nails_short_vertflip_short_600ms.mp4	45.scratching_with_finger_nails_short_vertflip_short_600ms.mp4	365.1624110328503	365.7707327072144	0.608321674364106				
275.7060546875	0.2	564646	220	18	2	0	0	28	90	stimuli\Videos_short_600ms_horflip\1.repeated_touch_with_finger_fast_short_horflip_short_600ms.mp4	1.repeated_touch_with_finger_fast_short_horflip_short_600ms.mp4	365.962375960637	366.5707172824782	0.6083413218411806				
276.50634765625	0.2	566285	221	18	2	0	0	29	161	stimuli\Videos_short_600ms_horflip\74.fingers_walking_from_top_to_bottom_short_horflip_short_600ms.mp4	74.fingers_walking_from_top_to_bottom_short_horflip_short_600ms.mp4	366.7623558439664	367.3707030307259	0.6083471867596018				
277.30615234375	0.2	567923	222	18	2	0	0	30	67	stimuli\Videos_short_600ms\70.(long)stroke_with_finger_all_over_the_hand_short_short_600ms.mp4	70.(long)stroke_with_finger_all_over_the_hand_short_short_600ms.mp4	367.5623659316266	368.17068936546593	0.6083234338393595				
278.1064453125	0.2	569562	223	18	2	0	0	31	59	stimuli\Videos_short_600ms\63.stroke_top_to_bottom_with_screwdriver_short_short_600ms.mp4	63.stroke_top_to_bottom_with_screwdriver_short_short_600ms.mp4	368.3623466946933	368.9706736474841	0.608326952790776				
278.90625	0.2	571200	224	18	2	0	0	32	222	stimuli\Videos_short_600ms_horvertflip\48.single_slap_with_hand_short_horvertflip_short_600ms.mp4	48.single_slap_with_hand_short_horvertflip_short_600ms.mp4	369.1623605945506	369.770665847142	0.6083052525914354				
279.7060546875	0.2	572838	225	18	2	0	0	33	72	stimuli\Videos_short_600ms\75.(long)stroke_with_fingers_all_over_the_hand_short_short_600ms.mp4	75.(long)stroke_with_fingers_all_over_the_hand_short_short_600ms.mp4	369.9623290412883	370.5706240302725	0.6082949889841984				
280.50634765625	0.2	574477	226	18	2	0	0	34	197	stimuli\Videos_short_600ms_horvertflip\25.single_touch_with_stanley_knife_short_horvertflip_short_600ms.mp4	25.single_touch_with_stanley_knife_short_horvertflip_short_600ms.mp4	370.7623168422574	371.37060537983143	0.6082885375740261				
281.30615234375	0.2	576115	227	18	2	0	0	35	354	stimuli\Videos_short_600ms_vertflip\86.touch_top_to_bottom_with_hair_brush_short_vertflip_short_600ms.mp4	86.touch_top_to_bottom_with_hair_brush_short_vertflip_short_600ms.mp4	371.56229349988143	372.1705996322112	0.6083061323297443				
282.10595703125	0.2	577753	228	18	2	0	0	36	33	stimuli\Videos_short_600ms\4.repeated_tap_with_finger_slow_short_short_600ms.mp4	4.repeated_tap_with_finger_slow_short_short_600ms.mp4	372.3622827670806	372.97057658308086	0.6082938160002413				
282.90625	0.2	579392	229	18	2	0	0	37	302	stimuli\Videos_short_600ms_vertflip\39.single_stab_with_scissors_short_vertflip_short_600ms.mp4	39.single_stab_with_scissors_short_vertflip_short_600ms.mp4	373.16226499637696	373.77058520451146	0.6083202081345007				
283.7060546875	0.2	581030	230	18	2	0	0	38	8	stimuli\Videos_short_600ms\17.repeated_touch_with_rolling_pin_short_short_600ms.mp4	17.repeated_touch_with_rolling_pin_short_short_600ms.mp4	373.9622507446247	374.57057711092375	0.6083263662990248				
284.505859375	0.2	582668	231	18	2	0	0	39	100	stimuli\Videos_short_600ms_horflip\19.single_touch_with_rolling_pin_short_horflip_short_600ms.mp4	19.single_touch_with_rolling_pin_short_horflip_short_600ms.mp4	374.7622350266429	375.37056373890937	0.6083287122664842				
285.30615234375	0.2	584307	232	18	2	0	0	40	322	stimuli\Videos_short_600ms_vertflip\57.single_touch_with_nail_file_short_vertflip_short_600ms.mp4	57.single_touch_with_nail_file_short_vertflip_short_600ms.mp4	375.5622198951528	376.1705515398785	0.6083316447256948				
286.10595703125	0.2	585945	233	18	2	0	0	41	341	stimuli\Videos_short_600ms_vertflip\74.fingers_walking_from_top_to_bottom_short_vertflip_short_600ms.mp4	74.fingers_walking_from_top_to_bottom_short_vertflip_short_600ms.mp4	376.36220593664666	376.9705279042564	0.6083219676097542				
286.90576171875	0.2	587583	234	18	2	0	0	42	177	stimuli\Videos_short_600ms_horflip\89.single_touch_with_plastic_brush_short_horflip_short_600ms.mp4	89.single_touch_with_plastic_brush_short_horflip_short_600ms.mp4	377.1621946173536	377.7705142389964	0.6083196216427496				
287.7060546875	0.2	589222	235	18	2	0	0	43	195	stimuli\Videos_short_600ms_horvertflip\23.single_push_with_a_spoon_short_horvertflip_short_600ms.mp4	23.single_push_with_a_spoon_short_horvertflip_short_600ms.mp4	377.96217567366693	378.5704469097304	0.6082712360635014				
288.505859375	0.2	590860	236	18	2	0	0	44	51	stimuli\Videos_short_600ms\56.repeated_touch_with_nail_file_short_short_600ms.mp4	56.repeated_touch_with_nail_file_short_short_600ms.mp4	378.76216494086566	379.3704845625079	0.6083196216422948				
289.3056640625	0.2	592498	237	18	2	0	0	45	126	stimuli\Videos_short_600ms_horflip\42.single_slap_with_plastic_whisk_short_horflip_short_600ms.mp4	42.single_slap_with_plastic_whisk_short_horflip_short_600ms.mp4	379.56214804989986	380.1704703107557	0.6083222608558572				
290.10595703125	0.2	594137	238	18	2	0	0	46	298	stimuli\Videos_short_600ms_vertflip\35.single_punch_with_hand_short_vertflip_short_600ms.mp4	35.single_punch_with_hand_short_vertflip_short_600ms.mp4	380.3621314521806	380.9704566454952	0.608325193314613				
290.90576171875	0.2	595775	239	18	2	0	0	47	237	stimuli\Videos_short_600ms_horvertflip\61.single_hit_with_rolling_pin_short_horvertflip_short_600ms.mp4	61.single_hit_with_rolling_pin_short_horvertflip_short_600ms.mp4	381.1621025381319	381.7704418072513	0.6083392691193694				
291.70556640625	0.2	597413	240	18	2	0	0	48	269	stimuli\Videos_short_600ms_horvertflip\90.repeated_touch_with_sponge_short_horvertflip_short_600ms.mp4	90.repeated_touch_with_sponge_short_horvertflip_short_600ms.mp4	381.9621105730703	382.5704293149747	0.6083187419044407				
292.505859375	0.2	599052	241	18	2	0	0	49	208	stimuli\Videos_short_600ms_horvertflip\35.single_punch_with_hand_short_horvertflip_short_600ms.mp4	35.single_punch_with_hand_short_horvertflip_short_600ms.mp4	382.762091336137	383.3704130105011	0.608321674364106				
293.3056640625	0.2	600690	242	18	2	0	0	50	77	stimuli\Videos_short_600ms\8.single_touch_with_hairbrush_short_short_600ms.mp4	8.single_touch_with_hairbrush_short_short_600ms.mp4	383.5620732721877	384.17039787901103	0.6083246068233166				
294.10546875	0.2	602328	243	18	2	0	0	51	64	stimuli\Videos_short_600ms\68.stroke_top_to_bottom_with_shawl_short_short_600ms.mp4	68.stroke_top_to_bottom_with_shawl_short_short_600ms.mp4	384.3620640056165	384.9703833340127	0.6083193283961918				
294.90576171875	0.2	603967	244	18	2	0	0	52	248	stimuli\Videos_short_600ms_horvertflip\71.single_stroke_with_finger_top_to_bottom_short_horvertflip_short_600ms.mp4	71.single_stroke_with_finger_top_to_bottom_short_horvertflip_short_600ms.mp4	385.16205151334	385.7703655633095	0.6083140499695219				
295.70556640625	0.2	605605	245	18	2	0	0	53	188	stimuli\Videos_short_600ms_horvertflip\17.repeated_touch_with_rolling_pin_short_horvertflip_short_600ms.mp4	17.repeated_touch_with_rolling_pin_short_horvertflip_short_600ms.mp4	385.96204605896537	386.57035131155726	0.6083052525918902				
296.505859375	0.2	607244	246	18	2	0	0	54	327	stimuli\Videos_short_600ms_vertflip\61.single_hit_with_rolling_pin_short_vertflip_short_600ms.mp4	61.single_hit_with_rolling_pin_short_vertflip_short_600ms.mp4	386.76202183685155	387.37031506636	0.6082932295084902				
297.3056640625	0.2	608882	247	18	2	0	0	55	103	stimuli\Videos_short_600ms_horflip\21.repeated_touch_with_metal_chopstick_short_horflip_short_600ms.mp4	21.repeated_touch_with_metal_chopstick_short_horflip_short_600ms.mp4	387.56201872844485	388.1703327784144	0.6083140499695219				
298.10546875	0.2	610520	248	18	2	0	0	56	260	stimuli\Videos_short_600ms_horvertflip\82.repeated_touch_with_cotton_bud_short_horvertflip_short_600ms.mp4	82.repeated_touch_with_cotton_bud_short_horvertflip_short_600ms.mp4	388.3619939198388	388.97031178200587	0.6083178621670413				
298.90576171875	0.2	612159	249	18	2	0	0	57	223	stimuli\Videos_short_600ms_horvertflip\49.repeated_slap_with_hand_short_horvertflip_short_600ms.mp4	49.repeated_slap_with_hand_short_horvertflip_short_600ms.mp4	389.1619784951031	389.7703042749099	0.6083257798068189				
299.70556640625	0.2	613797	250	18	2	0	0	58	139	stimuli\Videos_short_600ms_horflip\54.repeated_touch_with_knife_short_horflip_short_600ms.mp4	54.repeated_touch_with_knife_short_horflip_short_600ms.mp4	389.96196570958045	390.5702826920096	0.6083169824291872				
300.50537109375	0.2	615435	251	18	2	0	0	59	165	stimuli\Videos_short_600ms_horflip\78.single_stroke_top_to_bottom_with_soft_brush_short_horflip_short_600ms.mp4	78.single_stroke_top_to_bottom_with_soft_brush_short_horflip_short_600ms.mp4	390.76195087133647	391.3702781173729	0.6083272460364242				
301.3056640625	0.2	617074	252	18	2	0	0	60	185	stimuli\Videos_short_600ms_horvertflip\14.repeated_touch_with_pencil_short_horvertflip_short_600ms.mp4	14.repeated_touch_with_pencil_short_horvertflip_short_600ms.mp4	391.56193691283033	392.1702533087673	0.6083163959369813				
302.10546875	0.2	618712	253	18	2	0	0	61	150	stimuli\Videos_short_600ms_horflip\64.repeated_touch_with_screwdriver_short_horflip_short_600ms.mp4	64.repeated_touch_with_screwdriver_short_horflip_short_600ms.mp4	392.36192031511064	392.9702378840316	0.6083175689209384				
302.9052734375	0.2	620350	254	18	2	0	0	62	166	stimuli\Videos_short_600ms_horflip\79.long_with_soft_brush_all_over_the_hand_short_horflip_short_600ms.mp4	79.long_with_soft_brush_all_over_the_hand_short_horflip_short_600ms.mp4	393.161911341785	393.7702262714925	0.608314929707376				
303.70556640625	0.2	621989	255	18	2	0	0	63	318	stimuli\Videos_short_600ms_vertflip\53.touch_top_to_bottom_with_knife_short_vertflip_short_600ms.mp4	53.touch_top_to_bottom_with_knife_short_vertflip_short_600ms.mp4	393.9618897588843	394.5702085007893	0.6083187419048954				
304.50537109375	0.2	623627	256	18	2	0	0	64	207	stimuli\Videos_short_600ms_horvertflip\34.repeated_punch_with_hand_short_horvertflip_short_600ms.mp4	34.repeated_punch_with_hand_short_horvertflip_short_600ms.mp4	394.7618766801161	395.3701957152666	0.6083190351505436				
305.30517578125	0.2	625265	257	18	2	0	0	65	251	stimuli\Videos_short_600ms_horvertflip\74.fingers_walking_from_top_to_bottom_short_horvertflip_short_600ms.mp4	74.fingers_walking_from_top_to_bottom_short_horvertflip_short_600ms.mp4	395.561870052758	396.1701799972848	0.608309944526809				
306.10546875	0.2	626904	258	18	2	0	0	66	3	stimuli\Videos_short_600ms\12.repeated_touch_with_nail_file_short_short_600ms.mp4	12.repeated_touch_with_nail_file_short_short_600ms.mp4	396.3618267696588	396.9701666252704	0.6083398556115753				
306.9052734375	0.2	628542	259	18	2	0	0	67	7	stimuli\Videos_short_600ms\16.repeated_touch_with_plastic_brush_short_short_600ms.mp4	16.repeated_touch_with_plastic_brush_short_short_600ms.mp4	397.1618072394799	397.770153253256	0.6083460137760994				
307.705078125	0.2	630180	260	18	2	0	0	68	27	stimuli\Videos_short_600ms\34.repeated_punch_with_hand_short_short_600ms.mp4	34.repeated_punch_with_hand_short_short_600ms.mp4	397.961791228252	398.5701384150116	0.6083471867596018				
308.50537109375	0.2	631819	261	18	2	0	0	69	66	stimuli\Videos_short_600ms\7.repeated_touch_with_hairbrush_short_short_600ms.mp4	7.repeated_touch_with_hairbrush_short_short_600ms.mp4	398.7617796157133	399.3701226970298	0.6083430813164341				
309.30517578125	0.2	633457	262	18	2	0	0	70	308	stimuli\Videos_short_600ms_vertflip\44.pushing_top_to_bottom_with_finger_short_vertflip_short_600ms.mp4	44.pushing_top_to_bottom_with_finger_short_vertflip_short_600ms.mp4	399.5618102305884	400.17010815203184	0.608297921443409				
310.10498046875	0.2	635095	263	18	2	0	0	71	52	stimuli\Videos_short_600ms\57.single_touch_with_nail_file_short_short_600ms.mp4	57.single_touch_with_nail_file_short_short_600ms.mp4	400.36174993922486	400.97009419352526	0.6083442543003912				
310.9052734375	0.2	636734	264	18	2	0	0	72	42	stimuli\Videos_short_600ms\48.single_slap_with_hand_short_short_600ms.mp4	48.single_slap_with_hand_short_short_600ms.mp4	401.16177527567334	401.7700611740338	0.6082858983604638				
311.705078125	0.2	638372	265	18	2	0	0	73	154	stimuli\Videos_short_600ms_horflip\68.stroke_top_to_bottom_with_shawl_short_horflip_short_600ms.mp4	68.stroke_top_to_bottom_with_shawl_short_horflip_short_600ms.mp4	401.96174372241103	402.57006686300474	0.6083231405937113				
312.5048828125	0.2	640010	266	18	2	0	0	74	276	stimuli\Videos_short_600ms_vertflip\15.single_stroke_top_to_bottom_with_a_plastic_whisk_short_vertflip_short_600ms.mp4	15.single_stroke_top_to_bottom_with_a_plastic_whisk_short_vertflip_short_600ms.mp4	402.7617347490859	403.37002592587305	0.6082911767871337				
313.30517578125	0.2	641649	267	18	2	0	0	75	138	stimuli\Videos_short_600ms_horflip\53.touch_top_to_bottom_with_knife_short_horflip_short_600ms.mp4	53.touch_top_to_bottom_with_knife_short_horflip_short_600ms.mp4	403.5617131661852	404.1700374797624	0.6083243135772136				
314.10498046875	0.2	643287	268	18	2	0	0	76	254	stimuli\Videos_short_600ms_horvertflip\77.tapping_with_all_fingers_short_horvertflip_short_600ms.mp4	77.tapping_with_all_fingers_short_horvertflip_short_600ms.mp4	404.36170038066257	404.97002733345334	0.608326952790776				
314.9052734375	0.2	644926	269	18	2	0	0	77	173	stimuli\Videos_short_600ms_horflip\85.touch_top_to_bottom_with_fabric_short_horflip_short_600ms.mp4	85.touch_top_to_bottom_with_fabric_short_horflip_short_600ms.mp4	405.1616887681239	405.77001542766857	0.608326659544673				
315.705078125	0.2	646564	270	18	2	0	0	78	228	stimuli\Videos_short_600ms_horvertflip\53.touch_top_to_bottom_with_knife_short_horvertflip_short_600ms.mp4	53.touch_top_to_bottom_with_knife_short_horvertflip_short_600ms.mp4	405.9616709974207	406.5700005894246	0.6083295920038836				
316.5048828125	0.2	648202	271	18	2	0	0	79	214	stimuli\Videos_short_600ms_horvertflip\40.repeated_push_with_finger_short_horvertflip_short_600ms.mp4	40.repeated_push_with_finger_short_horvertflip_short_600ms.mp4	406.76165469294665	407.3699787132782	0.6083240203315654				
317.30517578125	0.2	649841	272	18	2	0	1	80	374	stimuli\Targets_short_600ms_horvertflip\chopstickwood-tap_short_vertflip_short_600ms.mp4	chopstickwood-tap_short_vertflip_short_600ms.mp4	407.5616404411944	408.1699627020502	0.6083222608558572				
318.10498046875	0.2	651479	273	18	2	0	0	81	130	stimuli\Videos_short_600ms_horflip\46.scratching_top_to_bottom_with_finger_nails_short_horflip_short_600ms.mp4	46.scratching_top_to_bottom_with_finger_nails_short_horflip_short_600ms.mp4	408.36162472321257	408.9699490367898	0.6083243135772136				
318.90478515625	0.2	653117	274	18	2	0	0	82	342	stimuli\Videos_short_600ms_vertflip\75.(long)stroke_with_fingers_all_over_the_hand_short_vertflip_short_600ms.mp4	75.(long)stroke_with_fingers_all_over_the_hand_short_vertflip_short_600ms.mp4	409.161612230936	409.7699339052997	0.6083216743636513				
319.705078125	0.2	654756	275	18	2	0	0	83	37	stimuli\Videos_short_600ms\43.touch_top_to_bottom_with_sharp_wooden_stick_short_short_600ms.mp4	43.touch_top_to_bottom_with_sharp_wooden_stick_short_short_600ms.mp4	409.9615965129542	410.5699199467936	0.6083234338393595				
320.5048828125	0.2	656394	276	18	2	0	0	84	31	stimuli\Videos_short_600ms\38.double_slap_with_pencil_short_short_600ms.mp4	38.double_slap_with_pencil_short_short_600ms.mp4	410.76157903549665	411.3699056950413	0.608326659544673				
321.3046875	0.2	658032	277	18	2	0	1	85	375	stimuli\Targets_short_600ms_horvertflip\finger-tap_short_vertflip_short_600ms.mp4	finger-tap_short_vertflip_short_600ms.mp4	411.5615647837444	412.1698914432891	0.608326659544673				
322.10498046875	0.2	659671	278	18	2	0	0	86	91	stimuli\Videos_short_600ms_horflip\10.single_touch_with_knife_short_horflip_short_600ms.mp4	10.single_touch_with_knife_short_horflip_short_600ms.mp4	412.3616106474078	412.969876311799	0.6082656643911832				
322.90478515625	0.2	661309	279	18	2	0	0	87	252	stimuli\Videos_short_600ms_horvertflip\75.(long)stroke_with_fingers_all_over_the_hand_short_horvertflip_short_600ms.mp4	75.(long)stroke_with_fingers_all_over_the_hand_short_horvertflip_short_600ms.mp4	413.1615260166327	413.7698597140793	0.6083336974465965				
323.70458984375	0.2	662947	280	18	2	0	0	88	334	stimuli\Videos_short_600ms_vertflip\68.stroke_top_to_bottom_with_shawl_short_vertflip_short_600ms.mp4	68.stroke_top_to_bottom_with_shawl_short_vertflip_short_600ms.mp4	413.961525254193	414.569846635311	0.608321381118003				
324.5048828125	0.2	664586	281	18	2	0	0	89	113	stimuli\Videos_short_600ms_horflip\30.finger_pulling_back_another_finger_short_horflip_short_600ms.mp4	30.finger_pulling_back_another_finger_short_horflip_short_600ms.mp4	414.7615022050631	415.3698297443452	0.6083275392820724				
325.3046875	0.2	666224	282	18	2	0	0	90	332	stimuli\Videos_short_600ms_vertflip\66.stroke_top_to_bottom_with_sponge_short_vertflip_short_600ms.mp4	66.stroke_top_to_bottom_with_sponge_short_vertflip_short_600ms.mp4	415.5615037885909	416.1698222372497	0.6083184486587925				
326.1044921875	0.2	667862	283	18	2	0	0	91	299	stimuli\Videos_short_600ms_vertflip\36.single_slap_with_full_hand_short_vertflip_short_600ms.mp4	36.single_slap_with_full_hand_short_vertflip_short_600ms.mp4	416.361487777363	416.9698068125135	0.6083190351505436				
326.90478515625	0.2	669501	284	18	2	0	0	92	125	stimuli\Videos_short_600ms_horflip\41.injection_with_blunt_syringe_short_horflip_short_600ms.mp4	41.injection_with_blunt_syringe_short_horflip_short_600ms.mp4	417.1614664877088	417.76976440915223	0.608297921443409				
327.70458984375	0.2	671139	285	18	2	0	0	93	115	stimuli\Videos_short_600ms_horflip\32.single_(long)pinch_with_fingers_short_horflip_short_600ms.mp4	32.single_(long)pinch_with_fingers_short_horflip_short_600ms.mp4	417.9614551684158	418.56977127110713	0.6083161026913331	4.0	4.0	2.075056882379158	1.0
362.1533203125	0.2	741690	286	18	3	0	0	0	55	stimuli\Videos_short_600ms\6.single_touch_with_flat_hand_short_short_600ms.mp4	6.single_touch_with_flat_hand_short_short_600ms.mp4	452.410826991646	453.01914719978	0.608320208134046				
362.95361328125	0.2	743329	287	18	3	0	0	1	148	stimuli\Videos_short_600ms_horflip\62.touch_top_to_bottom_with_scissors_short_horflip_short_600ms.mp4	62.touch_top_to_bottom_with_scissors_short_horflip_short_600ms.mp4	453.21081068717194	453.81913206828995	0.608321381118003				
363.75341796875	0.2	744967	288	18	3	0	0	2	278	stimuli\Videos_short_600ms_vertflip\17.repeated_touch_with_rolling_pin_short_vertflip_short_600ms.mp4	17.repeated_touch_with_rolling_pin_short_vertflip_short_600ms.mp4	454.0107955556823	454.61911898952167	0.6083234338393595				
364.55322265625	0.2	746605	289	18	3	0	0	3	82	stimuli\Videos_short_600ms\84.single_touch_with_cotton_bud_short_short_600ms.mp4	84.single_touch_with_cotton_bud_short_short_600ms.mp4	454.8107821836679	455.4191041512777	0.6083219676097542				
365.353515625	0.2	748244	290	18	3	0	0	4	74	stimuli\Videos_short_600ms\77.tapping_with_all_fingers_short_short_600ms.mp4	77.tapping_with_all_fingers_short_short_600ms.mp4	455.6107462317168	456.21909576444386	0.6083495327270612				
366.1533203125	0.2	749882	291	18	3	0	0	5	292	stimuli\Videos_short_600ms_vertflip\3.single_push_with_finger_short_vertflip_short_600ms.mp4	3.single_push_with_finger_short_vertflip_short_600ms.mp4	456.4107571991144	457.019072715314	0.6083155161995819				
366.953125	0.2	751520	292	18	3	0	0	6	81	stimuli\Videos_short_600ms\83.single_stroke_top_to_bottom_with_cotton_bud_short_short_600ms.mp4	83.single_stroke_top_to_bottom_with_cotton_bud_short_short_600ms.mp4	457.210738841919	457.81905963654526	0.6083207946262519				
367.75341796875	0.2	753159	293	18	3	0	0	7	1	stimuli\Videos_short_600ms\10.single_touch_with_knife_short_short_600ms.mp4	10.single_touch_with_knife_short_short_600ms.mp4	458.0107266428886	458.6190450915469	0.6083184486583377				
368.55322265625	0.2	754797	294	18	3	0	1	8	371	stimuli\Targets_short_600ms_horflip\hand-stroke_short_horflip_short_600ms.mp4	hand-stroke_short_horflip_short_600ms.mp4	458.810705353234	459.4190314262869	0.6083260730529219				
369.353515625	0.2	756436	295	18	3	0	0	9	120	stimuli\Videos_short_600ms_horflip\37.single_stab_with_nail_file_short_horflip_short_600ms.mp4	37.single_stab_with_nail_file_short_horflip_short_600ms.mp4	459.61066822829935	460.2190148285672	0.6083466002678506				
370.1533203125	0.2	758074	296	18	3	0	0	10	348	stimuli\Videos_short_600ms_vertflip\80.stroke_with_sharp_stick_all_over_the_hand_short_vertflip_short_600ms.mp4	80.stroke_with_sharp_stick_all_over_the_hand_short_vertflip_short_600ms.mp4	460.4106765564834	461.01900174979846	0.6083251933150677				
370.953125	0.2	759712	297	18	3	0	0	11	179	stimuli\Videos_short_600ms_horflip\90.repeated_touch_with_sponge_short_horflip_short_600ms.mp4	90.repeated_touch_with_sponge_short_horflip_short_600ms.mp4	461.2106285814493	461.818985738571	0.6083571571216453				
371.75341796875	0.2	761351	298	18	3	0	0	12	315	stimuli\Videos_short_600ms_vertflip\50.single_(long)hard_push_with_thumb_short_vertflip_short_600ms.mp4	50.single_(long)hard_push_with_thumb_short_vertflip_short_600ms.mp4	462.0106615422919	462.6189691408513	0.6083075985593496				
372.55322265625	0.2	762989	299	18	3	0	0	13	281	stimuli\Videos_short_600ms_vertflip\2.single_touch_with_finger_short_vertflip_short_600ms.mp4	2.single_touch_with_finger_short_vertflip_short_600ms.mp4	462.81064670404794	463.41896222024707	0.6083155161991272				
373.35302734375	0.2	764627	300	18	3	0	0	14	18	stimuli\Videos_short_600ms\26.single_touch_with_a_blunt_syringe_short_short_600ms.mp4	26.single_touch_with_a_blunt_syringe_short_short_600ms.mp4	463.6106195494749	464.2189171776722	0.608297628197306				
374.1533203125	0.2	766266	301	18	3	0	0	15	118	stimuli\Videos_short_600ms_horflip\35.single_punch_with_hand_short_horflip_short_600ms.mp4	35.single_punch_with_hand_short_horflip_short_600ms.mp4	464.41060617746007	465.0189266788406	0.6083205013806037				
374.953125	0.2	767904	302	18	3	0	0	16	25	stimuli\Videos_short_600ms\32.single_(long)pinch_with_fingers_short_short_600ms.mp4	32.single_(long)pinch_with_fingers_short_short_600ms.mp4	465.2105904594782	465.8189027499725	0.6083122904942684				
375.7529296875	0.2	769542	303	18	3	0	0	17	112	stimuli\Videos_short_600ms_horflip\3.single_push_with_finger_short_horflip_short_600ms.mp4	3.single_push_with_finger_short_horflip_short_600ms.mp4	466.0105765009721	466.6188987618279	0.6083222608558572				
376.55322265625	0.2	771181	304	18	3	0	0	18	22	stimuli\Videos_short_600ms\3.single_push_with_finger_short_short_600ms.mp4	3.single_push_with_finger_short_short_600ms.mp4	466.8105616627281	467.41889330745335	0.60833164472524				
377.35302734375	0.2	772819	305	18	3	0	0	19	36	stimuli\Videos_short_600ms\42.single_slap_with_plastic_whisk_short_short_600ms.mp4	42.single_slap_with_plastic_whisk_short_short_600ms.mp4	467.6105488772055	468.21888022868507	0.6083313514795918				
378.15283203125	0.2	774457	306	18	3	0	0	20	225	stimuli\Videos_short_600ms_horvertflip\50.single_(long)hard_push_with_thumb_short_horvertflip_short_600ms.mp4	50.single_(long)hard_push_with_thumb_short_horvertflip_short_600ms.mp4	468.410531692994	469.0188539538499	0.6083222608558572				
378.953125	0.2	776096	307	18	3	0	0	21	163	stimuli\Videos_short_600ms_horflip\76.tickle_with_fingers_from_top_to_bottom_short_horflip_short_600ms.mp4	76.tickle_with_fingers_from_top_to_bottom_short_horflip_short_600ms.mp4	469.2105183209797	469.8188385291137	0.608320208134046				
379.7529296875	0.2	777734	308	18	3	0	0	22	219	stimuli\Videos_short_600ms_horvertflip\45.scratching_with_finger_nails_short_horvertflip_short_600ms.mp4	45.scratching_with_finger_nails_short_horvertflip_short_600ms.mp4	470.0105061219488	470.6188260368371	0.6083199148883978				
380.552734375	0.2	779372	309	18	3	0	0	23	304	stimuli\Videos_short_600ms_vertflip\40.repeated_push_with_finger_short_vertflip_short_600ms.mp4	40.repeated_push_with_finger_short_vertflip_short_600ms.mp4	470.81048776475336	471.4188103188553	0.6083225541019601				
381.35302734375	0.2	781011	310	18	3	0	0	24	253	stimuli\Videos_short_600ms_horvertflip\76.tickle_with_fingers_from_top_to_bottom_short_horvertflip_short_600ms.mp4	76.tickle_with_fingers_from_top_to_bottom_short_horvertflip_short_600ms.mp4	471.61048319011707	472.2187951873652	0.6083119972481654				
382.15283203125	0.2	782649	311	18	3	0	0	25	301	stimuli\Videos_short_600ms_vertflip\38.double_slap_with_pencil_short_vertflip_short_600ms.mp4	38.double_slap_with_pencil_short_vertflip_short_600ms.mp4	472.4104566220358	473.018780935613	0.6083243135772136				
382.95263671875	0.2	784287	312	18	3	0	0	26	280	stimuli\Videos_short_600ms_vertflip\19.single_touch_with_rolling_pin_short_vertflip_short_600ms.mp4	19.single_touch_with_rolling_pin_short_vertflip_short_600ms.mp4	473.21044735546457	473.8187681500904	0.6083207946257971				
383.7529296875	0.2	785926	313	18	3	0	0	27	132	stimuli\Videos_short_600ms_horflip\48.single_slap_with_hand_short_horflip_short_600ms.mp4	48.single_slap_with_hand_short_horflip_short_600ms.mp4	474.0104052453489	474.6187527253546	0.6083474800057047				
384.552734375	0.2	787564	314	18	3	0	0	28	346	stimuli\Videos_short_600ms_vertflip\79.long_with_soft_brush_all_over_the_hand_short_vertflip_short_600ms.mp4	79.long_with_soft_brush_all_over_the_hand_short_vertflip_short_600ms.mp4	474.81039920448256	475.418738766848	0.6083395623654724				
385.3525390625	0.2	789202	315	18	3	0	0	29	233	stimuli\Videos_short_600ms_horvertflip\58.single_slap_with_pencil_short_horvertflip_short_600ms.mp4	58.single_slap_with_pencil_short_horvertflip_short_600ms.mp4	475.6104600236886	476.21872128939094	0.6082612657023674				
386.15283203125	0.2	790841	316	18	3	0	0	30	218	stimuli\Videos_short_600ms_horvertflip\44.pushing_top_to_bottom_with_finger_short_horvertflip_short_600ms.mp4	44.pushing_top_to_bottom_with_finger_short_horvertflip_short_600ms.mp4	476.41039298766873	477.0187087971139	0.6083158094452301				
386.95263671875	0.2	792479	317	18	3	0	0	31	258	stimuli\Videos_short_600ms_horvertflip\80.stroke_with_sharp_stick_all_over_the_hand_short_horvertflip_short_600ms.mp4	80.stroke_with_sharp_stick_all_over_the_hand_short_horvertflip_short_600ms.mp4	477.2103793224087	477.81868985342726	0.6083105310185601				
387.7529296875	0.2	794118	318	18	3	0	0	32	316	stimuli\Videos_short_600ms_vertflip\51.repeated_touch_with_hammer_short_vertflip_short_600ms.mp4	51.repeated_touch_with_hammer_short_vertflip_short_600ms.mp4	478.01036448416426	478.6186761881668	0.6083117040025172				
388.552734375	0.2	795756	319	18	3	0	0	33	5	stimuli\Videos_short_600ms\14.repeated_touch_with_pencil_short_short_600ms.mp4	14.repeated_touch_with_pencil_short_short_600ms.mp4	478.8103446607397	479.41866516211985	0.6083205013801489				
389.3525390625	0.2	797394	320	18	3	0	1	34	364	stimuli\Targets_short_600ms\hand-pinch_short_short_600ms.mp4	hand-pinch_short_short_600ms.mp4	479.61032806302	480.2186344885954	0.6083064255753925				
390.15283203125	0.2	799033	321	18	3	0	0	35	80	stimuli\Videos_short_600ms\82.repeated_touch_with_cotton_bud_short_short_600ms.mp4	82.repeated_touch_with_cotton_bud_short_short_600ms.mp4	480.41031205179206	481.0186316734344	0.6083196216422948				
390.95263671875	0.2	800671	322	18	3	0	0	36	345	stimuli\Videos_short_600ms_vertflip\78.single_stroke_top_to_bottom_with_soft_brush_short_vertflip_short_600ms.mp4	78.single_stroke_top_to_bottom_with_soft_brush_short_vertflip_short_600ms.mp4	481.2102980932859	481.8186215271253	0.6083234338393595				
391.75244140625	0.2	802309	323	18	3	0	0	37	331	stimuli\Videos_short_600ms_vertflip\65.stroke_top_to_bottom_with_stanley_knife_short_vertflip_short_600ms.mp4	65.stroke_top_to_bottom_with_stanley_knife_short_vertflip_short_600ms.mp4	482.01028296179584	482.61860874160266	0.6083257798068189				
392.552734375	0.2	803948	324	18	3	0	0	38	213	stimuli\Videos_short_600ms_horvertflip\4.repeated_tap_with_finger_slow_short_horvertflip_short_600ms.mp4	4.repeated_tap_with_finger_slow_short_horvertflip_short_600ms.mp4	482.8102701762732	483.4185962493262	0.6083260730529219				
393.3525390625	0.2	805586	325	18	3	0	0	39	102	stimuli\Videos_short_600ms_horflip\20.single_touch_with_screwdriver_short_horflip_short_600ms.mp4	20.single_touch_with_screwdriver_short_horflip_short_600ms.mp4	483.61025475153747	484.21857701239287	0.6083222608554024				
394.15234375	0.2	807224	326	18	3	0	0	40	226	stimuli\Videos_short_600ms_horvertflip\51.repeated_touch_with_hammer_short_horvertflip_short_600ms.mp4	51.repeated_touch_with_hammer_short_horvertflip_short_600ms.mp4	484.4102437254901	485.0185750769697	0.6083313514795918				
394.95263671875	0.2	808863	327	18	3	0	0	41	326	stimuli\Videos_short_600ms_vertflip\60.single_push_with_tip_of_pencil_short_vertflip_short_600ms.mp4	60.single_push_with_tip_of_pencil_short_vertflip_short_600ms.mp4	485.2102247818034	485.81854792239665	0.6083231405932565				
395.75244140625	0.2	810501	328	18	3	0	0	42	164	stimuli\Videos_short_600ms_horflip\77.tapping_with_all_fingers_short_horflip_short_600ms.mp4	77.tapping_with_all_fingers_short_horflip_short_600ms.mp4	486.0102125827725	486.6185336706444	0.6083210878719001				
396.55224609375	0.2	812139	329	18	3	0	0	43	255	stimuli\Videos_short_600ms_horvertflip\78.single_stroke_top_to_bottom_with_soft_brush_short_horvertflip_short_600ms.mp4	78.single_stroke_top_to_bottom_with_soft_brush_short_horvertflip_short_600ms.mp4	486.8101959850528	487.4185185391543	0.6083225541015054				
397.3525390625	0.2	813778	330	18	3	0	0	44	335	stimuli\Videos_short_600ms_vertflip\69.stroke_with_soft_sock_short_vertflip_short_600ms.mp4	69.stroke_with_soft_sock_short_vertflip_short_600ms.mp4	487.6101911171704	488.2185048738943	0.6083137567238737				
398.15234375	0.2	815416	331	18	3	0	0	45	289	stimuli\Videos_short_600ms_vertflip\27.single_push_with_a_plastic_whisk_short_vertflip_short_600ms.mp4	27.single_push_with_a_plastic_whisk_short_vertflip_short_600ms.mp4	488.41019387368215	489.01848710319064	0.6082932295084902				
398.9521484375	0.2	817054	332	18	3	0	0	46	194	stimuli\Videos_short_600ms_horvertflip\22.single_touch_with_metal_chopstick_short_horvertflip_short_600ms.mp4	22.single_touch_with_metal_chopstick_short_horvertflip_short_600ms.mp4	489.2101283038919	489.8184746109141	0.6083463070222024				
399.75244140625	0.2	818693	333	18	3	0	0	47	227	stimuli\Videos_short_600ms_horvertflip\52.touch_top_to_bottom_with_hammer_short_horvertflip_short_600ms.mp4	52.touch_top_to_bottom_with_hammer_short_horvertflip_short_600ms.mp4	490.0101336996172	490.6184609456536	0.6083272460364242				
400.55224609375	0.2	820331	334	18	3	0	0	48	0	stimuli\Videos_short_600ms\1.repeated_touch_with_finger_fast_short_short_600ms.mp4	1.repeated_touch_with_finger_fast_short_short_600ms.mp4	490.8100992138957	491.4184431749504	0.608343961054743				
401.35205078125	0.2	821969	335	18	3	0	0	49	122	stimuli\Videos_short_600ms_horflip\39.single_stab_with_scissors_short_horflip_short_600ms.mp4	39.single_stab_with_scissors_short_horflip_short_600ms.mp4	491.6101072488341	492.21843420162486	0.608326952790776				
402.15234375	0.2	823608	336	18	3	0	0	50	209	stimuli\Videos_short_600ms_horvertflip\36.single_slap_with_full_hand_short_horvertflip_short_600ms.mp4	36.single_slap_with_full_hand_short_horvertflip_short_600ms.mp4	492.4100988620007	493.01841027275714	0.6083114107564143				
402.9521484375	0.2	825246	337	18	3	0	1	51	363	stimuli\Targets_short_600ms\finger-tap_short_short_600ms.mp4	finger-tap_short_short_600ms.mp4	493.2100893021834	493.8183825316919	0.6082932295084902				
403.751953125	0.2	826884	338	18	3	0	0	52	128	stimuli\Videos_short_600ms_horflip\44.pushing_top_to_bottom_with_finger_short_horflip_short_600ms.mp4	44.pushing_top_to_bottom_with_finger_short_horflip_short_600ms.mp4	494.0100639070856	494.61839027338465	0.6083263662990248				
404.55224609375	0.2	828523	339	18	3	0	0	53	171	stimuli\Videos_short_600ms_horflip\83.single_stroke_top_to_bottom_with_cotton_bud_short_horflip_short_600ms.mp4	83.single_stroke_top_to_bottom_with_cotton_bud_short_horflip_short_600ms.mp4	494.8100599189411	495.4183675175004	0.6083075985593496				
405.35205078125	0.2	830161	340	18	3	0	0	54	343	stimuli\Videos_short_600ms_vertflip\76.tickle_with_fingers_from_top_to_bottom_short_vertflip_short_600ms.mp4	76.tickle_with_fingers_from_top_to_bottom_short_vertflip_short_600ms.mp4	495.6100330576137	496.2183605968962	0.6083275392825271				
406.15185546875	0.2	831799	341	18	3	0	0	55	312	stimuli\Videos_short_600ms_vertflip\48.single_slap_with_hand_short_vertflip_short_600ms.mp4	48.single_slap_with_hand_short_vertflip_short_600ms.mp4	496.41001880586145	497.0183481046197	0.6083292987582354				
406.9521484375	0.2	833438	342	18	3	0	0	56	10	stimuli\Videos_short_600ms\19.single_touch_with_rolling_pin_short_short_600ms.mp4	19.single_touch_with_rolling_pin_short_short_600ms.mp4	497.21000807306064	497.8183297474243	0.6083216743636513				
407.751953125	0.2	835076	343	18	3	0	0	57	175	stimuli\Videos_short_600ms_horflip\87.single_stroke_top_to_bottom_with_plastic_brush_short_horflip_short_600ms.mp4	87.single_stroke_top_to_bottom_with_plastic_brush_short_horflip_short_600ms.mp4	498.0099897158652	498.6183210673448	0.6083313514795918				
408.55224609375	0.2	836715	344	18	3	0	0	58	129	stimuli\Videos_short_600ms_horflip\45.scratching_with_finger_nails_short_horflip_short_600ms.mp4	45.scratching_with_finger_nails_short_horflip_short_600ms.mp4	498.8099760506052	499.4183003641824	0.6083243135772136				
409.35205078125	0.2	838353	345	18	3	0	0	59	321	stimuli\Videos_short_600ms_vertflip\56.repeated_touch_with_nail_file_short_vertflip_short_600ms.mp4	56.repeated_touch_with_nail_file_short_vertflip_short_600ms.mp4	499.6099612123608	500.2182837664627	0.6083225541019601				
410.15185546875	0.2	839991	346	18	3	0	0	60	256	stimuli\Videos_short_600ms_horvertflip\79.long_with_soft_brush_all_over_the_hand_short_horvertflip_short_600ms.mp4	79.long_with_soft_brush_all_over_the_hand_short_horvertflip_short_600ms.mp4	500.4099472538546	501.0182683417265	0.6083210878719001				
410.9521484375	0.2	841630	347	18	3	0	0	61	29	stimuli\Videos_short_600ms\36.single_slap_with_full_hand_short_short_600ms.mp4	36.single_slap_with_full_hand_short_short_600ms.mp4	501.2099332953485	501.8182540899743	0.6083207946257971				
411.751953125	0.2	843268	348	18	3	0	1	62	369	stimuli\Targets_short_600ms_horflip\finger-tap_short_horflip_short_600ms.mp4	finger-tap_short_horflip_short_600ms.mp4	502.0099155246448	502.6182392517303	0.6083237270854625				
412.5517578125	0.2	844906	349	18	3	0	0	63	183	stimuli\Videos_short_600ms_horvertflip\12.repeated_touch_with_nail_file_short_horvertflip_short_600ms.mp4	12.repeated_touch_with_nail_file_short_horvertflip_short_600ms.mp4	502.8099027391222	503.4182232405028	0.6083205013806037				
413.35205078125	0.2	846545	350	18	3	0	0	64	174	stimuli\Videos_short_600ms_horflip\86.touch_top_to_bottom_with_hair_brush_short_horflip_short_600ms.mp4	86.touch_top_to_bottom_with_hair_brush_short_horflip_short_600ms.mp4	503.6098612154988	504.21821074822583	0.6083495327270612				
414.15185546875	0.2	848183	351	18	3	0	0	65	157	stimuli\Videos_short_600ms_horflip\70.(long)stroke_with_finger_all_over_the_hand_short_horflip_short_600ms.mp4	70.(long)stroke_with_finger_all_over_the_hand_short_horflip_short_600ms.mp4	504.4098698369289	505.01819590998184	0.6083260730529219				
414.95166015625	0.2	849821	352	18	3	0	0	66	287	stimuli\Videos_short_600ms_vertflip\25.single_touch_with_stanley_knife_short_vertflip_short_600ms.mp4	25.single_touch_with_stanley_knife_short_vertflip_short_600ms.mp4	505.20983681743746	505.8181790190165	0.6083422015790347				
415.751953125	0.2	851460	353	18	3	0	0	67	284	stimuli\Videos_short_600ms_vertflip\22.single_touch_with_metal_chopstick_short_vertflip_short_600ms.mp4	22.single_touch_with_metal_chopstick_short_vertflip_short_600ms.mp4	506.0098422131623	506.61816594024776	0.6083237270854625				
416.5517578125	0.2	853098	354	18	3	0	0	68	347	stimuli\Videos_short_600ms_vertflip\8.single_touch_with_hairbrush_short_vertflip_short_600ms.mp4	8.single_touch_with_hairbrush_short_vertflip_short_600ms.mp4	506.8098288411479	507.4181534479712	0.6083246068233166				
417.3515625	0.2	854736	355	18	3	0	0	69	313	stimuli\Videos_short_600ms_vertflip\49.repeated_slap_with_hand_short_vertflip_short_600ms.mp4	49.repeated_slap_with_hand_short_vertflip_short_600ms.mp4	507.60988584815686	508.2181260001521	0.6082401519952327				
418.15185546875	0.2	856375	356	18	3	0	0	70	265	stimuli\Videos_short_600ms_horvertflip\87.single_stroke_top_to_bottom_with_plastic_brush_short_horvertflip_short_600ms.mp4	87.single_stroke_top_to_bottom_with_plastic_brush_short_horvertflip_short_600ms.mp4	508.4098094282672	509.0181223052532	0.6083128769860195				
418.95166015625	0.2	858013	357	18	3	0	0	71	220	stimuli\Videos_short_600ms_horvertflip\46.scratching_top_to_bottom_with_finger_nails_short_horvertflip_short_600ms.mp4	46.scratching_top_to_bottom_with_finger_nails_short_horvertflip_short_600ms.mp4	509.20978549939946	509.8181092264849	0.6083237270854625				
419.75146484375	0.2	859651	358	18	3	0	0	72	184	stimuli\Videos_short_600ms_horvertflip\13.single_touch_with_pen_short_horvertflip_short_600ms.mp4	13.single_touch_with_pen_short_horvertflip_short_600ms.mp4	510.0097782855496	510.61809438824093	0.6083161026913331				
420.5517578125	0.2	861290	359	18	3	0	1	73	361	stimuli\Targets_short_600ms\chopstick-silver-tap_short_short_600ms.mp4	chopstick-silver-tap_short_short_600ms.mp4	510.8097540634358	511.4180730985863	0.6083190351505436				
421.3515625	0.2	862928	360	18	3	0	0	74	149	stimuli\Videos_short_600ms_horflip\63.stroke_top_to_bottom_with_screwdriver_short_horflip_short_600ms.mp4	63.stroke_top_to_bottom_with_screwdriver_short_horflip_short_600ms.mp4	511.6097401049296	512.2180717496549	0.60833164472524				
422.1513671875	0.2	864566	361	18	3	0	0	75	89	stimuli\Videos_short_600ms\90.repeated_touch_with_sponge_short_short_600ms.mp4	90.repeated_touch_with_sponge_short_short_600ms.mp4	512.4097252666852	513.0180519262299	0.608326659544673				
422.95166015625	0.2	866205	362	18	3	0	0	76	235	stimuli\Videos_short_600ms_horvertflip\6.single_touch_with_flat_hand_short_horvertflip_short_600ms.mp4	6.single_touch_with_flat_hand_short_horvertflip_short_600ms.mp4	513.2097104284412	513.81804471238	0.6083342839388024				
423.75146484375	0.2	867843	363	18	3	0	0	77	30	stimuli\Videos_short_600ms\37.single_stab_with_nail_file_short_short_600ms.mp4	37.single_stab_with_nail_file_short_short_600ms.mp4	514.009696176689	514.6180193172827	0.6083231405937113				
424.55126953125	0.2	869481	364	18	3	0	0	78	24	stimuli\Videos_short_600ms\31.hand_grabbing_wrist_short_short_600ms.mp4	31.hand_grabbing_wrist_short_short_600ms.mp4	514.8096836844124	515.4180030128086	0.6083193283961918				
425.3515625	0.2	871120	365	18	3	0	0	79	204	stimuli\Videos_short_600ms_horvertflip\31.hand_grabbing_wrist_short_horvertflip_short_600ms.mp4	31.hand_grabbing_wrist_short_horvertflip_short_600ms.mp4	515.6096673799389	516.2179911070239	0.6083237270850077				
426.1513671875	0.2	872758	366	18	3	0	0	80	136	stimuli\Videos_short_600ms_horflip\51.repeated_touch_with_hammer_short_horflip_short_600ms.mp4	51.repeated_touch_with_hammer_short_horflip_short_600ms.mp4	516.409651661957	517.0179768552721	0.6083251933150677				
426.95166015625	0.2	874397	367	18	3	0	0	81	243	stimuli\Videos_short_600ms_horvertflip\67.single_touch_with_sponge_short_horvertflip_short_600ms.mp4	67.single_touch_with_sponge_short_horvertflip_short_600ms.mp4	517.2096388764344	517.8179593778145	0.6083205013801489				
427.75146484375	0.2	876035	368	18	3	0	0	82	236	stimuli\Videos_short_600ms_horvertflip\60.single_push_with_tip_of_pencil_short_horvertflip_short_600ms.mp4	60.single_push_with_tip_of_pencil_short_horvertflip_short_600ms.mp4	518.0096275571414	518.6179489382594	0.608321381118003				
428.55126953125	0.2	877673	369	18	3	0	0	83	290	stimuli\Videos_short_600ms_vertflip\28.single_injection_with_sharp_needle_short_vertflip_short_600ms.mp4	28.single_injection_with_sharp_needle_short_vertflip_short_600ms.mp4	518.809584860534	519.4179291148344	0.6083442543003912				
429.3515625	0.2	879312	370	18	3	0	0	84	48	stimuli\Videos_short_600ms\53.touch_top_to_bottom_with_knife_short_short_600ms.mp4	53.touch_top_to_bottom_with_knife_short_short_600ms.mp4	519.6096063847854	520.2179163293117	0.6083099445263542				
430.1513671875	0.2	880950	371	18	3	0	1	85	372	stimuli\Targets_short_600ms_horvertflip\brush-stroke_short_vertflip_short_600ms.mp4	brush-stroke_short_vertflip_short_600ms.mp4	520.409638172644	521.0179032505434	0.6082650778994321				
430.951171875	0.2	882588	372	18	3	0	0	86	20	stimuli\Videos_short_600ms\28.single_injection_with_sharp_needle_short_short_600ms.mp4	28.single_injection_with_sharp_needle_short_short_600ms.mp4	521.2095605797708	521.8178840136102	0.6083234338393595				
431.75146484375	0.2	884227	373	18	3	0	0	87	28	stimuli\Videos_short_600ms\35.single_punch_with_hand_short_short_600ms.mp4	35.single_punch_with_hand_short_short_600ms.mp4	522.0095439820511	522.6178732808094	0.6083292987582354				
432.55126953125	0.2	885865	374	18	3	0	0	88	239	stimuli\Videos_short_600ms_horvertflip\63.stroke_top_to_bottom_with_screwdriver_short_horvertflip_short_600ms.mp4	63.stroke_top_to_bottom_with_screwdriver_short_horvertflip_short_600ms.mp4	522.8095414601362	523.4178370356121	0.6082955754759496				
433.35107421875	0.2	887503	375	18	3	0	0	89	152	stimuli\Videos_short_600ms_horflip\66.stroke_top_to_bottom_with_sponge_short_horflip_short_600ms.mp4	66.stroke_top_to_bottom_with_sponge_short_horflip_short_600ms.mp4	523.6095222232029	524.2178221973682	0.6082999741652202				
