onset	duration	onsetsample	eventnumber	subjectnr	sequencenumber	blocksequencenumber	istarget	presentationnumber	stimnumber	stim	stimname	time_stimon	time_stimoff	stimdur	cresp	resp	rt	correct
10.94287109375	0.2	22411	0	53	0	0	0	0	11	stimuli\Videos_short_600ms\2.single_touch_with_finger_short_short_600ms.mp4	2.single_touch_with_finger_short_short_600ms.mp4	139.35332191430325	139.9585698002138	0.6052478859105577	n/a	n/a	n/a	n/a
11.74267578125	0.2	24049	1	53	0	0	0	1	171	stimuli\Videos_short_600ms_horflip\83.single_stroke_top_to_bottom_with_cotton_bud_short_horflip_short_600ms.mp4	83.single_stroke_top_to_bottom_with_cotton_bud_short_horflip_short_600ms.mp4	140.15856909642116	140.76689050194136	0.6083214055202006	n/a	n/a	n/a	n/a
12.54248046875	0.2	25687	2	53	0	0	0	2	358	stimuli\Videos_short_600ms_vertflip\9.single_touch_with_hammer_short_vertflip_short_600ms.mp4	9.single_touch_with_hammer_short_vertflip_short_600ms.mp4	140.95855836358896	141.56689032599343	0.6083319624044634	n/a	n/a	n/a	n/a
13.3427734375	0.2	27326	3	53	0	0	0	3	140	stimuli\Videos_short_600ms_horflip\55.touch_top_to_bottom_with_nail_file_short_horflip_short_600ms.mp4	55.touch_top_to_bottom_with_nail_file_short_horflip_short_600ms.mp4	141.75893823548083	142.36686786328937	0.6079296278085167	n/a	n/a	n/a	n/a
14.142578125	0.2	28964	4	53	0	0	0	4	217	stimuli\Videos_short_600ms_horvertflip\43.touch_top_to_bottom_with_sharp_wooden_stick_short_horvertflip_short_600ms.mp4	43.touch_top_to_bottom_with_sharp_wooden_stick_short_horvertflip_short_600ms.mp4	142.55850669350457	143.1668691535751	0.6083624600705662	n/a	n/a	n/a	n/a
14.9423828125	0.2	30602	5	53	0	0	0	5	154	stimuli\Videos_short_600ms_horflip\68.stroke_top_to_bottom_with_shawl_short_horflip_short_600ms.mp4	68.stroke_top_to_bottom_with_shawl_short_horflip_short_600ms.mp4	143.3585211798959	143.96684287866265	0.6083216987667583	n/a	n/a	n/a	n/a
15.74267578125	0.2	32241	6	53	0	0	0	6	30	stimuli\Videos_short_600ms\37.single_stab_with_nail_file_short_short_600ms.mp4	37.single_stab_with_nail_file_short_short_600ms.mp4	144.1584864008264	144.76683214583045	0.6083457450040441	n/a	n/a	n/a	n/a
16.54248046875	0.2	33879	7	53	0	0	0	7	269	stimuli\Videos_short_600ms_horvertflip\90.repeated_touch_with_sponge_short_horvertflip_short_600ms.mp4	90.repeated_touch_with_sponge_short_horvertflip_short_600ms.mp4	144.95846892331792	145.5668196535171	0.6083507301991631	n/a	n/a	n/a	n/a
17.3427734375	0.2	35518	8	53	0	0	0	8	341	stimuli\Videos_short_600ms_vertflip\74.fingers_walking_from_top_to_bottom_short_vertflip_short_600ms.mp4	74.fingers_walking_from_top_to_bottom_short_vertflip_short_600ms.mp4	145.75858868530713	146.36680569496957	0.6082170096624395	n/a	n/a	n/a	n/a
18.142578125	0.2	37156	9	53	0	0	0	9	17	stimuli\Videos_short_600ms\25.single_touch_with_stanley_knife_short_short_600ms.mp4	25.single_touch_with_stanley_knife_short_short_600ms.mp4	146.5585307397414	147.16679378915023	0.6082630494088335	n/a	n/a	n/a	n/a
18.9423828125	0.2	38794	10	53	0	0	0	10	264	stimuli\Videos_short_600ms_horvertflip\86.touch_top_to_bottom_with_hair_brush_short_horvertflip_short_600ms.mp4	86.touch_top_to_bottom_with_hair_brush_short_horvertflip_short_600ms.mp4	147.35847338066924	147.96678305631758	0.6083096756483428	n/a	n/a	n/a	n/a
19.74267578125	0.2	40433	11	53	0	0	0	11	235	stimuli\Videos_short_600ms_horvertflip\6.single_touch_with_flat_hand_short_horvertflip_short_600ms.mp4	6.single_touch_with_flat_hand_short_horvertflip_short_600ms.mp4	148.15890779646406	148.7667729099785	0.6078651135144355	n/a	n/a	n/a	n/a
20.54248046875	0.2	42071	12	53	0	0	0	12	73	stimuli\Videos_short_600ms\76.tickle_with_fingers_from_top_to_bottom_short_short_600ms.mp4	76.tickle_with_fingers_from_top_to_bottom_short_short_600ms.mp4	148.9584161388957	149.566759244678	0.6083431057822963	n/a	n/a	n/a	n/a
21.34228515625	0.2	43709	13	53	0	0	0	13	238	stimuli\Videos_short_600ms_horvertflip\62.touch_top_to_bottom_with_scissors_short_horvertflip_short_600ms.mp4	62.touch_top_to_bottom_with_scissors_short_horvertflip_short_600ms.mp4	149.75883295988342	150.36674557937795	0.6079126194945275	n/a	n/a	n/a	n/a
22.142578125	0.2	45348	14	53	0	0	0	14	21	stimuli\Videos_short_600ms\29.single_pinch_with_tweezers_short_short_600ms.mp4	29.single_pinch_with_tweezers_short_short_600ms.mp4	150.5585245815587	151.16673279381757	0.6082082122588872	n/a	n/a	n/a	n/a
22.9423828125	0.2	46986	15	53	0	0	0	15	156	stimuli\Videos_short_600ms_horflip\7.repeated_touch_with_hairbrush_short_horflip_short_600ms.mp4	7.repeated_touch_with_hairbrush_short_horflip_short_600ms.mp4	151.35908831918823	151.96670387968425	0.607615560496015	n/a	n/a	n/a	n/a
23.7421875	0.2	48624	16	53	0	0	0	16	57	stimuli\Videos_short_600ms\61.single_hit_with_rolling_pin_short_short_600ms.mp4	61.single_hit_with_rolling_pin_short_short_600ms.mp4	152.15888902866982	152.766713674127	0.6078246454571854	n/a	n/a	n/a	n/a
24.54248046875	0.2	50263	17	53	0	0	0	17	252	stimuli\Videos_short_600ms_horvertflip\75.(long)stroke_with_fingers_all_over_the_hand_short_horvertflip_short_600ms.mp4	75.(long)stroke_with_fingers_all_over_the_hand_short_horvertflip_short_600ms.mp4	152.9585228807273	153.56669443713736	0.6081715564100705	n/a	n/a	n/a	n/a
25.34228515625	0.2	51901	18	53	0	0	0	18	166	stimuli\Videos_short_600ms_horflip\79.long_with_soft_brush_all_over_the_hand_short_horflip_short_600ms.mp4	79.long_with_soft_brush_all_over_the_hand_short_horflip_short_600ms.mp4	153.75846317568084	154.36668282456458	0.6082196488837326	n/a	n/a	n/a	n/a
26.14208984375	0.2	53539	19	53	0	0	0	19	224	stimuli\Videos_short_600ms_horvertflip\5.repeated_tap_with_finger_moving_from_top_to_bottom_short_horvertflip_short_600ms.mp4	5.repeated_tap_with_finger_moving_from_top_to_bottom_short_horvertflip_short_600ms.mp4	154.55832576023477	155.16668000939535	0.608354249160584	n/a	n/a	n/a	n/a
26.9423828125	0.2	55178	20	53	0	0	0	20	50	stimuli\Videos_short_600ms\55.touch_top_to_bottom_with_nail_file_short_short_600ms.mp4	55.touch_top_to_bottom_with_nail_file_short_short_600ms.mp4	155.35833907363894	155.96666253188687	0.6083234582479236	n/a	n/a	n/a	n/a
27.7421875	0.2	56816	21	53	0	0	0	21	40	stimuli\Videos_short_600ms\46.scratching_top_to_bottom_with_finger_nails_short_short_600ms.mp4	46.scratching_top_to_bottom_with_finger_nails_short_short_600ms.mp4	156.15830341482933	156.76665942347063	0.6083560086412945	n/a	n/a	n/a	n/a
28.5419921875	0.2	58454	22	53	0	0	0	22	319	stimuli\Videos_short_600ms_vertflip\54.repeated_touch_with_knife_short_vertflip_short_600ms.mp4	54.repeated_touch_with_knife_short_vertflip_short_600ms.mp4	156.95830822407652	157.56664341219584	0.6083351881193266	n/a	n/a	n/a	n/a
29.34228515625	0.2	60093	23	53	0	0	0	23	325	stimuli\Videos_short_600ms_vertflip\6.single_touch_with_flat_hand_short_vertflip_short_600ms.mp4	6.single_touch_with_flat_hand_short_vertflip_short_600ms.mp4	157.758303062933	158.3666370780652	0.6083340151321863	n/a	n/a	n/a	n/a
30.14208984375	0.2	61731	24	53	0	0	0	24	279	stimuli\Videos_short_600ms_vertflip\18.single_stroke_from_top_to_bottom_with_rolling_pin_short_vertflip_short_600ms.mp4	18.single_stroke_from_top_to_bottom_with_rolling_pin_short_vertflip_short_600ms.mp4	158.55826535139613	159.16661432211458	0.6083489707184526	n/a	n/a	n/a	n/a
30.94189453125	0.2	63369	25	53	0	0	0	25	5	stimuli\Videos_short_600ms\14.repeated_touch_with_pencil_short_short_600ms.mp4	14.repeated_touch_with_pencil_short_short_600ms.mp4	159.35831092194712	159.96660036356707	0.6082894416199451	n/a	n/a	n/a	n/a
31.7421875	0.2	65008	26	53	0	0	0	26	35	stimuli\Videos_short_600ms\41.injection_with_blunt_syringe_short_short_600ms.mp4	41.injection_with_blunt_syringe_short_short_600ms.mp4	160.15833567197615	160.76659168346214	0.6082560114859916	n/a	n/a	n/a	n/a
32.5419921875	0.2	66646	27	53	0	0	0	27	276	stimuli\Videos_short_600ms_vertflip\15.single_stroke_top_to_bottom_with_a_plastic_whisk_short_vertflip_short_600ms.mp4	15.single_stroke_top_to_bottom_with_a_plastic_whisk_short_vertflip_short_600ms.mp4	160.95831232953196	161.56657889790222	0.6082665683702544	n/a	n/a	n/a	n/a
33.341796875	0.2	68284	28	53	0	0	0	28	119	stimuli\Videos_short_600ms_horflip\36.single_slap_with_full_hand_short_horflip_short_600ms.mp4	36.single_slap_with_full_hand_short_horflip_short_600ms.mp4	161.75834792969226	162.36656523260172	0.608217302909452	n/a	n/a	n/a	n/a
34.14208984375	0.2	69923	29	53	0	0	0	29	165	stimuli\Videos_short_600ms_horflip\78.single_stroke_top_to_bottom_with_soft_brush_short_horflip_short_600ms.mp4	78.single_stroke_top_to_bottom_with_soft_brush_short_horflip_short_600ms.mp4	162.55831021815493	163.16655596600322	0.6082457478482866	n/a	n/a	n/a	n/a
34.94189453125	0.2	71561	30	53	0	0	0	30	157	stimuli\Videos_short_600ms_horflip\70.(long)stroke_with_finger_all_over_the_hand_short_horflip_short_600ms.mp4	70.(long)stroke_with_finger_all_over_the_hand_short_horflip_short_600ms.mp4	163.35832529103982	163.96654288719628	0.6082175961564644	n/a	n/a	n/a	n/a
35.7421875	0.2	73200	31	53	0	0	0	31	56	stimuli\Videos_short_600ms\60.single_push_with_tip_of_pencil_short_short_600ms.mp4	60.single_push_with_tip_of_pencil_short_short_600ms.mp4	164.15819491351704	164.76653068812993	0.6083357746128968	n/a	n/a	n/a	n/a
36.5419921875	0.2	74838	32	53	0	0	0	32	41	stimuli\Videos_short_600ms\47.(long)scratching_with_finger_nails_short_short_600ms.mp4	47.(long)scratching_with_finger_nails_short_short_600ms.mp4	164.95824605575717	165.56651614308885	0.6082700873316753	n/a	n/a	n/a	n/a
37.341796875	0.2	76476	33	53	0	0	0	33	353	stimuli\Videos_short_600ms_vertflip\85.touch_top_to_bottom_with_fabric_short_vertflip_short_600ms.mp4	85.touch_top_to_bottom_with_fabric_short_vertflip_short_600ms.mp4	165.75820101304998	166.3665101022052	0.6083090891552274	n/a	n/a	n/a	n/a
38.14208984375	0.2	78115	34	53	0	0	0	34	229	stimuli\Videos_short_600ms_horvertflip\54.repeated_touch_with_knife_short_horvertflip_short_600ms.mp4	54.repeated_touch_with_knife_short_horvertflip_short_600ms.mp4	166.55827884074824	167.16646945820003	0.6081906174517826	n/a	n/a	n/a	n/a
38.94189453125	0.2	79753	35	53	0	0	0	35	331	stimuli\Videos_short_600ms_vertflip\65.stroke_top_to_bottom_with_stanley_knife_short_vertflip_short_600ms.mp4	65.stroke_top_to_bottom_with_stanley_knife_short_vertflip_short_600ms.mp4	167.35828042428102	167.96645872536735	0.6081783010863546	n/a	n/a	n/a	n/a
39.74169921875	0.2	81391	36	53	0	0	0	36	160	stimuli\Videos_short_600ms_horflip\73.single_stroke_with_flat_hand_short_horflip_short_600ms.mp4	73.single_stroke_with_flat_hand_short_horflip_short_600ms.mp4	168.15814740753694	168.76646881305714	0.6083214055202006	n/a	n/a	n/a	n/a
40.55029296875	0.2	83047	37	53	0	0	0	37	209	stimuli\Videos_short_600ms_horvertflip\36.single_slap_with_full_hand_short_horvertflip_short_600ms.mp4	36.single_slap_with_full_hand_short_horvertflip_short_600ms.mp4	168.95811086898675	169.56645749373092	0.608346624744172	n/a	n/a	n/a	n/a
41.35009765625	0.2	84685	38	53	0	0	0	38	330	stimuli\Videos_short_600ms_vertflip\64.repeated_touch_with_screwdriver_short_vertflip_short_600ms.mp4	64.repeated_touch_with_screwdriver_short_vertflip_short_600ms.mp4	169.76646265487443	170.37478142117334	0.6083187662989076	n/a	n/a	n/a	n/a
42.14990234375	0.2	86323	39	53	0	0	0	39	116	stimuli\Videos_short_600ms_horflip\33.scratch_top_to_bottom_with_scissors_short_horflip_short_600ms.mp4	33.scratch_top_to_bottom_with_scissors_short_horflip_short_600ms.mp4	170.5665073456853	171.1747671693793	0.6082598236939702	n/a	n/a	n/a	n/a
42.9501953125	0.2	87962	40	53	0	0	0	40	42	stimuli\Videos_short_600ms\48.single_slap_with_hand_short_short_600ms.mp4	48.single_slap_with_hand_short_short_600ms.mp4	171.36643825674128	171.97475614330006	0.6083178865587797	n/a	n/a	n/a	n/a
43.75	0.2	89600	41	53	0	0	0	41	311	stimuli\Videos_short_600ms_vertflip\47.(long)scratching_with_finger_nails_short_vertflip_short_600ms.mp4	47.(long)scratching_with_finger_nails_short_vertflip_short_600ms.mp4	172.16640523715296	172.77472664267316	0.6083214055202006	n/a	n/a	n/a	n/a
44.5498046875	0.2	91238	42	53	0	0	0	42	99	stimuli\Videos_short_600ms_horflip\18.single_stroke_from_top_to_bottom_with_rolling_pin_short_horflip_short_600ms.mp4	18.single_stroke_from_top_to_bottom_with_rolling_pin_short_horflip_short_600ms.mp4	172.96638541366974	173.57473907633675	0.6083536626670139	n/a	n/a	n/a	n/a
45.35009765625	0.2	92877	43	53	0	0	0	43	139	stimuli\Videos_short_600ms_horflip\54.repeated_touch_with_knife_short_horflip_short_600ms.mp4	54.repeated_touch_with_knife_short_horflip_short_600ms.mp4	173.7664095772052	174.37472922324469	0.6083196460394902	n/a	n/a	n/a	n/a
46.14990234375	0.2	94515	44	53	0	0	0	44	64	stimuli\Videos_short_600ms\68.stroke_top_to_bottom_with_shawl_short_short_600ms.mp4	68.stroke_top_to_bottom_with_shawl_short_short_600ms.mp4	174.56645925321163	175.17470881326835	0.6082495600567199	n/a	n/a	n/a	n/a
46.94970703125	0.2	96153	45	53	0	0	0	45	152	stimuli\Videos_short_600ms_horflip\66.stroke_top_to_bottom_with_sponge_short_horflip_short_600ms.mp4	66.stroke_top_to_bottom_with_sponge_short_horflip_short_600ms.mp4	175.3664300458313	175.97470629134568	0.6082762455143893	n/a	n/a	n/a	n/a
47.75	0.2	97792	46	53	0	0	0	46	118	stimuli\Videos_short_600ms_horflip\35.single_punch_with_hand_short_horflip_short_600ms.mp4	35.single_punch_with_hand_short_horflip_short_600ms.mp4	176.1664163805308	176.7746888138372	0.6082724333064107	n/a	n/a	n/a	n/a
48.5498046875	0.2	99430	47	53	0	0	1	47	373	stimuli\Targets_short_600ms_horvertflip\chopstick-silver-tap_short_vertflip_short_600ms.mp4	chopstick-silver-tap_short_vertflip_short_600ms.mp4	176.96633438872823	177.57468775814868	0.6083533694204561	n/a	n/a	n/a	n/a
49.349609375	0.2	101068	48	53	0	0	0	48	234	stimuli\Videos_short_600ms_horvertflip\59.single_push_with_long_side_pencil_short_horvertflip_short_600ms.mp4	59.single_push_with_long_side_pencil_short_horvertflip_short_600ms.mp4	177.76634066420957	178.37466705492534	0.6083263907157743	n/a	n/a	n/a	n/a
50.14990234375	0.2	102707	49	53	0	0	0	49	310	stimuli\Videos_short_600ms_vertflip\46.scratching_top_to_bottom_with_finger_nails_short_vertflip_short_600ms.mp4	46.scratching_top_to_bottom_with_finger_nails_short_vertflip_short_600ms.mp4	178.5663020729321	179.17466951819824	0.6083674452661398	n/a	n/a	n/a	n/a
50.94970703125	0.2	104345	50	53	0	0	0	50	259	stimuli\Videos_short_600ms_horvertflip\81.single_stroke_top_to_bottom_with_cotton_pad_short_horvertflip_short_600ms.mp4	81.single_stroke_top_to_bottom_with_cotton_pad_short_horvertflip_short_600ms.mp4	179.36631685257044	179.97463972432433	0.6083228717538987	n/a	n/a	n/a	n/a
51.75	0.2	105984	51	53	0	0	0	51	237	stimuli\Videos_short_600ms_horvertflip\61.single_hit_with_rolling_pin_short_horvertflip_short_600ms.mp4	61.single_hit_with_rolling_pin_short_horvertflip_short_600ms.mp4	180.16641550079063	180.7746292847387	0.608213783948031	n/a	n/a	n/a	n/a
52.5498046875	0.2	107622	52	53	0	0	0	52	33	stimuli\Videos_short_600ms\4.repeated_tap_with_finger_slow_short_short_600ms.mp4	4.repeated_tap_with_finger_slow_short_short_600ms.mp4	180.96629069495657	181.57461503294465	0.6083243379880514	n/a	n/a	n/a	n/a
53.349609375	0.2	109260	53	53	0	0	0	53	111	stimuli\Videos_short_600ms_horflip\29.single_pinch_with_tweezers_short_horflip_short_600ms.mp4	29.single_pinch_with_tweezers_short_horflip_short_600ms.mp4	181.7662884662809	182.37460312712483	0.6083146608439165	n/a	n/a	n/a	n/a
54.14990234375	0.2	110899	54	53	0	0	0	54	142	stimuli\Videos_short_600ms_horflip\57.single_touch_with_nail_file_short_horflip_short_600ms.mp4	57.single_touch_with_nail_file_short_horflip_short_600ms.mp4	182.56633110436405	183.17459298078575	0.6082618764216932	n/a	n/a	n/a	n/a
54.94970703125	0.2	112537	55	53	0	0	0	55	292	stimuli\Videos_short_600ms_vertflip\3.single_push_with_finger_short_vertflip_short_600ms.mp4	3.single_push_with_finger_short_vertflip_short_600ms.mp4	183.36623357048165	183.97458283444712	0.6083492639654651	n/a	n/a	n/a	n/a
55.74951171875	0.2	114175	56	53	0	0	0	56	169	stimuli\Videos_short_600ms_horflip\81.single_stroke_top_to_bottom_with_cotton_pad_short_horflip_short_600ms.mp4	81.single_stroke_top_to_bottom_with_cotton_pad_short_horflip_short_600ms.mp4	184.16622166466232	184.7745677029125	0.6083460382501471	n/a	n/a	n/a	n/a
56.5498046875	0.2	115814	57	53	0	0	0	57	247	stimuli\Videos_short_600ms_horvertflip\70.(long)stroke_with_finger_all_over_the_hand_short_horvertflip_short_600ms.mp4	70.(long)stroke_with_finger_all_over_the_hand_short_horvertflip_short_600ms.mp4	184.96650799082815	185.5745563835867	0.6080483927585192	n/a	n/a	n/a	n/a
57.349609375	0.2	117452	58	53	0	0	0	58	77	stimuli\Videos_short_600ms\8.single_touch_with_hairbrush_short_short_600ms.mp4	8.single_touch_with_hairbrush_short_short_600ms.mp4	185.76623040341656	186.37454565075404	0.6083152473374867	n/a	n/a	n/a	n/a
58.1494140625	0.2	119090	59	53	0	0	0	59	289	stimuli\Videos_short_600ms_vertflip\27.single_push_with_a_plastic_whisk_short_vertflip_short_600ms.mp4	27.single_push_with_a_plastic_whisk_short_vertflip_short_600ms.mp4	186.5663701061876	187.17453022597283	0.6081601197852251	n/a	n/a	n/a	n/a
58.94970703125	0.2	120729	60	53	0	0	0	60	167	stimuli\Videos_short_600ms_horflip\8.single_touch_with_hairbrush_short_horflip_short_600ms.mp4	8.single_touch_with_hairbrush_short_horflip_short_600ms.mp4	187.3662467665872	187.97452242560803	0.6082756590208191	n/a	n/a	n/a	n/a
59.74951171875	0.2	122367	61	53	0	0	0	61	228	stimuli\Videos_short_600ms_horvertflip\53.touch_top_to_bottom_with_knife_short_horvertflip_short_600ms.mp4	53.touch_top_to_bottom_with_knife_short_horvertflip_short_600ms.mp4	188.16659643406	188.7745122792694	0.6079158452093907	n/a	n/a	n/a	n/a
60.54931640625	0.2	124005	62	53	0	0	0	62	309	stimuli\Videos_short_600ms_vertflip\45.scratching_with_finger_nails_short_vertflip_short_600ms.mp4	45.scratching_with_finger_nails_short_vertflip_short_600ms.mp4	188.96624729443147	189.5744945085139	0.6082472140824393	n/a	n/a	n/a	n/a
61.349609375	0.2	125644	63	53	0	0	0	63	285	stimuli\Videos_short_600ms_vertflip\23.single_push_with_a_spoon_short_vertflip_short_600ms.mp4	23.single_push_with_a_spoon_short_vertflip_short_600ms.mp4	189.76613539145637	190.37448436217483	0.6083489707184526	n/a	n/a	n/a	n/a
62.1494140625	0.2	127282	64	53	0	0	0	64	250	stimuli\Videos_short_600ms_horvertflip\73.single_stroke_with_flat_hand_short_horvertflip_short_600ms.mp4	73.single_stroke_with_flat_hand_short_horvertflip_short_600ms.mp4	190.56614694537984	191.1744789077843	0.6083319624044634	n/a	n/a	n/a	n/a
62.94921875	0.2	128920	65	53	0	0	0	65	212	stimuli\Videos_short_600ms_horvertflip\39.single_stab_with_scissors_short_horvertflip_short_600ms.mp4	39.single_stab_with_scissors_short_horvertflip_short_600ms.mp4	191.3661382652749	191.9744623100164	0.6083240447414937	n/a	n/a	n/a	n/a
63.74951171875	0.2	130559	66	53	0	0	0	66	213	stimuli\Videos_short_600ms_horvertflip\4.repeated_tap_with_finger_slow_short_horvertflip_short_600ms.mp4	4.repeated_tap_with_finger_slow_short_horvertflip_short_600ms.mp4	192.16616330855095	192.77446154757445	0.6082982390234974	n/a	n/a	n/a	n/a
64.54931640625	0.2	132197	67	53	0	0	0	67	343	stimuli\Videos_short_600ms_vertflip\76.tickle_with_fingers_from_top_to_bottom_short_vertflip_short_600ms.mp4	76.tickle_with_fingers_from_top_to_bottom_short_vertflip_short_600ms.mp4	192.9660886479178	193.57444201733824	0.6083533694204561	n/a	n/a	n/a	n/a
65.34912109375	0.2	133835	68	53	0	0	0	68	266	stimuli\Videos_short_600ms_horvertflip\88.repeated_stroke_with_plastic_brush_short_horvertflip_short_600ms.mp4	88.repeated_stroke_with_plastic_brush_short_horvertflip_short_600ms.mp4	193.76616588912248	194.37443890892249	0.6082730197999808	n/a	n/a	n/a	n/a
66.1494140625	0.2	135474	69	53	0	0	0	69	254	stimuli\Videos_short_600ms_horvertflip\77.tapping_with_all_fingers_short_horvertflip_short_600ms.mp4	77.tapping_with_all_fingers_short_horvertflip_short_600ms.mp4	194.56609181498337	195.17441497998425	0.6083231650009111	n/a	n/a	n/a	n/a
66.94921875	0.2	137112	70	53	0	0	0	70	128	stimuli\Videos_short_600ms_horflip\44.pushing_top_to_bottom_with_finger_short_horflip_short_600ms.mp4	44.pushing_top_to_bottom_with_finger_short_horflip_short_600ms.mp4	195.3660523439653	195.97440512689215	0.608352782926886	n/a	n/a	n/a	n/a
67.7490234375	0.2	138750	71	53	0	0	0	71	84	stimuli\Videos_short_600ms\86.touch_top_to_bottom_with_hair_brush_short_short_600ms.mp4	86.touch_top_to_bottom_with_hair_brush_short_short_600ms.mp4	196.16606800334375	196.7743926345788	0.6083246312350639	n/a	n/a	n/a	n/a
68.54931640625	0.2	140389	72	53	0	0	0	72	12	stimuli\Videos_short_600ms\20.single_touch_with_screwdriver_short_short_600ms.mp4	20.single_touch_with_screwdriver_short_short_600ms.mp4	196.96603322427472	197.57438102200604	0.6083477977313123	n/a	n/a	n/a	n/a
69.34912109375	0.2	142027	73	53	0	0	0	73	178	stimuli\Videos_short_600ms_horflip\9.single_touch_with_hammer_short_horflip_short_600ms.mp4	9.single_touch_with_hammer_short_horflip_short_600ms.mp4	197.7660198522208	198.3743679431991	0.6083480909783248	n/a	n/a	n/a	n/a
70.14892578125	0.2	143665	74	53	0	0	0	74	69	stimuli\Videos_short_600ms\72.(short)stroke_with_finger_all_over_the_hand_short_short_600ms.mp4	72.(short)stroke_with_finger_all_over_the_hand_short_short_600ms.mp4	198.56601498432428	199.17435926309415	0.6083442787698914	n/a	n/a	n/a	n/a
70.94921875	0.2	145304	75	53	0	0	0	75	189	stimuli\Videos_short_600ms_horvertflip\18.single_stroke_from_top_to_bottom_with_rolling_pin_short_horvertflip_short_600ms.mp4	18.single_stroke_from_top_to_bottom_with_rolling_pin_short_horvertflip_short_600ms.mp4	199.3660321099369	199.97434530454663	0.6083131946097637	n/a	n/a	n/a	n/a
71.7490234375	0.2	146942	76	53	0	0	0	76	145	stimuli\Videos_short_600ms_horflip\6.single_touch_with_flat_hand_short_horflip_short_600ms.mp4	6.single_touch_with_flat_hand_short_horflip_short_600ms.mp4	200.16612342698727	200.7743316392466	0.608208212259342	n/a	n/a	n/a	n/a
72.54931640625	0.2	148581	77	53	0	0	0	77	306	stimuli\Videos_short_600ms_vertflip\42.single_slap_with_plastic_whisk_short_vertflip_short_600ms.mp4	42.single_slap_with_plastic_whisk_short_vertflip_short_600ms.mp4	200.96614201883403	201.5743162144654	0.6081741956313635	n/a	n/a	n/a	n/a
73.34912109375	0.2	150219	78	53	0	0	0	78	137	stimuli\Videos_short_600ms_horflip\52.touch_top_to_bottom_with_hammer_short_horflip_short_600ms.mp4	52.touch_top_to_bottom_with_hammer_short_horflip_short_600ms.mp4	201.76602718339063	202.37430460189216	0.6082774185015296	n/a	n/a	n/a	n/a
74.14892578125	0.2	151857	79	53	0	0	0	79	93	stimuli\Videos_short_600ms_horflip\12.repeated_touch_with_nail_file_short_horflip_short_600ms.mp4	12.repeated_touch_with_nail_file_short_horflip_short_600ms.mp4	202.56595633496636	203.17427949996727	0.6083231650009111	n/a	n/a	n/a	n/a
74.94921875	0.2	153496	80	53	0	0	0	80	92	stimuli\Videos_short_600ms_horflip\11.single_touch_with_lighter_short_horflip_short_600ms.mp4	11.single_touch_with_lighter_short_horflip_short_600ms.mp4	203.3659699416171	203.97426143596476	0.608291494347668	n/a	n/a	n/a	n/a
75.7490234375	0.2	155134	81	53	0	0	0	81	138	stimuli\Videos_short_600ms_horflip\53.touch_top_to_bottom_with_knife_short_horflip_short_600ms.mp4	53.touch_top_to_bottom_with_knife_short_horflip_short_600ms.mp4	204.16592695163763	204.77424865040484	0.6083216987672131	n/a	n/a	n/a	n/a
76.548828125	0.2	156772	82	53	0	0	0	82	206	stimuli\Videos_short_600ms_horvertflip\33.scratch_top_to_bottom_with_scissors_short_horvertflip_short_600ms.mp4	33.scratch_top_to_bottom_with_scissors_short_horvertflip_short_600ms.mp4	204.9660950993475	205.57423615809148	0.6081410587439677	n/a	n/a	n/a	n/a
77.34912109375	0.2	158411	83	53	0	0	0	83	28	stimuli\Videos_short_600ms\35.single_punch_with_hand_short_short_600ms.mp4	35.single_punch_with_hand_short_short_600ms.mp4	205.7659005007772	206.37425152422335	0.6083510234461755	n/a	n/a	n/a	n/a
78.14892578125	0.2	160049	84	53	0	0	0	84	280	stimuli\Videos_short_600ms_vertflip\19.single_touch_with_rolling_pin_short_vertflip_short_600ms.mp4	19.single_touch_with_rolling_pin_short_vertflip_short_600ms.mp4	206.56591264119425	207.17424255087144	0.6083299096771952	n/a	n/a	n/a	n/a
78.94873046875	0.2	161687	85	53	0	0	0	85	274	stimuli\Videos_short_600ms_vertflip\13.single_touch_with_pen_short_vertflip_short_600ms.mp4	13.single_touch_with_pen_short_vertflip_short_600ms.mp4	207.36590337459575	207.97423328427297	0.6083299096771952	n/a	n/a	n/a	n/a
79.7490234375	0.2	163326	86	53	0	0	0	86	19	stimuli\Videos_short_600ms\27.single_push_with_a_plastic_whisk_short_short_600ms.mp4	27.single_push_with_a_plastic_whisk_short_short_600ms.mp4	208.16586478331828	208.77421610001105	0.6083513166927332	n/a	n/a	n/a	n/a
80.548828125	0.2	164964	87	53	0	0	0	87	83	stimuli\Videos_short_600ms\85.touch_top_to_bottom_with_fabric_short_short_600ms.mp4	85.touch_top_to_bottom_with_fabric_short_short_600ms.mp4	208.96585199775836	209.5742050739318	0.6083530761734437	n/a	n/a	n/a	n/a
81.3486328125	0.2	166602	88	53	0	0	0	88	143	stimuli\Videos_short_600ms_horflip\58.single_slap_with_pencil_short_horflip_short_600ms.mp4	58.single_slap_with_pencil_short_horflip_short_600ms.mp4	209.76584243791285	210.37418994239715	0.6083475044842999	n/a	n/a	n/a	n/a
82.14892578125	0.2	168241	89	53	0	0	1	89	372	stimuli\Targets_short_600ms_horvertflip\brush-stroke_short_vertflip_short_600ms.mp4	brush-stroke_short_vertflip_short_600ms.mp4	210.56582671988508	211.1741780365778	0.6083513166927332	n/a	n/a	n/a	n/a
82.94873046875	0.2	169879	90	53	0	0	0	90	290	stimuli\Videos_short_600ms_vertflip\28.single_injection_with_sharp_needle_short_vertflip_short_600ms.mp4	28.single_injection_with_sharp_needle_short_vertflip_short_600ms.mp4	211.3658400332893	211.9741684767323	0.6083284434430425	n/a	n/a	n/a	n/a
83.74853515625	0.2	171517	91	53	0	0	0	91	47	stimuli\Videos_short_600ms\52.touch_top_to_bottom_with_hammer_short_short_600ms.mp4	52.touch_top_to_bottom_with_hammer_short_short_600ms.mp4	212.1658322329245	212.77415539792537	0.6083231650009111	2.0	2.0	2.7252685187550014	1.0
117.44775390625	0.2	240533	92	53	1	0	0	0	23	stimuli\Videos_short_600ms\30.finger_pulling_back_another_finger_short_short_600ms.mp4	30.finger_pulling_back_another_finger_short_short_600ms.mp4	246.66529955012993	247.27364734786124	0.6083477977313123	n/a	n/a	n/a	n/a
118.24755859375	0.2	242171	93	53	1	0	0	1	16	stimuli\Videos_short_600ms\24.single_stroke_top_to_bottom_with_a_spoon_short_short_600ms.mp4	24.single_stroke_top_to_bottom_with_a_spoon_short_short_600ms.mp4	247.46538265627032	248.07363456230087	0.6082519060305458	n/a	n/a	n/a	n/a
119.04736328125	0.2	243809	94	53	1	0	1	2	367	stimuli\Targets_short_600ms_horflip\chopstick-silver-tap_short_horflip_short_600ms.mp4	chopstick-silver-tap_short_horflip_short_600ms.mp4	248.26533468109528	248.8736188442731	0.6082841631778138	n/a	n/a	n/a	n/a
119.84765625	0.2	245448	95	53	1	0	0	3	196	stimuli\Videos_short_600ms_horvertflip\24.single_stroke_top_to_bottom_with_a_spoon_short_horvertflip_short_600ms.mp4	24.single_stroke_top_to_bottom_with_a_spoon_short_horvertflip_short_600ms.mp4	249.06537878541255	249.6736110439083	0.6082322584957183	n/a	n/a	n/a	n/a
120.6474609375	0.2	247086	96	53	1	0	0	4	316	stimuli\Videos_short_600ms_vertflip\51.repeated_touch_with_hammer_short_vertflip_short_600ms.mp4	51.repeated_touch_with_hammer_short_vertflip_short_600ms.mp4	249.8653777297241	250.47360412328408	0.6082263935600167	n/a	n/a	n/a	n/a
121.44775390625	0.2	248725	97	53	1	0	1	5	378	stimuli\Targets_short_600ms_vertflip\brush-stroke_short_horvertflip_short_600ms.mp4	brush-stroke_short_horvertflip_short_600ms.mp4	250.66525057791569	251.273585766035	0.6083351881193266	n/a	n/a	n/a	n/a
122.24755859375	0.2	250363	98	53	1	0	0	6	298	stimuli\Videos_short_600ms_vertflip\35.single_punch_with_hand_short_vertflip_short_600ms.mp4	35.single_punch_with_hand_short_vertflip_short_600ms.mp4	251.46524981547415	252.0735729804751	0.6083231650009111	n/a	n/a	n/a	n/a
123.04736328125	0.2	252001	99	53	1	0	0	7	203	stimuli\Videos_short_600ms_horvertflip\30.finger_pulling_back_another_finger_short_horvertflip_short_600ms.mp4	30.finger_pulling_back_another_finger_short_horvertflip_short_600ms.mp4	252.26524142861624	252.87356400712315	0.6083225785068862	n/a	n/a	n/a	n/a
123.84765625	0.2	253640	100	53	1	0	0	8	26	stimuli\Videos_short_600ms\33.scratch_top_to_bottom_with_scissors_short_short_600ms.mp4	33.scratch_top_to_bottom_with_scissors_short_short_600ms.mp4	253.0652245376009	253.6735629514351	0.6083384138341899	n/a	n/a	n/a	n/a
124.6474609375	0.2	255278	101	53	1	0	0	9	277	stimuli\Videos_short_600ms_vertflip\16.repeated_touch_with_plastic_brush_short_vertflip_short_600ms.mp4	16.repeated_touch_with_plastic_brush_short_vertflip_short_600ms.mp4	253.8652070600924	254.473548699641	0.6083416395485983	n/a	n/a	n/a	n/a
125.447265625	0.2	256916	102	53	1	0	0	10	177	stimuli\Videos_short_600ms_horflip\89.single_touch_with_plastic_brush_short_horflip_short_600ms.mp4	89.single_touch_with_plastic_brush_short_horflip_short_600ms.mp4	254.66518049193292	255.27352858291124	0.6083480909783248	n/a	n/a	n/a	n/a
126.24755859375	0.2	258555	103	53	1	0	0	11	219	stimuli\Videos_short_600ms_horvertflip\45.scratching_with_finger_nails_short_horvertflip_short_600ms.mp4	45.scratching_with_finger_nails_short_horvertflip_short_600ms.mp4	255.46518940663557	256.07352254202715	0.6083331353916037	n/a	n/a	n/a	n/a
127.04736328125	0.2	260193	104	53	1	0	0	12	179	stimuli\Videos_short_600ms_horflip\90.repeated_touch_with_sponge_short_horflip_short_600ms.mp4	90.repeated_touch_with_sponge_short_horflip_short_600ms.mp4	256.2651584397745	256.87350565101224	0.6083472112377422	n/a	n/a	n/a	n/a
127.84716796875	0.2	261831	105	53	1	0	0	13	59	stimuli\Videos_short_600ms\63.stroke_top_to_bottom_with_screwdriver_short_short_600ms.mp4	63.stroke_top_to_bottom_with_screwdriver_short_short_600ms.mp4	257.065276149036	257.673494331686	0.6082181826500346	n/a	n/a	n/a	n/a
128.6474609375	0.2	263470	106	53	1	0	0	14	253	stimuli\Videos_short_600ms_horvertflip\76.tickle_with_fingers_from_top_to_bottom_short_horvertflip_short_600ms.mp4	76.tickle_with_fingers_from_top_to_bottom_short_horvertflip_short_600ms.mp4	257.8651566216445	258.4734833056068	0.608326683962332	n/a	n/a	n/a	n/a
129.447265625	0.2	265108	107	53	1	0	0	15	186	stimuli\Videos_short_600ms_horvertflip\15.single_stroke_top_to_bottom_with_a_plastic_whisk_short_horvertflip_short_600ms.mp4	15.single_stroke_top_to_bottom_with_a_plastic_whisk_short_horvertflip_short_600ms.mp4	258.66514442257767	259.27347257277415	0.6083281501964848	n/a	n/a	n/a	n/a
130.2470703125	0.2	266746	108	53	1	0	0	16	13	stimuli\Videos_short_600ms\21.repeated_touch_with_metal_chopstick_short_short_600ms.mp4	21.repeated_touch_with_metal_chopstick_short_short_600ms.mp4	259.46566739890386	260.07345920072066	0.607791801816802	n/a	n/a	n/a	n/a
131.04736328125	0.2	268385	109	53	1	0	0	17	296	stimuli\Videos_short_600ms_vertflip\33.scratch_top_to_bottom_with_scissors_short_vertflip_short_600ms.mp4	33.scratch_top_to_bottom_with_scissors_short_vertflip_short_600ms.mp4	260.2651880577	260.87344729490087	0.6082592372008548	n/a	n/a	n/a	n/a
131.84716796875	0.2	270023	110	53	1	0	0	18	103	stimuli\Videos_short_600ms_horflip\21.repeated_touch_with_metal_chopstick_short_horflip_short_600ms.mp4	21.repeated_touch_with_metal_chopstick_short_horflip_short_600ms.mp4	261.06513333784915	261.6734353890811	0.6083020512319308	n/a	n/a	n/a	n/a
132.64697265625	0.2	271661	111	53	1	0	0	19	350	stimuli\Videos_short_600ms_vertflip\82.repeated_touch_with_cotton_bud_short_vertflip_short_600ms.mp4	82.repeated_touch_with_cotton_bud_short_vertflip_short_600ms.mp4	261.8651193793021	262.47342231027415	0.6083029309720587	n/a	n/a	n/a	n/a
133.447265625	0.2	273300	112	53	1	0	0	20	211	stimuli\Videos_short_600ms_horvertflip\38.double_slap_with_pencil_short_horvertflip_short_600ms.mp4	38.double_slap_with_pencil_short_horvertflip_short_600ms.mp4	262.6651561524495	263.2734127504291	0.6082565979795618	n/a	n/a	n/a	n/a
134.2470703125	0.2	274938	113	53	1	0	0	21	101	stimuli\Videos_short_600ms_horflip\2.single_touch_with_finger_short_horflip_short_600ms.mp4	2.single_touch_with_finger_short_horflip_short_600ms.mp4	263.4650539266181	264.0734002581157	0.6083463314976143	n/a	n/a	n/a	n/a
135.046875	0.2	276576	114	53	1	0	0	22	233	stimuli\Videos_short_600ms_horvertflip\58.single_slap_with_pencil_short_horvertflip_short_600ms.mp4	58.single_slap_with_pencil_short_horvertflip_short_600ms.mp4	264.2650939254804	264.8733906982702	0.6082967727897994	n/a	n/a	n/a	n/a
135.84716796875	0.2	278215	115	53	1	0	0	23	29	stimuli\Videos_short_600ms\36.single_slap_with_full_hand_short_short_600ms.mp4	36.single_slap_with_full_hand_short_short_600ms.mp4	265.06519697240265	265.67338231141184	0.6081853390091965	n/a	n/a	n/a	n/a
136.64697265625	0.2	279853	116	53	1	0	0	24	273	stimuli\Videos_short_600ms_vertflip\12.repeated_touch_with_nail_file_short_vertflip_short_600ms.mp4	12.repeated_touch_with_nail_file_short_vertflip_short_600ms.mp4	265.8650158631849	266.47336307442265	0.6083472112377422	n/a	n/a	n/a	n/a
137.44677734375	0.2	281491	117	53	1	0	0	25	231	stimuli\Videos_short_600ms_horvertflip\56.repeated_touch_with_nail_file_short_horvertflip_short_600ms.mp4	56.repeated_touch_with_nail_file_short_horvertflip_short_600ms.mp4	266.66504090646094	267.27332888184674	0.6082879753857924	n/a	n/a	n/a	n/a
138.2470703125	0.2	283130	118	53	1	0	0	26	113	stimuli\Videos_short_600ms_horflip\30.finger_pulling_back_another_finger_short_horflip_short_600ms.mp4	30.finger_pulling_back_another_finger_short_horflip_short_600ms.mp4	267.4650155112886	268.07333603706866	0.6083205257800728	n/a	n/a	n/a	n/a
139.046875	0.2	284768	119	53	1	0	0	27	79	stimuli\Videos_short_600ms\81.single_stroke_top_to_bottom_with_cotton_pad_short_short_600ms.mp4	81.single_stroke_top_to_bottom_with_cotton_pad_short_short_600ms.mp4	268.2650024324821	268.87332911644444	0.608326683962332	n/a	n/a	n/a	n/a
139.8466796875	0.2	286406	120	53	1	0	0	28	340	stimuli\Videos_short_600ms_vertflip\73.single_stroke_with_flat_hand_short_vertflip_short_600ms.mp4	73.single_stroke_with_flat_hand_short_vertflip_short_600ms.mp4	269.06499492536386	269.6733195565989	0.6083246312350639	n/a	n/a	n/a	n/a
140.64697265625	0.2	288045	121	53	1	0	0	29	123	stimuli\Videos_short_600ms_horflip\4.repeated_tap_with_finger_slow_short_horflip_short_600ms.mp4	4.repeated_tap_with_finger_slow_short_horflip_short_600ms.mp4	269.86506043669715	270.4733132224683	0.6082527857711284	n/a	n/a	n/a	n/a
141.44677734375	0.2	289683	122	53	1	0	0	30	287	stimuli\Videos_short_600ms_vertflip\25.single_touch_with_stanley_knife_short_vertflip_short_600ms.mp4	25.single_touch_with_stanley_knife_short_vertflip_short_600ms.mp4	270.6651975002469	271.2732945719722	0.6080970717252967	n/a	n/a	n/a	n/a
142.2470703125	0.2	291322	123	53	1	0	0	31	352	stimuli\Videos_short_600ms_vertflip\84.single_touch_with_cotton_bud_short_vertflip_short_600ms.mp4	84.single_touch_with_cotton_bud_short_vertflip_short_600ms.mp4	271.46493222920026	272.07328266615286	0.6083504369526054	n/a	n/a	n/a	n/a
143.046875	0.2	292960	124	53	1	0	0	32	278	stimuli\Videos_short_600ms_vertflip\17.repeated_touch_with_rolling_pin_short_vertflip_short_600ms.mp4	17.repeated_touch_with_rolling_pin_short_vertflip_short_600ms.mp4	272.26494554260444	272.87327134682664	0.6083258042222042	n/a	n/a	n/a	n/a
143.8466796875	0.2	294598	125	53	1	0	0	33	282	stimuli\Videos_short_600ms_vertflip\20.single_touch_with_screwdriver_short_vertflip_short_600ms.mp4	20.single_touch_with_screwdriver_short_vertflip_short_600ms.mp4	273.0649353962658	273.6732591477603	0.6083237514944813	n/a	n/a	n/a	n/a
144.64697265625	0.2	296237	126	53	1	0	0	34	214	stimuli\Videos_short_600ms_horvertflip\40.repeated_push_with_finger_short_horvertflip_short_600ms.mp4	40.repeated_push_with_finger_short_horvertflip_short_600ms.mp4	273.86492114447174	274.47324606895336	0.6083249244816216	n/a	n/a	n/a	n/a
145.44677734375	0.2	297875	127	53	1	0	0	35	94	stimuli\Videos_short_600ms_horflip\13.single_touch_with_pen_short_horflip_short_600ms.mp4	13.single_touch_with_pen_short_horflip_short_600ms.mp4	274.66490659943065	275.27323416313357	0.6083275637029146	n/a	n/a	n/a	n/a
146.24658203125	0.2	299513	128	53	1	0	0	36	153	stimuli\Videos_short_600ms_horflip\67.single_touch_with_sponge_short_horflip_short_600ms.mp4	67.single_touch_with_sponge_short_horflip_short_600ms.mp4	275.4649002653	276.07322460328805	0.6083243379880514	n/a	n/a	n/a	n/a
147.046875	0.2	301152	129	53	1	0	0	37	27	stimuli\Videos_short_600ms\34.repeated_punch_with_hand_short_short_600ms.mp4	34.repeated_punch_with_hand_short_short_600ms.mp4	276.2648631402567	276.8732115244811	0.6083483842244277	n/a	n/a	n/a	n/a
147.8466796875	0.2	302790	130	53	1	0	0	38	185	stimuli\Videos_short_600ms_horvertflip\14.repeated_touch_with_pencil_short_horvertflip_short_600ms.mp4	14.repeated_touch_with_pencil_short_horvertflip_short_600ms.mp4	277.0652271768222	277.67320196463606	0.6079747878138733	n/a	n/a	n/a	n/a
148.646484375	0.2	304428	131	53	1	0	0	39	297	stimuli\Videos_short_600ms_vertflip\34.repeated_punch_with_hand_short_vertflip_short_600ms.mp4	34.repeated_punch_with_hand_short_vertflip_short_600ms.mp4	277.864914986289	278.473187419595	0.6082724333059559	n/a	n/a	n/a	n/a
149.44677734375	0.2	306067	132	53	1	0	0	40	86	stimuli\Videos_short_600ms\88.repeated_stroke_with_plastic_brush_short_short_600ms.mp4	88.repeated_stroke_with_plastic_brush_short_short_600ms.mp4	278.66492184826393	279.2731766867628	0.6082548384988513	n/a	n/a	n/a	n/a
150.24658203125	0.2	307705	133	53	1	0	0	41	220	stimuli\Videos_short_600ms_horvertflip\46.scratching_top_to_bottom_with_finger_nails_short_horvertflip_short_600ms.mp4	46.scratching_top_to_bottom_with_finger_nails_short_horvertflip_short_600ms.mp4	279.46489205439	280.0731715256193	0.6082794712292525	n/a	n/a	n/a	n/a
151.04638671875	0.2	309343	134	53	1	0	0	42	15	stimuli\Videos_short_600ms\23.single_push_with_a_spoon_short_short_600ms.mp4	23.single_push_with_a_spoon_short_short_600ms.mp4	280.2648915851951	280.8731505291489	0.6082589439538424	n/a	n/a	n/a	n/a
151.8466796875	0.2	310982	135	53	1	0	0	43	14	stimuli\Videos_short_600ms\22.single_touch_with_metal_chopstick_short_short_600ms.mp4	22.single_touch_with_metal_chopstick_short_short_600ms.mp4	281.0648172178089	281.67314038280983	0.6083231650009111	n/a	n/a	n/a	n/a
152.646484375	0.2	312620	136	53	1	0	0	44	180	stimuli\Videos_short_600ms_horvertflip\1.repeated_touch_with_finger_fast_short_horvertflip_short_600ms.mp4	1.repeated_touch_with_finger_fast_short_horvertflip_short_600ms.mp4	281.8647780400379	282.4731278904969	0.6083498504590352	n/a	n/a	n/a	n/a
153.4462890625	0.2	314258	137	53	1	0	0	45	115	stimuli\Videos_short_600ms_horflip\32.single_(long)pinch_with_fingers_short_horflip_short_600ms.mp4	32.single_(long)pinch_with_fingers_short_horflip_short_600ms.mp4	282.66476760045225	283.27311334545584	0.6083457450035894	n/a	n/a	n/a	n/a
154.24658203125	0.2	315897	138	53	1	0	0	46	336	stimuli\Videos_short_600ms_vertflip\7.repeated_touch_with_hairbrush_short_vertflip_short_600ms.mp4	7.repeated_touch_with_hairbrush_short_vertflip_short_600ms.mp4	283.46477886112916	284.0731087708059	0.6083299096767405	n/a	n/a	n/a	n/a
155.04638671875	0.2	317535	139	53	1	0	0	47	90	stimuli\Videos_short_600ms_horflip\1.repeated_touch_with_finger_fast_short_horflip_short_600ms.mp4	1.repeated_touch_with_finger_fast_short_horflip_short_600ms.mp4	284.2647660755688	284.87309657173955	0.6083304961707654	n/a	n/a	n/a	n/a
155.84619140625	0.2	319173	140	53	1	0	0	48	110	stimuli\Videos_short_600ms_horflip\28.single_injection_with_sharp_needle_short_horflip_short_600ms.mp4	28.single_injection_with_sharp_needle_short_horflip_short_600ms.mp4	285.064758861698	285.67309346332377	0.6083346016257565	n/a	n/a	n/a	n/a
156.646484375	0.2	320812	141	53	1	0	0	49	202	stimuli\Videos_short_600ms_horvertflip\3.single_push_with_finger_short_horvertflip_short_600ms.mp4	3.single_push_with_finger_short_horvertflip_short_600ms.mp4	285.8647410909425	286.4730721736064	0.6083310826638808	n/a	n/a	n/a	n/a
157.4462890625	0.2	322450	142	53	1	0	0	50	63	stimuli\Videos_short_600ms\67.single_touch_with_sponge_short_short_600ms.mp4	67.single_touch_with_sponge_short_short_600ms.mp4	286.6647324108376	287.2730717044119	0.6083392935743177	n/a	n/a	n/a	n/a
158.24609375	0.2	324088	143	53	1	0	0	51	3	stimuli\Videos_short_600ms\12.repeated_touch_with_nail_file_short_short_600ms.mp4	12.repeated_touch_with_nail_file_short_short_600ms.mp4	287.46475217567104	288.073045722746	0.6082935470749362	n/a	n/a	n/a	n/a
159.04638671875	0.2	325727	144	53	1	0	0	52	192	stimuli\Videos_short_600ms_horvertflip\20.single_touch_with_screwdriver_short_horvertflip_short_600ms.mp4	20.single_touch_with_screwdriver_short_horvertflip_short_600ms.mp4	288.26477927167434	288.8730344034202	0.6082551317458638	n/a	n/a	n/a	n/a
159.84619140625	0.2	327365	145	53	1	0	0	53	10	stimuli\Videos_short_600ms\19.single_touch_with_rolling_pin_short_short_600ms.mp4	19.single_touch_with_rolling_pin_short_short_600ms.mp4	289.0646952271445	289.67302367058755	0.6083284434430425	n/a	n/a	n/a	n/a
160.646484375	0.2	329004	146	53	1	0	0	54	60	stimuli\Videos_short_600ms\64.repeated_touch_with_screwdriver_short_short_600ms.mp4	64.repeated_touch_with_screwdriver_short_short_600ms.mp4	289.864685374052	290.4730111782742	0.6083258042222042	n/a	n/a	n/a	n/a
161.4462890625	0.2	330642	147	53	1	0	0	55	193	stimuli\Videos_short_600ms_horvertflip\21.repeated_touch_with_metal_chopstick_short_horvertflip_short_600ms.mp4	21.repeated_touch_with_metal_chopstick_short_horvertflip_short_600ms.mp4	290.6646576329058	291.2729992724544	0.6083416395485983	n/a	n/a	n/a	n/a
162.24609375	0.2	332280	148	53	1	0	0	56	354	stimuli\Videos_short_600ms_vertflip\86.touch_top_to_bottom_with_hair_brush_short_vertflip_short_600ms.mp4	86.touch_top_to_bottom_with_hair_brush_short_vertflip_short_600ms.mp4	291.46466390838714	292.0729944045579	0.6083304961707654	n/a	n/a	n/a	n/a
163.04638671875	0.2	333919	149	53	1	0	0	57	168	stimuli\Videos_short_600ms_horflip\80.stroke_with_sharp_stick_all_over_the_hand_short_horflip_short_600ms.mp4	80.stroke_with_sharp_stick_all_over_the_hand_short_horflip_short_600ms.mp4	292.2646323550325	292.87297780678955	0.6083454517570317	n/a	n/a	n/a	n/a
163.84619140625	0.2	335557	150	53	1	0	0	58	31	stimuli\Videos_short_600ms\38.double_slap_with_pencil_short_short_600ms.mp4	38.double_slap_with_pencil_short_short_600ms.mp4	293.0646348183054	293.67296179551477	0.6083269772093445	n/a	n/a	n/a	n/a
164.64599609375	0.2	337195	151	53	1	0	0	59	281	stimuli\Videos_short_600ms_vertflip\2.single_touch_with_finger_short_vertflip_short_600ms.mp4	2.single_touch_with_finger_short_vertflip_short_600ms.mp4	293.86484050160425	294.47295223566925	0.6081117340650053	n/a	n/a	n/a	n/a
165.4462890625	0.2	338834	152	53	1	0	0	60	95	stimuli\Videos_short_600ms_horflip\14.repeated_touch_with_pencil_short_horflip_short_600ms.mp4	14.repeated_touch_with_pencil_short_horflip_short_600ms.mp4	294.66464883550225	295.2729461947856	0.6082973592833696	n/a	n/a	n/a	n/a
166.24609375	0.2	340472	153	53	1	0	0	61	240	stimuli\Videos_short_600ms_horvertflip\64.repeated_touch_with_screwdriver_short_horvertflip_short_600ms.mp4	64.repeated_touch_with_screwdriver_short_horvertflip_short_600ms.mp4	295.4645768140904	296.0729287172767	0.6083519031863034	n/a	n/a	n/a	n/a
167.0458984375	0.2	342110	154	53	1	0	0	62	80	stimuli\Videos_short_600ms\82.repeated_touch_with_cotton_bud_short_short_600ms.mp4	82.repeated_touch_with_cotton_bud_short_short_600ms.mp4	296.2645959924307	296.8729194506782	0.6083234582474688	n/a	n/a	n/a	n/a
167.84619140625	0.2	343749	155	53	1	0	0	63	144	stimuli\Videos_short_600ms_horflip\59.single_push_with_long_side_pencil_short_horflip_short_600ms.mp4	59.single_push_with_long_side_pencil_short_horflip_short_600ms.mp4	297.0645770486876	297.6729008001821	0.6083237514944813	n/a	n/a	n/a	n/a
168.64599609375	0.2	345387	156	53	1	0	0	64	107	stimuli\Videos_short_600ms_horflip\25.single_touch_with_stanley_knife_short_horflip_short_600ms.mp4	25.single_touch_with_stanley_knife_short_horflip_short_600ms.mp4	297.8645677820891	298.4728692468275	0.6083014647383607	n/a	n/a	n/a	n/a
169.44580078125	0.2	347025	157	53	1	0	0	65	333	stimuli\Videos_short_600ms_vertflip\67.single_touch_with_sponge_short_vertflip_short_600ms.mp4	67.single_touch_with_sponge_short_vertflip_short_600ms.mp4	298.66455822224407	299.2728808007514	0.608322578507341	n/a	n/a	n/a	n/a
170.24609375	0.2	348664	158	53	1	0	0	66	76	stimuli\Videos_short_600ms\79.long_with_soft_brush_all_over_the_hand_short_short_600ms.mp4	79.long_with_soft_brush_all_over_the_hand_short_short_600ms.mp4	299.46454103798214	300.07287593285446	0.6083348948723142	n/a	n/a	n/a	n/a
171.0458984375	0.2	350302	159	53	1	0	0	67	243	stimuli\Videos_short_600ms_horvertflip\67.single_touch_with_sponge_short_horvertflip_short_600ms.mp4	67.single_touch_with_sponge_short_horvertflip_short_600ms.mp4	300.2646596269842	300.87286461352824	0.608204986544024	n/a	n/a	n/a	n/a
171.845703125	0.2	351940	160	53	1	0	0	68	100	stimuli\Videos_short_600ms_horflip\19.single_touch_with_rolling_pin_short_horflip_short_600ms.mp4	19.single_touch_with_rolling_pin_short_horflip_short_600ms.mp4	301.06449552608	301.6728480157599	0.6083524896798735	n/a	n/a	n/a	n/a
172.64599609375	0.2	353579	161	53	1	0	0	69	36	stimuli\Videos_short_600ms\42.single_slap_with_plastic_whisk_short_short_600ms.mp4	42.single_slap_with_plastic_whisk_short_short_600ms.mp4	301.86459622702796	302.4728431478634	0.6082469208354269	n/a	n/a	n/a	n/a
173.44580078125	0.2	355217	162	53	1	0	0	70	43	stimuli\Videos_short_600ms\49.repeated_slap_with_hand_short_short_600ms.mp4	49.repeated_slap_with_hand_short_short_600ms.mp4	302.6644673157389	303.27282068515933	0.6083533694204561	n/a	n/a	n/a	n/a
174.24560546875	0.2	356855	163	53	1	0	0	71	121	stimuli\Videos_short_600ms_horflip\38.double_slap_with_pencil_short_horflip_short_600ms.mp4	38.double_slap_with_pencil_short_horflip_short_600ms.mp4	303.46449089278076	304.07281141856083	0.6083205257800728	n/a	n/a	n/a	n/a
175.0458984375	0.2	358494	164	53	1	0	0	72	55	stimuli\Videos_short_600ms\6.single_touch_with_flat_hand_short_short_600ms.mp4	6.single_touch_with_flat_hand_short_short_600ms.mp4	304.26450039397696	304.8728015654683	0.6083011714913482	n/a	n/a	n/a	n/a
175.845703125	0.2	360132	165	53	1	0	0	73	88	stimuli\Videos_short_600ms\9.single_touch_with_hammer_short_short_600ms.mp4	9.single_touch_with_hammer_short_short_600ms.mp4	305.06447030685604	305.6727861406871	0.6083158338310568	n/a	n/a	n/a	n/a
176.6455078125	0.2	361770	166	53	1	0	0	74	65	stimuli\Videos_short_600ms\69.stroke_with_soft_sock_short_short_600ms.mp4	69.stroke_with_soft_sock_short_short_600ms.mp4	305.8645100124718	306.47277834032275	0.6082683278509649	n/a	n/a	n/a	n/a
177.44580078125	0.2	363409	167	53	1	0	0	75	135	stimuli\Videos_short_600ms_horflip\50.single_(long)hard_push_with_thumb_short_horflip_short_600ms.mp4	50.single_(long)hard_push_with_thumb_short_horflip_short_600ms.mp4	306.6644608643096	307.27276379528166	0.6083029309720587	n/a	n/a	n/a	n/a
178.24560546875	0.2	365047	168	53	1	0	0	76	18	stimuli\Videos_short_600ms\26.single_touch_with_a_blunt_syringe_short_short_600ms.mp4	26.single_touch_with_a_blunt_syringe_short_short_600ms.mp4	307.4644463192685	308.0727518894623	0.6083055701938065	n/a	n/a	n/a	n/a
179.0458984375	0.2	366686	169	53	1	0	0	77	155	stimuli\Videos_short_600ms_horflip\69.stroke_with_soft_sock_short_horflip_short_600ms.mp4	69.stroke_with_soft_sock_short_horflip_short_600ms.mp4	308.26439599811965	308.8727411566297	0.6083451585100192	n/a	n/a	n/a	n/a
179.845703125	0.2	368324	170	53	1	0	0	78	6	stimuli\Videos_short_600ms\15.single_stroke_top_to_bottom_with_a_plastic_whisk_short_short_600ms.mp4	15.single_stroke_top_to_bottom_with_a_plastic_whisk_short_short_600ms.mp4	309.06440520606884	309.6727269048356	0.6083216987667583	n/a	n/a	n/a	n/a
180.6455078125	0.2	369962	171	53	1	0	0	79	355	stimuli\Videos_short_600ms_vertflip\87.single_stroke_top_to_bottom_with_plastic_brush_short_vertflip_short_600ms.mp4	87.single_stroke_top_to_bottom_with_plastic_brush_short_vertflip_short_600ms.mp4	309.8643979921976	310.47271617200295	0.6083181798053374	n/a	n/a	n/a	n/a
181.44580078125	0.2	371601	172	53	1	0	0	80	215	stimuli\Videos_short_600ms_horvertflip\41.injection_with_blunt_syringe_short_horvertflip_short_600ms.mp4	41.injection_with_blunt_syringe_short_horvertflip_short_600ms.mp4	310.66439077832683	311.2727004539752	0.6083096756483428	n/a	n/a	n/a	n/a
182.24560546875	0.2	373239	173	53	1	0	0	81	288	stimuli\Videos_short_600ms_vertflip\26.single_touch_with_a_blunt_syringe_short_vertflip_short_600ms.mp4	26.single_touch_with_a_blunt_syringe_short_vertflip_short_600ms.mp4	311.46437623328575	312.07269587932524	0.6083196460394902	n/a	n/a	n/a	n/a
183.04541015625	0.2	374877	174	53	1	0	0	82	46	stimuli\Videos_short_600ms\51.repeated_touch_with_hammer_short_short_600ms.mp4	51.repeated_touch_with_hammer_short_short_600ms.mp4	312.2643581692837	312.87267986805045	0.6083216987667583	n/a	n/a	n/a	n/a
183.845703125	0.2	376516	175	53	1	0	0	83	312	stimuli\Videos_short_600ms_vertflip\48.single_slap_with_hand_short_vertflip_short_600ms.mp4	48.single_slap_with_hand_short_vertflip_short_600ms.mp4	313.06432104423993	313.6726641500227	0.6083431057827511	n/a	n/a	n/a	n/a
184.6455078125	0.2	378154	176	53	1	0	0	84	268	stimuli\Videos_short_600ms_horvertflip\9.single_touch_with_hammer_short_horvertflip_short_600ms.mp4	9.single_touch_with_hammer_short_horvertflip_short_600ms.mp4	313.86433113192925	314.47264051433103	0.6083093824017851	n/a	n/a	n/a	n/a
185.4453125	0.2	379792	177	53	1	0	0	85	188	stimuli\Videos_short_600ms_horvertflip\17.repeated_touch_with_rolling_pin_short_horvertflip_short_600ms.mp4	17.repeated_touch_with_rolling_pin_short_horvertflip_short_600ms.mp4	314.6647684801924	315.2726470830594	0.6078786028670038	n/a	n/a	n/a	n/a
186.24560546875	0.2	381431	178	53	1	0	0	86	71	stimuli\Videos_short_600ms\74.fingers_walking_from_top_to_bottom_short_short_600ms.mp4	74.fingers_walking_from_top_to_bottom_short_short_600ms.mp4	315.4642689049606	316.07263664347374	0.6083677385131523	n/a	n/a	n/a	n/a
187.04541015625	0.2	383069	179	53	1	0	0	87	346	stimuli\Videos_short_600ms_vertflip\79.long_with_soft_brush_all_over_the_hand_short_vertflip_short_600ms.mp4	79.long_with_soft_brush_all_over_the_hand_short_vertflip_short_600ms.mp4	316.26424966797094	316.87263148233023	0.6083818143592907	n/a	n/a	n/a	n/a
187.84521484375	0.2	384707	180	53	1	0	0	88	195	stimuli\Videos_short_600ms_horvertflip\23.single_push_with_a_spoon_short_horvertflip_short_600ms.mp4	23.single_push_with_a_spoon_short_horvertflip_short_600ms.mp4	317.06425477046514	317.67261107235345	0.6083563018883069	n/a	n/a	n/a	n/a
188.6455078125	0.2	386346	181	53	1	0	0	89	124	stimuli\Videos_short_600ms_horflip\40.repeated_push_with_finger_short_horflip_short_600ms.mp4	40.repeated_push_with_finger_short_horflip_short_600ms.mp4	317.86420650204354	318.4725965273128	0.6083900252692729	n/a	n/a	n/a	n/a
189.4453125	0.2	387984	182	53	1	0	0	90	164	stimuli\Videos_short_600ms_horflip\77.tapping_with_all_fingers_short_horflip_short_600ms.mp4	77.tapping_with_all_fingers_short_horflip_short_600ms.mp4	318.66420925856346	319.2725828620123	0.6083736034488538	n/a	n/a	n/a	n/a
190.2451171875	0.2	389622	183	53	1	0	0	91	61	stimuli\Videos_short_600ms\65.stroke_top_to_bottom_with_stanley_knife_short_short_600ms.mp4	65.stroke_top_to_bottom_with_stanley_knife_short_short_600ms.mp4	319.46420732313436	320.07257271567323	0.6083653925388717	2.0	2.0	2.1222070809130855	1.0
223.65234375	0.2	458040	184	53	2	0	0	0	230	stimuli\Videos_short_600ms_horvertflip\55.touch_top_to_bottom_with_nail_file_short_horvertflip_short_600ms.mp4	55.touch_top_to_bottom_with_nail_file_short_horvertflip_short_600ms.mp4	352.87208750953414	353.4804068623266	0.6083193527924777	n/a	n/a	n/a	n/a
224.45263671875	0.2	459679	185	53	2	0	0	1	0	stimuli\Videos_short_600ms\1.repeated_touch_with_finger_fast_short_short_600ms.mp4	1.repeated_touch_with_finger_fast_short_short_600ms.mp4	353.6720621143618	354.2803975957281	0.6083354813663391	n/a	n/a	n/a	n/a
225.25244140625	0.2	461317	186	53	2	0	0	2	304	stimuli\Videos_short_600ms_vertflip\40.repeated_push_with_finger_short_vertflip_short_600ms.mp4	40.repeated_push_with_finger_short_vertflip_short_600ms.mp4	354.4720616451673	355.0803845169212	0.6083228717538987	n/a	n/a	n/a	n/a
226.05224609375	0.2	462955	187	53	2	0	0	3	49	stimuli\Videos_short_600ms\54.repeated_touch_with_knife_short_short_600ms.mp4	54.repeated_touch_with_knife_short_short_600ms.mp4	355.2720488596069	355.88037407733555	0.608325217728634	n/a	n/a	n/a	n/a
226.8525390625	0.2	464594	188	53	2	0	0	4	339	stimuli\Videos_short_600ms_vertflip\72.(short)stroke_with_finger_all_over_the_hand_short_vertflip_short_600ms.mp4	72.(short)stroke_with_finger_all_over_the_hand_short_vertflip_short_600ms.mp4	356.07203724703413	356.68036187826874	0.6083246312346091	n/a	n/a	n/a	n/a
227.65234375	0.2	466232	189	53	2	0	0	5	126	stimuli\Videos_short_600ms_horflip\42.single_slap_with_plastic_whisk_short_horflip_short_600ms.mp4	42.single_slap_with_plastic_whisk_short_horflip_short_600ms.mp4	356.8720097991345	357.48035114543654	0.6083413463020406	n/a	n/a	n/a	n/a
228.45263671875	0.2	467871	190	53	2	0	0	6	9	stimuli\Videos_short_600ms\18.single_stroke_from_top_to_bottom_with_rolling_pin_short_short_600ms.mp4	18.single_stroke_from_top_to_bottom_with_rolling_pin_short_short_600ms.mp4	357.6725920113122	358.28033748013604	0.6077454688238504	n/a	n/a	n/a	n/a
229.25244140625	0.2	469509	191	53	2	0	0	7	239	stimuli\Videos_short_600ms_horvertflip\63.stroke_top_to_bottom_with_screwdriver_short_horvertflip_short_600ms.mp4	63.stroke_top_to_bottom_with_screwdriver_short_horvertflip_short_600ms.mp4	358.4720953685478	359.0803249878227	0.60822961927488	n/a	n/a	n/a	n/a
230.05224609375	0.2	471147	192	53	2	0	0	8	305	stimuli\Videos_short_600ms_vertflip\41.injection_with_blunt_syringe_short_vertflip_short_600ms.mp4	41.injection_with_blunt_syringe_short_vertflip_short_600ms.mp4	359.27223859028027	359.8803124955093	0.6080739052290483	n/a	n/a	n/a	n/a
230.8525390625	0.2	472786	193	53	2	0	0	9	108	stimuli\Videos_short_600ms_horflip\26.single_touch_with_a_blunt_syringe_short_horflip_short_600ms.mp4	26.single_touch_with_a_blunt_syringe_short_horflip_short_600ms.mp4	360.07196012312806	360.6803023491707	0.6083422260426232	n/a	n/a	n/a	n/a
231.65234375	0.2	474424	194	53	2	0	0	10	326	stimuli\Videos_short_600ms_vertflip\60.single_push_with_tip_of_pencil_short_vertflip_short_600ms.mp4	60.single_push_with_tip_of_pencil_short_vertflip_short_600ms.mp4	360.87196933107725	361.4802948420525	0.6083255109751917	n/a	n/a	n/a	n/a
232.4521484375	0.2	476062	195	53	2	0	1	11	364	stimuli\Targets_short_600ms\hand-pinch_short_short_600ms.mp4	hand-pinch_short_short_600ms.mp4	361.67196680915504	362.280277364544	0.6083105553889254	n/a	n/a	n/a	n/a
233.25244140625	0.2	477701	196	53	2	0	0	12	97	stimuli\Videos_short_600ms_horflip\16.repeated_touch_with_plastic_brush_short_horflip_short_600ms.mp4	16.repeated_touch_with_plastic_brush_short_horflip_short_600ms.mp4	362.47192645839687	363.0802695641792	0.6083431057822963	n/a	n/a	n/a	n/a
234.05224609375	0.2	479339	197	53	2	0	1	13	375	stimuli\Targets_short_600ms_horvertflip\finger-tap_short_vertflip_short_600ms.mp4	finger-tap_short_vertflip_short_600ms.mp4	363.2720013536268	363.8802617638148	0.6082604101879951	n/a	n/a	n/a	n/a
234.85205078125	0.2	480977	198	53	2	0	0	14	75	stimuli\Videos_short_600ms\78.single_stroke_top_to_bottom_with_soft_brush_short_short_600ms.mp4	78.single_stroke_top_to_bottom_with_soft_brush_short_short_600ms.mp4	364.0719225875391	364.6802190670819	0.608296479542787	n/a	n/a	n/a	n/a
235.65234375	0.2	482616	199	53	2	0	0	15	122	stimuli\Videos_short_600ms_horflip\39.single_stab_with_scissors_short_horflip_short_600ms.mp4	39.single_stab_with_scissors_short_horflip_short_600ms.mp4	364.8719232913313	365.4802282750311	0.6083049836997816	n/a	n/a	n/a	n/a
236.4521484375	0.2	484254	200	53	2	0	0	16	37	stimuli\Videos_short_600ms\43.touch_top_to_bottom_with_sharp_wooden_stick_short_short_600ms.mp4	43.touch_top_to_bottom_with_sharp_wooden_stick_short_short_600ms.mp4	365.67192956681265	366.2802242868747	0.6082947200620765	n/a	n/a	n/a	n/a
237.251953125	0.2	485892	201	53	2	0	0	17	67	stimuli\Videos_short_600ms\70.(long)stroke_with_finger_all_over_the_hand_short_short_600ms.mp4	70.(long)stroke_with_finger_all_over_the_hand_short_short_600ms.mp4	366.471906224368	367.0802117945618	0.6083055701938065	n/a	n/a	n/a	n/a
238.05224609375	0.2	487531	202	53	2	0	0	18	52	stimuli\Videos_short_600ms\57.single_touch_with_nail_file_short_short_600ms.mp4	57.single_touch_with_nail_file_short_short_600ms.mp4	367.2718620614014	367.88019900900144	0.6083369476000371	n/a	n/a	n/a	n/a
238.85205078125	0.2	489169	203	53	2	0	0	19	34	stimuli\Videos_short_600ms\40.repeated_push_with_finger_short_short_600ms.mp4	40.repeated_push_with_finger_short_short_600ms.mp4	368.0718636449342	368.68018534370094	0.6083216987667583	n/a	n/a	n/a	n/a
239.65185546875	0.2	490807	204	53	2	0	0	20	114	stimuli\Videos_short_600ms_horflip\31.hand_grabbing_wrist_short_horflip_short_600ms.mp4	31.hand_grabbing_wrist_short_horflip_short_600ms.mp4	368.87182212118887	369.4801848745065	0.6083627533175786	n/a	n/a	n/a	n/a
240.4521484375	0.2	492446	205	53	2	0	0	21	85	stimuli\Videos_short_600ms\87.single_stroke_top_to_bottom_with_plastic_brush_short_short_600ms.mp4	87.single_stroke_top_to_bottom_with_plastic_brush_short_short_600ms.mp4	369.6718357278396	370.2801603590746	0.6083246312350639	n/a	n/a	n/a	n/a
241.251953125	0.2	494084	206	53	2	0	0	22	307	stimuli\Videos_short_600ms_vertflip\43.touch_top_to_bottom_with_sharp_wooden_stick_short_vertflip_short_600ms.mp4	43.touch_top_to_bottom_with_sharp_wooden_stick_short_vertflip_short_600ms.mp4	370.471821476046	371.08014728026774	0.6083258042217494	n/a	n/a	n/a	n/a
242.0517578125	0.2	495722	207	53	2	0	0	23	130	stimuli\Videos_short_600ms_horflip\46.scratching_top_to_bottom_with_finger_nails_short_horflip_short_600ms.mp4	46.scratching_top_to_bottom_with_finger_nails_short_horflip_short_600ms.mp4	371.2718145554213	371.8801368406821	0.6083222852607832	n/a	n/a	n/a	n/a
242.85205078125	0.2	497361	208	53	2	0	0	24	120	stimuli\Videos_short_600ms_horflip\37.single_stab_with_nail_file_short_horflip_short_600ms.mp4	37.single_stab_with_nail_file_short_horflip_short_600ms.mp4	372.07180235635497	372.6801240551222	0.6083216987672131	n/a	n/a	n/a	n/a
243.65185546875	0.2	498999	209	53	2	0	0	25	329	stimuli\Videos_short_600ms_vertflip\63.stroke_top_to_bottom_with_screwdriver_short_vertflip_short_600ms.mp4	63.stroke_top_to_bottom_with_screwdriver_short_vertflip_short_600ms.mp4	372.8717901572886	373.4801136155361	0.6083234582474688	n/a	n/a	n/a	n/a
244.45166015625	0.2	500637	210	53	2	0	0	26	24	stimuli\Videos_short_600ms\31.hand_grabbing_wrist_short_short_600ms.mp4	31.hand_grabbing_wrist_short_short_600ms.mp4	373.67178001094953	374.28010082997616	0.6083208190266305	n/a	n/a	n/a	n/a
245.251953125	0.2	502276	211	53	2	0	0	27	216	stimuli\Videos_short_600ms_horvertflip\42.single_slap_with_plastic_whisk_short_horvertflip_short_600ms.mp4	42.single_slap_with_plastic_whisk_short_horvertflip_short_600ms.mp4	374.47176253344105	375.08008951064994	0.6083269772088897	n/a	n/a	n/a	n/a
246.0517578125	0.2	503914	212	53	2	0	0	28	263	stimuli\Videos_short_600ms_horvertflip\85.touch_top_to_bottom_with_fabric_short_horvertflip_short_600ms.mp4	85.touch_top_to_bottom_with_fabric_short_horvertflip_short_600ms.mp4	375.2717638237268	375.8800778980771	0.6083140743503463	n/a	n/a	n/a	n/a
246.8515625	0.2	505552	213	53	2	0	0	29	299	stimuli\Videos_short_600ms_vertflip\36.single_slap_with_full_hand_short_vertflip_short_600ms.mp4	36.single_slap_with_full_hand_short_vertflip_short_600ms.mp4	376.0717176080325	376.68006452602367	0.6083469179911845	n/a	n/a	n/a	n/a
247.65185546875	0.2	507191	214	53	2	0	0	30	344	stimuli\Videos_short_600ms_vertflip\77.tapping_with_all_fingers_short_vertflip_short_600ms.mp4	77.tapping_with_all_fingers_short_vertflip_short_600ms.mp4	376.8717033562384	377.4800502742296	0.6083469179911845	n/a	n/a	n/a	n/a
248.45166015625	0.2	508829	215	53	2	0	0	31	91	stimuli\Videos_short_600ms_horflip\10.single_touch_with_knife_short_horflip_short_600ms.mp4	10.single_touch_with_knife_short_horflip_short_600ms.mp4	377.6717087519796	378.279984704247	0.6082759522673769	n/a	n/a	n/a	n/a
249.251953125	0.2	510468	216	53	2	0	1	32	376	stimuli\Targets_short_600ms_horvertflip\hand-pinch_short_vertflip_short_600ms.mp4	hand-pinch_short_vertflip_short_600ms.mp4	378.4716965529133	379.080035259994	0.6083387070807476	n/a	n/a	n/a	n/a
250.0517578125	0.2	512106	217	53	2	0	0	33	146	stimuli\Videos_short_600ms_horflip\60.single_push_with_tip_of_pencil_short_horflip_short_600ms.mp4	60.single_push_with_tip_of_pencil_short_horflip_short_600ms.mp4	379.27174652216627	379.8800130905365	0.6082665683702544	n/a	n/a	n/a	n/a
250.8515625	0.2	513744	218	53	2	0	0	34	221	stimuli\Videos_short_600ms_horvertflip\47.(long)scratching_with_finger_nails_short_horvertflip_short_600ms.mp4	47.(long)scratching_with_finger_nails_short_horvertflip_short_600ms.mp4	380.0718091010313	380.6800020644573	0.6081929634260632	n/a	n/a	n/a	n/a
251.65185546875	0.2	515383	219	53	2	0	0	35	148	stimuli\Videos_short_600ms_horflip\62.touch_top_to_bottom_with_scissors_short_horflip_short_600ms.mp4	62.touch_top_to_bottom_with_scissors_short_horflip_short_600ms.mp4	380.8716658206494	381.4799922113653	0.6083263907157743	n/a	n/a	n/a	n/a
252.45166015625	0.2	517021	220	53	2	0	0	36	136	stimuli\Videos_short_600ms_horflip\51.repeated_touch_with_hammer_short_horflip_short_600ms.mp4	51.repeated_touch_with_hammer_short_horflip_short_600ms.mp4	381.6716539148297	382.279984997494	0.6083310826643356	n/a	n/a	n/a	n/a
253.25146484375	0.2	518659	221	53	2	0	0	37	133	stimuli\Videos_short_600ms_horflip\49.repeated_slap_with_hand_short_horflip_short_600ms.mp4	49.repeated_slap_with_hand_short_horflip_short_600ms.mp4	382.4716405427762	383.0799804228441	0.6083398800678879	n/a	n/a	n/a	n/a
254.0517578125	0.2	520298	222	53	2	0	0	38	303	stimuli\Videos_short_600ms_vertflip\4.repeated_tap_with_finger_slow_short_vertflip_short_600ms.mp4	4.repeated_tap_with_finger_slow_short_vertflip_short_600ms.mp4	383.2716303964371	383.8799573736465	0.6083269772093445	n/a	n/a	n/a	n/a
254.8515625	0.2	521936	223	53	2	0	0	39	345	stimuli\Videos_short_600ms_vertflip\78.single_stroke_top_to_bottom_with_soft_brush_short_vertflip_short_600ms.mp4	78.single_stroke_top_to_bottom_with_soft_brush_short_vertflip_short_600ms.mp4	384.0716176108772	384.6799475205544	0.6083299096771952	n/a	n/a	n/a	n/a
255.6513671875	0.2	523574	224	53	2	0	0	40	284	stimuli\Videos_short_600ms_vertflip\22.single_touch_with_metal_chopstick_short_vertflip_short_600ms.mp4	22.single_touch_with_metal_chopstick_short_vertflip_short_600ms.mp4	384.8716101037594	385.4799323890197	0.6083222852603285	n/a	n/a	n/a	n/a
256.45166015625	0.2	525213	225	53	2	0	0	41	270	stimuli\Videos_short_600ms_vertflip\1.repeated_touch_with_finger_fast_short_vertflip_short_600ms.mp4	1.repeated_touch_with_finger_fast_short_vertflip_short_600ms.mp4	385.67170142080977	386.27992048319993	0.6082190623901624	n/a	n/a	n/a	n/a
257.25146484375	0.2	526851	226	53	2	0	0	42	255	stimuli\Videos_short_600ms_horvertflip\78.single_stroke_top_to_bottom_with_soft_brush_short_horvertflip_short_600ms.mp4	78.single_stroke_top_to_bottom_with_soft_brush_short_horvertflip_short_600ms.mp4	386.47158247991183	387.0799085773806	0.6083260974687619	n/a	n/a	n/a	n/a
258.05126953125	0.2	528489	227	53	2	0	0	43	70	stimuli\Videos_short_600ms\73.single_stroke_with_flat_hand_short_short_600ms.mp4	73.single_stroke_with_flat_hand_short_short_600ms.mp4	387.27154770084235	387.8798975513009	0.6083498504585805	n/a	n/a	n/a	n/a
258.8515625	0.2	530128	228	53	2	0	0	44	182	stimuli\Videos_short_600ms_horvertflip\11.single_touch_with_lighter_short_horvertflip_short_600ms.mp4	11.single_touch_with_lighter_short_horvertflip_short_600ms.mp4	388.0715428329454	388.67988593872815	0.6083431057827511	n/a	n/a	n/a	n/a
259.6513671875	0.2	531766	229	53	2	0	0	45	356	stimuli\Videos_short_600ms_vertflip\88.repeated_stroke_with_plastic_brush_short_vertflip_short_600ms.mp4	88.repeated_stroke_with_plastic_brush_short_vertflip_short_600ms.mp4	388.87153503258105	389.4798734464148	0.6083384138337351	n/a	n/a	n/a	n/a
260.451171875	0.2	533404	230	53	2	0	0	46	112	stimuli\Videos_short_600ms_horflip\3.single_push_with_finger_short_horflip_short_600ms.mp4	3.single_push_with_finger_short_horflip_short_600ms.mp4	389.6715700462478	390.279861833842	0.6082917875942258	n/a	n/a	n/a	n/a
261.25146484375	0.2	535043	231	53	2	0	0	47	81	stimuli\Videos_short_600ms\83.single_stroke_top_to_bottom_with_cotton_bud_short_short_600ms.mp4	83.single_stroke_top_to_bottom_with_cotton_bud_short_short_600ms.mp4	390.4715250035406	391.07984963477566	0.6083246312350639	n/a	n/a	n/a	n/a
262.05126953125	0.2	536681	232	53	2	0	0	48	232	stimuli\Videos_short_600ms_horvertflip\57.single_touch_with_nail_file_short_horvertflip_short_600ms.mp4	57.single_touch_with_nail_file_short_horvertflip_short_600ms.mp4	391.2715183761634	391.8798359694751	0.6083175933117673	n/a	n/a	n/a	n/a
262.85107421875	0.2	538319	233	53	2	0	0	49	318	stimuli\Videos_short_600ms_vertflip\53.touch_top_to_bottom_with_knife_short_vertflip_short_600ms.mp4	53.touch_top_to_bottom_with_knife_short_vertflip_short_600ms.mp4	392.0715246516447	392.6798228906682	0.6082982390234974	n/a	n/a	n/a	n/a
263.6513671875	0.2	539958	234	53	2	0	0	50	198	stimuli\Videos_short_600ms_horvertflip\26.single_touch_with_a_blunt_syringe_short_horvertflip_short_600ms.mp4	26.single_touch_with_a_blunt_syringe_short_horvertflip_short_600ms.mp4	392.8722699090376	393.47981039835486	0.6075404893172163	n/a	n/a	n/a	n/a
264.451171875	0.2	541596	235	53	2	0	0	51	131	stimuli\Videos_short_600ms_horflip\47.(long)scratching_with_finger_nails_short_horflip_short_600ms.mp4	47.(long)scratching_with_finger_nails_short_horflip_short_600ms.mp4	393.6721829320395	394.2798072899391	0.6076243578995673	n/a	n/a	n/a	n/a
265.2509765625	0.2	543234	236	53	2	0	0	52	218	stimuli\Videos_short_600ms_horvertflip\44.pushing_top_to_bottom_with_finger_short_horvertflip_short_600ms.mp4	44.pushing_top_to_bottom_with_finger_short_horvertflip_short_600ms.mp4	394.4716660552467	395.07978746645585	0.6081214112091402	n/a	n/a	n/a	n/a
266.05126953125	0.2	544873	237	53	2	0	0	53	359	stimuli\Videos_short_600ms_vertflip\90.repeated_touch_with_sponge_short_vertflip_short_600ms.mp4	90.repeated_touch_with_sponge_short_vertflip_short_600ms.mp4	395.2715456481146	395.8797380250471	0.6081923769324931	n/a	n/a	n/a	n/a
266.85107421875	0.2	546511	238	53	2	0	0	54	315	stimuli\Videos_short_600ms_vertflip\50.single_(long)hard_push_with_thumb_short_vertflip_short_600ms.mp4	50.single_(long)hard_push_with_thumb_short_vertflip_short_600ms.mp4	396.0714184963067	396.6797607223489	0.6083422260421685	n/a	n/a	n/a	n/a
267.6513671875	0.2	548150	239	53	2	0	0	55	328	stimuli\Videos_short_600ms_vertflip\62.touch_top_to_bottom_with_scissors_short_vertflip_short_600ms.mp4	62.touch_top_to_bottom_with_scissors_short_vertflip_short_600ms.mp4	396.87142887724303	397.4797549747118	0.6083260974687619	n/a	n/a	n/a	n/a
268.451171875	0.2	549788	240	53	2	0	0	56	117	stimuli\Videos_short_600ms_horflip\34.repeated_punch_with_hand_short_horflip_short_600ms.mp4	34.repeated_punch_with_hand_short_horflip_short_600ms.mp4	397.6714201971377	398.279743068892	0.6083228717543534	n/a	n/a	n/a	n/a
269.2509765625	0.2	551426	241	53	2	0	0	57	134	stimuli\Videos_short_600ms_horflip\5.repeated_tap_with_finger_moving_from_top_to_bottom_short_horflip_short_600ms.mp4	5.repeated_tap_with_finger_moving_from_top_to_bottom_short_horflip_short_600ms.mp4	398.4713889370301	399.0797352685272	0.6083463314971596	n/a	n/a	n/a	n/a
270.05126953125	0.2	553065	242	53	2	0	0	58	104	stimuli\Videos_short_600ms_horflip\22.single_touch_with_metal_chopstick_short_horflip_short_600ms.mp4	22.single_touch_with_metal_chopstick_short_horflip_short_600ms.mp4	399.2713682338067	399.8797183775123	0.6083501437055929	n/a	n/a	n/a	n/a
270.85107421875	0.2	554703	243	53	2	0	0	59	258	stimuli\Videos_short_600ms_horvertflip\80.stroke_with_sharp_stick_all_over_the_hand_short_horvertflip_short_600ms.mp4	80.stroke_with_sharp_stick_all_over_the_hand_short_horvertflip_short_600ms.mp4	400.0715255313849	400.67970529870536	0.6081797673205074	n/a	n/a	n/a	n/a
271.65087890625	0.2	556341	244	53	2	0	1	60	360	stimuli\Targets_short_600ms\brush-stroke_short_short_600ms.mp4	brush-stroke_short_short_600ms.mp4	400.8715335663469	401.479693099639	0.6081595332921097	n/a	n/a	n/a	n/a
272.451171875	0.2	557980	245	53	2	0	0	61	256	stimuli\Videos_short_600ms_horvertflip\79.long_with_soft_brush_all_over_the_hand_short_horvertflip_short_600ms.mp4	79.long_with_soft_brush_all_over_the_hand_short_horvertflip_short_600ms.mp4	401.6713342758285	402.27968471278064	0.6083504369521506	n/a	n/a	n/a	n/a
273.2509765625	0.2	559618	246	53	2	0	0	62	20	stimuli\Videos_short_600ms\28.single_injection_with_sharp_needle_short_short_600ms.mp4	28.single_injection_with_sharp_needle_short_short_600ms.mp4	402.47132031728097	403.07967016774	0.6083498504590352	n/a	n/a	n/a	n/a
274.05078125	0.2	561256	247	53	2	0	0	63	96	stimuli\Videos_short_600ms_horflip\15.single_stroke_top_to_bottom_with_a_plastic_whisk_short_horflip_short_600ms.mp4	15.single_stroke_top_to_bottom_with_a_plastic_whisk_short_horflip_short_600ms.mp4	403.27130899795475	403.87965767542664	0.6083486774718949	n/a	n/a	n/a	n/a
274.85107421875	0.2	562895	248	53	2	0	0	64	323	stimuli\Videos_short_600ms_vertflip\58.single_slap_with_pencil_short_vertflip_short_600ms.mp4	58.single_slap_with_pencil_short_vertflip_short_600ms.mp4	404.07135163603834	404.6796448898667	0.6082932538283785	n/a	n/a	n/a	n/a
275.65087890625	0.2	564533	249	53	2	0	0	65	227	stimuli\Videos_short_600ms_horvertflip\52.touch_top_to_bottom_with_hammer_short_horvertflip_short_600ms.mp4	52.touch_top_to_bottom_with_hammer_short_horvertflip_short_600ms.mp4	404.8713042473569	405.47963386378706	0.6083296164301828	n/a	n/a	n/a	n/a
276.45068359375	0.2	566171	250	53	2	0	0	66	197	stimuli\Videos_short_600ms_horvertflip\25.single_touch_with_stanley_knife_short_horvertflip_short_600ms.mp4	25.single_touch_with_stanley_knife_short_horvertflip_short_600ms.mp4	405.67129410101825	406.27962313095486	0.6083290299366126	n/a	n/a	n/a	n/a
277.2509765625	0.2	567810	251	53	2	0	0	67	53	stimuli\Videos_short_600ms\58.single_slap_with_pencil_short_short_600ms.mp4	58.single_slap_with_pencil_short_short_600ms.mp4	406.4712640138973	407.0796106386415	0.608346624744172	n/a	n/a	n/a	n/a
278.05078125	0.2	569448	252	53	2	0	0	68	332	stimuli\Videos_short_600ms_vertflip\66.stroke_top_to_bottom_with_sponge_short_vertflip_short_600ms.mp4	66.stroke_top_to_bottom_with_sponge_short_vertflip_short_600ms.mp4	407.2712491756097	407.879597266588	0.6083480909783248	n/a	n/a	n/a	n/a
278.8505859375	0.2	571086	253	53	2	0	0	69	151	stimuli\Videos_short_600ms_horflip\65.stroke_top_to_bottom_with_stanley_knife_short_horflip_short_600ms.mp4	65.stroke_top_to_bottom_with_stanley_knife_short_horflip_short_600ms.mp4	408.071259849793	408.6795824283003	0.608322578507341	n/a	n/a	n/a	n/a
279.65087890625	0.2	572725	254	53	2	0	0	70	25	stimuli\Videos_short_600ms\32.single_(long)pinch_with_fingers_short_short_600ms.mp4	32.single_(long)pinch_with_fingers_short_short_600ms.mp4	408.871645586621	409.47957052248057	0.6079249358595007	n/a	n/a	n/a	n/a
280.45068359375	0.2	574363	255	53	2	0	0	71	200	stimuli\Videos_short_600ms_horvertflip\28.single_injection_with_sharp_needle_short_horvertflip_short_600ms.mp4	28.single_injection_with_sharp_needle_short_horvertflip_short_600ms.mp4	409.67127533322355	410.2795682938049	0.6082929605813661	n/a	n/a	n/a	n/a
281.25048828125	0.2	576001	256	53	2	0	0	72	150	stimuli\Videos_short_600ms_horflip\64.repeated_touch_with_screwdriver_short_horflip_short_600ms.mp4	64.repeated_touch_with_screwdriver_short_horflip_short_600ms.mp4	410.4713446567648	411.0795519892836	0.6082073325187594	n/a	n/a	n/a	n/a
282.05078125	0.2	577640	257	53	2	0	0	73	320	stimuli\Videos_short_600ms_vertflip\55.touch_top_to_bottom_with_nail_file_short_vertflip_short_600ms.mp4	55.touch_top_to_bottom_with_nail_file_short_vertflip_short_600ms.mp4	411.2712661839237	411.8795195561884	0.6082533722646986	n/a	n/a	n/a	n/a
282.8505859375	0.2	579278	258	53	2	0	0	74	300	stimuli\Videos_short_600ms_vertflip\37.single_stab_with_nail_file_short_vertflip_short_600ms.mp4	37.single_stab_with_nail_file_short_vertflip_short_600ms.mp4	412.0712193817358	412.6795275911504	0.6083082094146448	n/a	n/a	n/a	n/a
283.650390625	0.2	580916	259	53	2	0	0	75	125	stimuli\Videos_short_600ms_horflip\41.injection_with_blunt_syringe_short_horflip_short_600ms.mp4	41.injection_with_blunt_syringe_short_horflip_short_600ms.mp4	412.8711661281186	413.4795221367599	0.6083560086412945	n/a	n/a	n/a	n/a
284.45068359375	0.2	582555	260	53	2	0	1	76	369	stimuli\Targets_short_600ms_horflip\finger-tap_short_horflip_short_600ms.mp4	finger-tap_short_horflip_short_600ms.mp4	413.67115216957154	414.2794782670403	0.6083260974687619	n/a	n/a	n/a	n/a
285.25048828125	0.2	584193	261	53	2	0	0	77	357	stimuli\Videos_short_600ms_vertflip\89.single_touch_with_plastic_brush_short_vertflip_short_600ms.mp4	89.single_touch_with_plastic_brush_short_vertflip_short_600ms.mp4	414.4711643099886	415.0794898209638	0.6083255109751917	n/a	n/a	n/a	n/a
286.05029296875	0.2	585831	262	53	2	0	0	78	183	stimuli\Videos_short_600ms_horvertflip\12.repeated_touch_with_nail_file_short_horvertflip_short_600ms.mp4	12.repeated_touch_with_nail_file_short_horvertflip_short_600ms.mp4	415.2711591488451	415.87947938137813	0.6083202325330603	n/a	n/a	n/a	n/a
286.8505859375	0.2	587470	263	53	2	0	0	79	351	stimuli\Videos_short_600ms_vertflip\83.single_stroke_top_to_bottom_with_cotton_bud_short_vertflip_short_600ms.mp4	83.single_stroke_top_to_bottom_with_cotton_bud_short_vertflip_short_600ms.mp4	416.07113961860887	416.67946512958406	0.6083255109751917	n/a	n/a	n/a	n/a
287.650390625	0.2	589108	264	53	2	0	0	80	149	stimuli\Videos_short_600ms_horflip\63.stroke_top_to_bottom_with_screwdriver_short_horflip_short_600ms.mp4	63.stroke_top_to_bottom_with_screwdriver_short_horflip_short_600ms.mp4	416.87112683304895	417.4794514642835	0.6083246312346091	n/a	n/a	n/a	n/a
288.45068359375	0.2	590747	265	53	2	0	0	81	265	stimuli\Videos_short_600ms_horvertflip\87.single_stroke_top_to_bottom_with_plastic_brush_short_horvertflip_short_600ms.mp4	87.single_stroke_top_to_bottom_with_plastic_brush_short_horvertflip_short_600ms.mp4	417.67111639346285	418.27944395716577	0.6083275637029146	n/a	n/a	n/a	n/a
289.25048828125	0.2	592385	266	53	2	0	0	82	262	stimuli\Videos_short_600ms_horvertflip\84.single_touch_with_cotton_bud_short_horvertflip_short_600ms.mp4	84.single_touch_with_cotton_bud_short_horvertflip_short_600ms.mp4	418.4711033146564	419.0794308783588	0.6083275637024599	n/a	n/a	n/a	n/a
290.05029296875	0.2	594023	267	53	2	0	0	83	54	stimuli\Videos_short_600ms\59.single_push_with_long_side_pencil_short_short_600ms.mp4	59.single_push_with_long_side_pencil_short_short_600ms.mp4	419.271111642865	419.87941721305833	0.6083055701933517	n/a	n/a	n/a	n/a
290.8505859375	0.2	595662	268	53	2	0	0	84	246	stimuli\Videos_short_600ms_horvertflip\7.repeated_touch_with_hairbrush_short_horvertflip_short_600ms.mp4	7.repeated_touch_with_hairbrush_short_horvertflip_short_600ms.mp4	420.0710636676904	420.6794061869791	0.6083425192887262	n/a	n/a	n/a	n/a
291.650390625	0.2	597300	269	53	2	0	0	85	127	stimuli\Videos_short_600ms_horflip\43.touch_top_to_bottom_with_sharp_wooden_stick_short_horflip_short_600ms.mp4	43.touch_top_to_bottom_with_sharp_wooden_stick_short_horflip_short_600ms.mp4	420.87111803564494	421.47939457440634	0.6082765387614018	n/a	n/a	n/a	n/a
292.4501953125	0.2	598938	270	53	2	0	1	86	383	stimuli\Targets_short_600ms_vertflip\hand-stroke_short_horvertflip_short_600ms.mp4	hand-stroke_short_horvertflip_short_600ms.mp4	421.67106742124906	422.2793803226122	0.608312901363206	n/a	n/a	n/a	n/a
293.25048828125	0.2	600577	271	53	2	0	0	87	242	stimuli\Videos_short_600ms_horvertflip\66.stroke_top_to_bottom_with_sponge_short_horvertflip_short_600ms.mp4	66.stroke_top_to_bottom_with_sponge_short_horvertflip_short_600ms.mp4	422.4710414395836	423.0793713492603	0.6083299096767405	n/a	n/a	n/a	n/a
294.05029296875	0.2	602215	272	53	2	0	0	88	321	stimuli\Videos_short_600ms_vertflip\56.repeated_touch_with_nail_file_short_vertflip_short_600ms.mp4	56.repeated_touch_with_nail_file_short_vertflip_short_600ms.mp4	423.2710694153275	423.87935651097314	0.6082870956456645	n/a	n/a	n/a	n/a
294.85009765625	0.2	603853	273	53	2	0	0	89	245	stimuli\Videos_short_600ms_horvertflip\69.stroke_with_soft_sock_short_horvertflip_short_600ms.mp4	69.stroke_with_soft_sock_short_horvertflip_short_600ms.mp4	424.0710460728829	424.6793481241148	0.6083020512319308	n/a	n/a	n/a	n/a
295.650390625	0.2	605492	274	53	2	0	0	90	163	stimuli\Videos_short_600ms_horflip\76.tickle_with_fingers_from_top_to_bottom_short_horflip_short_600ms.mp4	76.tickle_with_fingers_from_top_to_bottom_short_horflip_short_600ms.mp4	424.87098519484925	425.4793077733566	0.608322578507341	n/a	n/a	n/a	n/a
296.4501953125	0.2	607130	275	53	2	0	0	91	249	stimuli\Videos_short_600ms_horvertflip\72.(short)stroke_with_finger_all_over_the_hand_short_horvertflip_short_600ms.mp4	72.(short)stroke_with_finger_all_over_the_hand_short_horvertflip_short_600ms.mp4	425.6711193259312	426.279296747277	0.608177421345772	n/a	n/a	n/a	n/a
297.25	0.2	608768	276	53	2	0	0	92	349	stimuli\Videos_short_600ms_vertflip\81.single_stroke_top_to_bottom_with_cotton_pad_short_vertflip_short_600ms.mp4	81.single_stroke_top_to_bottom_with_cotton_pad_short_vertflip_short_600ms.mp4	426.4713396715693	427.0792842549636	0.6079445833943282	n/a	n/a	n/a	n/a
298.05029296875	0.2	610407	277	53	2	0	0	93	158	stimuli\Videos_short_600ms_horflip\71.single_stroke_with_finger_top_to_bottom_short_horflip_short_600ms.mp4	71.single_stroke_with_finger_top_to_bottom_short_horflip_short_600ms.mp4	427.2710829046796	427.87929844810833	0.6082155434287415	n/a	n/a	n/a	n/a
298.85009765625	0.2	612045	278	53	2	0	0	94	272	stimuli\Videos_short_600ms_vertflip\11.single_touch_with_lighter_short_vertflip_short_600ms.mp4	11.single_touch_with_lighter_short_vertflip_short_600ms.mp4	428.0709437297528	428.67928712878256	0.6083433990297635	n/a	n/a	n/a	n/a
299.64990234375	0.2	613683	279	53	2	0	0	95	201	stimuli\Videos_short_600ms_horvertflip\29.single_pinch_with_tweezers_short_horvertflip_short_600ms.mp4	29.single_pinch_with_tweezers_short_horvertflip_short_600ms.mp4	428.8709456065326	429.4792822608856	0.6083366543530246	6.0	5.0	2.9147179684332514	0.0
334.79052734375	0.2	685651	280	53	3	0	0	0	39	stimuli\Videos_short_600ms\45.scratching_with_finger_nails_short_short_600ms.mp4	45.scratching_with_finger_nails_short_short_600ms.mp4	464.0120967233483	464.6204107976987	0.6083140743503463	n/a	n/a	n/a	n/a
335.5908203125	0.2	687290	281	53	3	0	0	1	187	stimuli\Videos_short_600ms_horvertflip\16.repeated_touch_with_plastic_brush_short_horvertflip_short_600ms.mp4	16.repeated_touch_with_plastic_brush_short_horvertflip_short_600ms.mp4	464.8120581320704	465.4203936134368	0.6083354813663391	n/a	n/a	n/a	n/a
336.390625	0.2	688928	282	53	3	0	0	2	283	stimuli\Videos_short_600ms_vertflip\21.repeated_touch_with_metal_chopstick_short_vertflip_short_600ms.mp4	21.repeated_touch_with_metal_chopstick_short_vertflip_short_600ms.mp4	465.6120673400196	466.2203878657997	0.6083205257800728	n/a	n/a	n/a	n/a
337.1904296875	0.2	690566	283	53	3	0	0	3	261	stimuli\Videos_short_600ms_horvertflip\83.single_stroke_top_to_bottom_with_cotton_bud_short_horvertflip_short_600ms.mp4	83.single_stroke_top_to_bottom_with_cotton_bud_short_horvertflip_short_600ms.mp4	466.41204898277056	467.0203692153036	0.6083202325330603	n/a	n/a	n/a	n/a
337.99072265625	0.2	692205	284	53	3	0	0	4	244	stimuli\Videos_short_600ms_horvertflip\68.stroke_top_to_bottom_with_shawl_short_horvertflip_short_600ms.mp4	68.stroke_top_to_bottom_with_shawl_short_horvertflip_short_600ms.mp4	467.2120839964373	467.82035672299025	0.6082727265529684	n/a	n/a	n/a	n/a
338.79052734375	0.2	693843	285	53	3	0	0	5	308	stimuli\Videos_short_600ms_vertflip\44.pushing_top_to_bottom_with_finger_short_vertflip_short_600ms.mp4	44.pushing_top_to_bottom_with_finger_short_vertflip_short_600ms.mp4	468.0120709176303	468.6203521483403	0.608281230709963	n/a	n/a	n/a	n/a
339.59033203125	0.2	695481	286	53	3	0	0	6	105	stimuli\Videos_short_600ms_horflip\23.single_push_with_a_spoon_short_horflip_short_600ms.mp4	23.single_push_with_a_spoon_short_horflip_short_600ms.mp4	468.8120288073914	469.4203631157702	0.608334308378744	n/a	n/a	n/a	n/a
340.390625	0.2	697120	287	53	3	0	0	7	132	stimuli\Videos_short_600ms_horflip\48.single_slap_with_hand_short_horflip_short_600ms.mp4	48.single_slap_with_hand_short_horflip_short_600ms.mp4	469.6120875740485	470.2203318556626	0.6082442816141338	n/a	n/a	n/a	n/a
341.1904296875	0.2	698758	288	53	3	0	0	8	22	stimuli\Videos_short_600ms\3.single_push_with_finger_short_short_600ms.mp4	3.single_push_with_finger_short_short_600ms.mp4	470.4119953186082	471.0203149646472	0.6083196460390354	n/a	n/a	n/a	n/a
341.990234375	0.2	700396	289	53	3	0	0	9	199	stimuli\Videos_short_600ms_horvertflip\27.single_push_with_a_plastic_whisk_short_horvertflip_short_600ms.mp4	27.single_push_with_a_plastic_whisk_short_horvertflip_short_600ms.mp4	471.21197021668286	471.8203027655809	0.6083325488980336	n/a	n/a	n/a	n/a
342.79052734375	0.2	702035	290	53	3	0	0	10	291	stimuli\Videos_short_600ms_vertflip\29.single_pinch_with_tweezers_short_vertflip_short_600ms.mp4	29.single_pinch_with_tweezers_short_vertflip_short_600ms.mp4	472.0119609500843	472.6202885137868	0.6083275637024599	n/a	n/a	n/a	n/a
343.59033203125	0.2	703673	291	53	3	0	0	11	175	stimuli\Videos_short_600ms_horflip\87.single_stroke_top_to_bottom_with_plastic_brush_short_horflip_short_600ms.mp4	87.single_stroke_top_to_bottom_with_plastic_brush_short_horflip_short_600ms.mp4	472.8119475780304	473.4202751417333	0.6083275637029146	n/a	n/a	n/a	n/a
344.39013671875	0.2	705311	292	53	3	0	0	12	205	stimuli\Videos_short_600ms_horvertflip\32.single_(long)pinch_with_fingers_short_horvertflip_short_600ms.mp4	32.single_(long)pinch_with_fingers_short_horvertflip_short_600ms.mp4	473.6119347924705	474.2202641156541	0.6083293231836251	n/a	n/a	n/a	n/a
345.1904296875	0.2	706950	293	53	3	0	0	13	223	stimuli\Videos_short_600ms_horvertflip\49.repeated_slap_with_hand_short_horvertflip_short_600ms.mp4	49.repeated_slap_with_hand_short_horvertflip_short_600ms.mp4	474.4119014796352	475.02025133009374	0.6083498504585805	n/a	n/a	n/a	n/a
345.990234375	0.2	708588	294	53	3	0	0	14	241	stimuli\Videos_short_600ms_horvertflip\65.stroke_top_to_bottom_with_stanley_knife_short_horvertflip_short_600ms.mp4	65.stroke_top_to_bottom_with_stanley_knife_short_horvertflip_short_600ms.mp4	475.2119194849879	475.8202370783001	0.608317593312222	n/a	n/a	n/a	n/a
346.7900390625	0.2	710226	295	53	3	0	0	15	334	stimuli\Videos_short_600ms_vertflip\68.stroke_top_to_bottom_with_shawl_short_vertflip_short_600ms.mp4	68.stroke_top_to_bottom_with_shawl_short_vertflip_short_600ms.mp4	476.0119325051455	476.6202263454675	0.6082938403219487	n/a	n/a	n/a	n/a
347.59033203125	0.2	711865	296	53	3	0	0	16	236	stimuli\Videos_short_600ms_horvertflip\60.single_push_with_tip_of_pencil_short_horvertflip_short_600ms.mp4	60.single_push_with_tip_of_pencil_short_horvertflip_short_600ms.mp4	476.8119076964672	477.42021590588183	0.6083082094146448	n/a	n/a	n/a	n/a
348.39013671875	0.2	713503	297	53	3	0	0	17	286	stimuli\Videos_short_600ms_vertflip\24.single_stroke_top_to_bottom_with_a_spoon_short_vertflip_short_600ms.mp4	24.single_stroke_top_to_bottom_with_a_spoon_short_vertflip_short_600ms.mp4	477.611858255058	478.2202028270749	0.6083445720169038	n/a	n/a	n/a	n/a
349.18994140625	0.2	715141	298	53	3	0	0	18	147	stimuli\Videos_short_600ms_horflip\61.single_hit_with_rolling_pin_short_horflip_short_600ms.mp4	61.single_hit_with_rolling_pin_short_horflip_short_600ms.mp4	478.4118410707965	479.0201909212551	0.6083498504585805	n/a	n/a	n/a	n/a
349.990234375	0.2	716780	299	53	3	0	1	19	363	stimuli\Targets_short_600ms\finger-tap_short_short_600ms.mp4	finger-tap_short_short_600ms.mp4	479.21183092445744	479.8201787221888	0.6083477977313123	n/a	n/a	n/a	n/a
350.7900390625	0.2	718418	300	53	3	0	0	20	72	stimuli\Videos_short_600ms\75.(long)stroke_with_fingers_all_over_the_hand_short_short_600ms.mp4	75.(long)stroke_with_fingers_all_over_the_hand_short_short_600ms.mp4	480.01184805007006	480.6201688690967	0.6083208190266305	n/a	n/a	n/a	n/a
351.58984375	0.2	720056	301	53	3	0	0	21	327	stimuli\Videos_short_600ms_vertflip\61.single_hit_with_rolling_pin_short_vertflip_short_600ms.mp4	61.single_hit_with_rolling_pin_short_vertflip_short_600ms.mp4	480.81269389111185	481.4201358495079	0.6074419583960662	n/a	n/a	n/a	n/a
352.39013671875	0.2	721695	302	53	3	0	0	22	51	stimuli\Videos_short_600ms\56.repeated_touch_with_nail_file_short_short_600ms.mp4	56.repeated_touch_with_nail_file_short_short_600ms.mp4	481.6119720348129	482.22011514628457	0.6081431114716906	n/a	n/a	n/a	n/a
353.18994140625	0.2	723333	303	53	3	0	0	23	335	stimuli\Videos_short_600ms_vertflip\69.stroke_with_soft_sock_short_vertflip_short_600ms.mp4	69.stroke_with_soft_sock_short_vertflip_short_600ms.mp4	482.4118073474155	483.02012611371447	0.6083187662989076	n/a	n/a	n/a	n/a
353.990234375	0.2	724972	304	53	3	0	0	24	338	stimuli\Videos_short_600ms_vertflip\71.single_stroke_with_finger_top_to_bottom_short_vertflip_short_600ms.mp4	71.single_stroke_with_finger_top_to_bottom_short_vertflip_short_600ms.mp4	483.21182652575544	483.8201136214011	0.6082870956456645	n/a	n/a	n/a	n/a
354.7900390625	0.2	726610	305	53	3	0	0	25	38	stimuli\Videos_short_600ms\44.pushing_top_to_bottom_with_finger_short_short_600ms.mp4	44.pushing_top_to_bottom_with_finger_short_short_600ms.mp4	484.0117486394078	484.620137198443	0.6083885590351201	n/a	n/a	n/a	n/a
355.58984375	0.2	728248	306	53	3	0	0	26	348	stimuli\Videos_short_600ms_vertflip\80.stroke_with_sharp_stick_all_over_the_hand_short_vertflip_short_600ms.mp4	80.stroke_with_sharp_stick_all_over_the_hand_short_vertflip_short_600ms.mp4	484.8117417187837	485.4200962611913	0.6083545424075965	n/a	n/a	n/a	n/a
356.39013671875	0.2	729887	307	53	3	0	0	27	293	stimuli\Videos_short_600ms_vertflip\30.finger_pulling_back_another_finger_short_vertflip_short_600ms.mp4	30.finger_pulling_back_another_finger_short_vertflip_short_600ms.mp4	485.61175679166854	486.2200875810863	0.6083307894177779	n/a	n/a	n/a	n/a
357.18994140625	0.2	731525	308	53	3	0	0	28	294	stimuli\Videos_short_600ms_vertflip\31.hand_grabbing_wrist_short_vertflip_short_600ms.mp4	31.hand_grabbing_wrist_short_vertflip_short_600ms.mp4	486.41174605883634	487.0200677576031	0.6083216987667583	n/a	n/a	n/a	n/a
357.98974609375	0.2	733163	309	53	3	0	0	29	207	stimuli\Videos_short_600ms_horvertflip\34.repeated_punch_with_hand_short_horvertflip_short_600ms.mp4	34.repeated_punch_with_hand_short_horvertflip_short_600ms.mp4	487.2117048283376	487.820053505809	0.6083486774714402	n/a	n/a	n/a	n/a
358.7900390625	0.2	734802	310	53	3	0	0	30	87	stimuli\Videos_short_600ms\89.single_touch_with_plastic_brush_short_short_600ms.mp4	89.single_touch_with_plastic_brush_short_short_600ms.mp4	488.0117216607032	488.6200430662234	0.6083214055202006	n/a	n/a	n/a	n/a
359.58984375	0.2	736440	311	53	3	0	0	31	66	stimuli\Videos_short_600ms\7.repeated_touch_with_hairbrush_short_short_600ms.mp4	7.repeated_touch_with_hairbrush_short_short_600ms.mp4	488.8117056494284	489.4200296941699	0.6083240447414937	n/a	n/a	n/a	n/a
360.3896484375	0.2	738078	312	53	3	0	0	32	1	stimuli\Videos_short_600ms\10.single_touch_with_knife_short_short_600ms.mp4	10.single_touch_with_knife_short_short_600ms.mp4	489.61176324309827	490.22002306679224	0.6082598236939702	n/a	n/a	n/a	n/a
361.18994140625	0.2	739717	313	53	3	0	0	33	82	stimuli\Videos_short_600ms\84.single_touch_with_cotton_bud_short_short_600ms.mp4	84.single_touch_with_cotton_bud_short_short_600ms.mp4	490.41168652973784	491.0200102812323	0.6083237514944813	n/a	n/a	n/a	n/a
361.98974609375	0.2	741355	314	53	3	0	0	34	176	stimuli\Videos_short_600ms_horflip\88.repeated_stroke_with_plastic_brush_short_horflip_short_600ms.mp4	88.repeated_stroke_with_plastic_brush_short_horflip_short_600ms.mp4	491.2116746239181	491.8199972024254	0.608322578507341	n/a	n/a	n/a	n/a
362.78955078125	0.2	742993	315	53	3	0	0	35	68	stimuli\Videos_short_600ms\71.single_stroke_with_finger_top_to_bottom_short_short_600ms.mp4	71.single_stroke_with_finger_top_to_bottom_short_short_600ms.mp4	492.0116615451111	492.6199838303719	0.6083222852607832	n/a	n/a	n/a	n/a
363.58984375	0.2	744632	316	53	3	0	0	36	159	stimuli\Videos_short_600ms_horflip\72.(short)stroke_with_finger_all_over_the_hand_short_horflip_short_600ms.mp4	72.(short)stroke_with_finger_all_over_the_hand_short_horflip_short_600ms.mp4	492.81163321747135	493.4199710448115	0.608337827340165	n/a	n/a	n/a	n/a
364.3896484375	0.2	746270	317	53	3	0	0	37	191	stimuli\Videos_short_600ms_horvertflip\2.single_touch_with_finger_short_horvertflip_short_600ms.mp4	2.single_touch_with_finger_short_horvertflip_short_600ms.mp4	493.61160958178016	494.219957672758	0.60834809097787	n/a	n/a	n/a	n/a
365.189453125	0.2	747908	318	53	3	0	0	38	4	stimuli\Videos_short_600ms\13.single_touch_with_pen_short_short_600ms.mp4	13.single_touch_with_pen_short_short_600ms.mp4	494.41166981467086	495.01994576693824	0.6082759522673769	n/a	n/a	n/a	n/a
365.98974609375	0.2	749547	319	53	3	0	0	39	162	stimuli\Videos_short_600ms_horflip\75.(long)stroke_with_fingers_all_over_the_hand_short_horflip_short_600ms.mp4	75.(long)stroke_with_fingers_all_over_the_hand_short_horflip_short_600ms.mp4	495.2116755036586	495.81991392033706	0.6082384166784323	n/a	n/a	n/a	n/a
366.78955078125	0.2	751185	320	53	3	0	0	40	271	stimuli\Videos_short_600ms_vertflip\10.single_touch_with_knife_short_vertflip_short_600ms.mp4	10.single_touch_with_knife_short_vertflip_short_600ms.mp4	496.01162840822417	496.61991872958424	0.608290321360073	n/a	n/a	n/a	n/a
367.58935546875	0.2	752823	321	53	3	0	0	41	78	stimuli\Videos_short_600ms\80.stroke_with_sharp_stick_all_over_the_hand_short_short_600ms.mp4	80.stroke_with_sharp_stick_all_over_the_hand_short_short_600ms.mp4	496.8115860047383	497.41988658973605	0.6083005849977781	n/a	n/a	n/a	n/a
368.3896484375	0.2	754462	322	53	3	0	0	42	295	stimuli\Videos_short_600ms_vertflip\32.single_(long)pinch_with_fingers_short_vertflip_short_600ms.mp4	32.single_(long)pinch_with_fingers_short_vertflip_short_600ms.mp4	497.61159755866174	498.21987380417613	0.6082762455143893	n/a	n/a	n/a	n/a
369.189453125	0.2	756100	323	53	3	0	0	43	181	stimuli\Videos_short_600ms_horvertflip\10.single_touch_with_knife_short_horvertflip_short_600ms.mp4	10.single_touch_with_knife_short_horvertflip_short_600ms.mp4	498.4117440061086	499.01988242563175	0.6081384195231294	n/a	n/a	n/a	n/a
369.9892578125	0.2	757738	324	53	3	0	0	44	342	stimuli\Videos_short_600ms_vertflip\75.(long)stroke_with_fingers_all_over_the_hand_short_vertflip_short_600ms.mp4	75.(long)stroke_with_fingers_all_over_the_hand_short_vertflip_short_600ms.mp4	499.21154559533034	499.8198843024111	0.6083387070807476	n/a	n/a	n/a	n/a
370.78955078125	0.2	759377	325	53	3	0	1	45	382	stimuli\Targets_short_600ms_vertflip\hand-pinch_short_horvertflip_short_600ms.mp4	hand-pinch_short_horvertflip_short_600ms.mp4	500.0115366219784	500.6198633059407	0.608326683962332	n/a	n/a	n/a	n/a
371.58935546875	0.2	761015	326	53	3	0	0	46	106	stimuli\Videos_short_600ms_horflip\24.single_stroke_top_to_bottom_with_a_spoon_short_horflip_short_600ms.mp4	24.single_stroke_top_to_bottom_with_a_spoon_short_horflip_short_600ms.mp4	500.8115258891462	501.4198572650571	0.6083313759108933	n/a	n/a	n/a	n/a
372.38916015625	0.2	762653	327	53	3	0	0	47	32	stimuli\Videos_short_600ms\39.single_stab_with_scissors_short_short_600ms.mp4	39.single_stab_with_scissors_short_short_600ms.mp4	501.61150929137784	502.2198377348209	0.6083284434430425	n/a	n/a	n/a	n/a
373.189453125	0.2	764292	328	53	3	0	0	48	301	stimuli\Videos_short_600ms_vertflip\38.double_slap_with_pencil_short_vertflip_short_600ms.mp4	38.double_slap_with_pencil_short_vertflip_short_600ms.mp4	502.41147685828264	503.0198261222481	0.6083492639654651	n/a	n/a	n/a	n/a
373.9892578125	0.2	765930	329	53	3	0	0	49	190	stimuli\Videos_short_600ms_horvertflip\19.single_touch_with_rolling_pin_short_horvertflip_short_600ms.mp4	19.single_touch_with_rolling_pin_short_horvertflip_short_600ms.mp4	503.21157638624345	503.8198148029219	0.6082384166784323	n/a	n/a	n/a	n/a
374.78955078125	0.2	767569	330	53	3	0	0	50	257	stimuli\Videos_short_600ms_horvertflip\8.single_touch_with_hairbrush_short_horvertflip_short_600ms.mp4	8.single_touch_with_hairbrush_short_horvertflip_short_600ms.mp4	504.0114729874249	504.6198020173619	0.6083290299370674	n/a	n/a	n/a	n/a
375.58935546875	0.2	769207	331	53	3	0	0	51	322	stimuli\Videos_short_600ms_vertflip\57.single_touch_with_nail_file_short_vertflip_short_600ms.mp4	57.single_touch_with_nail_file_short_vertflip_short_600ms.mp4	504.8114616680991	505.41979069803574	0.6083290299366126	n/a	n/a	n/a	n/a
376.38916015625	0.2	770845	332	53	3	0	0	52	161	stimuli\Videos_short_600ms_horflip\74.fingers_walking_from_top_to_bottom_short_horflip_short_600ms.mp4	74.fingers_walking_from_top_to_bottom_short_horflip_short_600ms.mp4	505.6116479971097	506.2197767394882	0.6081287423785398	n/a	n/a	n/a	n/a
377.189453125	0.2	772484	333	53	3	0	0	53	48	stimuli\Videos_short_600ms\53.touch_top_to_bottom_with_knife_short_short_600ms.mp4	53.touch_top_to_bottom_with_knife_short_short_600ms.mp4	506.4114229008733	507.019761607954	0.6083387070807476	n/a	n/a	n/a	n/a
377.9892578125	0.2	774122	334	53	3	0	0	54	337	stimuli\Videos_short_600ms_vertflip\70.(long)stroke_with_finger_all_over_the_hand_short_vertflip_short_600ms.mp4	70.(long)stroke_with_finger_all_over_the_hand_short_vertflip_short_600ms.mp4	507.2114810810367	507.8197523413555	0.6082712603188156	n/a	n/a	n/a	n/a
378.7890625	0.2	775760	335	53	3	0	0	55	45	stimuli\Videos_short_600ms\50.single_(long)hard_push_with_thumb_short_short_600ms.mp4	50.single_(long)hard_push_with_thumb_short_short_600ms.mp4	508.01146243054063	508.6197193217667	0.6082568912261195	n/a	n/a	n/a	n/a
379.58935546875	0.2	777399	336	53	3	0	0	56	347	stimuli\Videos_short_600ms_vertflip\8.single_touch_with_hairbrush_short_vertflip_short_600ms.mp4	8.single_touch_with_hairbrush_short_vertflip_short_600ms.mp4	508.8118006613886	509.4197276499758	0.6079269885872236	n/a	n/a	n/a	n/a
380.38916015625	0.2	779037	337	53	3	0	0	57	173	stimuli\Videos_short_600ms_horflip\85.touch_top_to_bottom_with_fabric_short_horflip_short_600ms.mp4	85.touch_top_to_bottom_with_fabric_short_horflip_short_600ms.mp4	509.611812508559	510.2197221955853	0.607909687026222	n/a	n/a	n/a	n/a
381.18896484375	0.2	780675	338	53	3	0	0	58	8	stimuli\Videos_short_600ms\17.repeated_touch_with_rolling_pin_short_short_600ms.mp4	17.repeated_touch_with_rolling_pin_short_short_600ms.mp4	510.4114129304826	511.0196780326187	0.6082651021361016	n/a	n/a	n/a	n/a
381.9892578125	0.2	782314	339	53	3	0	0	59	44	stimuli\Videos_short_600ms\5.repeated_tap_with_finger_moving_from_top_to_bottom_short_short_600ms.mp4	5.repeated_tap_with_finger_moving_from_top_to_bottom_short_short_600ms.mp4	511.21136906076254	511.8196664200459	0.6082973592833696	n/a	n/a	n/a	n/a
382.7890625	0.2	783952	340	53	3	0	0	60	313	stimuli\Videos_short_600ms_vertflip\49.repeated_slap_with_hand_short_vertflip_short_600ms.mp4	49.repeated_slap_with_hand_short_vertflip_short_600ms.mp4	512.0113460115649	512.6196592061747	0.6083131946097637	n/a	n/a	n/a	n/a
383.5888671875	0.2	785590	341	53	3	0	0	61	222	stimuli\Videos_short_600ms_horvertflip\48.single_slap_with_hand_short_horvertflip_short_600ms.mp4	48.single_slap_with_hand_short_horvertflip_short_600ms.mp4	512.8115924561675	513.4196414354192	0.6080489792516346	n/a	n/a	n/a	n/a
384.38916015625	0.2	787229	342	53	3	0	0	62	98	stimuli\Videos_short_600ms_horflip\17.repeated_touch_with_rolling_pin_short_horflip_short_600ms.mp4	17.repeated_touch_with_rolling_pin_short_horflip_short_600ms.mp4	513.6113260121338	514.2196497636282	0.6083237514944813	n/a	n/a	n/a	n/a
385.18896484375	0.2	788867	343	53	3	0	0	63	208	stimuli\Videos_short_600ms_horvertflip\35.single_punch_with_hand_short_horvertflip_short_600ms.mp4	35.single_punch_with_hand_short_horvertflip_short_600ms.mp4	514.4113187982625	515.0196484146932	0.6083296164306375	n/a	n/a	n/a	n/a
385.98876953125	0.2	790505	344	53	3	0	0	64	317	stimuli\Videos_short_600ms_vertflip\52.touch_top_to_bottom_with_hammer_short_vertflip_short_600ms.mp4	52.touch_top_to_bottom_with_hammer_short_vertflip_short_600ms.mp4	515.2112799137385	515.8196438400432	0.6083639263047189	n/a	n/a	n/a	n/a
386.7890625	0.2	792144	345	53	3	0	0	65	251	stimuli\Videos_short_600ms_horvertflip\74.fingers_walking_from_top_to_bottom_short_horvertflip_short_600ms.mp4	74.fingers_walking_from_top_to_bottom_short_horvertflip_short_600ms.mp4	516.0112929338957	516.619628415262	0.6083354813663391	n/a	n/a	n/a	n/a
387.5888671875	0.2	793782	346	53	3	0	0	66	204	stimuli\Videos_short_600ms_horvertflip\31.hand_grabbing_wrist_short_horvertflip_short_600ms.mp4	31.hand_grabbing_wrist_short_horvertflip_short_600ms.mp4	516.8112772158679	517.419605952558	0.6083287366900549	n/a	n/a	n/a	n/a
388.388671875	0.2	795420	347	53	3	0	0	67	225	stimuli\Videos_short_600ms_horvertflip\50.single_(long)hard_push_with_thumb_short_horvertflip_short_600ms.mp4	50.single_(long)hard_push_with_thumb_short_horvertflip_short_600ms.mp4	517.6112670695288	518.2195919940104	0.6083249244816216	n/a	n/a	n/a	n/a
389.18896484375	0.2	797059	348	53	3	0	0	68	174	stimuli\Videos_short_600ms_horflip\86.touch_top_to_bottom_with_hair_brush_short_horflip_short_600ms.mp4	86.touch_top_to_bottom_with_hair_brush_short_horflip_short_600ms.mp4	518.4112583894239	519.0195795016971	0.6083211122731882	n/a	n/a	n/a	n/a
389.98876953125	0.2	798697	349	53	3	0	0	69	260	stimuli\Videos_short_600ms_horvertflip\82.repeated_touch_with_cotton_bud_short_horvertflip_short_600ms.mp4	82.repeated_touch_with_cotton_bud_short_horvertflip_short_600ms.mp4	519.2112189184058	519.8195673026307	0.6083483842248825	n/a	n/a	n/a	n/a
390.78857421875	0.2	800335	350	53	3	0	0	70	172	stimuli\Videos_short_600ms_horflip\84.single_touch_with_cotton_bud_short_horflip_short_600ms.mp4	84.single_touch_with_cotton_bud_short_horflip_short_600ms.mp4	520.0112304723293	520.6195562765515	0.6083258042222042	n/a	n/a	n/a	n/a
391.5888671875	0.2	801974	351	53	3	0	0	71	7	stimuli\Videos_short_600ms\16.repeated_touch_with_plastic_brush_short_short_600ms.mp4	16.repeated_touch_with_plastic_brush_short_short_600ms.mp4	520.8112710576852	521.4195420247574	0.6082709670722579	n/a	n/a	n/a	n/a
392.388671875	0.2	803612	352	53	3	0	1	72	374	stimuli\Targets_short_600ms_horvertflip\chopstickwood-tap_short_vertflip_short_600ms.mp4	chopstickwood-tap_short_vertflip_short_600ms.mp4	521.6111802684791	522.2195333446525	0.6083530761734437	n/a	n/a	n/a	n/a
393.18896484375	0.2	805251	353	53	3	0	0	73	74	stimuli\Videos_short_600ms\77.tapping_with_all_fingers_short_short_600ms.mp4	77.tapping_with_all_fingers_short_short_600ms.mp4	522.411199740066	523.0195185063649	0.6083187662989076	n/a	n/a	n/a	n/a
393.98876953125	0.2	806889	354	53	3	0	0	74	248	stimuli\Videos_short_600ms_horvertflip\71.single_stroke_with_finger_top_to_bottom_short_horvertflip_short_600ms.mp4	71.single_stroke_with_finger_top_to_bottom_short_horvertflip_short_600ms.mp4	523.2112978017926	523.8195083600258	0.6082105582331678	n/a	n/a	n/a	n/a
394.78857421875	0.2	808527	355	53	3	0	0	75	275	stimuli\Videos_short_600ms_vertflip\14.repeated_touch_with_pencil_short_vertflip_short_600ms.mp4	14.repeated_touch_with_pencil_short_vertflip_short_600ms.mp4	524.0111424982924	524.619501146155	0.6083586478625875	n/a	n/a	n/a	n/a
395.5888671875	0.2	810166	356	53	3	0	0	76	2	stimuli\Videos_short_600ms\11.single_touch_with_lighter_short_short_600ms.mp4	11.single_touch_with_lighter_short_short_600ms.mp4	524.8113188569118	525.4194883605946	0.6081695036828023	n/a	n/a	n/a	n/a
396.388671875	0.2	811804	357	53	3	0	0	77	170	stimuli\Videos_short_600ms_horflip\82.repeated_touch_with_cotton_bud_short_horflip_short_600ms.mp4	82.repeated_touch_with_cotton_bud_short_horflip_short_600ms.mp4	525.6111585682165	526.2194647249034	0.6083061566869219	n/a	n/a	n/a	n/a
