onset	duration	onsetsample	eventnumber	subjectnr	sequencenumber	blocksequencenumber	istarget	presentationnumber	stimnumber	stim	stimname	time_stimon	time_stimoff	stimdur	cresp	resp	rt	correct
21.25439453125	0.2	43529	0	13	0	0	0	0	47	stimuli\Videos_short_600ms\52.touch_top_to_bottom_with_hammer_short_short_600ms.mp4	52.touch_top_to_bottom_with_hammer_short_short_600ms.mp4	91.78182092233465	92.3900789623317	0.6082580399970539				
22.0546875	0.2	45168	1	13	0	0	0	1	331	stimuli\Videos_short_600ms_vertflip\65.stroke_top_to_bottom_with_stanley_knife_short_vertflip_short_600ms.mp4	65.stroke_top_to_bottom_with_stanley_knife_short_vertflip_short_600ms.mp4	92.5818559358986	93.19009667438604	0.6082407384874386				
22.8544921875	0.2	46806	2	13	0	0	0	2	183	stimuli\Videos_short_600ms_horvertflip\12.repeated_touch_with_nail_file_short_horvertflip_short_600ms.mp4	12.repeated_touch_with_nail_file_short_horvertflip_short_600ms.mp4	93.38194256074668	93.9900982579138	0.6081556971671489				
23.654296875	0.2	48444	3	13	0	0	0	3	114	stimuli\Videos_short_600ms_horflip\31.hand_grabbing_wrist_short_horflip_short_600ms.mp4	31.hand_grabbing_wrist_short_horflip_short_600ms.mp4	94.18173711264762	94.7900860588834	0.6083489462357647				
24.45458984375	0.2	50083	4	13	0	0	0	4	155	stimuli\Videos_short_600ms_horflip\69.stroke_with_soft_sock_short_horflip_short_600ms.mp4	69.stroke_with_soft_sock_short_horflip_short_600ms.mp4	94.98183458759512	95.59007034090156	0.6082357533064169				
25.25439453125	0.2	51721	5	13	0	0	0	5	220	stimuli\Videos_short_600ms_horvertflip\46.scratching_top_to_bottom_with_finger_nails_short_horvertflip_short_600ms.mp4	46.scratching_top_to_bottom_with_finger_nails_short_horvertflip_short_600ms.mp4	95.7817080226514	96.390052863444	0.6083448407925971				
26.05419921875	0.2	53359	6	13	0	0	0	6	205	stimuli\Videos_short_600ms_horvertflip\32.single_(long)pinch_with_fingers_short_horvertflip_short_600ms.mp4	32.single_(long)pinch_with_fingers_short_horvertflip_short_600ms.mp4	96.58169641011273	97.19003333326508	0.6083369231523648				
26.8544921875	0.2	54998	7	13	0	0	0	7	208	stimuli\Videos_short_600ms_horvertflip\35.single_punch_with_hand_short_horvertflip_short_600ms.mp4	35.single_punch_with_hand_short_horvertflip_short_600ms.mp4	97.38172379928255	97.9900193747585	0.6082955754759496				
27.654296875	0.2	56636	8	13	0	0	0	8	33	stimuli\Videos_short_600ms\4.repeated_tap_with_finger_slow_short_short_600ms.mp4	4.repeated_tap_with_finger_slow_short_short_600ms.mp4	98.18163828876914	98.79000541625236	0.6083671274832341				
28.4541015625	0.2	58274	9	13	0	0	0	9	210	stimuli\Videos_short_600ms_horvertflip\37.single_stab_with_nail_file_short_horvertflip_short_600ms.mp4	37.single_stab_with_nail_file_short_horvertflip_short_600ms.mp4	98.98164984265895	99.58998793879482	0.6083380961358671				
29.25439453125	0.2	59913	10	13	0	0	0	10	71	stimuli\Videos_short_600ms\74.fingers_walking_from_top_to_bottom_short_short_600ms.mp4	74.fingers_walking_from_top_to_bottom_short_short_600ms.mp4	99.78172268494792	100.38997486002654	0.6082521750786327				
30.05419921875	0.2	61551	11	13	0	0	0	11	293	stimuli\Videos_short_600ms_vertflip\30.finger_pulling_back_another_finger_short_vertflip_short_600ms.mp4	30.finger_pulling_back_another_finger_short_vertflip_short_600ms.mp4	100.58172690768924	101.1899603150282	0.6082334073389575				
30.85400390625	0.2	63189	12	13	0	0	0	12	236	stimuli\Videos_short_600ms_horvertflip\60.single_push_with_tip_of_pencil_short_horvertflip_short_600ms.mp4	60.single_push_with_tip_of_pencil_short_horvertflip_short_600ms.mp4	101.38183933817936	101.98995720662153	0.6081178684421502				
31.654296875	0.2	64828	13	13	0	0	0	13	81	stimuli\Videos_short_600ms\83.single_stroke_top_to_bottom_with_cotton_bud_short_short_600ms.mp4	83.single_stroke_top_to_bottom_with_cotton_bud_short_short_600ms.mp4	102.18178491173468	102.78994178188532	0.6081568701506512				
32.4541015625	0.2	66466	14	13	0	0	0	14	134	stimuli\Videos_short_600ms_horflip\5.repeated_tap_with_finger_moving_from_top_to_bottom_short_horflip_short_600ms.mp4	5.repeated_tap_with_finger_moving_from_top_to_bottom_short_horflip_short_600ms.mp4	102.981797638608	103.58984248881325	0.6080448502052604				
33.25390625	0.2	68104	15	13	0	0	0	15	351	stimuli\Videos_short_600ms_vertflip\83.single_stroke_top_to_bottom_with_cotton_bud_short_vertflip_short_600ms.mp4	83.single_stroke_top_to_bottom_with_cotton_bud_short_vertflip_short_600ms.mp4	103.78180479380852	104.38989187142806	0.6080870776195297				
34.05419921875	0.2	69743	16	13	0	0	0	16	346	stimuli\Videos_short_600ms_vertflip\79.long_with_soft_brush_all_over_the_hand_short_vertflip_short_600ms.mp4	79.long_with_soft_brush_all_over_the_hand_short_vertflip_short_600ms.mp4	104.58163218925392	105.18984946806675	0.6082172788128446				
34.85400390625	0.2	71381	17	13	0	0	0	17	60	stimuli\Videos_short_600ms\64.repeated_touch_with_screwdriver_short_short_600ms.mp4	64.repeated_touch_with_screwdriver_short_short_600ms.mp4	105.38175459010516	105.98983199060922	0.6080774005040439				
35.65380859375	0.2	73019	18	13	0	0	0	18	151	stimuli\Videos_short_600ms_horflip\65.stroke_top_to_bottom_with_stanley_knife_short_horflip_short_600ms.mp4	65.stroke_top_to_bottom_with_stanley_knife_short_horflip_short_600ms.mp4	106.18198080001594	106.78983885256366	0.6078580525477264				
36.4541015625	0.2	74658	19	13	0	0	0	19	131	stimuli\Videos_short_600ms_horflip\47.(long)scratching_with_finger_nails_short_horflip_short_600ms.mp4	47.(long)scratching_with_finger_nails_short_horflip_short_600ms.mp4	106.98150439267738	107.58982782651674	0.6083234338393595				
37.25390625	0.2	76296	20	13	0	0	0	20	224	stimuli\Videos_short_600ms_horvertflip\5.repeated_tap_with_finger_moving_from_top_to_bottom_short_horvertflip_short_600ms.mp4	5.repeated_tap_with_finger_moving_from_top_to_bottom_short_horvertflip_short_600ms.mp4	107.7816326584475	108.38981474774846	0.6081820893009535				
38.0537109375	0.2	77934	21	13	0	0	0	21	122	stimuli\Videos_short_600ms_horflip\39.single_stab_with_scissors_short_horflip_short_600ms.mp4	39.single_stab_with_scissors_short_horflip_short_600ms.mp4	108.5814732499598	109.18981075960392	0.6083375096441159				
38.85400390625	0.2	79573	22	13	0	0	0	22	223	stimuli\Videos_short_600ms_horvertflip\49.repeated_slap_with_hand_short_horvertflip_short_600ms.mp4	49.repeated_slap_with_hand_short_horvertflip_short_600ms.mp4	109.38149917290002	109.9898111701482	0.6083119972481654				
39.65380859375	0.2	81211	23	13	0	0	0	23	8	stimuli\Videos_short_600ms\17.repeated_touch_with_rolling_pin_short_short_600ms.mp4	17.repeated_touch_with_rolling_pin_short_short_600ms.mp4	110.18144562619318	110.7897986778712	0.6083530516780229				
40.4541015625	0.2	82850	24	13	0	0	0	24	104	stimuli\Videos_short_600ms_horflip\22.single_touch_with_metal_chopstick_short_horflip_short_600ms.mp4	22.single_touch_with_metal_chopstick_short_horflip_short_600ms.mp4	110.9815354767461	111.58977210978992	0.6082366330438163				
41.25390625	0.2	84488	25	13	0	0	0	25	44	stimuli\Videos_short_600ms\5.repeated_tap_with_finger_moving_from_top_to_bottom_short_short_600ms.mp4	5.repeated_tap_with_finger_moving_from_top_to_bottom_short_short_600ms.mp4	111.7815074424352	112.38976020400514	0.6082527615699291				
42.0537109375	0.2	86126	26	13	0	0	0	26	6	stimuli\Videos_short_600ms\15.single_stroke_top_to_bottom_with_a_plastic_whisk_short_short_600ms.mp4	15.single_stroke_top_to_bottom_with_a_plastic_whisk_short_short_600ms.mp4	112.58142427788924	113.18974214005584	0.6083178621665866				
42.85400390625	0.2	87765	27	13	0	0	0	27	282	stimuli\Videos_short_600ms_vertflip\20.single_touch_with_screwdriver_short_vertflip_short_600ms.mp4	20.single_touch_with_screwdriver_short_vertflip_short_600ms.mp4	113.38138744620028	113.98973082076328	0.6083433745629918				
43.65380859375	0.2	89403	28	13	0	0	0	28	174	stimuli\Videos_short_600ms_horflip\86.touch_top_to_bottom_with_hair_brush_short_horflip_short_600ms.mp4	86.touch_top_to_bottom_with_hair_brush_short_horflip_short_600ms.mp4	114.18147084534304	114.78971275681396	0.608241911470941				
44.45361328125	0.2	91041	29	13	0	0	0	29	97	stimuli\Videos_short_600ms_horflip\16.repeated_touch_with_plastic_brush_short_horflip_short_600ms.mp4	16.repeated_touch_with_plastic_brush_short_horflip_short_600ms.mp4	114.98149676828324	115.5896993847996	0.608202616516337				
45.25390625	0.2	92680	30	13	0	0	0	30	329	stimuli\Videos_short_600ms_vertflip\63.stroke_top_to_bottom_with_screwdriver_short_vertflip_short_600ms.mp4	63.stroke_top_to_bottom_with_screwdriver_short_vertflip_short_600ms.mp4	115.781339705763	116.38968278707988	0.6083430813168889				
46.0537109375	0.2	94318	31	13	0	0	0	31	342	stimuli\Videos_short_600ms_vertflip\75.(long)stroke_with_fingers_all_over_the_hand_short_vertflip_short_600ms.mp4	75.(long)stroke_with_fingers_all_over_the_hand_short_vertflip_short_600ms.mp4	116.581560344001	117.1896691218194	0.6081087778184155				
46.853515625	0.2	95956	32	13	0	0	0	32	153	stimuli\Videos_short_600ms_horflip\67.single_touch_with_sponge_short_horflip_short_600ms.mp4	67.single_touch_with_sponge_short_horflip_short_600ms.mp4	117.3813763028552	117.98965604305069	0.6082797401954849				
47.65380859375	0.2	97595	33	13	0	0	0	33	343	stimuli\Videos_short_600ms_vertflip\76.tickle_with_fingers_from_top_to_bottom_short_vertflip_short_600ms.mp4	76.tickle_with_fingers_from_top_to_bottom_short_vertflip_short_600ms.mp4	118.1813770066451	118.78964237779064	0.608265371145535				
48.45361328125	0.2	99233	34	13	0	0	0	34	53	stimuli\Videos_short_600ms\58.single_slap_with_pencil_short_short_600ms.mp4	58.single_slap_with_pencil_short_short_600ms.mp4	118.98154339438634	119.58960525285556	0.6080618584692274				
49.25341796875	0.2	100871	35	13	0	0	0	35	277	stimuli\Videos_short_600ms_vertflip\16.repeated_touch_with_plastic_brush_short_vertflip_short_600ms.mp4	16.repeated_touch_with_plastic_brush_short_vertflip_short_600ms.mp4	119.78133589356594	120.38961416753182	0.6082782739658796				
50.0537109375	0.2	102510	36	13	0	0	0	36	312	stimuli\Videos_short_600ms_vertflip\48.single_slap_with_hand_short_vertflip_short_600ms.mp4	48.single_slap_with_hand_short_vertflip_short_600ms.mp4	120.58126357911942	121.18958818594274	0.6083246068233166				
50.853515625	0.2	104148	37	13	0	0	0	37	62	stimuli\Videos_short_600ms\66.stroke_top_to_bottom_with_sponge_short_short_600ms.mp4	66.stroke_top_to_bottom_with_sponge_short_short_600ms.mp4	121.38144580214066	121.98958771674916	0.6081419146084954				
51.6533203125	0.2	105786	38	13	0	0	0	38	325	stimuli\Videos_short_600ms_vertflip\6.single_touch_with_flat_hand_short_vertflip_short_600ms.mp4	6.single_touch_with_flat_hand_short_vertflip_short_600ms.mp4	122.1813380049366	122.78954707286312	0.6082090679265093				
52.45361328125	0.2	107425	39	13	0	0	0	39	103	stimuli\Videos_short_600ms_horflip\21.repeated_touch_with_metal_chopstick_short_horflip_short_600ms.mp4	21.repeated_touch_with_metal_chopstick_short_horflip_short_600ms.mp4	122.98129912052627	123.58954161848897	0.6082424979626921				
53.25341796875	0.2	109063	40	13	0	0	1	40	365	stimuli\Targets_short_600ms\hand-stroke_short_short_600ms.mp4	hand-stroke_short_short_600ms.mp4	123.78127137946105	124.3895226748018	0.6082512953407786				
54.05322265625	0.2	110701	41	13	0	0	0	41	307	stimuli\Videos_short_600ms_vertflip\43.touch_top_to_bottom_with_sharp_wooden_stick_short_vertflip_short_600ms.mp4	43.touch_top_to_bottom_with_sharp_wooden_stick_short_vertflip_short_600ms.mp4	124.58136680168673	125.18953158947808	0.6081647877913383				
54.853515625	0.2	112340	42	13	0	0	0	42	266	stimuli\Videos_short_600ms_horvertflip\88.repeated_stroke_with_plastic_brush_short_horvertflip_short_600ms.mp4	88.repeated_stroke_with_plastic_brush_short_horvertflip_short_600ms.mp4	125.38145723873184	125.98952173641464	0.6080644976827898				
55.6533203125	0.2	113978	43	13	0	0	0	43	184	stimuli\Videos_short_600ms_horvertflip\13.single_touch_with_pen_short_horvertflip_short_600ms.mp4	13.single_touch_with_pen_short_horvertflip_short_600ms.mp4	126.18115472623003	126.78949956702265	0.6083448407925971				
56.453125	0.2	115616	44	13	0	0	0	44	68	stimuli\Videos_short_600ms\71.single_stroke_with_finger_top_to_bottom_short_short_600ms.mp4	71.single_stroke_with_finger_top_to_bottom_short_short_600ms.mp4	126.98114106096956	127.5894853152704	0.6083442543008459				
57.25341796875	0.2	117255	45	13	0	0	0	45	147	stimuli\Videos_short_600ms_horflip\61.single_hit_with_rolling_pin_short_horflip_short_600ms.mp4	61.single_hit_with_rolling_pin_short_horflip_short_600ms.mp4	127.78112622272556	128.38947047702595	0.6083442543003912				
58.05322265625	0.2	118893	46	13	0	0	0	46	271	stimuli\Videos_short_600ms_vertflip\10.single_touch_with_knife_short_vertflip_short_600ms.mp4	10.single_touch_with_knife_short_vertflip_short_600ms.mp4	128.5812210584595	129.18945681176592	0.6082357533064169				
58.853515625	0.2	120532	47	13	0	0	0	47	339	stimuli\Videos_short_600ms_vertflip\72.(short)stroke_with_finger_all_over_the_hand_short_vertflip_short_600ms.mp4	72.(short)stroke_with_finger_all_over_the_hand_short_vertflip_short_600ms.mp4	129.3811616468338	129.98944461273504	0.6082829659012532				
59.6533203125	0.2	122170	48	13	0	0	0	48	228	stimuli\Videos_short_600ms_horvertflip\53.touch_top_to_bottom_with_knife_short_horvertflip_short_600ms.mp4	53.touch_top_to_bottom_with_knife_short_horvertflip_short_600ms.mp4	130.18134005765796	130.7894327069503	0.6080926492923027				
60.453125	0.2	123808	49	13	0	0	0	49	51	stimuli\Videos_short_600ms\56.repeated_touch_with_nail_file_short_short_600ms.mp4	56.repeated_touch_with_nail_file_short_short_600ms.mp4	130.98105220745265	131.58938825086716	0.6083360434145106				
61.25341796875	0.2	125447	50	13	0	0	0	50	136	stimuli\Videos_short_600ms_horflip\51.repeated_touch_with_hammer_short_horflip_short_600ms.mp4	51.repeated_touch_with_hammer_short_horflip_short_600ms.mp4	131.78105613694834	132.38939775203517	0.6083416150868288				
62.05322265625	0.2	127085	51	13	0	0	0	51	113	stimuli\Videos_short_600ms_horflip\30.finger_pulling_back_another_finger_short_horflip_short_600ms.mp4	30.finger_pulling_back_another_finger_short_horflip_short_600ms.mp4	132.58106094618142	133.18937968808586	0.6083187419044407				
62.85302734375	0.2	128723	52	13	0	0	0	52	298	stimuli\Videos_short_600ms_vertflip\35.single_punch_with_hand_short_vertflip_short_600ms.mp4	35.single_punch_with_hand_short_vertflip_short_600ms.mp4	133.38112499109275	133.9893677823011	0.6082427912083403				
63.6533203125	0.2	130362	53	13	0	0	0	53	73	stimuli\Videos_short_600ms\76.tickle_with_fingers_from_top_to_bottom_short_short_600ms.mp4	76.tickle_with_fingers_from_top_to_bottom_short_short_600ms.mp4	134.18112716111273	134.78935910222162	0.6082319411088974				
64.453125	0.2	132000	54	13	0	0	0	54	197	stimuli\Videos_short_600ms_horvertflip\25.single_touch_with_stanley_knife_short_horvertflip_short_600ms.mp4	25.single_touch_with_stanley_knife_short_horvertflip_short_600ms.mp4	134.98099443800447	135.58933869230486	0.6083442543003912				
65.2529296875	0.2	133638	55	13	0	0	0	55	322	stimuli\Videos_short_600ms_vertflip\57.single_touch_with_nail_file_short_vertflip_short_600ms.mp4	57.single_touch_with_nail_file_short_vertflip_short_600ms.mp4	135.7810710924905	136.38932326756913	0.6082521750786327				
66.05322265625	0.2	135277	56	13	0	0	0	56	56	stimuli\Videos_short_600ms\60.single_push_with_tip_of_pencil_short_short_600ms.mp4	60.single_push_with_tip_of_pencil_short_short_600ms.mp4	136.58112135484316	137.18928672912625	0.6081653742830895				
66.85302734375	0.2	136915	57	13	0	0	0	57	137	stimuli\Videos_short_600ms_horflip\52.touch_top_to_bottom_with_hammer_short_horflip_short_600ms.mp4	52.touch_top_to_bottom_with_hammer_short_horflip_short_600ms.mp4	137.3810859893838	137.98927277061966	0.6081867812358723				
67.65283203125	0.2	138553	58	13	0	0	1	58	360	stimuli\Targets_short_600ms\brush-stroke_short_short_600ms.mp4	brush-stroke_short_short_600ms.mp4	138.18102804398814	138.78926203781884	0.6082339938307086				
68.453125	0.2	140192	59	13	0	0	0	59	238	stimuli\Videos_short_600ms_horvertflip\62.touch_top_to_bottom_with_scissors_short_horvertflip_short_600ms.mp4	62.touch_top_to_bottom_with_scissors_short_horvertflip_short_600ms.mp4	138.98092376573504	139.5892727119708	0.6083489462357647				
69.2529296875	0.2	141830	60	13	0	0	0	60	126	stimuli\Videos_short_600ms_horflip\42.single_slap_with_plastic_whisk_short_horflip_short_600ms.mp4	42.single_slap_with_plastic_whisk_short_horflip_short_600ms.mp4	139.78091098021287	140.38926256566128	0.6083515854484176				
70.052734375	0.2	143468	61	13	0	0	0	61	145	stimuli\Videos_short_600ms_horflip\6.single_touch_with_flat_hand_short_horflip_short_600ms.mp4	6.single_touch_with_flat_hand_short_horflip_short_600ms.mp4	140.58096006958158	141.1892509531226	0.6082908835410308				
70.85302734375	0.2	145107	62	13	0	0	0	62	10	stimuli\Videos_short_600ms\19.single_touch_with_rolling_pin_short_short_600ms.mp4	19.single_touch_with_rolling_pin_short_short_600ms.mp4	141.3809229446465	141.98922585127093	0.6083029066244308				
71.65283203125	0.2	146745	63	13	0	0	0	63	63	stimuli\Videos_short_600ms\67.single_touch_with_sponge_short_short_600ms.mp4	67.single_touch_with_sponge_short_short_600ms.mp4	142.1809705677856	142.78922098338853	0.6082504156029245				
72.45263671875	0.2	148383	64	13	0	0	0	64	42	stimuli\Videos_short_600ms\48.single_slap_with_hand_short_short_600ms.mp4	48.single_slap_with_hand_short_short_600ms.mp4	142.98094282672082	143.5891964680286	0.6082536413077833				
73.2529296875	0.2	150022	65	13	0	0	0	65	23	stimuli\Videos_short_600ms\30.finger_pulling_back_another_finger_short_short_600ms.mp4	30.finger_pulling_back_another_finger_short_short_600ms.mp4	143.78094675621605	144.38918338926032	0.608236633044271				
74.052734375	0.2	151660	66	13	0	0	0	66	320	stimuli\Videos_short_600ms_vertflip\55.touch_top_to_bottom_with_nail_file_short_vertflip_short_600ms.mp4	55.touch_top_to_bottom_with_nail_file_short_vertflip_short_600ms.mp4	144.58082107101018	145.18916737803238	0.6083463070222024				
74.8525390625	0.2	153298	67	13	0	0	0	67	267	stimuli\Videos_short_600ms_horvertflip\89.single_touch_with_plastic_brush_short_horvertflip_short_600ms.mp4	89.single_touch_with_plastic_brush_short_horvertflip_short_600ms.mp4	145.38100622649108	145.9891542992641	0.6081480727730195				
75.65283203125	0.2	154937	68	13	0	0	1	68	382	stimuli\Targets_short_600ms_vertflip\hand-pinch_short_horvertflip_short_600ms.mp4	hand-pinch_short_horvertflip_short_600ms.mp4	146.18097848542584	146.7891371150522	0.6081586296263595				
76.45263671875	0.2	156575	69	13	0	0	0	69	359	stimuli\Videos_short_600ms_vertflip\90.repeated_touch_with_sponge_short_vertflip_short_600ms.mp4	90.repeated_touch_with_sponge_short_vertflip_short_600ms.mp4	146.98075690880069	147.5891208105786	0.6083639017779205				
77.2529296875	0.2	158214	70	13	0	0	0	70	332	stimuli\Videos_short_600ms_vertflip\66.stroke_top_to_bottom_with_sponge_short_vertflip_short_600ms.mp4	66.stroke_top_to_bottom_with_sponge_short_vertflip_short_600ms.mp4	147.7809232965419	148.38910831830208	0.6081850217601641				
78.052734375	0.2	159852	71	13	0	0	0	71	249	stimuli\Videos_short_600ms_horvertflip\72.(short)stroke_with_finger_all_over_the_hand_short_horvertflip_short_600ms.mp4	72.(short)stroke_with_finger_all_over_the_hand_short_horvertflip_short_600ms.mp4	148.58097209266452	149.1890703136296	0.6080982209650756				
78.8525390625	0.2	161490	72	13	0	0	0	72	125	stimuli\Videos_short_600ms_horflip\41.injection_with_blunt_syringe_short_horflip_short_600ms.mp4	41.injection_with_blunt_syringe_short_horflip_short_600ms.mp4	149.3808818902162	149.98906016732008	0.6081782771038888				
79.65283203125	0.2	163129	73	13	0	0	0	73	211	stimuli\Videos_short_600ms_horvertflip\38.double_slap_with_pencil_short_horvertflip_short_600ms.mp4	38.double_slap_with_pencil_short_horvertflip_short_600ms.mp4	150.18089754954917	150.78904093038727	0.6081433808381007				
80.45263671875	0.2	164767	74	13	0	0	0	74	7	stimuli\Videos_short_600ms\16.repeated_touch_with_plastic_brush_short_short_600ms.mp4	16.repeated_touch_with_plastic_brush_short_short_600ms.mp4	150.98074078027457	151.5890334232913	0.608292643016739				
81.25244140625	0.2	166405	75	13	0	0	1	75	375	stimuli\Targets_short_600ms_horvertflip\finger-tap_short_vertflip_short_600ms.mp4	finger-tap_short_vertflip_short_600ms.mp4	151.78068899304344	152.3889904334378	0.6083014403943707				
82.052734375	0.2	168044	76	13	0	0	0	76	52	stimuli\Videos_short_600ms\57.single_touch_with_nail_file_short_short_600ms.mp4	57.single_touch_with_nail_file_short_short_600ms.mp4	152.58068705762025	153.1889946561796	0.6083075985593496				
82.8525390625	0.2	169682	77	13	0	0	0	77	324	stimuli\Videos_short_600ms_vertflip\59.single_push_with_long_side_pencil_short_vertflip_short_600ms.mp4	59.single_push_with_long_side_pencil_short_vertflip_short_600ms.mp4	153.380786292043	153.98898333688658	0.6081970448435641				
83.65234375	0.2	171320	78	13	0	0	0	78	191	stimuli\Videos_short_600ms_horvertflip\2.single_touch_with_finger_short_horvertflip_short_600ms.mp4	2.single_touch_with_finger_short_horvertflip_short_600ms.mp4	154.18072981287696	154.78898228120124	0.6082524683242809				
84.45263671875	0.2	172959	79	13	0	0	0	79	287	stimuli\Videos_short_600ms_vertflip\25.single_touch_with_stanley_knife_short_vertflip_short_600ms.mp4	25.single_touch_with_stanley_knife_short_vertflip_short_600ms.mp4	154.9806319860345	155.58895952531702	0.6083275392825271				
85.25244140625	0.2	174597	80	13	0	0	0	80	176	stimuli\Videos_short_600ms_horflip\88.repeated_stroke_with_plastic_brush_short_horflip_short_600ms.mp4	88.repeated_stroke_with_plastic_brush_short_horflip_short_600ms.mp4	155.78074148406495	156.38896814674715	0.6082266626822275				
86.05224609375	0.2	176235	81	13	0	0	0	81	98	stimuli\Videos_short_600ms_horflip\17.repeated_touch_with_rolling_pin_short_horflip_short_600ms.mp4	17.repeated_touch_with_rolling_pin_short_horflip_short_600ms.mp4	156.5806847116528	157.18895096253573	0.6082662508829344				
86.8525390625	0.2	177874	82	13	0	0	0	82	355	stimuli\Videos_short_600ms_vertflip\87.single_stroke_top_to_bottom_with_plastic_brush_short_vertflip_short_600ms.mp4	87.single_stroke_top_to_bottom_with_plastic_brush_short_vertflip_short_600ms.mp4	157.38087602529777	157.9889387635053	0.6080627382075363				
87.65234375	0.2	179512	83	13	0	0	0	83	286	stimuli\Videos_short_600ms_vertflip\24.single_stroke_top_to_bottom_with_a_spoon_short_vertflip_short_600ms.mp4	24.single_stroke_top_to_bottom_with_a_spoon_short_vertflip_short_600ms.mp4	158.18068993143015	158.788920699556	0.6082307681258499				
88.4521484375	0.2	181150	84	13	0	0	0	84	144	stimuli\Videos_short_600ms_horflip\59.single_push_with_long_side_pencil_short_horflip_short_600ms.mp4	59.single_push_with_long_side_pencil_short_horflip_short_600ms.mp4	158.98056043402767	159.58890732754116	0.6083468935134988				
89.25244140625	0.2	182789	85	13	0	0	0	85	0	stimuli\Videos_short_600ms\1.repeated_touch_with_finger_fast_short_short_600ms.mp4	1.repeated_touch_with_finger_fast_short_short_600ms.mp4	159.78063474254623	160.38889336903503	0.608258626488805				
90.05224609375	0.2	184427	86	13	0	0	0	86	110	stimuli\Videos_short_600ms_horflip\28.single_injection_with_sharp_needle_short_horflip_short_600ms.mp4	28.single_injection_with_sharp_needle_short_horflip_short_600ms.mp4	160.5805377954416	161.18887882403715	0.6083410285955324				
90.85205078125	0.2	186065	87	13	0	0	0	87	295	stimuli\Videos_short_600ms_vertflip\32.single_(long)pinch_with_fingers_short_vertflip_short_600ms.mp4	32.single_(long)pinch_with_fingers_short_vertflip_short_600ms.mp4	161.38051210709818	161.9888642790388	0.6083521719406235				
91.65234375	0.2	187704	88	13	0	0	0	88	233	stimuli\Videos_short_600ms_horvertflip\58.single_slap_with_pencil_short_horvertflip_short_600ms.mp4	58.single_slap_with_pencil_short_horvertflip_short_600ms.mp4	162.18060137115936	162.78884914754872	0.6082477763893621				
92.4521484375	0.2	189342	89	13	0	0	0	89	21	stimuli\Videos_short_600ms\29.single_pinch_with_tweezers_short_short_600ms.mp4	29.single_pinch_with_tweezers_short_short_600ms.mp4	162.9805926910799	163.58883430930473	0.608241618224838				
93.251953125	0.2	190980	90	13	0	0	0	90	29	stimuli\Videos_short_600ms\36.single_slap_with_full_hand_short_short_600ms.mp4	36.single_slap_with_full_hand_short_short_600ms.mp4	163.7804526368236	164.38881947106074	0.6083668342371311				
94.05224609375	0.2	192619	91	13	0	0	0	91	263	stimuli\Videos_short_600ms_horvertflip\85.touch_top_to_bottom_with_fabric_short_horvertflip_short_600ms.mp4	85.touch_top_to_bottom_with_fabric_short_horvertflip_short_600ms.mp4	164.58043897156313	165.18880287334105	0.6083639017779205				
94.85205078125	0.2	194257	92	13	0	0	0	92	106	stimuli\Videos_short_600ms_horflip\24.single_stroke_top_to_bottom_with_a_spoon_short_horflip_short_600ms.mp4	24.single_stroke_top_to_bottom_with_a_spoon_short_horflip_short_600ms.mp4	165.38056518461144	165.98879126080192	0.6082260761904763				
95.65234375	0.2	195896	93	13	0	0	0	93	168	stimuli\Videos_short_600ms_horflip\80.stroke_with_sharp_stick_all_over_the_hand_short_horflip_short_600ms.mp4	80.stroke_with_sharp_stick_all_over_the_hand_short_horflip_short_600ms.mp4	166.18058700210895	166.788793724068	0.6082067219590499	4.0	4.0	1.951078954413788	1.0
129.142578125	0.2	264484	94	13	1	0	0	0	270	stimuli\Videos_short_600ms_vertflip\1.repeated_touch_with_finger_fast_short_vertflip_short_600ms.mp4	1.repeated_touch_with_finger_fast_short_vertflip_short_600ms.mp4	199.67151969131783	200.27983872646791	0.6083190351500889				
129.94287109375	0.2	266123	95	13	1	0	0	1	315	stimuli\Videos_short_600ms_vertflip\50.single_(long)hard_push_with_thumb_short_vertflip_short_600ms.mp4	50.single_(long)hard_push_with_thumb_short_vertflip_short_600ms.mp4	200.4714863785798	201.07982300848607	0.6083366299062618				
130.74267578125	0.2	267761	96	13	1	0	0	2	207	stimuli\Videos_short_600ms_horvertflip\34.repeated_punch_with_hand_short_horvertflip_short_600ms.mp4	34.repeated_punch_with_hand_short_horvertflip_short_600ms.mp4	201.27147447279503	201.8798075837503	0.6083331109553001				
131.54248046875	0.2	269399	97	13	1	0	0	3	129	stimuli\Videos_short_600ms_horflip\45.scratching_with_finger_nails_short_horflip_short_600ms.mp4	45.scratching_with_finger_nails_short_horflip_short_600ms.mp4	202.0716672526696	202.67979421173595	0.6081269590663396				
132.3427734375	0.2	271038	98	13	1	0	0	4	294	stimuli\Videos_short_600ms_vertflip\31.hand_grabbing_wrist_short_vertflip_short_600ms.mp4	31.hand_grabbing_wrist_short_vertflip_short_600ms.mp4	202.8714917156558	203.47977937349197	0.608287657836172				
133.142578125	0.2	272676	99	13	1	0	0	5	148	stimuli\Videos_short_600ms_horflip\62.touch_top_to_bottom_with_scissors_short_horflip_short_600ms.mp4	62.touch_top_to_bottom_with_scissors_short_horflip_short_600ms.mp4	203.67148156934672	204.27976717446109	0.6082856051143608				
133.9423828125	0.2	274314	100	13	1	0	0	6	334	stimuli\Videos_short_600ms_vertflip\68.stroke_top_to_bottom_with_shawl_short_vertflip_short_600ms.mp4	68.stroke_top_to_bottom_with_shawl_short_vertflip_short_600ms.mp4	204.47140984139196	205.07975321595495	0.6083433745629918				
134.74267578125	0.2	275953	101	13	1	0	0	7	217	stimuli\Videos_short_600ms_horvertflip\43.touch_top_to_bottom_with_sharp_wooden_stick_short_horvertflip_short_600ms.mp4	43.touch_top_to_bottom_with_sharp_wooden_stick_short_horvertflip_short_600ms.mp4	205.27147124708972	205.8797357384974	0.6082644914076809				
135.54248046875	0.2	277591	102	13	1	0	0	8	225	stimuli\Videos_short_600ms_horvertflip\50.single_(long)hard_push_with_thumb_short_horvertflip_short_600ms.mp4	50.single_(long)hard_push_with_thumb_short_horvertflip_short_600ms.mp4	206.0718124094055	206.67970389198945	0.6078914825839092				
136.34228515625	0.2	279229	103	13	1	0	0	9	79	stimuli\Videos_short_600ms\81.single_stroke_top_to_bottom_with_cotton_pad_short_short_600ms.mp4	81.single_stroke_top_to_bottom_with_cotton_pad_short_short_600ms.mp4	206.8716579860984	207.4797406650291	0.6080826789307139				
137.142578125	0.2	280868	104	13	1	0	0	10	250	stimuli\Videos_short_600ms_horvertflip\73.single_stroke_with_flat_hand_short_horvertflip_short_600ms.mp4	73.single_stroke_with_flat_hand_short_horvertflip_short_600ms.mp4	207.67146104213137	208.2797604298048	0.608299387673469				
137.9423828125	0.2	282506	105	13	1	0	0	11	276	stimuli\Videos_short_600ms_vertflip\15.single_stroke_top_to_bottom_with_a_plastic_whisk_short_vertflip_short_600ms.mp4	15.single_stroke_top_to_bottom_with_a_plastic_whisk_short_vertflip_short_600ms.mp4	208.47140720217885	209.0796969127364	0.6082897105575285				
138.7421875	0.2	284144	106	13	1	0	0	12	349	stimuli\Videos_short_600ms_vertflip\81.single_stroke_top_to_bottom_with_cotton_pad_short_vertflip_short_600ms.mp4	81.single_stroke_top_to_bottom_with_cotton_pad_short_vertflip_short_600ms.mp4	209.2713257971086	209.8796550958664	0.6083292987577806				
139.54248046875	0.2	285783	107	13	1	0	0	13	166	stimuli\Videos_short_600ms_horflip\79.long_with_soft_brush_all_over_the_hand_short_horflip_short_600ms.mp4	79.long_with_soft_brush_all_over_the_hand_short_horflip_short_600ms.mp4	210.07139013526557	210.67971268936708	0.6083225541015054				
140.34228515625	0.2	287421	108	13	1	0	0	14	285	stimuli\Videos_short_600ms_vertflip\23.single_push_with_a_spoon_short_vertflip_short_600ms.mp4	23.single_push_with_a_spoon_short_vertflip_short_600ms.mp4	210.8712955341284	211.47960283944167	0.6083073053132466				
141.14208984375	0.2	289059	109	13	1	0	0	15	259	stimuli\Videos_short_600ms_horvertflip\81.single_stroke_top_to_bottom_with_cotton_pad_short_horvertflip_short_600ms.mp4	81.single_stroke_top_to_bottom_with_cotton_pad_short_horvertflip_short_600ms.mp4	211.67127834991695	212.27961234060967	0.6083339906926994				
141.9423828125	0.2	290698	110	13	1	0	0	16	58	stimuli\Videos_short_600ms\62.touch_top_to_bottom_with_scissors_short_short_600ms.mp4	62.touch_top_to_bottom_with_scissors_short_short_600ms.mp4	212.47133682315553	213.07962037554853	0.6082835523930044				
142.7421875	0.2	292336	111	13	1	0	0	17	108	stimuli\Videos_short_600ms_horflip\26.single_touch_with_a_blunt_syringe_short_horflip_short_600ms.mp4	26.single_touch_with_a_blunt_syringe_short_horflip_short_600ms.mp4	213.2713363539619	213.87959380746724	0.6082574535053027				
143.54248046875	0.2	293975	112	13	1	0	0	18	218	stimuli\Videos_short_600ms_horvertflip\44.pushing_top_to_bottom_with_finger_short_horvertflip_short_600ms.mp4	44.pushing_top_to_bottom_with_finger_short_horvertflip_short_600ms.mp4	214.07123970010343	214.67957720974755	0.6083375096441159				
144.34228515625	0.2	295613	113	13	1	0	0	19	335	stimuli\Videos_short_600ms_vertflip\69.stroke_with_soft_sock_short_vertflip_short_600ms.mp4	69.stroke_with_soft_sock_short_vertflip_short_600ms.mp4	214.87133306960732	215.47957234186515	0.6082392722578334				
145.14208984375	0.2	297251	114	13	1	0	0	20	3	stimuli\Videos_short_600ms\12.repeated_touch_with_nail_file_short_short_600ms.mp4	12.repeated_touch_with_nail_file_short_short_600ms.mp4	215.6712695525389	216.27954899948872	0.6082794469498367				
145.9423828125	0.2	298890	115	13	1	0	0	21	309	stimuli\Videos_short_600ms_vertflip\45.scratching_with_finger_nails_short_vertflip_short_600ms.mp4	45.scratching_with_finger_nails_short_vertflip_short_600ms.mp4	216.47117993658276	217.07953592072045	0.6083559841376882				
146.7421875	0.2	300528	116	13	1	0	0	22	300	stimuli\Videos_short_600ms_vertflip\37.single_stab_with_nail_file_short_vertflip_short_600ms.mp4	37.single_stab_with_nail_file_short_vertflip_short_600ms.mp4	217.27117858765132	217.8795219622143	0.6083433745629918				
147.5419921875	0.2	302166	117	13	1	0	1	23	362	stimuli\Targets_short_600ms\chopstickwood-tap_short_short_600ms.mp4	chopstickwood-tap_short_short_600ms.mp4	218.07115201957004	218.67950565774024	0.6083536381702288				
148.34228515625	0.2	303805	118	13	1	0	0	24	177	stimuli\Videos_short_600ms_horflip\89.single_touch_with_plastic_brush_short_horflip_short_600ms.mp4	89.single_touch_with_plastic_brush_short_horflip_short_600ms.mp4	218.871267675765	219.4794899397584	0.6082222639934116				
149.14208984375	0.2	305443	119	13	1	0	0	25	4	stimuli\Videos_short_600ms\13.single_touch_with_pen_short_short_600ms.mp4	13.single_touch_with_pen_short_short_600ms.mp4	219.67122615214112	220.2795451872917	0.6083190351505436				
149.94189453125	0.2	307081	120	13	1	0	0	26	142	stimuli\Videos_short_600ms_horflip\57.single_touch_with_nail_file_short_horflip_short_600ms.mp4	57.single_touch_with_nail_file_short_horflip_short_600ms.mp4	220.4710899100819	221.07946202274616	0.6083721126642558				
150.7421875	0.2	308720	121	13	1	0	0	27	216	stimuli\Videos_short_600ms_horvertflip\42.single_slap_with_plastic_whisk_short_horvertflip_short_600ms.mp4	42.single_slap_with_plastic_whisk_short_horvertflip_short_600ms.mp4	221.27120322030945	221.87943340194303	0.608230181633644				
151.5419921875	0.2	310358	122	13	1	0	0	28	9	stimuli\Videos_short_600ms\18.single_stroke_from_top_to_bottom_with_rolling_pin_short_short_600ms.mp4	18.single_stroke_from_top_to_bottom_with_rolling_pin_short_short_600ms.mp4	222.0711402897327	222.67941211228845	0.6082718225557073				
152.341796875	0.2	311996	123	13	1	0	0	29	17	stimuli\Videos_short_600ms\25.single_touch_with_stanley_knife_short_short_600ms.mp4	25.single_touch_with_stanley_knife_short_short_600ms.mp4	222.8711987629713	223.4794031389633	0.6082043759920452				
153.14208984375	0.2	313635	124	13	1	0	0	30	96	stimuli\Videos_short_600ms_horflip\15.single_stroke_top_to_bottom_with_a_plastic_whisk_short_horflip_short_600ms.mp4	15.single_stroke_top_to_bottom_with_a_plastic_whisk_short_horflip_short_600ms.mp4	223.67106486687953	224.27938536825968	0.6083205013801489				
153.94189453125	0.2	315273	125	13	1	0	0	31	284	stimuli\Videos_short_600ms_vertflip\22.single_touch_with_metal_chopstick_short_vertflip_short_600ms.mp4	22.single_touch_with_metal_chopstick_short_vertflip_short_600ms.mp4	224.47107348831017	225.0793705300157	0.6082970417055549				
154.74169921875	0.2	316911	126	13	1	0	0	32	22	stimuli\Videos_short_600ms\3.single_push_with_finger_short_short_600ms.mp4	3.single_push_with_finger_short_short_600ms.mp4	225.27112199118665	225.87934748088537	0.6082254896987251				
155.5419921875	0.2	318550	127	13	1	0	0	33	128	stimuli\Videos_short_600ms_horflip\44.pushing_top_to_bottom_with_finger_short_horflip_short_600ms.mp4	44.pushing_top_to_bottom_with_finger_short_horflip_short_600ms.mp4	226.07108105405496	226.67945903163763	0.608377977582677				
156.341796875	0.2	320188	128	13	1	0	0	34	195	stimuli\Videos_short_600ms_horvertflip\23.single_push_with_a_spoon_short_horvertflip_short_600ms.mp4	23.single_push_with_a_spoon_short_horvertflip_short_600ms.mp4	226.8710061003953	227.47934361003945	0.6083375096441159				
157.1416015625	0.2	321826	129	13	1	0	0	35	99	stimuli\Videos_short_600ms_horflip\18.single_stroke_from_top_to_bottom_with_rolling_pin_short_horflip_short_600ms.mp4	18.single_stroke_from_top_to_bottom_with_rolling_pin_short_horflip_short_600ms.mp4	227.67109096576723	228.27934402058372	0.6082530548164868				
157.94189453125	0.2	323465	130	13	1	0	0	36	288	stimuli\Videos_short_600ms_vertflip\26.single_touch_with_a_blunt_syringe_short_vertflip_short_600ms.mp4	26.single_touch_with_a_blunt_syringe_short_vertflip_short_600ms.mp4	228.47110281290315	229.07931891873204	0.6082161058288875				
158.74169921875	0.2	325103	131	13	1	0	0	37	86	stimuli\Videos_short_600ms\88.repeated_stroke_with_plastic_brush_short_short_600ms.mp4	88.repeated_stroke_with_plastic_brush_short_short_600ms.mp4	229.27096217215467	229.8793158103249	0.6083536381702288				
159.54150390625	0.2	326741	132	13	1	0	0	38	230	stimuli\Videos_short_600ms_horvertflip\55.touch_top_to_bottom_with_nail_file_short_horvertflip_short_600ms.mp4	55.touch_top_to_bottom_with_nail_file_short_horvertflip_short_600ms.mp4	230.07093795004084	230.67929100171932	0.6083530516784776				
160.341796875	0.2	328380	133	13	1	0	0	39	117	stimuli\Videos_short_600ms_horflip\34.repeated_punch_with_hand_short_horflip_short_600ms.mp4	34.repeated_punch_with_hand_short_horflip_short_600ms.mp4	230.87093630786376	231.47927528373748	0.6083389758737212				
161.1416015625	0.2	330018	134	13	1	0	0	40	66	stimuli\Videos_short_600ms\7.repeated_touch_with_hairbrush_short_short_600ms.mp4	7.repeated_touch_with_hairbrush_short_short_600ms.mp4	231.67102146648176	232.27926103198524	0.6082395655034816				
161.94189453125	0.2	331657	135	13	1	0	0	41	12	stimuli\Videos_short_600ms\20.single_touch_with_screwdriver_short_short_600ms.mp4	20.single_touch_with_screwdriver_short_short_600ms.mp4	232.47102862168276	233.0792456072495	0.6082169855667416				
162.74169921875	0.2	333295	136	13	1	0	0	42	206	stimuli\Videos_short_600ms_horvertflip\33.scratch_top_to_bottom_with_scissors_short_horvertflip_short_600ms.mp4	33.scratch_top_to_bottom_with_scissors_short_horvertflip_short_600ms.mp4	233.27090205673903	233.87923370146473	0.6083316447256948				
163.54150390625	0.2	334933	137	13	1	0	0	43	358	stimuli\Videos_short_600ms_vertflip\9.single_touch_with_hammer_short_vertflip_short_600ms.mp4	9.single_touch_with_hammer_short_vertflip_short_600ms.mp4	234.07085818714768	234.67921827672853	0.6083600895808559				
164.341796875	0.2	336572	138	13	1	0	0	44	302	stimuli\Videos_short_600ms_vertflip\39.single_stab_with_scissors_short_vertflip_short_600ms.mp4	39.single_stab_with_scissors_short_vertflip_short_600ms.mp4	234.8709204725833	235.47919991953313	0.6082794469498367				
165.1416015625	0.2	338210	139	13	1	0	0	45	26	stimuli\Videos_short_600ms\33.scratch_top_to_bottom_with_scissors_short_short_600ms.mp4	33.scratch_top_to_bottom_with_scissors_short_short_600ms.mp4	235.6709566591312	236.27918830699448	0.6082316478632492				
165.94140625	0.2	339848	140	13	1	0	0	46	213	stimuli\Videos_short_600ms_horvertflip\4.repeated_tap_with_finger_slow_short_horvertflip_short_600ms.mp4	4.repeated_tap_with_finger_slow_short_horvertflip_short_600ms.mp4	236.47081719136668	237.07917522822615	0.6083580368594994				
166.74169921875	0.2	341487	141	13	1	0	1	47	378	stimuli\Targets_short_600ms_vertflip\brush-stroke_short_horvertflip_short_600ms.mp4	brush-stroke_short_horvertflip_short_600ms.mp4	237.27093460703736	237.87915980349	0.6082251964526222				
167.54150390625	0.2	343125	142	13	1	0	0	48	204	stimuli\Videos_short_600ms_horvertflip\31.hand_grabbing_wrist_short_horvertflip_short_600ms.mp4	31.hand_grabbing_wrist_short_horvertflip_short_600ms.mp4	238.0712050970833	238.67915141665665	0.6079463195733297				
168.34130859375	0.2	344763	143	13	1	0	0	49	150	stimuli\Videos_short_600ms_horflip\64.repeated_touch_with_screwdriver_short_horflip_short_600ms.mp4	64.repeated_touch_with_screwdriver_short_horflip_short_600ms.mp4	238.8708556652327	239.47908848607997	0.6082328208472063				
169.1416015625	0.2	346402	144	13	1	0	0	50	190	stimuli\Videos_short_600ms_horvertflip\19.single_touch_with_rolling_pin_short_horvertflip_short_600ms.mp4	19.single_touch_with_rolling_pin_short_horvertflip_short_600ms.mp4	239.67085666226876	240.2790956412805	0.6082389790117304				
169.94140625	0.2	348040	145	13	1	0	0	51	59	stimuli\Videos_short_600ms\63.stroke_top_to_bottom_with_screwdriver_short_short_600ms.mp4	63.stroke_top_to_bottom_with_screwdriver_short_short_600ms.mp4	240.47082833471225	241.07908197602	0.6082536413077833				
170.7412109375	0.2	349678	146	13	1	0	1	52	371	stimuli\Targets_short_600ms_horflip\hand-stroke_short_horflip_short_600ms.mp4	hand-stroke_short_horflip_short_600ms.mp4	241.2708695064407	241.8791530588337	0.6082835523930044				
171.54150390625	0.2	351317	147	13	1	0	0	53	160	stimuli\Videos_short_600ms_horflip\73.single_stroke_with_flat_hand_short_horflip_short_600ms.mp4	73.single_stroke_with_flat_hand_short_horflip_short_600ms.mp4	242.0707347306111	242.67907575920665	0.6083410285955324				
172.34130859375	0.2	352955	148	13	1	0	0	54	314	stimuli\Videos_short_600ms_vertflip\5.repeated_tap_with_finger_moving_from_top_to_bottom_short_vertflip_short_600ms.mp4	5.repeated_tap_with_finger_moving_from_top_to_bottom_short_vertflip_short_600ms.mp4	242.8706949664629	243.479070304832	0.6083753383691146				
173.14111328125	0.2	354593	149	13	1	0	0	55	72	stimuli\Videos_short_600ms\75.(long)stroke_with_fingers_all_over_the_hand_short_short_600ms.mp4	75.(long)stroke_with_fingers_all_over_the_hand_short_short_600ms.mp4	243.6707018284178	244.279043150259	0.6083413218411806				
173.94140625	0.2	356232	150	13	1	0	0	56	246	stimuli\Videos_short_600ms_horvertflip\7.repeated_touch_with_hairbrush_short_horvertflip_short_600ms.mp4	7.repeated_touch_with_hairbrush_short_horvertflip_short_600ms.mp4	244.4706676359424	245.07903564316305	0.6083680072206334				
174.7412109375	0.2	357870	151	13	1	0	1	57	373	stimuli\Targets_short_600ms_horvertflip\chopstick-silver-tap_short_vertflip_short_600ms.mp4	chopstick-silver-tap_short_vertflip_short_600ms.mp4	245.27075191482257	245.87901376701663	0.6082618521941185				
175.541015625	0.2	359508	152	13	1	0	0	58	163	stimuli\Videos_short_600ms_horflip\76.tickle_with_fingers_from_top_to_bottom_short_horflip_short_600ms.mp4	76.tickle_with_fingers_from_top_to_bottom_short_horflip_short_600ms.mp4	246.0706576069315	246.67900156798623	0.608343961054743				
176.34130859375	0.2	361147	153	13	1	0	0	59	256	stimuli\Videos_short_600ms_horvertflip\79.long_with_soft_brush_all_over_the_hand_short_horvertflip_short_600ms.mp4	79.long_with_soft_brush_all_over_the_hand_short_horvertflip_short_600ms.mp4	246.8706245874396	247.4789870229879	0.6083624355483153				
177.14111328125	0.2	362785	154	13	1	0	0	60	308	stimuli\Videos_short_600ms_vertflip\44.pushing_top_to_bottom_with_finger_short_vertflip_short_600ms.mp4	44.pushing_top_to_bottom_with_finger_short_vertflip_short_600ms.mp4	247.671593296046	248.2789721847439	0.6073788886978946				
177.94091796875	0.2	364423	155	13	1	0	0	61	272	stimuli\Videos_short_600ms_vertflip\11.single_touch_with_lighter_short_vertflip_short_600ms.mp4	11.single_touch_with_lighter_short_vertflip_short_600ms.mp4	248.47088053248763	249.07895763974557	0.608077107257941				
178.7412109375	0.2	366062	156	13	1	0	0	62	274	stimuli\Videos_short_600ms_vertflip\13.single_touch_with_pen_short_vertflip_short_600ms.mp4	13.single_touch_with_pen_short_vertflip_short_600ms.mp4	249.27067097894587	249.87894221500983	0.6082712360639562				
179.541015625	0.2	367700	157	13	1	0	0	63	92	stimuli\Videos_short_600ms_horflip\11.single_touch_with_lighter_short_horflip_short_600ms.mp4	11.single_touch_with_lighter_short_horflip_short_600ms.mp4	250.07058781439991	250.6789279632576	0.6083401488576783				
180.34130859375	0.2	369339	158	13	1	0	0	64	165	stimuli\Videos_short_600ms_horflip\78.single_stroke_top_to_bottom_with_soft_brush_short_horflip_short_600ms.mp4	78.single_stroke_top_to_bottom_with_soft_brush_short_horflip_short_600ms.mp4	250.8706289861284	251.4789230953752	0.608294109246799				
181.14111328125	0.2	370977	159	13	1	0	0	65	214	stimuli\Videos_short_600ms_horvertflip\40.repeated_push_with_finger_short_horvertflip_short_600ms.mp4	40.repeated_push_with_finger_short_horvertflip_short_600ms.mp4	251.67061854657368	252.27889916650705	0.608280619933339				
181.94091796875	0.2	372615	160	13	1	0	0	66	305	stimuli\Videos_short_600ms_vertflip\41.injection_with_blunt_syringe_short_vertflip_short_600ms.mp4	41.injection_with_blunt_syringe_short_vertflip_short_600ms.mp4	252.47053303606023	253.07888726072224	0.60835422466198				
182.7412109375	0.2	374254	161	13	1	0	0	67	279	stimuli\Videos_short_600ms_vertflip\18.single_stroke_from_top_to_bottom_with_rolling_pin_short_vertflip_short_600ms.mp4	18.single_stroke_from_top_to_bottom_with_rolling_pin_short_vertflip_short_600ms.mp4	253.27054224398265	253.87889324293928	0.6083509989566664				
183.541015625	0.2	375892	162	13	1	0	0	68	13	stimuli\Videos_short_600ms\21.repeated_touch_with_metal_chopstick_short_short_600ms.mp4	21.repeated_touch_with_metal_chopstick_short_short_600ms.mp4	254.07051538265523	254.6788549450207	0.6083395623654724				
184.3408203125	0.2	377530	163	13	1	0	0	69	127	stimuli\Videos_short_600ms_horflip\43.touch_top_to_bottom_with_sharp_wooden_stick_short_horflip_short_600ms.mp4	43.touch_top_to_bottom_with_sharp_wooden_stick_short_horflip_short_600ms.mp4	254.870530455496	255.47884215949807	0.6083117040020625				
185.14111328125	0.2	379169	164	13	1	0	0	70	118	stimuli\Videos_short_600ms_horflip\35.single_punch_with_hand_short_horflip_short_600ms.mp4	35.single_punch_with_hand_short_horflip_short_600ms.mp4	255.6711918423675	256.27880650079305	0.6076146584255184				
185.94091796875	0.2	380807	165	13	1	0	0	71	91	stimuli\Videos_short_600ms_horflip\10.single_touch_with_knife_short_horflip_short_600ms.mp4	10.single_touch_with_knife_short_horflip_short_600ms.mp4	256.4712646846565	257.0787948882544	0.6075302035978893				
186.74072265625	0.2	382445	166	13	1	0	0	72	46	stimuli\Videos_short_600ms\51.repeated_touch_with_hammer_short_short_600ms.mp4	51.repeated_touch_with_hammer_short_short_600ms.mp4	257.27075543377396	257.8787812229939	0.608025789219937				
187.541015625	0.2	384084	167	13	1	0	0	73	178	stimuli\Videos_short_600ms_horflip\9.single_touch_with_hammer_short_horflip_short_600ms.mp4	9.single_touch_with_hammer_short_horflip_short_600ms.mp4	258.0712930708628	258.67879365662156	0.6075005857587712				
188.3408203125	0.2	385722	168	13	1	0	0	74	11	stimuli\Videos_short_600ms\2.single_touch_with_finger_short_short_600ms.mp4	2.single_touch_with_finger_short_short_600ms.mp4	258.871006393641	259.4787682615238	0.6077618678828003				
189.140625	0.2	387360	169	13	1	0	0	75	30	stimuli\Videos_short_600ms\37.single_stab_with_nail_file_short_short_600ms.mp4	37.single_stab_with_nail_file_short_short_600ms.mp4	259.67045726131164	260.2787545962633	0.6082973349516578				
189.94091796875	0.2	388999	170	13	1	0	0	76	341	stimuli\Videos_short_600ms_vertflip\74.fingers_walking_from_top_to_bottom_short_vertflip_short_600ms.mp4	74.fingers_walking_from_top_to_bottom_short_vertflip_short_600ms.mp4	260.4704990195323	261.0787412242489	0.6082422047165892				
190.74072265625	0.2	390637	171	13	1	0	0	77	57	stimuli\Videos_short_600ms\61.single_hit_with_rolling_pin_short_short_600ms.mp4	61.single_hit_with_rolling_pin_short_short_600ms.mp4	261.2703859439016	261.8787272657428	0.6083413218411806				
191.54052734375	0.2	392275	172	13	1	0	0	78	38	stimuli\Videos_short_600ms\44.pushing_top_to_bottom_with_finger_short_short_600ms.mp4	44.pushing_top_to_bottom_with_finger_short_short_600ms.mp4	262.0704300480893	262.6787121342527	0.6082820861633991				
192.3408203125	0.2	393914	173	13	1	0	0	79	41	stimuli\Videos_short_600ms\47.(long)scratching_with_finger_nails_short_short_600ms.mp4	47.(long)scratching_with_finger_nails_short_short_600ms.mp4	262.8704225409938	263.4786970027626	0.608274461768815				
193.140625	0.2	395552	174	13	1	0	0	80	159	stimuli\Videos_short_600ms_horflip\72.(short)stroke_with_finger_all_over_the_hand_short_horflip_short_600ms.mp4	72.(short)stroke_with_finger_all_over_the_hand_short_horflip_short_600ms.mp4	263.6704332151453	264.27868304425647	0.6082498291111733				
193.9404296875	0.2	397190	175	13	1	0	0	81	143	stimuli\Videos_short_600ms_horflip\58.single_slap_with_pencil_short_horflip_short_600ms.mp4	58.single_slap_with_pencil_short_horflip_short_600ms.mp4	264.4703776157171	265.07867055197994	0.608292936262842				
194.74072265625	0.2	398829	176	13	1	0	0	82	162	stimuli\Videos_short_600ms_horflip\75.(long)stroke_with_fingers_all_over_the_hand_short_horflip_short_600ms.mp4	75.(long)stroke_with_fingers_all_over_the_hand_short_horflip_short_600ms.mp4	265.2704020724277	265.8786542475059	0.608252175078178				
195.54052734375	0.2	400467	177	13	1	0	0	83	260	stimuli\Videos_short_600ms_horvertflip\82.repeated_touch_with_cotton_bud_short_horvertflip_short_600ms.mp4	82.repeated_touch_with_cotton_bud_short_horvertflip_short_600ms.mp4	266.0706957289026	266.6786382362784	0.6079425073758102				
196.34033203125	0.2	402105	178	13	1	0	0	84	297	stimuli\Videos_short_600ms_vertflip\34.repeated_punch_with_hand_short_vertflip_short_600ms.mp4	34.repeated_punch_with_hand_short_vertflip_short_600ms.mp4	266.8703855920062	267.4786269169854	0.6082413249791898				
197.140625	0.2	403744	179	13	1	0	1	85	380	stimuli\Targets_short_600ms_vertflip\chopstickwood-tap_short_horvertflip_short_600ms.mp4	chopstickwood-tap_short_horvertflip_short_600ms.mp4	267.67031093159267	268.27859917592014	0.6082882443274684				
197.9404296875	0.2	405382	180	13	1	0	0	86	120	stimuli\Videos_short_600ms_horflip\37.single_stab_with_nail_file_short_horflip_short_600ms.mp4	37.single_stab_with_nail_file_short_horflip_short_600ms.mp4	268.4702626633125	269.07858902961107	0.6083263662985701				
198.74072265625	0.2	407021	181	13	1	0	0	87	154	stimuli\Videos_short_600ms_horflip\68.stroke_top_to_bottom_with_shawl_short_horflip_short_600ms.mp4	68.stroke_top_to_bottom_with_shawl_short_horflip_short_600ms.mp4	269.27024841156026	269.87856304802153	0.608314636461273				
199.54052734375	0.2	408659	182	13	1	0	0	88	251	stimuli\Videos_short_600ms_horvertflip\74.fingers_walking_from_top_to_bottom_short_horvertflip_short_600ms.mp4	74.fingers_walking_from_top_to_bottom_short_horvertflip_short_600ms.mp4	270.070213339347	270.67852504334905	0.6083117040020625				
200.34033203125	0.2	410297	183	13	1	0	0	89	278	stimuli\Videos_short_600ms_vertflip\17.repeated_touch_with_rolling_pin_short_vertflip_short_600ms.mp4	17.repeated_touch_with_rolling_pin_short_vertflip_short_600ms.mp4	270.8702492326488	271.4785313188122	0.6082820861633991				
201.140625	0.2	411936	184	13	1	0	0	90	74	stimuli\Videos_short_600ms\77.tapping_with_all_fingers_short_short_600ms.mp4	77.tapping_with_all_fingers_short_short_600ms.mp4	271.6703663550734	272.27852674417545	0.6081603891020677				
201.9404296875	0.2	413574	185	13	1	0	0	91	175	stimuli\Videos_short_600ms_horflip\87.single_stroke_top_to_bottom_with_plastic_brush_short_horflip_short_600ms.mp4	87.single_stroke_top_to_bottom_with_plastic_brush_short_horflip_short_600ms.mp4	272.4704518069375	273.0785098532101	0.6080580462726175				
202.740234375	0.2	415212	186	13	1	0	0	92	319	stimuli\Videos_short_600ms_vertflip\54.repeated_touch_with_knife_short_vertflip_short_600ms.mp4	54.repeated_touch_with_knife_short_vertflip_short_600ms.mp4	273.2702390276904	273.87852140709947	0.6082823794090473				
203.54052734375	0.2	416851	187	13	1	0	0	93	328	stimuli\Videos_short_600ms_vertflip\62.touch_top_to_bottom_with_scissors_short_vertflip_short_600ms.mp4	62.touch_top_to_bottom_with_scissors_short_vertflip_short_600ms.mp4	274.0702177380358	274.678505395872	0.608287657836172				
204.34033203125	0.2	418489	188	13	1	0	0	94	49	stimuli\Videos_short_600ms\54.repeated_touch_with_knife_short_short_600ms.mp4	54.repeated_touch_with_knife_short_short_600ms.mp4	274.87026008274825	275.4784899711358	0.608229888387541	5.0	5.0	1.8203927325448603	1.0
239.630859375	0.2	490764	189	13	2	0	0	0	348	stimuli\Videos_short_600ms_vertflip\80.stroke_with_sharp_stick_all_over_the_hand_short_vertflip_short_600ms.mp4	80.stroke_with_sharp_stick_all_over_the_hand_short_vertflip_short_600ms.mp4	310.1611961149606	310.76946881725416	0.6082727022935615				
240.4306640625	0.2	492402	190	13	2	0	0	1	301	stimuli\Videos_short_600ms_vertflip\38.double_slap_with_pencil_short_vertflip_short_600ms.mp4	38.double_slap_with_pencil_short_vertflip_short_600ms.mp4	310.96123699344344	311.5694545655019	0.6082175720584928				
241.23095703125	0.2	494041	191	13	2	0	0	2	179	stimuli\Videos_short_600ms_horflip\90.repeated_touch_with_sponge_short_horflip_short_600ms.mp4	90.repeated_touch_with_sponge_short_horflip_short_600ms.mp4	311.7612338850363	312.36945878824326	0.608224903206974				
242.03076171875	0.2	495679	192	13	2	0	1	3	370	stimuli\Targets_short_600ms_horflip\hand-pinch_short_horflip_short_600ms.mp4	hand-pinch_short_horflip_short_600ms.mp4	312.56110204166635	313.1694501081638	0.6083480664974559				
242.83056640625	0.2	497317	193	13	2	0	0	4	48	stimuli\Videos_short_600ms\53.touch_top_to_bottom_with_knife_short_short_600ms.mp4	53.touch_top_to_bottom_with_knife_short_short_600ms.mp4	313.36113294978713	313.96943732264117	0.608304372854036				
243.630859375	0.2	498956	194	13	2	0	0	5	350	stimuli\Videos_short_600ms_vertflip\82.repeated_touch_with_cotton_bud_short_vertflip_short_600ms.mp4	82.repeated_touch_with_cotton_bud_short_vertflip_short_600ms.mp4	314.1610925991472	314.7694386129233	0.6083460137760994				
244.4306640625	0.2	500594	195	13	2	0	0	6	187	stimuli\Videos_short_600ms_horvertflip\16.repeated_touch_with_plastic_brush_short_horvertflip_short_600ms.mp4	16.repeated_touch_with_plastic_brush_short_horvertflip_short_600ms.mp4	314.9612029769155	315.5694302260895	0.6082272491739786				
245.23046875	0.2	502232	196	13	2	0	0	7	253	stimuli\Videos_short_600ms_horvertflip\76.tickle_with_fingers_from_top_to_bottom_short_horvertflip_short_600ms.mp4	76.tickle_with_fingers_from_top_to_bottom_short_horvertflip_short_600ms.mp4	315.761063509151	316.3694112824028	0.6083477732518077				
246.03076171875	0.2	503871	197	13	2	0	0	8	273	stimuli\Videos_short_600ms_vertflip\12.repeated_touch_with_nail_file_short_vertflip_short_600ms.mp4	12.repeated_touch_with_nail_file_short_vertflip_short_600ms.mp4	316.5610480844148	317.169394391437	0.6083463070222024				
246.83056640625	0.2	505509	198	13	2	0	0	9	182	stimuli\Videos_short_600ms_horvertflip\11.single_touch_with_lighter_short_horvertflip_short_600ms.mp4	11.single_touch_with_lighter_short_horvertflip_short_600ms.mp4	317.36107195463364	317.9693827788983	0.6083108242646631				
247.63037109375	0.2	507147	199	13	2	0	0	10	115	stimuli\Videos_short_600ms_horflip\32.single_(long)pinch_with_fingers_short_horflip_short_600ms.mp4	32.single_(long)pinch_with_fingers_short_horflip_short_600ms.mp4	318.16180313403675	318.76936559468686	0.6075624606501151				
248.4306640625	0.2	508786	200	13	2	0	0	11	5	stimuli\Videos_short_600ms\14.repeated_touch_with_pencil_short_short_600ms.mp4	14.repeated_touch_with_pencil_short_short_600ms.mp4	318.9616038441022	319.5693516361803	0.6077477920780439				
249.23046875	0.2	510424	201	13	2	0	0	12	80	stimuli\Videos_short_600ms\82.repeated_touch_with_cotton_bud_short_short_600ms.mp4	82.repeated_touch_with_cotton_bud_short_short_600ms.mp4	319.7612162902806	320.3693347452149	0.6081184549343561				
250.0302734375	0.2	512062	202	13	2	0	0	13	198	stimuli\Videos_short_600ms_horvertflip\26.single_touch_with_a_blunt_syringe_short_horvertflip_short_600ms.mp4	26.single_touch_with_a_blunt_syringe_short_horvertflip_short_600ms.mp4	320.5609738931944	321.16932078670834	0.6083468935139535				
250.83056640625	0.2	513701	203	13	2	0	0	14	164	stimuli\Videos_short_600ms_horflip\77.tapping_with_all_fingers_short_horflip_short_600ms.mp4	77.tapping_with_all_fingers_short_horflip_short_600ms.mp4	321.3610499611891	321.9693080011857	0.6082580399965991				
251.63037109375	0.2	515339	204	13	2	0	0	15	140	stimuli\Videos_short_600ms_horflip\55.touch_top_to_bottom_with_nail_file_short_horflip_short_600ms.mp4	55.touch_top_to_bottom_with_nail_file_short_horflip_short_600ms.mp4	322.16103365671506	322.76926999651323	0.608236339798168				
252.4306640625	0.2	516978	205	13	2	0	0	16	200	stimuli\Videos_short_600ms_horvertflip\28.single_injection_with_sharp_needle_short_horvertflip_short_600ms.mp4	28.single_injection_with_sharp_needle_short_horvertflip_short_600ms.mp4	322.96102585637345	323.56925515826924	0.6082293018957898				
253.23046875	0.2	518616	206	13	2	0	1	17	383	stimuli\Targets_short_600ms_vertflip\hand-stroke_short_horvertflip_short_600ms.mp4	hand-stroke_short_horvertflip_short_600ms.mp4	323.76089723870837	324.3692411997631	0.608343961054743				
254.0302734375	0.2	520254	207	13	2	0	0	18	326	stimuli\Videos_short_600ms_vertflip\60.single_push_with_tip_of_pencil_short_vertflip_short_600ms.mp4	60.single_push_with_tip_of_pencil_short_vertflip_short_600ms.mp4	324.5609102588278	325.16923046696184	0.608320208134046				
254.83056640625	0.2	521893	208	13	2	0	0	19	209	stimuli\Videos_short_600ms_horvertflip\36.single_slap_with_full_hand_short_horvertflip_short_600ms.mp4	36.single_slap_with_full_hand_short_horvertflip_short_600ms.mp4	325.3608968868134	325.96921123002903	0.6083143432156248				
255.63037109375	0.2	523531	209	13	2	0	0	20	94	stimuli\Videos_short_600ms_horflip\13.single_touch_with_pen_short_horflip_short_600ms.mp4	13.single_touch_with_pen_short_horflip_short_600ms.mp4	326.1608738376831	326.7691937525715	0.6083199148883978				
256.43017578125	0.2	525169	210	13	2	0	0	21	280	stimuli\Videos_short_600ms_vertflip\19.single_touch_with_rolling_pin_short_vertflip_short_600ms.mp4	19.single_touch_with_rolling_pin_short_vertflip_short_600ms.mp4	326.9608883240321	327.5691586803582	0.608270356326102				
257.23046875	0.2	526808	211	13	2	0	1	22	368	stimuli\Targets_short_600ms_horflip\chopstickwood-tap_short_horflip_short_600ms.mp4	chopstickwood-tap_short_horflip_short_600ms.mp4	327.76093037549845	328.3691681815262	0.6082378060277733				
258.0302734375	0.2	528446	212	13	2	0	0	23	67	stimuli\Videos_short_600ms\70.(long)stroke_with_finger_all_over_the_hand_short_short_600ms.mp4	70.(long)stroke_with_finger_all_over_the_hand_short_short_600ms.mp4	328.5609263873539	329.16913457554256	0.6082081881886552				
258.830078125	0.2	530084	213	13	2	0	0	24	219	stimuli\Videos_short_600ms_horvertflip\45.scratching_with_finger_nails_short_horvertflip_short_600ms.mp4	45.scratching_with_finger_nails_short_horvertflip_short_600ms.mp4	329.36092181271715	329.9692144557339	0.608292643016739				
259.63037109375	0.2	531723	214	13	2	0	0	25	156	stimuli\Videos_short_600ms_horflip\7.repeated_touch_with_hairbrush_short_horflip_short_600ms.mp4	7.repeated_touch_with_hairbrush_short_horflip_short_600ms.mp4	330.16089055270095	330.76915797656784	0.6082674238668915				
260.43017578125	0.2	533361	215	13	2	0	0	26	306	stimuli\Videos_short_600ms_vertflip\42.single_slap_with_plastic_whisk_short_vertflip_short_600ms.mp4	42.single_slap_with_plastic_whisk_short_vertflip_short_600ms.mp4	330.96078539471046	331.569134927438	0.6083495327275159				
261.22998046875	0.2	534999	216	13	2	0	0	27	189	stimuli\Videos_short_600ms_horvertflip\18.single_stroke_from_top_to_bottom_with_rolling_pin_short_horvertflip_short_600ms.mp4	18.single_stroke_from_top_to_bottom_with_rolling_pin_short_horvertflip_short_600ms.mp4	331.76084474768686	332.36911774322607	0.6082729955392097				
262.0302734375	0.2	536638	217	13	2	0	0	28	237	stimuli\Videos_short_600ms_horvertflip\61.single_hit_with_rolling_pin_short_horvertflip_short_600ms.mp4	61.single_hit_with_rolling_pin_short_horvertflip_short_600ms.mp4	332.5607571844521	333.16910671717915	0.6083495327270612				
262.830078125	0.2	538276	218	13	2	0	0	29	330	stimuli\Videos_short_600ms_vertflip\64.repeated_touch_with_screwdriver_short_vertflip_short_600ms.mp4	64.repeated_touch_with_screwdriver_short_vertflip_short_600ms.mp4	333.36072240548447	333.9690848410328	0.6083624355483153				
263.6298828125	0.2	539914	219	13	2	0	0	30	90	stimuli\Videos_short_600ms_horflip\1.repeated_touch_with_finger_fast_short_horflip_short_600ms.mp4	1.repeated_touch_with_finger_fast_short_horflip_short_600ms.mp4	334.16086767951856	334.7690732284941	0.6082055489755476				
264.43017578125	0.2	541553	220	13	2	0	0	31	241	stimuli\Videos_short_600ms_horvertflip\65.stroke_top_to_bottom_with_stanley_knife_short_horvertflip_short_600ms.mp4	65.stroke_top_to_bottom_with_stanley_knife_short_horvertflip_short_600ms.mp4	334.9608035759584	335.56903610355903	0.6082325276006486				
265.22998046875	0.2	543191	221	13	2	0	0	32	50	stimuli\Videos_short_600ms\55.touch_top_to_bottom_with_nail_file_short_short_600ms.mp4	55.touch_top_to_bottom_with_nail_file_short_short_600ms.mp4	335.7606834624253	336.3690209720694	0.6083375096441159				
266.02978515625	0.2	544829	222	13	2	0	0	33	112	stimuli\Videos_short_600ms_horflip\3.single_push_with_finger_short_horflip_short_600ms.mp4	3.single_push_with_finger_short_horflip_short_600ms.mp4	336.56066187952456	337.16900672031716	0.6083448407925971				
266.830078125	0.2	546468	223	13	2	0	0	34	254	stimuli\Videos_short_600ms_horvertflip\77.tapping_with_all_fingers_short_horvertflip_short_600ms.mp4	77.tapping_with_all_fingers_short_horvertflip_short_600ms.mp4	337.3606617035771	337.96899276181057	0.6083310582334889				
267.6298828125	0.2	548106	224	13	2	0	0	35	352	stimuli\Videos_short_600ms_vertflip\84.single_touch_with_cotton_bud_short_vertflip_short_600ms.mp4	84.single_touch_with_cotton_bud_short_vertflip_short_600ms.mp4	338.1607061010109	338.76897763032093	0.6082715293100591				
268.4296875	0.2	549744	225	13	2	0	0	36	32	stimuli\Videos_short_600ms\39.single_stab_with_scissors_short_short_600ms.mp4	39.single_stab_with_scissors_short_short_600ms.mp4	338.96071120349006	339.5689912369321	0.6082800334420426				
269.22998046875	0.2	551383	226	13	2	0	0	37	161	stimuli\Videos_short_600ms_horflip\74.fingers_walking_from_top_to_bottom_short_horflip_short_600ms.mp4	74.fingers_walking_from_top_to_bottom_short_horflip_short_600ms.mp4	339.76062569297665	340.36896466885037	0.6083389758737212				
270.02978515625	0.2	553021	227	13	2	0	0	38	77	stimuli\Videos_short_600ms\8.single_touch_with_hairbrush_short_short_600ms.mp4	8.single_touch_with_hairbrush_short_short_600ms.mp4	340.5614143485818	341.1689108288979	0.6074964803160583				
270.830078125	0.2	554660	228	13	2	0	0	39	141	stimuli\Videos_short_600ms_horflip\56.repeated_touch_with_nail_file_short_horflip_short_600ms.mp4	56.repeated_touch_with_nail_file_short_horflip_short_600ms.mp4	341.36057519602764	341.9689716481039	0.6083964520762493				
271.6298828125	0.2	556298	229	13	2	0	0	40	85	stimuli\Videos_short_600ms\87.single_stroke_top_to_bottom_with_plastic_brush_short_short_600ms.mp4	87.single_stroke_top_to_bottom_with_plastic_brush_short_short_600ms.mp4	342.1606788291392	342.7689638477618	0.6082850186226096				
272.4296875	0.2	557936	230	13	2	0	0	41	138	stimuli\Videos_short_600ms_horflip\53.touch_top_to_bottom_with_knife_short_horflip_short_600ms.mp4	53.touch_top_to_bottom_with_knife_short_horflip_short_600ms.mp4	342.9609695531549	343.56897246919243	0.6080029160375489				
273.22998046875	0.2	559575	231	13	2	0	1	42	374	stimuli\Targets_short_600ms_horvertflip\chopstickwood-tap_short_vertflip_short_600ms.mp4	chopstickwood-tap_short_vertflip_short_600ms.mp4	343.76074093862735	344.36887992077664	0.6081389821492849				
274.02978515625	0.2	561213	232	13	2	0	0	43	88	stimuli\Videos_short_600ms\9.single_touch_with_hammer_short_short_600ms.mp4	9.single_touch_with_hammer_short_short_600ms.mp4	344.5605413554472	345.16892930339145	0.6083879479442658				
274.82958984375	0.2	562851	233	13	2	0	0	44	292	stimuli\Videos_short_600ms_vertflip\3.single_push_with_finger_short_vertflip_short_600ms.mp4	3.single_push_with_finger_short_vertflip_short_600ms.mp4	345.36058839209454	345.9688728242254	0.6082844321308585				
275.6298828125	0.2	564490	234	13	2	0	0	45	194	stimuli\Videos_short_600ms_horvertflip\22.single_touch_with_metal_chopstick_short_horvertflip_short_600ms.mp4	22.single_touch_with_metal_chopstick_short_horvertflip_short_600ms.mp4	346.16058469719565	346.7688497750951	0.6082650778994321				
276.4296875	0.2	566128	235	13	2	0	0	46	310	stimuli\Videos_short_600ms_vertflip\46.scratching_top_to_bottom_with_finger_nails_short_vertflip_short_600ms.mp4	46.scratching_top_to_bottom_with_finger_nails_short_vertflip_short_600ms.mp4	346.96049244202595	347.5688331773754	0.6083407353494295				
277.2294921875	0.2	567766	236	13	2	0	0	47	185	stimuli\Videos_short_600ms_horvertflip\14.repeated_touch_with_pencil_short_horvertflip_short_600ms.mp4	14.repeated_touch_with_pencil_short_horvertflip_short_600ms.mp4	347.76057965336577	348.36881892562315	0.6082392722573786				
278.02978515625	0.2	569405	237	13	2	0	0	48	25	stimuli\Videos_short_600ms\32.single_(long)pinch_with_fingers_short_short_600ms.mp4	32.single_(long)pinch_with_fingers_short_short_600ms.mp4	348.5609961798855	349.1688043806248	0.6078082007393277				
278.82958984375	0.2	571043	238	13	2	0	0	49	188	stimuli\Videos_short_600ms_horvertflip\17.repeated_touch_with_rolling_pin_short_horvertflip_short_600ms.mp4	17.repeated_touch_with_rolling_pin_short_horvertflip_short_600ms.mp4	349.36063267223017	349.9687948208075	0.6081621485773212				
279.62939453125	0.2	572681	239	13	2	0	0	50	311	stimuli\Videos_short_600ms_vertflip\47.(long)scratching_with_finger_nails_short_vertflip_short_600ms.mp4	47.(long)scratching_with_finger_nails_short_vertflip_short_600ms.mp4	350.16043455527915	350.7687849677445	0.60835041246537				
280.4296875	0.2	574320	240	13	2	0	0	51	265	stimuli\Videos_short_600ms_horvertflip\87.single_stroke_top_to_bottom_with_plastic_brush_short_horvertflip_short_600ms.mp4	87.single_stroke_top_to_bottom_with_plastic_brush_short_horvertflip_short_600ms.mp4	350.96067337476507	351.5687434441206	0.6080700693555627				
281.2294921875	0.2	575958	241	13	2	0	0	52	132	stimuli\Videos_short_600ms_horflip\48.single_slap_with_hand_short_horflip_short_600ms.mp4	48.single_slap_with_hand_short_horflip_short_600ms.mp4	351.760430097941	352.3687508925673	0.6083207946262519				
282.029296875	0.2	577596	242	13	2	0	0	53	78	stimuli\Videos_short_600ms\80.stroke_with_sharp_stick_all_over_the_hand_short_short_600ms.mp4	80.stroke_with_sharp_stick_all_over_the_hand_short_short_600ms.mp4	352.560399424417	353.1687360543233	0.6083366299062618				
282.82958984375	0.2	579235	243	13	2	0	0	54	146	stimuli\Videos_short_600ms_horflip\60.single_push_with_tip_of_pencil_short_horflip_short_600ms.mp4	60.single_push_with_tip_of_pencil_short_horflip_short_600ms.mp4	353.36045291247456	353.96872180257105	0.6082688900964968				
283.62939453125	0.2	580873	244	13	2	0	0	55	281	stimuli\Videos_short_600ms_vertflip\2.single_touch_with_finger_short_vertflip_short_600ms.mp4	2.single_touch_with_finger_short_vertflip_short_600ms.mp4	354.16040523068614	354.7686849708821	0.6082797401959397				
284.42919921875	0.2	582511	245	13	2	0	0	56	347	stimuli\Videos_short_600ms_vertflip\8.single_touch_with_hairbrush_short_vertflip_short_600ms.mp4	8.single_touch_with_hairbrush_short_vertflip_short_600ms.mp4	354.9604818851726	355.56873933867746	0.608257453504848				
285.2294921875	0.2	584150	246	13	2	0	0	57	135	stimuli\Videos_short_600ms_horflip\50.single_(long)hard_push_with_thumb_short_horflip_short_600ms.mp4	50.single_(long)hard_push_with_thumb_short_horflip_short_600ms.mp4	355.76042159380904	356.36864268481895	0.6082210910099093				
286.029296875	0.2	585788	247	13	2	0	0	58	107	stimuli\Videos_short_600ms_horflip\25.single_touch_with_stanley_knife_short_horflip_short_600ms.mp4	25.single_touch_with_stanley_knife_short_horflip_short_600ms.mp4	356.56031819529426	357.16863928316616	0.6083210878719001				
286.8291015625	0.2	587426	248	13	2	0	0	59	89	stimuli\Videos_short_600ms\90.repeated_touch_with_sponge_short_short_600ms.mp4	90.repeated_touch_with_sponge_short_short_600ms.mp4	357.3603136206575	357.9687050875532	0.6083914668956822				
287.62939453125	0.2	589065	249	13	2	0	0	60	289	stimuli\Videos_short_600ms_vertflip\27.single_push_with_a_plastic_whisk_short_vertflip_short_600ms.mp4	27.single_push_with_a_plastic_whisk_short_vertflip_short_600ms.mp4	358.16028881205193	358.768600516054	0.6083117040020625				
288.42919921875	0.2	590703	250	13	2	0	0	61	247	stimuli\Videos_short_600ms_horvertflip\70.(long)stroke_with_finger_all_over_the_hand_short_horvertflip_short_600ms.mp4	70.(long)stroke_with_finger_all_over_the_hand_short_horvertflip_short_600ms.mp4	358.96045138759564	359.5686020995822	0.6081507119865819				
289.2294921875	0.2	592342	251	13	2	0	0	62	356	stimuli\Videos_short_600ms_vertflip\88.repeated_stroke_with_plastic_brush_short_vertflip_short_600ms.mp4	88.repeated_stroke_with_plastic_brush_short_vertflip_short_600ms.mp4	359.7603864042976	360.3685940059945	0.608207601696904				
290.029296875	0.2	593980	252	13	2	0	0	63	192	stimuli\Videos_short_600ms_horvertflip\20.single_touch_with_screwdriver_short_horvertflip_short_600ms.mp4	20.single_touch_with_screwdriver_short_horvertflip_short_600ms.mp4	360.560373618775	361.16865071975735	0.6082771009823773				
290.8291015625	0.2	595618	253	13	2	0	0	64	222	stimuli\Videos_short_600ms_horvertflip\48.single_slap_with_hand_short_horvertflip_short_600ms.mp4	48.single_slap_with_hand_short_horvertflip_short_600ms.mp4	361.3603320951511	361.96865582223654	0.6083237270854625				
291.62939453125	0.2	597257	254	13	2	0	0	65	40	stimuli\Videos_short_600ms\46.scratching_top_to_bottom_with_finger_nails_short_short_600ms.mp4	46.scratching_top_to_bottom_with_finger_nails_short_short_600ms.mp4	362.1603160839236	362.7686547665512	0.6083386826276183				
292.42919921875	0.2	598895	255	13	2	0	0	66	139	stimuli\Videos_short_600ms_horflip\54.repeated_touch_with_knife_short_horflip_short_600ms.mp4	54.repeated_touch_with_knife_short_horflip_short_600ms.mp4	362.9602956740068	363.5686381688315	0.6083424948246829				
293.22900390625	0.2	600533	256	13	2	0	0	67	65	stimuli\Videos_short_600ms\69.stroke_with_soft_sock_short_short_600ms.mp4	69.stroke_with_soft_sock_short_short_600ms.mp4	363.7602896331405	364.3685286121522	0.6082389790117304				
294.029296875	0.2	602172	257	13	2	0	1	68	372	stimuli\Targets_short_600ms_horvertflip\brush-stroke_short_vertflip_short_600ms.mp4	brush-stroke_short_vertflip_short_600ms.mp4	364.5601513383599	365.1685114279408	0.6083600895808559				
294.8291015625	0.2	603810	258	13	2	0	0	69	244	stimuli\Videos_short_600ms_horvertflip\68.stroke_top_to_bottom_with_shawl_short_horvertflip_short_600ms.mp4	68.stroke_top_to_bottom_with_shawl_short_horvertflip_short_600ms.mp4	365.3601634787414	365.9684977626803	0.6083342839388024				
295.62890625	0.2	605448	259	13	2	0	1	70	363	stimuli\Targets_short_600ms\finger-tap_short_short_600ms.mp4	finger-tap_short_short_600ms.mp4	366.1602140343398	366.76848527040374	0.6082712360639562				
296.42919921875	0.2	607087	260	13	2	0	0	71	84	stimuli\Videos_short_600ms\86.touch_top_to_bottom_with_hair_brush_short_short_600ms.mp4	86.touch_top_to_bottom_with_hair_brush_short_short_600ms.mp4	366.9606546070254	367.5684519576658	0.6077973506403396				
297.22900390625	0.2	608725	261	13	2	0	0	72	303	stimuli\Videos_short_600ms_vertflip\4.repeated_tap_with_finger_slow_short_vertflip_short_600ms.mp4	4.repeated_tap_with_finger_slow_short_vertflip_short_600ms.mp4	367.760383765084	368.3684391721431	0.6080554070590551				
298.02880859375	0.2	610363	262	13	2	0	0	73	2	stimuli\Videos_short_600ms\11.single_touch_with_lighter_short_short_600ms.mp4	11.single_touch_with_lighter_short_short_600ms.mp4	368.56040235687624	369.16842081494815	0.6080184580719106				
298.8291015625	0.2	612002	263	13	2	0	0	74	296	stimuli\Videos_short_600ms_vertflip\33.scratch_top_to_bottom_with_scissors_short_vertflip_short_600ms.mp4	33.scratch_top_to_bottom_with_scissors_short_vertflip_short_600ms.mp4	369.36018195323504	369.9684106686391	0.6082287154040387				
299.62890625	0.2	613640	264	13	2	0	0	75	116	stimuli\Videos_short_600ms_horflip\33.scratch_top_to_bottom_with_scissors_short_horflip_short_600ms.mp4	33.scratch_top_to_bottom_with_scissors_short_horflip_short_600ms.mp4	370.160065651899	370.7683917249519	0.6083260730529219				
300.4287109375	0.2	615278	265	13	2	0	0	76	34	stimuli\Videos_short_600ms\40.repeated_push_with_finger_short_short_600ms.mp4	40.repeated_push_with_finger_short_short_600ms.mp4	370.9600557988356	371.5684029855957	0.6083471867600565				
301.22900390625	0.2	616917	266	13	2	0	0	77	119	stimuli\Videos_short_600ms_horflip\36.single_slap_with_full_hand_short_horflip_short_600ms.mp4	36.single_slap_with_full_hand_short_horflip_short_600ms.mp4	371.7600720446603	372.3683787634818	0.6083067188214955				
302.02880859375	0.2	618555	267	13	2	0	0	78	133	stimuli\Videos_short_600ms_horflip\49.repeated_slap_with_hand_short_horflip_short_600ms.mp4	49.repeated_slap_with_hand_short_horflip_short_600ms.mp4	372.5600346264796	373.1683448642521	0.6083102377724572				
302.82861328125	0.2	620193	268	13	2	0	0	79	64	stimuli\Videos_short_600ms\68.stroke_top_to_bottom_with_shawl_short_short_600ms.mp4	68.stroke_top_to_bottom_with_shawl_short_short_600ms.mp4	373.36008459558616	373.9684575879878	0.6083729924016552				
303.62890625	0.2	621832	269	13	2	0	0	80	229	stimuli\Videos_short_600ms_horvertflip\54.repeated_touch_with_knife_short_horvertflip_short_600ms.mp4	54.repeated_touch_with_knife_short_horvertflip_short_600ms.mp4	374.1601061198371	374.7683964168869	0.6082902970497344				
304.4287109375	0.2	623470	270	13	2	0	0	81	45	stimuli\Videos_short_600ms\50.single_(long)hard_push_with_thumb_short_short_600ms.mp4	50.single_(long)hard_push_with_thumb_short_short_600ms.mp4	374.96008629641256	375.5684331899265	0.6083468935139535				
305.228515625	0.2	625108	271	13	2	0	0	82	268	stimuli\Videos_short_600ms_horvertflip\9.single_touch_with_hammer_short_horvertflip_short_600ms.mp4	9.single_touch_with_hammer_short_horvertflip_short_600ms.mp4	375.7600834812515	376.3683130763934	0.6082295951418928				
306.02880859375	0.2	626747	272	13	2	0	0	83	39	stimuli\Videos_short_600ms\45.scratching_with_finger_nails_short_short_600ms.mp4	45.scratching_with_finger_nails_short_short_600ms.mp4	376.559990346344	377.1682920799845	0.6083017336404737				
306.82861328125	0.2	628385	273	13	2	0	0	84	16	stimuli\Videos_short_600ms\24.single_stroke_top_to_bottom_with_a_spoon_short_short_600ms.mp4	24.single_stroke_top_to_bottom_with_a_spoon_short_short_600ms.mp4	377.3602426551424	377.9682863323642	0.6080436772217581				
307.62841796875	0.2	630023	274	13	2	0	0	85	212	stimuli\Videos_short_600ms_horvertflip\39.single_stab_with_scissors_short_horvertflip_short_600ms.mp4	39.single_stab_with_scissors_short_horvertflip_short_600ms.mp4	378.16002723668225	378.7682632832343	0.6082360465520651				
308.4287109375	0.2	631662	275	13	2	0	1	86	376	stimuli\Targets_short_600ms_horvertflip\hand-pinch_short_vertflip_short_600ms.mp4	hand-pinch_short_vertflip_short_600ms.mp4	378.9599062434113	379.5682490314821	0.6083427880707859				
309.228515625	0.2	633300	276	13	2	0	0	87	121	stimuli\Videos_short_600ms_horflip\38.double_slap_with_pencil_short_horflip_short_600ms.mp4	38.double_slap_with_pencil_short_horflip_short_600ms.mp4	379.7598708779519	380.36823331350024	0.6083624355483153				
310.02880859375	0.2	634939	277	13	2	0	0	88	291	stimuli\Videos_short_600ms_vertflip\29.single_pinch_with_tweezers_short_vertflip_short_600ms.mp4	29.single_pinch_with_tweezers_short_vertflip_short_600ms.mp4	380.5598821385957	381.16821964823976	0.6083375096441159				
310.82861328125	0.2	636577	278	13	2	0	0	89	87	stimuli\Videos_short_600ms\89.single_touch_with_plastic_brush_short_short_600ms.mp4	89.single_touch_with_plastic_brush_short_short_600ms.mp4	381.3599130467169	381.968204223504	0.6082911767871337				
311.62841796875	0.2	638215	279	13	2	0	0	90	35	stimuli\Videos_short_600ms\41.injection_with_blunt_syringe_short_short_600ms.mp4	41.injection_with_blunt_syringe_short_short_600ms.mp4	382.1599501130022	382.7681890920139	0.6082389790117304				
312.4287109375	0.2	639854	280	13	2	0	0	91	357	stimuli\Videos_short_600ms_vertflip\89.single_touch_with_plastic_brush_short_vertflip_short_600ms.mp4	89.single_touch_with_plastic_brush_short_vertflip_short_600ms.mp4	382.9598669484567	383.5681563657681	0.6082894173114255				
313.228515625	0.2	641492	281	13	2	0	0	92	290	stimuli\Videos_short_600ms_vertflip\28.single_injection_with_sharp_needle_short_vertflip_short_600ms.mp4	28.single_injection_with_sharp_needle_short_vertflip_short_600ms.mp4	383.7598770361165	384.3681579492959	0.608280913179442				
314.0283203125	0.2	643130	282	13	2	0	0	93	82	stimuli\Videos_short_600ms\84.single_touch_with_cotton_bud_short_short_600ms.mp4	84.single_touch_with_cotton_bud_short_short_600ms.mp4	384.5598155717694	385.16815572062706	0.6083401488576783				
314.82861328125	0.2	644769	283	13	2	0	0	94	54	stimuli\Videos_short_600ms\59.single_push_with_long_side_pencil_short_short_600ms.mp4	59.single_push_with_long_side_pencil_short_short_600ms.mp4	385.3600268261375	385.96811976867593	0.6080929425384056				
315.62841796875	0.2	646407	284	13	2	0	0	95	327	stimuli\Videos_short_600ms_vertflip\61.single_hit_with_rolling_pin_short_vertflip_short_600ms.mp4	61.single_hit_with_rolling_pin_short_vertflip_short_600ms.mp4	386.15990319365346	386.7681374807303	0.6082342870768116				
316.42822265625	0.2	648045	285	13	2	0	0	96	243	stimuli\Videos_short_600ms_horvertflip\67.single_touch_with_sponge_short_horvertflip_short_600ms.mp4	67.single_touch_with_sponge_short_horvertflip_short_600ms.mp4	386.9597678313321	387.5681220559941	0.60835422466198	7.0	7.0	2.4498823643948526	1.0
351.46044921875	0.2	719791	286	13	3	0	0	0	31	stimuli\Videos_short_600ms\38.double_slap_with_pencil_short_short_600ms.mp4	38.double_slap_with_pencil_short_short_600ms.mp4	421.9924797081149	422.6008046081838	0.6083249000689648				
352.2607421875	0.2	721430	287	13	3	0	0	1	130	stimuli\Videos_short_600ms_horflip\46.scratching_top_to_bottom_with_finger_nails_short_horflip_short_600ms.mp4	46.scratching_top_to_bottom_with_finger_nails_short_horflip_short_600ms.mp4	422.7926780596622	423.40073522619696	0.6080571665347634				
353.060546875	0.2	723068	288	13	3	0	0	2	316	stimuli\Videos_short_600ms_vertflip\51.repeated_touch_with_hammer_short_vertflip_short_600ms.mp4	51.repeated_touch_with_hammer_short_vertflip_short_600ms.mp4	423.5925224633715	424.2007183352312	0.608195871859607				
353.8603515625	0.2	724706	289	13	3	0	0	3	275	stimuli\Videos_short_600ms_vertflip\14.repeated_touch_with_pencil_short_vertflip_short_600ms.mp4	14.repeated_touch_with_pencil_short_vertflip_short_600ms.mp4	424.3924026430841	425.00073194184233	0.6083292987582354				
354.66064453125	0.2	726345	290	13	3	0	0	4	43	stimuli\Videos_short_600ms\49.repeated_slap_with_hand_short_short_600ms.mp4	49.repeated_slap_with_hand_short_short_600ms.mp4	425.1925083289175	425.8007162238605	0.608207894943007				
355.46044921875	0.2	727983	291	13	3	0	0	5	199	stimuli\Videos_short_600ms_horvertflip\27.single_push_with_a_plastic_whisk_short_horvertflip_short_600ms.mp4	27.single_push_with_a_plastic_whisk_short_horvertflip_short_600ms.mp4	425.9931333532936	426.60071164922374	0.607578295930125				
356.26025390625	0.2	729621	292	13	3	0	0	6	235	stimuli\Videos_short_600ms_horvertflip\6.single_touch_with_flat_hand_short_horvertflip_short_600ms.mp4	6.single_touch_with_flat_hand_short_horvertflip_short_600ms.mp4	426.79263231329696	427.4007091273088	0.608076814011838				
357.060546875	0.2	731260	293	13	3	0	0	7	240	stimuli\Videos_short_600ms_horvertflip\64.repeated_touch_with_screwdriver_short_horvertflip_short_600ms.mp4	64.repeated_touch_with_screwdriver_short_horvertflip_short_600ms.mp4	427.5925887369517	428.20068901063814	0.608100273686432				
357.8603515625	0.2	732898	294	13	3	0	0	8	283	stimuli\Videos_short_600ms_vertflip\21.repeated_touch_with_metal_chopstick_short_vertflip_short_600ms.mp4	21.repeated_touch_with_metal_chopstick_short_vertflip_short_600ms.mp4	428.3925211144401	429.0006876617067	0.6081665472665918				
358.66015625	0.2	734536	295	13	3	0	0	9	24	stimuli\Videos_short_600ms\31.hand_grabbing_wrist_short_short_600ms.mp4	31.hand_grabbing_wrist_short_short_600ms.mp4	429.19239718870995	429.8006546422153	0.6082574535053027				
359.46044921875	0.2	736175	296	13	3	0	0	10	123	stimuli\Videos_short_600ms_horflip\4.repeated_tap_with_finger_slow_short_horflip_short_600ms.mp4	4.repeated_tap_with_finger_slow_short_horflip_short_600ms.mp4	429.9924090358454	430.6006436161679	0.6082345803224598				
360.26025390625	0.2	737813	297	13	3	0	0	11	36	stimuli\Videos_short_600ms\42.single_slap_with_plastic_whisk_short_short_600ms.mp4	42.single_slap_with_plastic_whisk_short_short_600ms.mp4	430.7922903885419	431.4006331766131	0.6083427880712406				
361.06005859375	0.2	739451	298	13	3	0	0	12	201	stimuli\Videos_short_600ms_horvertflip\29.single_pinch_with_tweezers_short_horvertflip_short_600ms.mp4	29.single_pinch_with_tweezers_short_horvertflip_short_600ms.mp4	431.5922729110848	432.2006130599421	0.6083401488572235				
361.8603515625	0.2	741090	299	13	3	0	0	13	28	stimuli\Videos_short_600ms\35.single_punch_with_hand_short_short_600ms.mp4	35.single_punch_with_hand_short_short_600ms.mp4	432.3922941420901	433.00059968792766	0.6083055458375384				
362.66015625	0.2	742728	300	13	3	0	0	14	19	stimuli\Videos_short_600ms\27.single_push_with_a_plastic_whisk_short_short_600ms.mp4	27.single_push_with_a_plastic_whisk_short_short_600ms.mp4	433.19229660535575	433.80058133073226	0.6082847253765067				
363.4599609375	0.2	744366	301	13	3	0	0	15	333	stimuli\Videos_short_600ms_vertflip\67.single_touch_with_sponge_short_vertflip_short_600ms.mp4	67.single_touch_with_sponge_short_vertflip_short_600ms.mp4	433.9923383635765	434.600568251964	0.608229888387541				
364.26025390625	0.2	746005	302	13	3	0	0	16	180	stimuli\Videos_short_600ms_horvertflip\1.repeated_touch_with_finger_fast_short_horvertflip_short_600ms.mp4	1.repeated_touch_with_finger_fast_short_horvertflip_short_600ms.mp4	434.7922859898531	435.4005560529331	0.6082700630799991				
365.06005859375	0.2	747643	303	13	3	0	0	17	353	stimuli\Videos_short_600ms_vertflip\85.touch_top_to_bottom_with_fabric_short_vertflip_short_600ms.mp4	85.touch_top_to_bottom_with_fabric_short_vertflip_short_600ms.mp4	435.59224534596706	436.20053036458967	0.6082850186226096				
365.8603515625	0.2	749282	304	13	3	0	0	18	83	stimuli\Videos_short_600ms\85.touch_top_to_bottom_with_fabric_short_short_600ms.mp4	85.touch_top_to_bottom_with_fabric_short_short_600ms.mp4	436.39237419822894	437.0004923599172	0.6081181616882532				
366.66015625	0.2	750920	305	13	3	0	0	19	227	stimuli\Videos_short_600ms_horvertflip\52.touch_top_to_bottom_with_hammer_short_horvertflip_short_600ms.mp4	52.touch_top_to_bottom_with_hammer_short_horvertflip_short_600ms.mp4	437.1921693366221	437.8004654985898	0.6082961619677008				
367.4599609375	0.2	752558	306	13	3	0	0	20	69	stimuli\Videos_short_600ms\72.(short)stroke_with_finger_all_over_the_hand_short_short_600ms.mp4	72.(short)stroke_with_finger_all_over_the_hand_short_short_600ms.mp4	437.9921480469675	438.60045535228073	0.6083073053132466				
368.26025390625	0.2	754197	307	13	3	0	0	21	158	stimuli\Videos_short_600ms_horflip\71.single_stroke_with_finger_top_to_bottom_short_horflip_short_600ms.mp4	71.single_stroke_with_finger_top_to_bottom_short_horflip_short_600ms.mp4	438.7921249978371	439.4004355288557	0.6083105310185601				
369.06005859375	0.2	755835	308	13	3	0	0	22	20	stimuli\Videos_short_600ms\28.single_injection_with_sharp_needle_short_short_600ms.mp4	28.single_injection_with_sharp_needle_short_short_600ms.mp4	439.59219490766736	440.2004479624834	0.6082530548160321				
369.85986328125	0.2	757473	309	13	3	0	0	23	169	stimuli\Videos_short_600ms_horflip\81.single_stroke_top_to_bottom_with_cotton_pad_short_horflip_short_600ms.mp4	81.single_stroke_top_to_bottom_with_cotton_pad_short_horflip_short_600ms.mp4	440.3921982506709	441.00043547020687	0.6082372195360222				
370.66015625	0.2	759112	310	13	3	0	0	24	196	stimuli\Videos_short_600ms_horvertflip\24.single_stroke_top_to_bottom_with_a_spoon_short_horvertflip_short_600ms.mp4	24.single_stroke_top_to_bottom_with_a_spoon_short_horvertflip_short_600ms.mp4	441.1921702163599	441.8004320685541	0.6082618521941185				
371.4599609375	0.2	760750	311	13	3	0	0	25	234	stimuli\Videos_short_600ms_horvertflip\59.single_push_with_long_side_pencil_short_horvertflip_short_600ms.mp4	59.single_push_with_long_side_pencil_short_horvertflip_short_600ms.mp4	441.99216622821496	442.6004272006712	0.6082609724562644				
372.259765625	0.2	762388	312	13	3	0	0	26	345	stimuli\Videos_short_600ms_vertflip\78.single_stroke_top_to_bottom_with_soft_brush_short_vertflip_short_600ms.mp4	78.single_stroke_top_to_bottom_with_soft_brush_short_vertflip_short_600ms.mp4	442.7921827672858	443.4004076704923	0.6082249032065192				
373.06005859375	0.2	764027	313	13	3	0	0	27	252	stimuli\Videos_short_600ms_horvertflip\75.(long)stroke_with_fingers_all_over_the_hand_short_horvertflip_short_600ms.mp4	75.(long)stroke_with_fingers_all_over_the_hand_short_horvertflip_short_600ms.mp4	443.5921309800542	444.20040368234777	0.6082727022935615				
373.85986328125	0.2	765665	314	13	3	0	0	28	239	stimuli\Videos_short_600ms_horvertflip\63.stroke_top_to_bottom_with_screwdriver_short_horvertflip_short_600ms.mp4	63.stroke_top_to_bottom_with_screwdriver_short_horvertflip_short_600ms.mp4	444.3920296342608	445.000375941283	0.6083463070222024				
374.65966796875	0.2	767303	315	13	3	0	0	29	299	stimuli\Videos_short_600ms_vertflip\36.single_slap_with_full_hand_short_vertflip_short_600ms.mp4	36.single_slap_with_full_hand_short_vertflip_short_600ms.mp4	445.19201567575465	445.80036110303854	0.6083454272838935				
375.4599609375	0.2	768942	316	13	3	0	0	30	318	stimuli\Videos_short_600ms_vertflip\53.touch_top_to_bottom_with_knife_short_vertflip_short_600ms.mp4	53.touch_top_to_bottom_with_knife_short_vertflip_short_600ms.mp4	445.99213045221177	446.60034773102416	0.6082172788123898				
376.259765625	0.2	770580	317	13	3	0	0	31	172	stimuli\Videos_short_600ms_horflip\84.single_touch_with_cotton_bud_short_horflip_short_600ms.mp4	84.single_touch_with_cotton_bud_short_horflip_short_600ms.mp4	446.7920851163908	447.40033289278017	0.6082477763893621				
377.0595703125	0.2	772218	318	13	3	0	1	32	377	stimuli\Targets_short_600ms_horvertflip\hand-stroke_short_vertflip_short_600ms.mp4	hand-stroke_short_vertflip_short_600ms.mp4	447.59206617270365	448.2003160018148	0.6082498291111733				
377.85986328125	0.2	773857	319	13	3	0	0	33	193	stimuli\Videos_short_600ms_horvertflip\21.repeated_touch_with_metal_chopstick_short_horvertflip_short_600ms.mp4	21.repeated_touch_with_metal_chopstick_short_horvertflip_short_600ms.mp4	448.39202904776903	449.0003052690135	0.6082762212445232				
378.65966796875	0.2	775495	320	13	3	0	0	34	232	stimuli\Videos_short_600ms_horvertflip\57.single_touch_with_nail_file_short_horvertflip_short_600ms.mp4	57.single_touch_with_nail_file_short_horvertflip_short_600ms.mp4	449.1919737415865	449.8002895510317	0.6083158094452301				
379.45947265625	0.2	777133	321	13	3	0	0	35	171	stimuli\Videos_short_600ms_horflip\83.single_stroke_top_to_bottom_with_cotton_bud_short_horflip_short_600ms.mp4	83.single_stroke_top_to_bottom_with_cotton_bud_short_horflip_short_600ms.mp4	449.99192781927377	450.600272953312	0.6083451340382453				
380.259765625	0.2	778772	322	13	3	0	0	36	70	stimuli\Videos_short_600ms\73.single_stroke_with_flat_hand_short_short_600ms.mp4	73.single_stroke_with_flat_hand_short_short_600ms.mp4	450.791893920044	451.4002584083137	0.6083644882696717				
381.0595703125	0.2	780410	323	13	3	0	0	37	27	stimuli\Videos_short_600ms\34.repeated_punch_with_hand_short_short_600ms.mp4	34.repeated_punch_with_hand_short_short_600ms.mp4	451.5921180772334	452.2002221631169	0.6081040858834967				
381.859375	0.2	782048	324	13	3	0	0	38	269	stimuli\Videos_short_600ms_horvertflip\90.repeated_touch_with_sponge_short_horvertflip_short_600ms.mp4	90.repeated_touch_with_sponge_short_horvertflip_short_600ms.mp4	452.392307338157	453.0002360629742	0.6079287248171568				
382.65966796875	0.2	783687	325	13	3	0	0	39	313	stimuli\Videos_short_600ms_vertflip\49.repeated_slap_with_hand_short_vertflip_short_600ms.mp4	49.repeated_slap_with_hand_short_vertflip_short_600ms.mp4	453.1919171451218	453.8002080286629	0.6082908835410308				
383.45947265625	0.2	785325	326	13	3	0	0	40	323	stimuli\Videos_short_600ms_vertflip\58.single_slap_with_pencil_short_vertflip_short_600ms.mp4	58.single_slap_with_pencil_short_vertflip_short_600ms.mp4	453.9920363202682	454.60015360221814	0.6081172819499443				
384.259765625	0.2	786964	327	13	3	0	0	41	317	stimuli\Videos_short_600ms_vertflip\52.touch_top_to_bottom_with_hammer_short_vertflip_short_600ms.mp4	52.touch_top_to_bottom_with_hammer_short_vertflip_short_600ms.mp4	454.7920076994651	455.40017219401034	0.6081644945452354				
385.0595703125	0.2	788602	328	13	3	0	0	42	15	stimuli\Videos_short_600ms\23.single_push_with_a_spoon_short_short_600ms.mp4	23.single_push_with_a_spoon_short_short_600ms.mp4	455.5919588446932	456.2001520773397	0.6081932326464994				
385.859375	0.2	790240	329	13	3	0	0	43	61	stimuli\Videos_short_600ms\65.stroke_top_to_bottom_with_stanley_knife_short_short_600ms.mp4	65.stroke_top_to_bottom_with_stanley_knife_short_short_600ms.mp4	456.39205162770577	457.0001586460485	0.6081070183427073				
386.65966796875	0.2	791879	330	13	3	0	0	44	202	stimuli\Videos_short_600ms_horvertflip\3.single_push_with_finger_short_horvertflip_short_600ms.mp4	3.single_push_with_finger_short_horvertflip_short_600ms.mp4	457.19194119128815	457.8001420483288	0.6082008570406288				
387.45947265625	0.2	793517	331	13	3	0	0	45	170	stimuli\Videos_short_600ms_horflip\82.repeated_touch_with_cotton_bud_short_horflip_short_600ms.mp4	82.repeated_touch_with_cotton_bud_short_horflip_short_600ms.mp4	457.9917770908655	458.6001236911334	0.6083466002678506				
388.25927734375	0.2	795155	332	13	3	0	0	46	109	stimuli\Videos_short_600ms_horflip\27.single_push_with_a_plastic_whisk_short_horflip_short_600ms.mp4	27.single_push_with_a_plastic_whisk_short_horflip_short_600ms.mp4	458.7917687040317	459.40011559754566	0.6083468935139535				
389.0595703125	0.2	796794	333	13	3	0	0	47	248	stimuli\Videos_short_600ms_horvertflip\71.single_stroke_with_finger_top_to_bottom_short_horvertflip_short_600ms.mp4	71.single_stroke_with_finger_top_to_bottom_short_horvertflip_short_600ms.mp4	459.59191163209834	460.20009489438326	0.6081832622849106				
389.859375	0.2	798432	334	13	3	0	0	48	75	stimuli\Videos_short_600ms\78.single_stroke_top_to_bottom_with_soft_brush_short_short_600ms.mp4	78.single_stroke_top_to_bottom_with_soft_brush_short_short_600ms.mp4	460.39186600303174	461.0000821088606	0.6082161058288875				
390.6591796875	0.2	800070	335	13	3	0	1	49	364	stimuli\Targets_short_600ms\hand-pinch_short_short_600ms.mp4	hand-pinch_short_short_600ms.mp4	461.1918162685219	461.8000625786817	0.6082463101597568				
391.45947265625	0.2	801709	336	13	3	0	0	50	100	stimuli\Videos_short_600ms_horflip\19.single_touch_with_rolling_pin_short_horflip_short_600ms.mp4	19.single_touch_with_rolling_pin_short_horflip_short_600ms.mp4	461.9917034861369	462.6000497931591	0.6083463070222024				
392.25927734375	0.2	803347	337	13	3	0	0	51	242	stimuli\Videos_short_600ms_horvertflip\66.stroke_top_to_bottom_with_sponge_short_horvertflip_short_600ms.mp4	66.stroke_top_to_bottom_with_sponge_short_horvertflip_short_600ms.mp4	462.79168806140115	463.4000349549151	0.6083468935139535				
393.05908203125	0.2	804985	338	13	3	0	0	52	55	stimuli\Videos_short_600ms\6.single_touch_with_flat_hand_short_short_600ms.mp4	6.single_touch_with_flat_hand_short_short_600ms.mp4	463.59166120007376	464.20002070316286	0.6083595030891047				
393.859375	0.2	806624	339	13	3	0	0	53	340	stimuli\Videos_short_600ms_vertflip\73.single_stroke_with_flat_hand_short_vertflip_short_600ms.mp4	73.single_stroke_with_flat_hand_short_vertflip_short_600ms.mp4	464.3916387374357	465.00000381219706	0.6083650747614229				
394.6591796875	0.2	808262	340	13	3	0	0	54	149	stimuli\Videos_short_600ms_horflip\63.stroke_top_to_bottom_with_screwdriver_short_horflip_short_600ms.mp4	63.stroke_top_to_bottom_with_screwdriver_short_horflip_short_600ms.mp4	465.19176670995967	465.7999901469366	0.608223436976914				
395.458984375	0.2	809900	341	13	3	0	0	55	354	stimuli\Videos_short_600ms_vertflip\86.touch_top_to_bottom_with_hair_brush_short_vertflip_short_600ms.mp4	86.touch_top_to_bottom_with_hair_brush_short_vertflip_short_600ms.mp4	465.9916102339312	466.59997941413576	0.6083691802045905				
396.25927734375	0.2	811539	342	13	3	0	0	56	337	stimuli\Videos_short_600ms_vertflip\70.(long)stroke_with_finger_all_over_the_hand_short_vertflip_short_600ms.mp4	70.(long)stroke_with_finger_all_over_the_hand_short_vertflip_short_600ms.mp4	466.79160331332696	467.3999610569403	0.6083577436133965				
397.05908203125	0.2	813177	343	13	3	0	0	57	255	stimuli\Videos_short_600ms_horvertflip\78.single_stroke_top_to_bottom_with_soft_brush_short_horvertflip_short_600ms.mp4	78.single_stroke_top_to_bottom_with_soft_brush_short_horvertflip_short_600ms.mp4	467.5916060698387	468.1999470984342	0.6083410285955324				
397.85888671875	0.2	814815	344	13	3	0	0	58	14	stimuli\Videos_short_600ms\22.single_touch_with_metal_chopstick_short_short_600ms.mp4	22.single_touch_with_metal_chopstick_short_short_600ms.mp4	468.3918117525345	468.9999073342861	0.6080955817515132				
398.6591796875	0.2	816454	345	13	3	0	0	59	105	stimuli\Videos_short_600ms_horflip\23.single_push_with_a_spoon_short_horflip_short_600ms.mp4	23.single_push_with_a_spoon_short_horflip_short_600ms.mp4	469.1919769672918	469.7998707958432	0.6078938285513686				
399.458984375	0.2	818092	346	13	3	0	1	60	381	stimuli\Targets_short_600ms_vertflip\finger-tap_short_horvertflip_short_600ms.mp4	finger-tap_short_horvertflip_short_600ms.mp4	469.9916460099348	470.599877364552	0.6082313546171463				
400.2587890625	0.2	819730	347	13	3	0	0	61	37	stimuli\Videos_short_600ms\43.touch_top_to_bottom_with_sharp_wooden_stick_short_short_600ms.mp4	43.touch_top_to_bottom_with_sharp_wooden_stick_short_short_600ms.mp4	470.7915434911574	471.3998657520133	0.6083222608558572				
401.05908203125	0.2	821369	348	13	3	0	0	62	226	stimuli\Videos_short_600ms_horvertflip\51.repeated_touch_with_hammer_short_horvertflip_short_600ms.mp4	51.repeated_touch_with_hammer_short_horvertflip_short_600ms.mp4	471.5915779182296	472.1998517935067	0.6082738752770638				
401.85888671875	0.2	823007	349	13	3	0	0	63	321	stimuli\Videos_short_600ms_vertflip\56.repeated_touch_with_nail_file_short_vertflip_short_600ms.mp4	56.repeated_touch_with_nail_file_short_vertflip_short_600ms.mp4	472.39161205205573	472.999856016248	0.6082439641922974				
402.65869140625	0.2	824645	350	13	3	0	0	64	262	stimuli\Videos_short_600ms_horvertflip\84.single_touch_with_cotton_bud_short_horvertflip_short_600ms.mp4	84.single_touch_with_cotton_bud_short_horvertflip_short_600ms.mp4	473.19152302259135	473.7998470429229	0.6083240203315654				
403.458984375	0.2	826284	351	13	3	0	0	65	203	stimuli\Videos_short_600ms_horvertflip\30.finger_pulling_back_another_finger_short_horvertflip_short_600ms.mp4	30.finger_pulling_back_another_finger_short_horvertflip_short_600ms.mp4	473.9914985072314	474.5998339641542	0.6083354569227595				
404.2587890625	0.2	827922	352	13	3	0	0	66	344	stimuli\Videos_short_600ms_vertflip\77.tapping_with_all_fingers_short_vertflip_short_600ms.mp4	77.tapping_with_all_fingers_short_vertflip_short_600ms.mp4	474.7914713526584	475.3998144339753	0.6083430813168889				
405.05908203125	0.2	829561	353	13	3	0	0	67	1	stimuli\Videos_short_600ms\10.single_touch_with_knife_short_short_600ms.mp4	10.single_touch_with_knife_short_short_600ms.mp4	475.5915403827503	476.1997960767799	0.6082556940295945				
405.85888671875	0.2	831199	354	13	3	0	0	68	264	stimuli\Videos_short_600ms_horvertflip\86.touch_top_to_bottom_with_hair_brush_short_horvertflip_short_600ms.mp4	86.touch_top_to_bottom_with_hair_brush_short_horvertflip_short_600ms.mp4	476.3914413829243	476.9997809452898	0.6083395623654724				
406.65869140625	0.2	832837	355	13	3	0	0	69	173	stimuli\Videos_short_600ms_horflip\85.touch_top_to_bottom_with_fabric_short_horflip_short_600ms.mp4	85.touch_top_to_bottom_with_fabric_short_horflip_short_600ms.mp4	477.1914118823838	477.7997646408162	0.6083527584323747				
407.458984375	0.2	834476	356	13	3	0	0	70	102	stimuli\Videos_short_600ms_horflip\20.single_touch_with_screwdriver_short_horflip_short_600ms.mp4	20.single_touch_with_screwdriver_short_horflip_short_600ms.mp4	477.99152988454625	478.5997509755557	0.6082210910094545				
408.2587890625	0.2	836114	357	13	3	0	0	71	167	stimuli\Videos_short_600ms_horflip\8.single_touch_with_hairbrush_short_horflip_short_600ms.mp4	8.single_touch_with_hairbrush_short_horflip_short_600ms.mp4	478.7914997975135	479.39973819003353	0.6082383925199792				
409.05859375	0.2	837752	358	13	3	0	0	72	231	stimuli\Videos_short_600ms_horvertflip\56.repeated_touch_with_nail_file_short_horvertflip_short_600ms.mp4	56.repeated_touch_with_nail_file_short_horvertflip_short_600ms.mp4	479.5917409629669	480.19972305854344	0.6079820955765172				
409.85888671875	0.2	839391	359	13	3	0	1	73	367	stimuli\Targets_short_600ms_horflip\chopstick-silver-tap_short_horflip_short_600ms.mp4	chopstick-silver-tap_short_horflip_short_600ms.mp4	480.39144050318646	480.9997088067912	0.6082683036047456				
410.65869140625	0.2	841029	360	13	3	0	0	74	111	stimuli\Videos_short_600ms_horflip\29.single_pinch_with_tweezers_short_horflip_short_600ms.mp4	29.single_pinch_with_tweezers_short_horflip_short_600ms.mp4	481.19173269343173	481.7996936753011	0.6079609818693825				
411.45849609375	0.2	842667	361	13	3	0	0	75	304	stimuli\Videos_short_600ms_vertflip\40.repeated_push_with_finger_short_vertflip_short_600ms.mp4	40.repeated_push_with_finger_short_vertflip_short_600ms.mp4	481.9913293043296	482.5996794235489	0.6083501192192671				
412.2587890625	0.2	844306	362	13	3	0	0	76	215	stimuli\Videos_short_600ms_horvertflip\41.injection_with_blunt_syringe_short_horvertflip_short_600ms.mp4	41.injection_with_blunt_syringe_short_horvertflip_short_600ms.mp4	482.79129921729736	483.3996182524479	0.6083190351505436				
413.05859375	0.2	845944	363	13	3	0	1	77	379	stimuli\Targets_short_600ms_vertflip\chopstick-silver-tap_short_horvertflip_short_600ms.mp4	chopstick-silver-tap_short_horvertflip_short_600ms.mp4	483.5912576936734	484.19962276843535	0.6083650747618776				
413.8583984375	0.2	847582	364	13	3	0	0	78	245	stimuli\Videos_short_600ms_horvertflip\69.stroke_with_soft_sock_short_horvertflip_short_600ms.mp4	69.stroke_with_soft_sock_short_horvertflip_short_600ms.mp4	484.3914583911883	484.99962376547137	0.6081653742830895				
414.65869140625	0.2	849221	365	13	3	0	0	79	261	stimuli\Videos_short_600ms_horvertflip\83.single_stroke_top_to_bottom_with_cotton_bud_short_horvertflip_short_600ms.mp4	83.single_stroke_top_to_bottom_with_cotton_bud_short_horvertflip_short_600ms.mp4	485.19130103542193	485.7995925054552	0.6082914700332367				
415.45849609375	0.2	850859	366	13	3	0	0	80	101	stimuli\Videos_short_600ms_horflip\2.single_touch_with_finger_short_horflip_short_600ms.mp4	2.single_touch_with_finger_short_horflip_short_600ms.mp4	485.9912120059575	486.5995849983592	0.6083729924016552				
416.25830078125	0.2	852497	367	13	3	0	0	81	221	stimuli\Videos_short_600ms_horvertflip\47.(long)scratching_with_finger_nails_short_horvertflip_short_600ms.mp4	47.(long)scratching_with_finger_nails_short_horvertflip_short_600ms.mp4	486.7911980474514	487.3995713330992	0.6083732856477582				
417.05859375	0.2	854136	368	13	3	0	0	82	157	stimuli\Videos_short_600ms_horflip\70.(long)stroke_with_finger_all_over_the_hand_short_horflip_short_600ms.mp4	70.(long)stroke_with_finger_all_over_the_hand_short_horflip_short_600ms.mp4	487.5913538783389	488.19958318023464	0.6082293018957898				
417.8583984375	0.2	855774	369	13	3	0	0	83	258	stimuli\Videos_short_600ms_horvertflip\80.stroke_with_sharp_stick_all_over_the_hand_short_horvertflip_short_600ms.mp4	80.stroke_with_sharp_stick_all_over_the_hand_short_horvertflip_short_600ms.mp4	488.3911674912256	488.99955807838296	0.6083905871573734				
418.658203125	0.2	857412	370	13	3	0	0	84	257	stimuli\Videos_short_600ms_horvertflip\8.single_touch_with_hairbrush_short_horvertflip_short_600ms.mp4	8.single_touch_with_hairbrush_short_horvertflip_short_600ms.mp4	489.1911717139669	489.79954969154915	0.6083779775822222				
419.45849609375	0.2	859051	371	13	3	0	0	85	95	stimuli\Videos_short_600ms_horflip\14.repeated_touch_with_pencil_short_horflip_short_600ms.mp4	14.repeated_touch_with_pencil_short_horflip_short_600ms.mp4	489.9912146451711	490.5995278154028	0.6083131702316678				
420.25830078125	0.2	860689	372	13	3	0	0	86	93	stimuli\Videos_short_600ms_horflip\12.repeated_touch_with_nail_file_short_horflip_short_600ms.mp4	12.repeated_touch_with_nail_file_short_horflip_short_600ms.mp4	490.7912505384729	491.39951209742094	0.6082615589480156				
421.05810546875	0.2	862327	373	13	3	0	0	87	18	stimuli\Videos_short_600ms\26.single_touch_with_a_blunt_syringe_short_short_600ms.mp4	26.single_touch_with_a_blunt_syringe_short_short_600ms.mp4	491.591239512426	492.19949755242305	0.6082580399970539				
421.8583984375	0.2	863966	374	13	3	0	0	88	152	stimuli\Videos_short_600ms_horflip\66.stroke_top_to_bottom_with_sponge_short_horflip_short_600ms.mp4	66.stroke_top_to_bottom_with_sponge_short_horflip_short_600ms.mp4	492.3912589839556	492.9994847669004	0.6082257829448281				
