onset	duration	onsetsample	eventnumber	subjectnr	sequencenumber	blocksequencenumber	istarget	presentationnumber	stimnumber	stim	stimname	time_stimon	time_stimoff	stimdur	cresp	resp	rt	correct
146.60400390625	0.2	300245	0	46	0	0	0	0	37	stimuli\Videos_short_600ms\43.touch_top_to_bottom_with_sharp_wooden_stick_short_short_600ms.mp4	43.touch_top_to_bottom_with_sharp_wooden_stick_short_short_600ms.mp4	41.59962810660181	42.20783304502402	0.6082049384222046				
147.40380859375	0.2	301883	1	46	0	0	0	1	67	stimuli\Videos_short_600ms\70.(long)stroke_with_finger_all_over_the_hand_short_short_600ms.mp4	70.(long)stroke_with_finger_all_over_the_hand_short_short_600ms.mp4	42.399542889585064	43.00782729742059	0.6082844078355265				
148.2041015625	0.2	303522	2	46	0	0	1	2	365	stimuli\Targets_short_600ms\hand-stroke_short_short_600ms.mp4	hand-stroke_short_short_600ms.mp4	43.1995570826457	43.807791345576334	0.6082342629306368				
149.00390625	0.2	305160	3	46	0	0	0	3	131	stimuli\Videos_short_600ms_horflip\47.(long)scratching_with_finger_nails_short_horflip_short_600ms.mp4	47.(long)scratching_with_finger_nails_short_horflip_short_600ms.mp4	43.999817601566974	44.60777416141536	0.6079565598483896				
149.80419921875	0.2	306799	4	46	0	0	0	4	32	stimuli\Videos_short_600ms\39.single_stab_with_scissors_short_short_600ms.mp4	39.single_stab_with_scissors_short_short_600ms.mp4	44.79948371272985	45.40776196242041	0.6082782496905565				
150.60400390625	0.2	308437	5	46	0	0	0	5	273	stimuli\Videos_short_600ms_vertflip\12.repeated_touch_with_nail_file_short_vertflip_short_600ms.mp4	12.repeated_touch_with_nail_file_short_vertflip_short_600ms.mp4	45.59953104248416	46.20777087707029	0.6082398345861293				
151.40380859375	0.2	310075	6	46	0	0	0	6	170	stimuli\Videos_short_600ms_horflip\82.repeated_touch_with_cotton_bud_short_horflip_short_600ms.mp4	82.repeated_touch_with_cotton_bud_short_horflip_short_600ms.mp4	46.399512685342415	47.00773257926448	0.6082198939220689				
152.2041015625	0.2	311714	7	46	0	0	0	7	164	stimuli\Videos_short_600ms_horflip\77.tapping_with_all_fingers_short_horflip_short_600ms.mp4	77.tapping_with_all_fingers_short_horflip_short_600ms.mp4	47.199469695615335	47.80774266689332	0.6082729712779837				
153.00390625	0.2	313352	8	46	0	0	0	8	293	stimuli\Videos_short_600ms_vertflip\30.finger_pulling_back_another_finger_short_vertflip_short_600ms.mp4	30.finger_pulling_back_another_finger_short_vertflip_short_600ms.mp4	47.99941292336917	48.60774923558347	0.6083363122143055				
153.8037109375	0.2	314990	9	46	0	0	0	9	13	stimuli\Videos_short_600ms\21.repeated_touch_with_metal_chopstick_short_short_600ms.mp4	21.repeated_touch_with_metal_chopstick_short_short_600ms.mp4	48.79944060570415	49.407722960824685	0.6082823551205365				
154.60400390625	0.2	316629	10	46	0	0	1	10	372	stimuli\Targets_short_600ms_horvertflip\brush-stroke_short_vertflip_short_600ms.mp4	brush-stroke_short_vertflip_short_600ms.mp4	49.59938354021324	50.207703723948725	0.6083201837354864				
155.40380859375	0.2	318267	11	46	0	0	0	11	244	stimuli\Videos_short_600ms_horvertflip\68.stroke_top_to_bottom_with_shawl_short_horvertflip_short_600ms.mp4	68.stroke_top_to_bottom_with_shawl_short_horvertflip_short_600ms.mp4	50.39937398042457	51.007686833032494	0.6083128526079236				
156.20361328125	0.2	319905	12	46	0	0	0	12	36	stimuli\Videos_short_600ms\42.single_slap_with_plastic_whisk_short_short_600ms.mp4	42.single_slap_with_plastic_whisk_short_short_600ms.mp4	51.19934711917449	51.80767873946934	0.6083316202948481				
157.00390625	0.2	321544	13	46	0	0	0	13	306	stimuli\Videos_short_600ms_vertflip\42.single_slap_with_plastic_whisk_short_vertflip_short_600ms.mp4	42.single_slap_with_plastic_whisk_short_vertflip_short_600ms.mp4	51.999317032230465	52.60765393093607	0.6083368987056019				
157.8037109375	0.2	323182	14	46	0	0	0	14	334	stimuli\Videos_short_600ms_vertflip\68.stroke_top_to_bottom_with_shawl_short_vertflip_short_600ms.mp4	68.stroke_top_to_bottom_with_shawl_short_vertflip_short_600ms.mp4	52.79930307376526	53.40761856557947	0.60831549181421				
158.603515625	0.2	324820	15	46	0	0	0	15	117	stimuli\Videos_short_600ms_horflip\34.repeated_punch_with_hand_short_horflip_short_600ms.mp4	34.repeated_punch_with_hand_short_horflip_short_600ms.mp4	53.59929967212338	54.20762044234834	0.6083207702249638				
159.40380859375	0.2	326459	16	46	0	0	0	16	168	stimuli\Videos_short_600ms_horflip\80.stroke_with_sharp_stick_all_over_the_hand_short_horflip_short_600ms.mp4	80.stroke_with_sharp_stick_all_over_the_hand_short_horflip_short_600ms.mp4	54.399239380936706	55.007605017657625	0.6083656367209187				
160.20361328125	0.2	328097	17	46	0	0	0	17	155	stimuli\Videos_short_600ms_horflip\69.stroke_with_soft_sock_short_horflip_short_600ms.mp4	69.stroke_with_soft_sock_short_horflip_short_600ms.mp4	55.19922073055022	55.807585780781665	0.6083650502314413				
161.00341796875	0.2	329735	18	46	0	0	0	18	103	stimuli\Videos_short_600ms_horflip\21.repeated_touch_with_metal_chopstick_short_horflip_short_600ms.mp4	21.repeated_touch_with_metal_chopstick_short_horflip_short_600ms.mp4	55.999205012614766	56.607570356090946	0.60836534347618				
161.8037109375	0.2	331374	19	46	0	0	0	19	264	stimuli\Videos_short_600ms_horvertflip\86.touch_top_to_bottom_with_hair_brush_short_horvertflip_short_600ms.mp4	86.touch_top_to_bottom_with_hair_brush_short_horvertflip_short_600ms.mp4	56.79922067190091	57.4075519989492	0.6083313270482904				
162.603515625	0.2	333012	20	46	0	0	0	20	183	stimuli\Videos_short_600ms_horvertflip\12.repeated_touch_with_nail_file_short_horvertflip_short_600ms.mp4	12.repeated_touch_with_nail_file_short_horvertflip_short_600ms.mp4	57.599262723244465	58.20752953637748	0.6082668131330138				
163.4033203125	0.2	334650	21	46	0	0	0	21	174	stimuli\Videos_short_600ms_horflip\86.touch_top_to_bottom_with_hair_brush_short_horflip_short_600ms.mp4	86.touch_top_to_bottom_with_hair_brush_short_horflip_short_600ms.mp4	58.39928835286264	59.007495344001654	0.6082069911390136				
164.20361328125	0.2	336289	22	46	0	0	0	22	338	stimuli\Videos_short_600ms_vertflip\71.single_stroke_with_finger_top_to_bottom_short_vertflip_short_600ms.mp4	71.single_stroke_with_finger_top_to_bottom_short_vertflip_short_600ms.mp4	59.19915944233071	59.80747845308542	0.6083190107547125				
165.00341796875	0.2	337927	23	46	0	0	0	23	340	stimuli\Videos_short_600ms_vertflip\73.single_stroke_with_flat_hand_short_vertflip_short_600ms.mp4	73.single_stroke_with_flat_hand_short_vertflip_short_600ms.mp4	59.99917275565713	60.6074595094542	0.6082867537970742				
165.80322265625	0.2	339565	24	46	0	0	0	24	188	stimuli\Videos_short_600ms_horvertflip\17.repeated_touch_with_rolling_pin_short_horvertflip_short_600ms.mp4	17.repeated_touch_with_rolling_pin_short_horvertflip_short_600ms.mp4	60.79914560116231	61.407447896948725	0.6083022957864159				
166.603515625	0.2	341204	25	46	0	0	0	25	282	stimuli\Videos_short_600ms_vertflip\20.single_touch_with_screwdriver_short_vertflip_short_600ms.mp4	20.single_touch_with_screwdriver_short_vertflip_short_600ms.mp4	61.59911052905227	62.20743012629828	0.6083195972460089				
167.4033203125	0.2	342842	26	46	0	0	0	26	111	stimuli\Videos_short_600ms_horflip\29.single_pinch_with_tweezers_short_horflip_short_600ms.mp4	29.single_pinch_with_tweezers_short_horflip_short_600ms.mp4	62.399163723708625	63.00742173948856	0.6082580157799384				
168.203125	0.2	344480	27	46	0	0	0	27	221	stimuli\Videos_short_600ms_horvertflip\47.(long)scratching_with_finger_nails_short_horvertflip_short_600ms.mp4	47.(long)scratching_with_finger_nails_short_horvertflip_short_600ms.mp4	63.19905328761524	63.8074227365214	0.60836944890616				
169.00341796875	0.2	346119	28	46	0	0	0	28	192	stimuli\Videos_short_600ms_horvertflip\20.single_touch_with_screwdriver_short_horvertflip_short_600ms.mp4	20.single_touch_with_screwdriver_short_horvertflip_short_600ms.mp4	63.99908096994841	64.60739880772417	0.6083178377757577				
169.80322265625	0.2	347757	29	46	0	0	0	29	138	stimuli\Videos_short_600ms_horflip\53.touch_top_to_bottom_with_knife_short_horflip_short_600ms.mp4	53.touch_top_to_bottom_with_knife_short_horflip_short_600ms.mp4	64.79910190764713	65.4073851425037	0.6082832348565717				
170.603515625	0.2	349396	30	46	0	0	0	30	127	stimuli\Videos_short_600ms_horflip\43.touch_top_to_bottom_with_sharp_wooden_stick_short_horflip_short_600ms.mp4	43.touch_top_to_bottom_with_sharp_wooden_stick_short_horflip_short_600ms.mp4	65.5990322326179	66.20734977714892	0.6083175445310189				
171.4033203125	0.2	351034	31	46	0	0	0	31	311	stimuli\Videos_short_600ms_vertflip\47.(long)scratching_with_finger_nails_short_vertflip_short_600ms.mp4	47.(long)scratching_with_finger_nails_short_vertflip_short_600ms.mp4	66.399025898525	67.00735018769228	0.6083242891672853				
172.203125	0.2	352672	32	46	0	0	0	32	323	stimuli\Videos_short_600ms_vertflip\58.single_slap_with_pencil_short_vertflip_short_600ms.mp4	58.single_slap_with_pencil_short_vertflip_short_600ms.mp4	67.19896707356384	67.8073315373058	0.6083644637419638				
173.00341796875	0.2	354311	33	46	0	0	0	33	89	stimuli\Videos_short_600ms\90.repeated_touch_with_sponge_short_short_600ms.mp4	90.repeated_touch_with_sponge_short_short_600ms.mp4	67.99896895033271	68.60729323949818	0.6083242891654663				
173.80322265625	0.2	355949	34	46	0	0	0	34	39	stimuli\Videos_short_600ms\45.scratching_with_finger_nails_short_short_600ms.mp4	45.scratching_with_finger_nails_short_short_600ms.mp4	68.79893358497611	69.40730010143307	0.6083665164569538				
174.60302734375	0.2	357587	35	46	0	0	0	35	287	stimuli\Videos_short_600ms_vertflip\25.single_touch_with_stanley_knife_short_vertflip_short_600ms.mp4	25.single_touch_with_stanley_knife_short_vertflip_short_600ms.mp4	69.5989166940617	70.20728174429314	0.6083650502314413				
175.4033203125	0.2	359226	36	46	0	0	0	36	358	stimuli\Videos_short_600ms_vertflip\9.single_touch_with_hammer_short_vertflip_short_600ms.mp4	9.single_touch_with_hammer_short_vertflip_short_600ms.mp4	70.39895346699268	71.00726543986639	0.6083119728737074				
176.203125	0.2	360864	37	46	0	0	0	37	292	stimuli\Videos_short_600ms_vertflip\3.single_push_with_finger_short_vertflip_short_600ms.mp4	3.single_push_with_finger_short_vertflip_short_600ms.mp4	71.199005781913	71.80724972193093	0.6082439400179283				
177.0029296875	0.2	362502	38	46	0	0	0	38	41	stimuli\Videos_short_600ms\47.(long)scratching_with_finger_nails_short_short_600ms.mp4	47.(long)scratching_with_finger_nails_short_short_600ms.mp4	71.99890883509215	72.60723429724021	0.6083254621480592				
177.80322265625	0.2	364141	39	46	0	0	0	39	173	stimuli\Videos_short_600ms_horflip\85.touch_top_to_bottom_with_fabric_short_horflip_short_600ms.mp4	85.touch_top_to_bottom_with_fabric_short_horflip_short_600ms.mp4	72.79893299848663	73.4072162333432	0.6082832348565717				
178.60302734375	0.2	365779	40	46	0	0	1	40	371	stimuli\Targets_short_600ms_horflip\hand-stroke_short_horflip_short_600ms.mp4	hand-stroke_short_horflip_short_600ms.mp4	73.59892754412795	74.20717500308638	0.6082474589584308				
179.40283203125	0.2	367417	41	46	0	0	0	41	176	stimuli\Videos_short_600ms_horflip\88.repeated_stroke_with_plastic_brush_short_horflip_short_600ms.mp4	88.repeated_stroke_with_plastic_brush_short_horflip_short_600ms.mp4	74.39881828101534	75.00715664594463	0.6083383649292955				
180.203125	0.2	369056	42	46	0	0	0	42	268	stimuli\Videos_short_600ms_horvertflip\9.single_touch_with_hammer_short_horvertflip_short_600ms.mp4	9.single_touch_with_hammer_short_horvertflip_short_600ms.mp4	75.1988673702399	75.80714679291123	0.6082794226713304				
181.0029296875	0.2	370694	43	46	0	0	0	43	213	stimuli\Videos_short_600ms_horvertflip\4.repeated_tap_with_finger_slow_short_horvertflip_short_600ms.mp4	4.repeated_tap_with_finger_slow_short_horvertflip_short_600ms.mp4	75.99878479242761	76.60712784928	0.6083430568523909				
181.802734375	0.2	372332	44	46	0	0	0	44	4	stimuli\Videos_short_600ms\13.single_touch_with_pen_short_short_600ms.mp4	13.single_touch_with_pen_short_short_600ms.mp4	76.79881012880287	77.40711037187248	0.608300243069607				
182.60302734375	0.2	373971	45	46	0	0	0	45	187	stimuli\Videos_short_600ms_horvertflip\16.repeated_touch_with_plastic_brush_short_horvertflip_short_600ms.mp4	16.repeated_touch_with_plastic_brush_short_horvertflip_short_600ms.mp4	77.59881229881648	78.20711694056263	0.6083046417461446				
183.40283203125	0.2	375609	46	46	0	0	0	46	257	stimuli\Videos_short_600ms_horvertflip\8.single_touch_with_hairbrush_short_horvertflip_short_600ms.mp4	8.single_touch_with_hairbrush_short_horvertflip_short_600ms.mp4	78.39877546723437	79.00712057680175	0.6083451095673809				
184.20263671875	0.2	377247	47	46	0	0	0	47	348	stimuli\Videos_short_600ms_vertflip\80.stroke_with_sharp_stick_all_over_the_hand_short_vertflip_short_600ms.mp4	80.stroke_with_sharp_stick_all_over_the_hand_short_vertflip_short_600ms.mp4	79.19875798982866	79.8070805195257	0.608322529697034				
185.0029296875	0.2	378886	48	46	0	0	0	48	248	stimuli\Videos_short_600ms_horvertflip\71.single_stroke_with_finger_top_to_bottom_short_horvertflip_short_600ms.mp4	71.single_stroke_with_finger_top_to_bottom_short_horvertflip_short_600ms.mp4	79.99873376778669	80.60706333536291	0.6083295675762201				
185.802734375	0.2	380524	49	46	0	0	0	49	125	stimuli\Videos_short_600ms_horflip\41.injection_with_blunt_syringe_short_horflip_short_600ms.mp4	41.injection_with_blunt_syringe_short_horflip_short_600ms.mp4	80.79870280110663	81.4070493768977	0.6083465757910744				
186.6025390625	0.2	382162	50	46	0	0	0	50	80	stimuli\Videos_short_600ms\82.repeated_touch_with_cotton_bud_short_short_600ms.mp4	82.repeated_touch_with_cotton_bud_short_short_600ms.mp4	81.59873370913738	82.20703424545354	0.6083005363161647				
187.40283203125	0.2	383801	51	46	0	0	0	51	272	stimuli\Videos_short_600ms_vertflip\11.single_touch_with_lighter_short_vertflip_short_600ms.mp4	11.single_touch_with_lighter_short_vertflip_short_600ms.mp4	82.39888455440087	83.00701354235025	0.6081289879493852				
188.20263671875	0.2	385439	52	46	0	0	0	52	172	stimuli\Videos_short_600ms_horflip\84.single_touch_with_cotton_bud_short_horflip_short_600ms.mp4	84.single_touch_with_cotton_bud_short_horflip_short_600ms.mp4	83.19867822716878	83.80699635818928	0.6083181310204964				
189.00244140625	0.2	387077	53	46	0	0	0	53	153	stimuli\Videos_short_600ms_horflip\67.single_touch_with_sponge_short_horflip_short_600ms.mp4	67.single_touch_with_sponge_short_horflip_short_600ms.mp4	83.99889358634937	84.606957473894	0.6080638875446311				
189.802734375	0.2	388716	54	46	0	0	0	54	329	stimuli\Videos_short_600ms_vertflip\63.stroke_top_to_bottom_with_screwdriver_short_vertflip_short_600ms.mp4	63.stroke_top_to_bottom_with_screwdriver_short_vertflip_short_600ms.mp4	84.79865910759145	85.40696462907363	0.6083055214821798				
190.6025390625	0.2	390354	55	46	0	0	0	55	45	stimuli\Videos_short_600ms\50.single_(long)hard_push_with_thumb_short_short_600ms.mp4	50.single_(long)hard_push_with_thumb_short_short_600ms.mp4	85.5985844473962	86.20695917471494	0.6083747273187328				
191.40283203125	0.2	391993	56	46	0	0	0	56	112	stimuli\Videos_short_600ms_horflip\3.single_push_with_finger_short_horflip_short_600ms.mp4	3.single_push_with_finger_short_horflip_short_600ms.mp4	86.39856521052025	87.00692908777091	0.6083638772506674				
192.20263671875	0.2	393631	57	46	0	0	0	57	215	stimuli\Videos_short_600ms_horvertflip\41.injection_with_blunt_syringe_short_horvertflip_short_600ms.mp4	41.injection_with_blunt_syringe_short_horvertflip_short_600ms.mp4	87.19856151563181	87.80691659553122	0.6083550798994111				
193.00244140625	0.2	395269	58	46	0	0	0	58	6	stimuli\Videos_short_600ms\15.single_stroke_top_to_bottom_with_a_plastic_whisk_short_short_600ms.mp4	15.single_stroke_top_to_bottom_with_a_plastic_whisk_short_short_600ms.mp4	87.99855635451786	88.60689237348743	0.6083360189695668				
193.802734375	0.2	396908	59	46	0	0	0	59	87	stimuli\Videos_short_600ms\89.single_touch_with_plastic_brush_short_short_600ms.mp4	89.single_touch_with_plastic_brush_short_short_600ms.mp4	88.79856644214851	89.40686170005392	0.6082952579054108				
194.6025390625	0.2	398546	60	46	0	0	0	60	193	stimuli\Videos_short_600ms_horvertflip\21.repeated_touch_with_metal_chopstick_short_horvertflip_short_600ms.mp4	21.repeated_touch_with_metal_chopstick_short_horvertflip_short_600ms.mp4	89.59850820367683	90.20684510238245	0.6083368987056019				
195.40234375	0.2	400184	61	46	0	0	0	61	231	stimuli\Videos_short_600ms_horvertflip\56.repeated_touch_with_nail_file_short_horvertflip_short_600ms.mp4	56.repeated_touch_with_nail_file_short_horvertflip_short_600ms.mp4	90.39852796839476	91.00682674524067	0.6082987768459134				
196.20263671875	0.2	401823	62	46	0	0	0	62	310	stimuli\Videos_short_600ms_vertflip\46.scratching_top_to_bottom_with_finger_nails_short_vertflip_short_600ms.mp4	46.scratching_top_to_bottom_with_finger_nails_short_vertflip_short_600ms.mp4	91.1984884976082	91.8068080948542	0.6083195972460089				
197.00244140625	0.2	403461	63	46	0	0	0	63	206	stimuli\Videos_short_600ms_horvertflip\33.scratch_top_to_bottom_with_scissors_short_horvertflip_short_600ms.mp4	33.scratch_top_to_bottom_with_scissors_short_horvertflip_short_600ms.mp4	91.998479524309	92.60679325665296	0.6083137323439587				
197.80224609375	0.2	405099	64	46	0	0	0	64	235	stimuli\Videos_short_600ms_horvertflip\6.single_touch_with_flat_hand_short_horvertflip_short_600ms.mp4	6.single_touch_with_flat_hand_short_horvertflip_short_600ms.mp4	92.79847406995214	93.40680305103888	0.6083289810867427				
198.6025390625	0.2	406738	65	46	0	0	0	65	144	stimuli\Videos_short_600ms_horflip\59.single_push_with_long_side_pencil_short_horflip_short_600ms.mp4	59.single_push_with_long_side_pencil_short_horflip_short_600ms.mp4	93.59845014115308	94.20678909257369	0.6083389514205919				
199.40234375	0.2	408376	66	46	0	0	0	66	359	stimuli\Videos_short_600ms_vertflip\90.repeated_touch_with_sponge_short_vertflip_short_600ms.mp4	90.repeated_touch_with_sponge_short_vertflip_short_600ms.mp4	94.39842327990482	95.00676340430618	0.6083401244013658				
200.2021484375	0.2	410014	67	46	0	0	0	67	202	stimuli\Videos_short_600ms_horvertflip\3.single_push_with_finger_short_horvertflip_short_600ms.mp4	3.single_push_with_finger_short_horvertflip_short_600ms.mp4	95.19842691614394	95.80670311311953	0.6082761969755666				
201.00244140625	0.2	411653	68	46	0	0	1	68	373	stimuli\Targets_short_600ms_horvertflip\chopstick-silver-tap_short_vertflip_short_600ms.mp4	chopstick-silver-tap_short_vertflip_short_600ms.mp4	95.99841413065953	96.6067307954545	0.6083166647949838				
201.80224609375	0.2	413291	69	46	0	0	0	69	326	stimuli\Videos_short_600ms_vertflip\60.single_push_with_tip_of_pencil_short_vertflip_short_600ms.mp4	60.single_push_with_tip_of_pencil_short_vertflip_short_600ms.mp4	96.79844269272871	97.406714197783	0.6082715050542902				
202.60205078125	0.2	414929	70	46	0	0	0	70	336	stimuli\Videos_short_600ms_vertflip\7.repeated_touch_with_hairbrush_short_vertflip_short_600ms.mp4	7.repeated_touch_with_hairbrush_short_vertflip_short_600ms.mp4	97.59837360419078	98.2066967203773	0.6083231161865115				
203.40234375	0.2	416568	71	46	0	0	0	71	3	stimuli\Videos_short_600ms\12.repeated_touch_with_nail_file_short_short_600ms.mp4	12.repeated_touch_with_nail_file_short_short_600ms.mp4	98.39836844307683	99.00665871581624	0.6082902727393957				
204.2021484375	0.2	418206	72	46	0	0	0	72	101	stimuli\Videos_short_600ms_horflip\2.single_touch_with_finger_short_horflip_short_600ms.mp4	2.single_touch_with_finger_short_horflip_short_600ms.mp4	99.19831782897744	99.8066626453001	0.6083448163226421				
205.001953125	0.2	419844	73	46	0	0	0	73	64	stimuli\Videos_short_600ms\68.stroke_top_to_bottom_with_shawl_short_short_600ms.mp4	68.stroke_top_to_bottom_with_shawl_short_short_600ms.mp4	99.9984293794023	100.60664487464784	0.6082154952455312				
205.80224609375	0.2	421483	74	46	0	0	0	74	169	stimuli\Videos_short_600ms_horflip\81.single_stroke_top_to_bottom_with_cotton_pad_short_horflip_short_600ms.mp4	81.single_stroke_top_to_bottom_with_cotton_pad_short_horflip_short_600ms.mp4	100.79826967813824	101.40663267565289	0.6083629975146323				
206.60205078125	0.2	423121	75	46	0	0	0	75	288	stimuli\Videos_short_600ms_vertflip\26.single_touch_with_a_blunt_syringe_short_vertflip_short_600ms.mp4	26.single_touch_with_a_blunt_syringe_short_vertflip_short_600ms.mp4	101.59825044126046	102.20661373202164	0.60836329076119				
207.40185546875	0.2	424759	76	46	0	0	0	76	237	stimuli\Videos_short_600ms_horvertflip\61.single_hit_with_rolling_pin_short_horvertflip_short_600ms.mp4	61.single_hit_with_rolling_pin_short_horvertflip_short_600ms.mp4	102.39824264094204	103.00659654786068	0.6083539069186372				
208.2021484375	0.2	426398	77	46	0	0	0	77	42	stimuli\Videos_short_600ms\48.single_slap_with_hand_short_short_600ms.mp4	48.single_slap_with_hand_short_short_600ms.mp4	103.19836944010969	103.80656851363165	0.6081990735219733				
209.001953125	0.2	428036	78	46	0	0	0	78	269	stimuli\Videos_short_600ms_horvertflip\90.repeated_touch_with_sponge_short_horvertflip_short_600ms.mp4	90.repeated_touch_with_sponge_short_horvertflip_short_600ms.mp4	103.99823173222468	104.60651789953226	0.6082861673075968				
209.8017578125	0.2	429674	79	46	0	0	0	79	225	stimuli\Videos_short_600ms_horvertflip\50.single_(long)hard_push_with_thumb_short_horvertflip_short_600ms.mp4	50.single_(long)hard_push_with_thumb_short_horvertflip_short_600ms.mp4	104.79821982647444	105.40650188835208	0.6082820618776168				
210.60205078125	0.2	431313	80	46	0	0	0	80	34	stimuli\Videos_short_600ms\40.repeated_push_with_finger_short_short_600ms.mp4	40.repeated_push_with_finger_short_short_600ms.mp4	105.59821202615603	106.2065090435317	0.6082970173756621				
211.40185546875	0.2	432951	81	46	0	0	0	81	278	stimuli\Videos_short_600ms_vertflip\17.repeated_touch_with_rolling_pin_short_vertflip_short_600ms.mp4	17.repeated_touch_with_rolling_pin_short_vertflip_short_600ms.mp4	106.39819660146532	107.00648775393891	0.6082911524736119				
212.2021484375	0.2	434590	82	46	0	0	0	82	302	stimuli\Videos_short_600ms_vertflip\39.single_stab_with_scissors_short_vertflip_short_600ms.mp4	39.single_stab_with_scissors_short_vertflip_short_600ms.mp4	107.19812076829112	107.8064825928268	0.6083618245356774				
213.001953125	0.2	436228	83	46	0	0	0	83	300	stimuli\Videos_short_600ms_vertflip\37.single_stab_with_nail_file_short_vertflip_short_600ms.mp4	37.single_stab_with_nail_file_short_vertflip_short_600ms.mp4	107.99814610466456	108.60648124389807	0.6083351392335317				
213.8017578125	0.2	437866	84	46	0	0	0	84	159	stimuli\Videos_short_600ms_horflip\72.(short)stroke_with_finger_all_over_the_hand_short_horflip_short_600ms.mp4	72.(short)stroke_with_finger_all_over_the_hand_short_horflip_short_600ms.mp4	108.7981435827569	109.40647139086468	0.6083278081077879				
214.60205078125	0.2	439505	85	46	0	0	1	85	378	stimuli\Targets_short_600ms_vertflip\brush-stroke_short_horvertflip_short_600ms.mp4	brush-stroke_short_horvertflip_short_600ms.mp4	109.5982243424496	110.20646476352522	0.6082404210756067				
215.40185546875	0.2	441143	86	46	0	0	0	86	230	stimuli\Videos_short_600ms_horvertflip\55.touch_top_to_bottom_with_nail_file_short_horvertflip_short_600ms.mp4	55.touch_top_to_bottom_with_nail_file_short_horvertflip_short_600ms.mp4	110.39839336890871	111.0064179616129	0.6080245927041688				
216.20166015625	0.2	442781	87	46	0	0	0	87	267	stimuli\Videos_short_600ms_horvertflip\89.single_touch_with_plastic_brush_short_horvertflip_short_600ms.mp4	89.single_touch_with_plastic_brush_short_horvertflip_short_600ms.mp4	111.19811607636984	111.80642101136073	0.6083049349908833				
217.001953125	0.2	444420	88	46	0	0	0	88	222	stimuli\Videos_short_600ms_horvertflip\48.single_slap_with_hand_short_horvertflip_short_600ms.mp4	48.single_slap_with_hand_short_horvertflip_short_600ms.mp4	111.998076898828	112.60639708256348	0.6083201837354864				
217.8017578125	0.2	446058	89	46	0	0	0	89	25	stimuli\Videos_short_600ms\32.single_(long)pinch_with_fingers_short_short_600ms.mp4	32.single_(long)pinch_with_fingers_short_short_600ms.mp4	112.79805648897128	113.40638195111752	0.6083254621462402				
218.6015625	0.2	447696	90	46	0	0	0	90	337	stimuli\Videos_short_600ms_vertflip\70.(long)stroke_with_finger_all_over_the_hand_short_vertflip_short_600ms.mp4	70.(long)stroke_with_finger_all_over_the_hand_short_vertflip_short_600ms.mp4	113.59801291275288	114.20636359397577	0.6083506812228734				
219.40185546875	0.2	449335	91	46	0	0	0	91	139	stimuli\Videos_short_600ms_horflip\54.repeated_touch_with_knife_short_horflip_short_600ms.mp4	54.repeated_touch_with_knife_short_horflip_short_600ms.mp4	114.39798135958335	115.00634699630608	0.6083656367227377				
220.20166015625	0.2	450973	92	46	0	0	0	92	200	stimuli\Videos_short_600ms_horvertflip\28.single_injection_with_sharp_needle_short_horvertflip_short_600ms.mp4	28.single_injection_with_sharp_needle_short_horvertflip_short_600ms.mp4	115.19796857409892	115.80633362433036	0.6083650502314413				
221.00146484375	0.2	452611	93	46	0	0	0	93	279	stimuli\Videos_short_600ms_vertflip\18.single_stroke_from_top_to_bottom_with_rolling_pin_short_vertflip_short_600ms.mp4	18.single_stroke_from_top_to_bottom_with_rolling_pin_short_vertflip_short_600ms.mp4	115.9979906847766	116.60631497394388	0.6083242891672853				
221.8017578125	0.2	454250	94	46	0	0	0	94	266	stimuli\Videos_short_600ms_horvertflip\88.repeated_stroke_with_plastic_brush_short_horvertflip_short_600ms.mp4	88.repeated_stroke_with_plastic_brush_short_horvertflip_short_600ms.mp4	116.79793361928569	117.40629720329343	0.6083635840077477	5.0	6.0	2.3252076101798593	0.0
256.6337890625	0.2	525586	95	46	1	0	0	0	320	stimuli\Videos_short_600ms_vertflip\55.touch_top_to_bottom_with_nail_file_short_vertflip_short_600ms.mp4	55.touch_top_to_bottom_with_nail_file_short_vertflip_short_600ms.mp4	151.6305909738585	152.2389099846132	0.6083190107547125				
257.43359375	0.2	527224	96	46	1	0	0	1	229	stimuli\Videos_short_600ms_horvertflip\54.repeated_touch_with_knife_short_horvertflip_short_600ms.mp4	54.repeated_touch_with_knife_short_horvertflip_short_600ms.mp4	152.43055033009114	153.03889368018827	0.6083433500971296				
258.23388671875	0.2	528863	97	46	1	0	0	2	303	stimuli\Videos_short_600ms_vertflip\4.repeated_tap_with_finger_slow_short_vertflip_short_600ms.mp4	4.repeated_tap_with_finger_slow_short_vertflip_short_600ms.mp4	153.23053461215568	153.8388779622528	0.6083433500971296				
259.03369140625	0.2	530501	98	46	1	0	0	3	339	stimuli\Videos_short_600ms_vertflip\72.(short)stroke_with_finger_all_over_the_hand_short_vertflip_short_600ms.mp4	72.(short)stroke_with_finger_all_over_the_hand_short_vertflip_short_600ms.mp4	154.03053209024802	154.63886664299207	0.6083345527440542				
259.83349609375	0.2	532139	99	46	1	0	0	4	167	stimuli\Videos_short_600ms_horflip\8.single_touch_with_hairbrush_short_horflip_short_600ms.mp4	8.single_touch_with_hairbrush_short_horflip_short_600ms.mp4	154.83054921575967	155.43883890200777	0.6082896862480993				
260.6337890625	0.2	533778	100	46	1	0	0	5	210	stimuli\Videos_short_600ms_horvertflip\37.single_stab_with_nail_file_short_horvertflip_short_600ms.mp4	37.single_stab_with_nail_file_short_horvertflip_short_600ms.mp4	155.63064551744174	156.23880177718274	0.6081562597410084				
261.43359375	0.2	535416	101	46	1	0	0	6	96	stimuli\Videos_short_600ms_horflip\15.single_stroke_top_to_bottom_with_a_plastic_whisk_short_horflip_short_600ms.mp4	15.single_stroke_top_to_bottom_with_a_plastic_whisk_short_horflip_short_600ms.mp4	156.43046675524602	157.0387942701091	0.6083275148630491				
262.2333984375	0.2	537054	102	46	1	0	0	7	106	stimuli\Videos_short_600ms_horflip\24.single_stroke_top_to_bottom_with_a_spoon_short_horflip_short_600ms.mp4	24.single_stroke_top_to_bottom_with_a_spoon_short_horflip_short_600ms.mp4	157.23047303069143	157.8387694615758	0.6082964308843657				
263.03369140625	0.2	538693	103	46	1	0	0	8	294	stimuli\Videos_short_600ms_vertflip\31.hand_grabbing_wrist_short_vertflip_short_600ms.mp4	31.hand_grabbing_wrist_short_vertflip_short_600ms.mp4	158.03045526003916	158.6387792559617	0.6083239959225466				
263.83349609375	0.2	540331	104	46	1	0	0	9	83	stimuli\Videos_short_600ms\85.touch_top_to_bottom_with_fabric_short_short_600ms.mp4	85.touch_top_to_bottom_with_fabric_short_short_600ms.mp4	158.83056886318082	159.43874154464538	0.6081726814645663				
264.6337890625	0.2	541970	105	46	1	0	0	10	321	stimuli\Videos_short_600ms_vertflip\56.repeated_touch_with_nail_file_short_vertflip_short_600ms.mp4	56.repeated_touch_with_nail_file_short_vertflip_short_600ms.mp4	159.6304012442979	160.23872934565043	0.6083281013525266				
265.43359375	0.2	543608	106	46	1	0	0	11	343	stimuli\Videos_short_600ms_vertflip\76.tickle_with_fingers_from_top_to_bottom_short_vertflip_short_600ms.mp4	76.tickle_with_fingers_from_top_to_bottom_short_vertflip_short_600ms.mp4	160.4303831804009	161.0387347413598	0.6083515609589085				
266.2333984375	0.2	545246	107	46	1	0	0	12	219	stimuli\Videos_short_600ms_horvertflip\45.scratching_with_finger_nails_short_horvertflip_short_600ms.mp4	45.scratching_with_finger_nails_short_horvertflip_short_600ms.mp4	161.23039473425706	161.83871139905204	0.6083166647949838				
267.03369140625	0.2	546885	108	46	1	0	0	13	299	stimuli\Videos_short_600ms_vertflip\36.single_slap_with_full_hand_short_vertflip_short_600ms.mp4	36.single_slap_with_full_hand_short_vertflip_short_600ms.mp4	162.0303526242642	162.63870359873363	0.6083509744694311				
267.83349609375	0.2	548523	109	46	1	0	0	14	262	stimuli\Videos_short_600ms_horvertflip\84.single_touch_with_cotton_bud_short_horvertflip_short_600ms.mp4	84.single_touch_with_cotton_bud_short_horvertflip_short_600ms.mp4	162.83041461627363	163.43867615099407	0.608261534720441				
268.63330078125	0.2	550161	110	46	1	0	0	15	49	stimuli\Videos_short_600ms\54.repeated_touch_with_knife_short_short_600ms.mp4	54.repeated_touch_with_knife_short_short_600ms.mp4	163.63060504962232	164.23866131279465	0.6080562631723296				
269.43359375	0.2	551800	111	46	1	0	0	16	20	stimuli\Videos_short_600ms\28.single_injection_with_sharp_needle_short_short_600ms.mp4	28.single_injection_with_sharp_needle_short_short_600ms.mp4	164.43031426780908	165.03864442187842	0.6083301540693355				
270.2333984375	0.2	553438	112	46	1	0	0	17	11	stimuli\Videos_short_600ms\2.single_touch_with_finger_short_short_600ms.mp4	2.single_touch_with_finger_short_short_600ms.mp4	165.23028682007134	165.83862870394114	0.608341883869798				
271.033203125	0.2	555076	113	46	1	0	0	18	65	stimuli\Videos_short_600ms\69.stroke_with_soft_sock_short_short_600ms.mp4	69.stroke_with_soft_sock_short_short_600ms.mp4	166.03051830772893	166.63861298600568	0.6080946782767569				
271.83349609375	0.2	556715	114	46	1	0	0	19	70	stimuli\Videos_short_600ms\73.single_stroke_with_flat_hand_short_short_600ms.mp4	73.single_stroke_with_flat_hand_short_short_600ms.mp4	166.83023280433008	167.43859374912972	0.6083609447996423				
272.63330078125	0.2	558353	115	46	1	0	0	20	57	stimuli\Videos_short_600ms\61.single_hit_with_rolling_pin_short_short_600ms.mp4	61.single_hit_with_rolling_pin_short_short_600ms.mp4	167.6302162066586	168.2385533986071	0.6083371919485216				
273.43310546875	0.2	559991	116	46	1	0	0	21	182	stimuli\Videos_short_600ms_horvertflip\11.single_touch_with_lighter_short_horvertflip_short_600ms.mp4	11.single_touch_with_lighter_short_horvertflip_short_600ms.mp4	168.43022277534692	169.0385617267675	0.6083389514205919				
274.2333984375	0.2	561630	117	46	1	0	0	22	71	stimuli\Videos_short_600ms\74.fingers_walking_from_top_to_bottom_short_short_600ms.mp4	74.fingers_walking_from_top_to_bottom_short_short_600ms.mp4	169.23025984152446	169.83854600883203	0.6082861673075968				
275.033203125	0.2	563268	118	46	1	0	0	23	156	stimuli\Videos_short_600ms_horflip\7.repeated_touch_with_hairbrush_short_horflip_short_600ms.mp4	7.repeated_touch_with_hairbrush_short_horflip_short_600ms.mp4	170.03021391934635	170.63851122996675	0.6082973106204008				
275.8330078125	0.2	564906	119	46	1	0	0	24	332	stimuli\Videos_short_600ms_vertflip\66.stroke_top_to_bottom_with_sponge_short_vertflip_short_600ms.mp4	66.stroke_top_to_bottom_with_sponge_short_vertflip_short_600ms.mp4	170.83019908114693	171.43849785799102	0.6082987768440944				
276.63330078125	0.2	566545	120	46	1	0	0	25	79	stimuli\Videos_short_600ms\81.single_stroke_top_to_bottom_with_cotton_pad_short_short_600ms.mp4	81.single_stroke_top_to_bottom_with_cotton_pad_short_short_600ms.mp4	171.63017984426915	172.23847656840007	0.6082967241309234				
277.43310546875	0.2	568183	121	46	1	0	0	26	354	stimuli\Videos_short_600ms_vertflip\86.touch_top_to_bottom_with_hair_brush_short_vertflip_short_600ms.mp4	86.touch_top_to_bottom_with_hair_brush_short_vertflip_short_600ms.mp4	172.43015591547191	173.03843416516247	0.6082782496905565				
278.23291015625	0.2	569821	122	46	1	0	0	27	56	stimuli\Videos_short_600ms\60.single_push_with_tip_of_pencil_short_short_600ms.mp4	60.single_push_with_tip_of_pencil_short_short_600ms.mp4	173.23014371647696	173.83842519186328	0.6082814753863204				
279.033203125	0.2	571460	123	46	1	0	0	28	115	stimuli\Videos_short_600ms_horflip\32.single_(long)pinch_with_fingers_short_horflip_short_600ms.mp4	32.single_(long)pinch_with_fingers_short_horflip_short_600ms.mp4	174.03010395244564	174.63843469300264	0.608330740556994				
279.8330078125	0.2	573098	124	46	1	0	0	29	72	stimuli\Videos_short_600ms\75.(long)stroke_with_fingers_all_over_the_hand_short_short_600ms.mp4	75.(long)stroke_with_fingers_all_over_the_hand_short_short_600ms.mp4	174.83010846841898	175.4384087114904	0.6083002430714259				
280.6328125	0.2	574736	125	46	1	0	1	30	381	stimuli\Targets_short_600ms_vertflip\finger-tap_short_horvertflip_short_600ms.mp4	finger-tap_short_horvertflip_short_600ms.mp4	175.6300918707475	176.23841791938503	0.6083260486375366				
281.43310546875	0.2	576375	126	46	1	0	0	31	66	stimuli\Videos_short_600ms\7.repeated_touch_with_hairbrush_short_short_600ms.mp4	7.repeated_touch_with_hairbrush_short_short_600ms.mp4	176.43010137188867	177.03839926899855	0.6082978971098782				
282.23291015625	0.2	578013	127	46	1	0	0	32	201	stimuli\Videos_short_600ms_horvertflip\29.single_pinch_with_tweezers_short_horvertflip_short_600ms.mp4	29.single_pinch_with_tweezers_short_horvertflip_short_600ms.mp4	177.23005750242555	177.8383800321226	0.608322529697034				
283.03271484375	0.2	579651	128	46	1	0	0	33	333	stimuli\Videos_short_600ms_vertflip\67.single_touch_with_sponge_short_vertflip_short_600ms.mp4	67.single_touch_with_sponge_short_vertflip_short_600ms.mp4	178.03003943853037	178.6383649006766	0.6083254621462402				
283.8330078125	0.2	581290	129	46	1	0	0	34	63	stimuli\Videos_short_600ms\67.single_touch_with_sponge_short_short_600ms.mp4	67.single_touch_with_sponge_short_short_600ms.mp4	178.83002489357386	179.4383483030051	0.6083234094312502				
284.6328125	0.2	582928	130	46	1	0	0	35	114	stimuli\Videos_short_600ms_horflip\31.hand_grabbing_wrist_short_horflip_short_600ms.mp4	31.hand_grabbing_wrist_short_horflip_short_600ms.mp4	179.63000624318738	180.23833141208888	0.6083251689015015				
285.43310546875	0.2	584567	131	46	1	0	0	36	251	stimuli\Videos_short_600ms_horvertflip\74.fingers_walking_from_top_to_bottom_short_horvertflip_short_600ms.mp4	74.fingers_walking_from_top_to_bottom_short_horvertflip_short_600ms.mp4	180.42999140498796	181.0383133481937	0.6083219432057376				
286.23291015625	0.2	586205	132	46	1	0	0	37	191	stimuli\Videos_short_600ms_horvertflip\2.single_touch_with_finger_short_horvertflip_short_600ms.mp4	2.single_touch_with_finger_short_horvertflip_short_600ms.mp4	181.2299660099634	181.83829557754143	0.6083295675780391				
287.03271484375	0.2	587843	133	46	1	0	0	38	54	stimuli\Videos_short_600ms\59.single_push_with_long_side_pencil_short_short_600ms.mp4	59.single_push_with_long_side_pencil_short_short_600ms.mp4	182.02997873680033	182.63827751364624	0.6082987768459134				
287.8330078125	0.2	589482	134	46	1	0	0	39	281	stimuli\Videos_short_600ms_vertflip\2.single_touch_with_finger_short_vertflip_short_600ms.mp4	2.single_touch_with_finger_short_vertflip_short_600ms.mp4	182.83004278152293	183.43826443491523	0.6082216533923201				
288.6328125	0.2	591120	135	46	1	0	0	40	217	stimuli\Videos_short_600ms_horvertflip\43.touch_top_to_bottom_with_sharp_wooden_stick_short_horvertflip_short_600ms.mp4	43.touch_top_to_bottom_with_sharp_wooden_stick_short_horvertflip_short_600ms.mp4	183.62990302092297	184.23824695750957	0.608343936586607				
289.4326171875	0.2	592758	136	46	1	0	0	41	166	stimuli\Videos_short_600ms_horflip\79.long_with_soft_brush_all_over_the_hand_short_horflip_short_600ms.mp4	79.long_with_soft_brush_all_over_the_hand_short_horflip_short_600ms.mp4	184.4298694150384	185.0382329990443	0.6083635840059287				
290.23291015625	0.2	594397	137	46	1	0	0	42	204	stimuli\Videos_short_600ms_horvertflip\31.hand_grabbing_wrist_short_horvertflip_short_600ms.mp4	31.hand_grabbing_wrist_short_horvertflip_short_600ms.mp4	185.22988214187353	185.8381917687875	0.6083096269139787				
291.03271484375	0.2	596035	138	46	1	0	0	43	234	stimuli\Videos_short_600ms_horvertflip\59.single_push_with_long_side_pencil_short_horvertflip_short_600ms.mp4	59.single_push_with_long_side_pencil_short_horvertflip_short_600ms.mp4	186.02988460513188	186.6381593358819	0.608274730750054				
291.83251953125	0.2	597673	139	46	1	0	0	44	29	stimuli\Videos_short_600ms\36.single_slap_with_full_hand_short_short_600ms.mp4	36.single_slap_with_full_hand_short_short_600ms.mp4	186.82998120005868	187.43817499516808	0.6081937951094005				
292.6328125	0.2	599312	140	46	1	0	0	45	260	stimuli\Videos_short_600ms_horvertflip\82.repeated_touch_with_cotton_bud_short_horvertflip_short_600ms.mp4	82.repeated_touch_with_cotton_bud_short_horvertflip_short_600ms.mp4	187.6298449583992	188.2381193959045	0.6082744375053153				
293.4326171875	0.2	600950	141	46	1	0	0	46	134	stimuli\Videos_short_600ms_horflip\5.repeated_tap_with_finger_moving_from_top_to_bottom_short_horflip_short_600ms.mp4	5.repeated_tap_with_finger_moving_from_top_to_bottom_short_horflip_short_600ms.mp4	188.4299025517303	189.03810191849695	0.608199366766712				
294.232421875	0.2	602588	142	46	1	0	0	47	351	stimuli\Videos_short_600ms_vertflip\83.single_stroke_top_to_bottom_with_cotton_bud_short_vertflip_short_600ms.mp4	83.single_stroke_top_to_bottom_with_cotton_bud_short_vertflip_short_600ms.mp4	189.22990882717568	189.83813693195953	0.6082281047838478				
295.03271484375	0.2	604227	143	46	1	0	0	48	275	stimuli\Videos_short_600ms_vertflip\14.repeated_touch_with_pencil_short_vertflip_short_600ms.mp4	14.repeated_touch_with_pencil_short_vertflip_short_600ms.mp4	190.02977082604593	190.6380951152114	0.6083242891654663				
295.83251953125	0.2	605865	144	46	1	0	0	49	137	stimuli\Videos_short_600ms_horflip\52.touch_top_to_bottom_with_hammer_short_horflip_short_600ms.mp4	52.touch_top_to_bottom_with_hammer_short_horflip_short_600ms.mp4	190.8298339910325	191.43808936760797	0.608255376575471				
296.63232421875	0.2	607503	145	46	1	0	0	50	5	stimuli\Videos_short_600ms\14.repeated_touch_with_pencil_short_short_600ms.mp4	14.repeated_touch_with_pencil_short_short_600ms.mp4	191.62973616447744	192.23809476331735	0.6083585988399136				
297.4326171875	0.2	609142	146	46	1	0	0	51	274	stimuli\Videos_short_600ms_vertflip\13.single_touch_with_pen_short_vertflip_short_600ms.mp4	13.single_touch_with_pen_short_vertflip_short_600ms.mp4	192.42974537237387	193.0380667290883	0.6083213567144412				
298.232421875	0.2	610780	147	46	1	0	0	52	181	stimuli\Videos_short_600ms_horvertflip\10.single_touch_with_knife_short_horvertflip_short_600ms.mp4	10.single_touch_with_knife_short_horvertflip_short_600ms.mp4	193.22972466927055	193.8380483719484	0.6083237026778079				
299.0322265625	0.2	612418	148	46	1	0	0	53	142	stimuli\Videos_short_600ms_horflip\57.single_touch_with_nail_file_short_horflip_short_600ms.mp4	57.single_touch_with_nail_file_short_horflip_short_600ms.mp4	194.02997609759404	194.63803060129612	0.6080545037020784				
299.83251953125	0.2	614057	149	46	1	0	0	54	250	stimuli\Videos_short_600ms_horvertflip\73.single_stroke_with_flat_hand_short_horvertflip_short_600ms.mp4	73.single_stroke_with_flat_hand_short_horvertflip_short_600ms.mp4	194.82969381988912	195.4380122441544	0.6083184242652351				
300.63232421875	0.2	615695	150	46	1	0	0	55	126	stimuli\Videos_short_600ms_horflip\42.single_slap_with_plastic_whisk_short_horflip_short_600ms.mp4	42.single_slap_with_plastic_whisk_short_horflip_short_600ms.mp4	195.62968895202175	196.2379991654252	0.6083102134034561				
301.43212890625	0.2	617333	151	46	1	0	0	56	286	stimuli\Videos_short_600ms_vertflip\24.single_stroke_top_to_bottom_with_a_spoon_short_vertflip_short_600ms.mp4	24.single_stroke_top_to_bottom_with_a_spoon_short_vertflip_short_600ms.mp4	196.42965475964593	197.0379837407345	0.6083289810885617				
302.232421875	0.2	618972	152	46	1	0	0	57	197	stimuli\Videos_short_600ms_horvertflip\25.single_touch_with_stanley_knife_short_horvertflip_short_600ms.mp4	25.single_touch_with_stanley_knife_short_horvertflip_short_600ms.mp4	197.2296293646232	197.83796567683748	0.6083363122143055				
303.0322265625	0.2	620610	153	46	1	0	0	58	93	stimuli\Videos_short_600ms_horflip\12.repeated_touch_with_nail_file_short_horflip_short_600ms.mp4	12.repeated_touch_with_nail_file_short_horflip_short_600ms.mp4	198.02958402893455	198.63795201161705	0.6083679826824664				
303.83203125	0.2	622248	154	46	1	0	0	59	14	stimuli\Videos_short_600ms\22.single_touch_with_metal_chopstick_short_short_600ms.mp4	22.single_touch_with_metal_chopstick_short_short_600ms.mp4	198.829600274712	199.43793248149632	0.6083322067843255				
304.63232421875	0.2	623887	155	46	1	0	0	60	52	stimuli\Videos_short_600ms\57.single_touch_with_nail_file_short_short_600ms.mp4	57.single_touch_with_nail_file_short_short_600ms.mp4	199.6295543525339	200.23791383110984	0.6083594785759487				
305.43212890625	0.2	625525	156	46	1	0	0	61	116	stimuli\Videos_short_600ms_horflip\33.scratch_top_to_bottom_with_scissors_short_horflip_short_600ms.mp4	33.scratch_top_to_bottom_with_scissors_short_horflip_short_600ms.mp4	200.42958027539865	201.03790163211488	0.6083213567162602				
306.232421875	0.2	627164	157	46	1	0	0	62	68	stimuli\Videos_short_600ms\71.single_stroke_with_finger_top_to_bottom_short_short_600ms.mp4	71.single_stroke_with_finger_top_to_bottom_short_short_600ms.mp4	201.2296727648936	201.8378683194751	0.6081955545814708				
307.0322265625	0.2	628802	158	46	1	0	0	63	352	stimuli\Videos_short_600ms_vertflip\84.single_touch_with_cotton_bud_short_vertflip_short_600ms.mp4	84.single_touch_with_cotton_bud_short_vertflip_short_600ms.mp4	202.02956878019177	202.63787488816345	0.6083061079716572				
307.83203125	0.2	630440	159	46	1	0	0	64	82	stimuli\Videos_short_600ms\84.single_touch_with_cotton_bud_short_short_600ms.mp4	84.single_touch_with_cotton_bud_short_short_600ms.mp4	202.8295257904647	203.4378260335343	0.608300243069607				
308.63232421875	0.2	632079	160	46	1	0	0	65	243	stimuli\Videos_short_600ms_horvertflip\67.single_touch_with_sponge_short_horvertflip_short_600ms.mp4	67.single_touch_with_sponge_short_horvertflip_short_600ms.mp4	203.62951300497843	204.2377883222198	0.6082753172413504				
309.43212890625	0.2	633717	161	46	1	0	0	66	205	stimuli\Videos_short_600ms_horvertflip\32.single_(long)pinch_with_fingers_short_horvertflip_short_600ms.mp4	32.single_(long)pinch_with_fingers_short_horvertflip_short_600ms.mp4	204.429500219494	205.0377972368697	0.6082970173756621				
310.23193359375	0.2	635355	162	46	1	0	0	67	284	stimuli\Videos_short_600ms_vertflip\22.single_touch_with_metal_chopstick_short_vertflip_short_600ms.mp4	22.single_touch_with_metal_chopstick_short_vertflip_short_600ms.mp4	205.22947453122651	205.83778415813867	0.6083096269121597				
311.0322265625	0.2	636994	163	46	1	0	0	68	297	stimuli\Videos_short_600ms_vertflip\34.repeated_punch_with_hand_short_vertflip_short_600ms.mp4	34.repeated_punch_with_hand_short_vertflip_short_600ms.mp4	206.02945998627	206.63778808762257	0.6083281013525266				
311.83203125	0.2	638632	164	46	1	0	0	69	78	stimuli\Videos_short_600ms\80.stroke_with_sharp_stick_all_over_the_hand_short_short_600ms.mp4	80.stroke_with_sharp_stick_all_over_the_hand_short_short_600ms.mp4	206.82944397508984	207.43773307484844	0.6082890997586219				
312.6318359375	0.2	640270	165	46	1	0	0	70	48	stimuli\Videos_short_600ms\53.touch_top_to_bottom_with_knife_short_short_600ms.mp4	53.touch_top_to_bottom_with_knife_short_short_600ms.mp4	207.6294103692053	208.23774961387065	0.6083392446653306				
313.43212890625	0.2	641909	166	46	1	0	0	71	271	stimuli\Videos_short_600ms_vertflip\10.single_touch_with_knife_short_vertflip_short_600ms.mp4	10.single_touch_with_knife_short_vertflip_short_600ms.mp4	208.42940814054236	209.03774503924615	0.6083368987037829				
314.23193359375	0.2	643547	167	46	1	0	0	72	26	stimuli\Videos_short_600ms\33.scratch_top_to_bottom_with_scissors_short_short_600ms.mp4	33.scratch_top_to_bottom_with_scissors_short_short_600ms.mp4	209.2294179349265	209.8377161252829	0.608298190356436				
315.03173828125	0.2	645185	168	46	1	0	0	73	2	stimuli\Videos_short_600ms\11.single_touch_with_lighter_short_short_600ms.mp4	11.single_touch_with_lighter_short_short_600ms.mp4	210.0293875547377	210.6376995276114	0.6083119728737074				
315.83203125	0.2	646824	169	46	1	0	0	74	184	stimuli\Videos_short_600ms_horvertflip\13.single_touch_with_pen_short_horvertflip_short_600ms.mp4	13.single_touch_with_pen_short_horvertflip_short_600ms.mp4	210.8293642124299	211.43768439616545	0.6083201837354864				
316.6318359375	0.2	648462	170	46	1	0	0	75	143	stimuli\Videos_short_600ms_horflip\58.single_slap_with_pencil_short_horflip_short_600ms.mp4	58.single_slap_with_pencil_short_horflip_short_600ms.mp4	211.62932943356464	212.23766633227024	0.6083368987056019				
317.431640625	0.2	650100	171	46	1	0	0	76	160	stimuli\Videos_short_600ms_horflip\73.single_stroke_with_flat_hand_short_horflip_short_600ms.mp4	73.single_stroke_with_flat_hand_short_horflip_short_600ms.mp4	212.4292972939056	213.03765002784348	0.6083527339378634				
318.23193359375	0.2	651739	172	46	1	0	0	77	228	stimuli\Videos_short_600ms_horvertflip\53.touch_top_to_bottom_with_knife_short_horvertflip_short_600ms.mp4	53.touch_top_to_bottom_with_knife_short_horvertflip_short_600ms.mp4	213.22927043265736	213.83763255043775	0.6083621177804162				
319.03173828125	0.2	653377	173	46	1	0	0	78	180	stimuli\Videos_short_600ms_horvertflip\1.repeated_touch_with_finger_fast_short_horvertflip_short_600ms.mp4	1.repeated_touch_with_finger_fast_short_horvertflip_short_600ms.mp4	214.0293954723547	214.63762621634487	0.6082307439901342				
319.83154296875	0.2	655015	174	46	1	0	0	79	43	stimuli\Videos_short_600ms\49.repeated_slap_with_hand_short_short_600ms.mp4	49.repeated_slap_with_hand_short_short_600ms.mp4	214.829319345934	215.43759906185005	0.6082797159160691				
320.6318359375	0.2	656654	175	46	1	0	0	80	97	stimuli\Videos_short_600ms_horflip\16.repeated_touch_with_plastic_brush_short_horflip_short_600ms.mp4	16.repeated_touch_with_plastic_brush_short_horflip_short_600ms.mp4	215.62924732494503	216.23758715609983	0.608339831154808				
321.431640625	0.2	658292	176	46	1	0	0	81	113	stimuli\Videos_short_600ms_horflip\30.finger_pulling_back_another_finger_short_horflip_short_600ms.mp4	30.finger_pulling_back_another_finger_short_horflip_short_600ms.mp4	216.42922750157777	217.03754328663857	0.6083157850607677				
322.2314453125	0.2	659930	177	46	1	0	0	82	198	stimuli\Videos_short_600ms_horvertflip\26.single_touch_with_a_blunt_syringe_short_horvertflip_short_600ms.mp4	26.single_touch_with_a_blunt_syringe_short_horvertflip_short_600ms.mp4	217.2292067984763	217.83751818486053	0.60831138638423				
323.03173828125	0.2	661569	178	46	1	0	0	83	147	stimuli\Videos_short_600ms_horflip\61.single_hit_with_rolling_pin_short_horflip_short_600ms.mp4	61.single_hit_with_rolling_pin_short_horflip_short_600ms.mp4	218.0291875616003	218.6374880979165	0.6083005363161647				
323.83154296875	0.2	663207	179	46	1	0	0	84	74	stimuli\Videos_short_600ms\77.tapping_with_all_fingers_short_short_600ms.mp4	77.tapping_with_all_fingers_short_short_600ms.mp4	218.82919325055445	219.43747120700027	0.6082779564458178				
324.6318359375	0.2	664846	180	46	1	0	0	85	73	stimuli\Videos_short_600ms\76.tickle_with_fingers_from_top_to_bottom_short_short_600ms.mp4	76.tickle_with_fingers_from_top_to_bottom_short_short_600ms.mp4	219.629177532619	220.23749976906947	0.6083222364504763				
325.431640625	0.2	666484	181	46	1	0	1	86	377	stimuli\Targets_short_600ms_horvertflip\hand-stroke_short_vertflip_short_600ms.mp4	hand-stroke_short_vertflip_short_600ms.mp4	220.4291559497815	221.0374644037147	0.6083084539332049				
326.2314453125	0.2	668122	182	46	1	0	0	87	123	stimuli\Videos_short_600ms_horflip\4.repeated_tap_with_finger_slow_short_horflip_short_600ms.mp4	4.repeated_tap_with_finger_slow_short_horflip_short_600ms.mp4	221.22914316429703	221.8374463398177	0.6083031755206321				
327.03173828125	0.2	669761	183	46	1	0	0	88	261	stimuli\Videos_short_600ms_horvertflip\83.single_stroke_top_to_bottom_with_cotton_bud_short_horvertflip_short_600ms.mp4	83.single_stroke_top_to_bottom_with_cotton_bud_short_horvertflip_short_600ms.mp4	222.0291277396063	222.63745906665463	0.6083313270482904				
327.83154296875	0.2	671399	184	46	1	0	0	89	353	stimuli\Videos_short_600ms_vertflip\85.touch_top_to_bottom_with_fabric_short_vertflip_short_600ms.mp4	85.touch_top_to_bottom_with_fabric_short_vertflip_short_600ms.mp4	222.8291123149156	223.4374289797088	0.6083166647931648				
328.63134765625	0.2	673037	185	46	1	0	0	90	209	stimuli\Videos_short_600ms_horvertflip\36.single_slap_with_full_hand_short_horvertflip_short_600ms.mp4	36.single_slap_with_full_hand_short_horvertflip_short_600ms.mp4	223.62909395777388	224.2374179536946	0.6083239959207276				
329.431640625	0.2	674676	186	46	1	0	0	91	110	stimuli\Videos_short_600ms_horflip\28.single_injection_with_sharp_needle_short_horflip_short_600ms.mp4	28.single_injection_with_sharp_needle_short_horflip_short_600ms.mp4	224.42914480646868	225.03739607761236	0.6082512711436721	2.0	2.0	1.724792140563295	1.0
362.1884765625	0.2	741762	187	46	2	0	0	0	10	stimuli\Videos_short_600ms\19.single_touch_with_rolling_pin_short_short_600ms.mp4	19.single_touch_with_rolling_pin_short_short_600ms.mp4	257.1870771589365	257.79503049308914	0.6079533341526258				
362.98876953125	0.2	743401	188	46	2	0	0	1	238	stimuli\Videos_short_600ms_horvertflip\62.touch_top_to_bottom_with_scissors_short_horvertflip_short_600ms.mp4	62.touch_top_to_bottom_with_scissors_short_horvertflip_short_600ms.mp4	257.9868670195192	258.595041460454	0.6081744409348175				
363.78857421875	0.2	745039	189	46	2	0	0	2	121	stimuli\Videos_short_600ms_horflip\38.double_slap_with_pencil_short_horflip_short_600ms.mp4	38.double_slap_with_pencil_short_horflip_short_600ms.mp4	258.7866835654022	259.395021343842	0.6083377784398181				
364.5888671875	0.2	746678	190	46	2	0	0	3	232	stimuli\Videos_short_600ms_horvertflip\57.single_touch_with_nail_file_short_horvertflip_short_600ms.mp4	57.single_touch_with_nail_file_short_horvertflip_short_600ms.mp4	259.58665963660496	260.1950018137213	0.6083421771163557				
365.388671875	0.2	748316	191	46	2	0	0	4	199	stimuli\Videos_short_600ms_horvertflip\27.single_push_with_a_plastic_whisk_short_horvertflip_short_600ms.mp4	27.single_push_with_a_plastic_whisk_short_horvertflip_short_600ms.mp4	260.38665946065885	260.9949852160498	0.6083257553909789				
366.1884765625	0.2	749954	192	46	2	0	0	5	107	stimuli\Videos_short_600ms_horflip\25.single_touch_with_stanley_knife_short_horflip_short_600ms.mp4	25.single_touch_with_stanley_knife_short_horflip_short_600ms.mp4	261.18665195358335	261.79496656566334	0.6083146120799938				
366.98876953125	0.2	751593	193	46	2	0	0	6	161	stimuli\Videos_short_600ms_horflip\74.fingers_walking_from_top_to_bottom_short_horflip_short_600ms.mp4	74.fingers_walking_from_top_to_bottom_short_horflip_short_600ms.mp4	261.9866083773668	262.59495143421736	0.6083430568505719				
367.78857421875	0.2	753231	194	46	2	0	0	7	38	stimuli\Videos_short_600ms\44.pushing_top_to_bottom_with_finger_short_short_600ms.mp4	44.pushing_top_to_bottom_with_finger_short_short_600ms.mp4	262.7865703728057	263.3949348365477	0.6083644637419638				
368.58837890625	0.2	754869	195	46	2	0	0	8	102	stimuli\Videos_short_600ms_horflip\20.single_touch_with_screwdriver_short_horflip_short_600ms.mp4	20.single_touch_with_screwdriver_short_horflip_short_600ms.mp4	263.5865707833491	264.1949188253657	0.608348042016587				
369.388671875	0.2	756508	196	46	2	0	0	9	179	stimuli\Videos_short_600ms_horflip\90.repeated_touch_with_sponge_short_horflip_short_600ms.mp4	90.repeated_touch_with_sponge_short_horflip_short_600ms.mp4	264.38662896317146	264.9949010547152	0.6082720915437676				
370.1884765625	0.2	758146	197	46	2	0	0	10	129	stimuli\Videos_short_600ms_horflip\45.scratching_with_finger_nails_short_horflip_short_600ms.mp4	45.scratching_with_finger_nails_short_horflip_short_600ms.mp4	265.1865235122441	265.79488445704374	0.6083609447996423				
370.98828125	0.2	759784	198	46	2	0	0	11	28	stimuli\Videos_short_600ms\35.single_punch_with_hand_short_short_600ms.mp4	35.single_punch_with_hand_short_short_600ms.mp4	265.9865042753663	266.59486785937224	0.6083635840059287				
371.78857421875	0.2	761423	199	46	2	0	0	12	255	stimuli\Videos_short_600ms_horvertflip\78.single_stroke_top_to_bottom_with_soft_brush_short_horvertflip_short_600ms.mp4	78.single_stroke_top_to_bottom_with_soft_brush_short_horvertflip_short_600ms.mp4	266.7865126035267	267.39485888607305	0.6083462825463357				
372.58837890625	0.2	763061	200	46	2	0	0	13	309	stimuli\Videos_short_600ms_vertflip\45.scratching_with_finger_nails_short_vertflip_short_600ms.mp4	45.scratching_with_finger_nails_short_vertflip_short_600ms.mp4	267.5864722530041	268.1948132571415	0.6083410041374009				
373.38818359375	0.2	764699	201	46	2	0	0	14	0	stimuli\Videos_short_600ms\1.repeated_touch_with_finger_fast_short_short_600ms.mp4	1.repeated_touch_with_finger_fast_short_short_600ms.mp4	268.3864999353391	268.99481865284906	0.6083187175099738				
374.1884765625	0.2	766338	202	46	2	0	0	15	130	stimuli\Videos_short_600ms_horflip\46.scratching_top_to_bottom_with_finger_nails_short_horflip_short_600ms.mp4	46.scratching_top_to_bottom_with_finger_nails_short_horflip_short_600ms.mp4	269.1864848038931	269.7947797685538	0.6082949646606721				
374.98828125	0.2	767976	203	46	2	0	0	16	91	stimuli\Videos_short_600ms_horflip\10.single_touch_with_knife_short_horflip_short_600ms.mp4	10.single_touch_with_knife_short_horflip_short_600ms.mp4	269.98645794264485	270.594758478961	0.6083005363161647				
375.7880859375	0.2	769614	204	46	2	0	0	17	242	stimuli\Videos_short_600ms_horvertflip\66.stroke_top_to_bottom_with_sponge_short_horvertflip_short_600ms.mp4	66.stroke_top_to_bottom_with_sponge_short_horvertflip_short_600ms.mp4	270.78654192803333	271.39476504765116	0.6082231196178327				
376.58837890625	0.2	771253	205	46	2	0	1	18	361	stimuli\Targets_short_600ms\chopstick-silver-tap_short_short_600ms.mp4	chopstick-silver-tap_short_short_600ms.mp4	271.5864640421423	272.1947285093156	0.6082644671732851				
377.38818359375	0.2	772891	206	46	2	0	0	19	136	stimuli\Videos_short_600ms_horflip\51.repeated_touch_with_hammer_short_horflip_short_600ms.mp4	51.repeated_touch_with_hammer_short_horflip_short_600ms.mp4	272.38641342804476	272.9947160170759	0.6083025890311546				
378.18798828125	0.2	774529	207	46	2	0	0	20	319	stimuli\Videos_short_600ms_vertflip\54.repeated_touch_with_knife_short_vertflip_short_600ms.mp4	54.repeated_touch_with_knife_short_vertflip_short_600ms.mp4	273.1867258513412	273.79472669119605	0.6080008398548671				
378.98828125	0.2	776168	208	46	2	0	0	21	331	stimuli\Videos_short_600ms_vertflip\65.stroke_top_to_bottom_with_stanley_knife_short_vertflip_short_600ms.mp4	65.stroke_top_to_bottom_with_stanley_knife_short_vertflip_short_600ms.mp4	273.98635354739963	274.5947074543201	0.6083539069204562				
379.7880859375	0.2	777806	209	46	2	0	0	22	335	stimuli\Videos_short_600ms_vertflip\69.stroke_with_soft_sock_short_vertflip_short_600ms.mp4	69.stroke_with_soft_sock_short_vertflip_short_600ms.mp4	274.78636246205133	275.39468440525707	0.6083219432057376				
380.587890625	0.2	779444	210	46	2	0	0	23	98	stimuli\Videos_short_600ms_horflip\17.repeated_touch_with_rolling_pin_short_horflip_short_600ms.mp4	17.repeated_touch_with_rolling_pin_short_horflip_short_600ms.mp4	275.58634821033957	276.1946642886451	0.6083160783055064				
381.38818359375	0.2	781083	211	46	2	0	0	24	189	stimuli\Videos_short_600ms_horvertflip\18.single_stroke_from_top_to_bottom_with_rolling_pin_short_horvertflip_short_600ms.mp4	18.single_stroke_from_top_to_bottom_with_rolling_pin_short_horvertflip_short_600ms.mp4	276.3863295599531	276.9946485707096	0.6083190107565315				
382.18798828125	0.2	782721	212	46	2	0	0	25	177	stimuli\Videos_short_600ms_horflip\89.single_touch_with_plastic_brush_short_horflip_short_600ms.mp4	89.single_touch_with_plastic_brush_short_horflip_short_600ms.mp4	277.1863079771174	277.7946442893317	0.6083363122143055				
382.98779296875	0.2	784359	213	46	2	0	0	26	224	stimuli\Videos_short_600ms_horvertflip\5.repeated_tap_with_finger_moving_from_top_to_bottom_short_horvertflip_short_600ms.mp4	5.repeated_tap_with_finger_moving_from_top_to_bottom_short_horvertflip_short_600ms.mp4	277.9862814091139	278.5946159618579	0.6083345527440542				
383.7880859375	0.2	785998	214	46	2	0	0	27	218	stimuli\Videos_short_600ms_horvertflip\44.pushing_top_to_bottom_with_finger_short_horvertflip_short_600ms.mp4	44.pushing_top_to_bottom_with_finger_short_horvertflip_short_600ms.mp4	278.7862768344894	279.39459819120566	0.6083213567162602				
384.587890625	0.2	787636	215	46	2	0	0	28	146	stimuli\Videos_short_600ms_horflip\60.single_push_with_tip_of_pencil_short_horflip_short_600ms.mp4	60.single_push_with_tip_of_pencil_short_horflip_short_600ms.mp4	279.58621800952824	280.19458276651494	0.6083647569867026				
385.38818359375	0.2	789275	216	46	2	0	0	29	9	stimuli\Videos_short_600ms\18.single_stroke_from_top_to_bottom_with_rolling_pin_short_short_600ms.mp4	18.single_stroke_from_top_to_bottom_with_rolling_pin_short_short_600ms.mp4	280.3862128484161	280.9945649958645	0.608352147448386				
386.18798828125	0.2	790913	217	46	2	0	1	30	366	stimuli\Targets_short_600ms_horflip\brush-stroke_short_horflip_short_600ms.mp4	brush-stroke_short_horflip_short_600ms.mp4	281.18621736438945	281.7945472252122	0.6083298608227778				
386.98779296875	0.2	792551	218	46	2	0	0	31	226	stimuli\Videos_short_600ms_horvertflip\51.repeated_touch_with_hammer_short_horvertflip_short_600ms.mp4	51.repeated_touch_with_hammer_short_horvertflip_short_600ms.mp4	281.98618757069016	282.5945318005215	0.6083442298313457				
387.7880859375	0.2	794190	219	46	2	0	0	32	118	stimuli\Videos_short_600ms_horflip\35.single_punch_with_hand_short_horflip_short_600ms.mp4	35.single_punch_with_hand_short_horflip_short_600ms.mp4	282.78618944745904	283.3945178420563	0.6083283945972653				
388.587890625	0.2	795828	220	46	2	0	0	33	105	stimuli\Videos_short_600ms_horflip\23.single_push_with_a_spoon_short_horflip_short_600ms.mp4	23.single_push_with_a_spoon_short_horflip_short_600ms.mp4	283.5861716768086	284.1945030038569	0.6083313270482904				
389.3876953125	0.2	797466	221	46	2	0	0	34	51	stimuli\Videos_short_600ms\56.repeated_touch_with_nail_file_short_short_600ms.mp4	56.repeated_touch_with_nail_file_short_short_600ms.mp4	284.3861454020498	284.99447233042156	0.6083269283717527				
390.18798828125	0.2	799105	222	46	2	0	0	35	290	stimuli\Videos_short_600ms_vertflip\28.single_injection_with_sharp_needle_short_vertflip_short_600ms.mp4	28.single_injection_with_sharp_needle_short_vertflip_short_600ms.mp4	285.1862059278319	285.79444019076254	0.6082342629306368				
390.98779296875	0.2	800743	223	46	2	0	0	36	304	stimuli\Videos_short_600ms_vertflip\40.repeated_push_with_finger_short_vertflip_short_600ms.mp4	40.repeated_push_with_finger_short_vertflip_short_600ms.mp4	285.9862303844711	286.59442505931656	0.6081946748454357				
391.78759765625	0.2	802381	224	46	2	0	0	37	212	stimuli\Videos_short_600ms_horvertflip\39.single_stab_with_scissors_short_horvertflip_short_600ms.mp4	39.single_stab_with_scissors_short_horvertflip_short_600ms.mp4	286.7861079253289	287.39441168734083	0.6083037620119285				
392.587890625	0.2	804020	225	46	2	0	0	38	18	stimuli\Videos_short_600ms\26.single_touch_with_a_blunt_syringe_short_short_600ms.mp4	26.single_touch_with_a_blunt_syringe_short_short_600ms.mp4	287.5861376603789	288.19439802212037	0.6082603617414861				
393.3876953125	0.2	805658	226	46	2	0	0	39	296	stimuli\Videos_short_600ms_vertflip\33.scratch_top_to_bottom_with_scissors_short_vertflip_short_600ms.mp4	33.scratch_top_to_bottom_with_scissors_short_vertflip_short_600ms.mp4	288.3860791286643	288.9943893420659	0.6083102134016372				
394.1875	0.2	807296	227	46	2	0	0	40	313	stimuli\Videos_short_600ms_vertflip\49.repeated_slap_with_hand_short_vertflip_short_600ms.mp4	49.repeated_slap_with_hand_short_vertflip_short_600ms.mp4	289.1860798324524	289.7943627740642	0.6082829416118329				
394.98779296875	0.2	808935	228	46	2	0	0	41	33	stimuli\Videos_short_600ms\4.repeated_tap_with_finger_slow_short_short_600ms.mp4	4.repeated_tap_with_finger_slow_short_short_600ms.mp4	289.9860632347809	290.5943731549396	0.6083099201587174				
395.78759765625	0.2	810573	229	46	2	0	0	42	346	stimuli\Videos_short_600ms_vertflip\79.long_with_soft_brush_all_over_the_hand_short_vertflip_short_600ms.mp4	79.long_with_soft_brush_all_over_the_hand_short_vertflip_short_600ms.mp4	290.7860029435942	291.39433339090647	0.6083304473122553				
396.58740234375	0.2	812211	230	46	2	0	0	43	135	stimuli\Videos_short_600ms_horflip\50.single_(long)hard_push_with_thumb_short_horflip_short_600ms.mp4	50.single_(long)hard_push_with_thumb_short_horflip_short_600ms.mp4	291.5860147906951	292.19432969601985	0.6083149053247325				
397.3876953125	0.2	813850	231	46	2	0	0	44	317	stimuli\Videos_short_600ms_vertflip\52.touch_top_to_bottom_with_hammer_short_vertflip_short_600ms.mp4	52.touch_top_to_bottom_with_hammer_short_vertflip_short_600ms.mp4	292.38599555381916	292.99431368483783	0.6083181310186774				
398.1875	0.2	815488	232	46	2	0	0	45	62	stimuli\Videos_short_600ms\66.stroke_top_to_bottom_with_sponge_short_short_600ms.mp4	66.stroke_top_to_bottom_with_sponge_short_short_600ms.mp4	293.1859563762773	293.79429767365764	0.6083412973803206				
398.9873046875	0.2	817126	233	46	2	0	0	46	47	stimuli\Videos_short_600ms\52.touch_top_to_bottom_with_hammer_short_short_600ms.mp4	52.touch_top_to_bottom_with_hammer_short_short_600ms.mp4	293.985919544697	294.5942869408882	0.60836739619117				
399.78759765625	0.2	818765	234	46	2	0	0	47	35	stimuli\Videos_short_600ms\41.injection_with_blunt_syringe_short_short_600ms.mp4	41.injection_with_blunt_syringe_short_short_600ms.mp4	294.7859047064958	295.3942668242762	0.6083621177804162				
400.58740234375	0.2	820403	235	46	2	0	0	48	211	stimuli\Videos_short_600ms_horvertflip\38.double_slap_with_pencil_short_horvertflip_short_600ms.mp4	38.double_slap_with_pencil_short_horvertflip_short_600ms.mp4	295.58588517637327	296.19424582793	0.6083606515567226				
401.38720703125	0.2	822041	236	46	2	0	0	49	76	stimuli\Videos_short_600ms\79.long_with_soft_brush_all_over_the_hand_short_short_600ms.mp4	79.long_with_soft_brush_all_over_the_hand_short_short_600ms.mp4	296.38593925076566	296.9942333356885	0.608294084922818				
402.1875	0.2	823680	237	46	2	0	0	50	84	stimuli\Videos_short_600ms\86.touch_top_to_bottom_with_hair_brush_short_short_600ms.mp4	86.touch_top_to_bottom_with_hair_brush_short_short_600ms.mp4	297.18585168778736	297.79420794066573	0.6083562528783659				
402.9873046875	0.2	825318	238	46	2	0	0	51	345	stimuli\Videos_short_600ms_vertflip\78.single_stroke_top_to_bottom_with_soft_brush_short_vertflip_short_600ms.mp4	78.single_stroke_top_to_bottom_with_soft_brush_short_vertflip_short_600ms.mp4	297.98583421037983	298.5942092309451	0.6083750205652905				
403.78759765625	0.2	826957	239	46	2	0	0	52	55	stimuli\Videos_short_600ms\6.single_touch_with_flat_hand_short_short_600ms.mp4	6.single_touch_with_flat_hand_short_short_600ms.mp4	298.7858442980105	299.3941791440011	0.6083348459906119				
404.58740234375	0.2	828595	240	46	2	0	0	53	23	stimuli\Videos_short_600ms\30.finger_pulling_back_another_finger_short_short_600ms.mp4	30.finger_pulling_back_another_finger_short_short_600ms.mp4	299.58585321266037	300.194144365134	0.6082911524736119				
405.38720703125	0.2	830233	241	46	2	0	0	54	120	stimuli\Videos_short_600ms_horflip\37.single_stab_with_nail_file_short_horflip_short_600ms.mp4	37.single_stab_with_nail_file_short_horflip_short_600ms.mp4	300.3858304568439	300.9941277674643	0.6082973106204008				
406.1875	0.2	831872	242	46	2	0	0	55	108	stimuli\Videos_short_600ms_horflip\26.single_touch_with_a_blunt_syringe_short_horflip_short_600ms.mp4	26.single_touch_with_a_blunt_syringe_short_horflip_short_600ms.mp4	301.1858757338832	301.7941108765481	0.6082351426648529				
406.9873046875	0.2	833510	243	46	2	0	0	56	145	stimuli\Videos_short_600ms_horflip\6.single_touch_with_flat_hand_short_horflip_short_600ms.mp4	6.single_touch_with_flat_hand_short_horflip_short_600ms.mp4	301.9857685234856	302.59409046669134	0.6083219432057376				
407.787109375	0.2	835148	244	46	2	0	0	57	1	stimuli\Videos_short_600ms\10.single_touch_with_knife_short_short_600ms.mp4	10.single_touch_with_knife_short_short_600ms.mp4	302.78577597190997	303.39407533524536	0.6082993633353908				
408.58740234375	0.2	836787	245	46	2	0	0	58	330	stimuli\Videos_short_600ms_vertflip\64.repeated_touch_with_screwdriver_short_vertflip_short_600ms.mp4	64.repeated_touch_with_screwdriver_short_vertflip_short_600ms.mp4	303.5858617167687	304.1940607902907	0.6081990735219733				
409.38720703125	0.2	838425	246	46	2	0	0	59	178	stimuli\Videos_short_600ms_horflip\9.single_touch_with_hammer_short_horflip_short_600ms.mp4	9.single_touch_with_hammer_short_horflip_short_600ms.mp4	304.385742776567	304.99408495368334	0.6083421771163557				
410.18701171875	0.2	840063	247	46	2	0	0	60	285	stimuli\Videos_short_600ms_vertflip\23.single_push_with_a_spoon_short_vertflip_short_600ms.mp4	23.single_push_with_a_spoon_short_vertflip_short_600ms.mp4	305.18571122339745	305.7940484153478	0.6083371919503406				
410.9873046875	0.2	841702	248	46	2	0	0	61	165	stimuli\Videos_short_600ms_horflip\78.single_stroke_top_to_bottom_with_soft_brush_short_horflip_short_600ms.mp4	78.single_stroke_top_to_bottom_with_soft_brush_short_horflip_short_600ms.mp4	305.9856849486405	306.59404061502937	0.6083556663888885				
411.787109375	0.2	843340	249	46	2	0	1	62	382	stimuli\Targets_short_600ms_vertflip\hand-pinch_short_horvertflip_short_600ms.mp4	hand-pinch_short_horvertflip_short_600ms.mp4	306.7856748023605	307.39401140781956	0.6083366054590442				
412.5869140625	0.2	844978	250	46	2	0	0	63	95	stimuli\Videos_short_600ms_horflip\14.repeated_touch_with_pencil_short_horflip_short_600ms.mp4	14.repeated_touch_with_pencil_short_horflip_short_600ms.mp4	307.58630686278593	308.19399393041385	0.6076870676279214				
413.38720703125	0.2	846617	251	46	2	0	0	64	241	stimuli\Videos_short_600ms_horvertflip\65.stroke_top_to_bottom_with_stanley_knife_short_horvertflip_short_600ms.mp4	65.stroke_top_to_bottom_with_stanley_knife_short_horvertflip_short_600ms.mp4	308.38594687513614	308.99397938545735	0.608032510321209				
414.18701171875	0.2	848255	252	46	2	0	0	65	289	stimuli\Videos_short_600ms_vertflip\27.single_push_with_a_plastic_whisk_short_vertflip_short_600ms.mp4	27.single_push_with_a_plastic_whisk_short_vertflip_short_600ms.mp4	309.1856689961078	309.79396454725793	0.6082955511501495				
414.98681640625	0.2	849893	253	46	2	0	0	66	16	stimuli\Videos_short_600ms\24.single_stroke_top_to_bottom_with_a_spoon_short_short_600ms.mp4	24.single_stroke_top_to_bottom_with_a_spoon_short_short_600ms.mp4	309.98558612505076	310.59394794958644	0.6083618245356774				
415.787109375	0.2	851532	254	46	2	0	0	67	276	stimuli\Videos_short_600ms_vertflip\15.single_stroke_top_to_bottom_with_a_plastic_whisk_short_vertflip_short_600ms.mp4	15.single_stroke_top_to_bottom_with_a_plastic_whisk_short_vertflip_short_600ms.mp4	310.7855997316219	311.39392841946574	0.608328687843823				
416.5869140625	0.2	853170	255	46	2	0	0	68	122	stimuli\Videos_short_600ms_horflip\39.single_stab_with_scissors_short_horflip_short_600ms.mp4	39.single_stab_with_scissors_short_horflip_short_600ms.mp4	311.5855699379226	312.19390918258796	0.6083392446653306				
417.38671875	0.2	854808	256	46	2	0	0	69	77	stimuli\Videos_short_600ms\8.single_touch_with_hairbrush_short_short_600ms.mp4	8.single_touch_with_hairbrush_short_short_600ms.mp4	312.385522549519	312.99390138226954	0.6083788327505317				
418.18701171875	0.2	856447	257	46	2	0	0	70	100	stimuli\Videos_short_600ms_horflip\19.single_touch_with_rolling_pin_short_horflip_short_600ms.mp4	19.single_touch_with_rolling_pin_short_horflip_short_600ms.mp4	313.1855238397984	313.7938780399618	0.6083542001633759				
418.98681640625	0.2	858085	258	46	2	0	0	71	318	stimuli\Videos_short_600ms_vertflip\53.touch_top_to_bottom_with_knife_short_vertflip_short_600ms.mp4	53.touch_top_to_bottom_with_knife_short_vertflip_short_600ms.mp4	313.98552278411626	314.59386613421157	0.6083433500953106				
419.78662109375	0.2	859723	259	46	2	0	0	72	324	stimuli\Videos_short_600ms_vertflip\59.single_push_with_long_side_pencil_short_vertflip_short_600ms.mp4	59.single_push_with_long_side_pencil_short_vertflip_short_600ms.mp4	314.78552348790436	315.3938155201122	0.608292032207828				
420.5869140625	0.2	861362	260	46	2	0	0	73	291	stimuli\Videos_short_600ms_vertflip\29.single_pinch_with_tweezers_short_vertflip_short_600ms.mp4	29.single_pinch_with_tweezers_short_vertflip_short_600ms.mp4	315.5854840171178	316.19380537383404	0.6083213567162602				
421.38671875	0.2	863000	261	46	2	0	0	74	252	stimuli\Videos_short_600ms_horvertflip\75.(long)stroke_with_fingers_all_over_the_hand_short_horvertflip_short_600ms.mp4	75.(long)stroke_with_fingers_all_over_the_hand_short_horvertflip_short_600ms.mp4	316.38554571588065	316.99378672344756	0.6082410075669031				
422.1865234375	0.2	864638	262	46	2	0	0	75	350	stimuli\Videos_short_600ms_vertflip\82.repeated_touch_with_cotton_bud_short_vertflip_short_600ms.mp4	82.repeated_touch_with_cotton_bud_short_vertflip_short_600ms.mp4	317.1854569799216	317.79377481769734	0.6083178377757577				
422.98681640625	0.2	866277	263	46	2	0	0	76	30	stimuli\Videos_short_600ms\37.single_stab_with_nail_file_short_short_600ms.mp4	37.single_stab_with_nail_file_short_short_600ms.mp4	317.98544976609264	318.5937588065153	0.6083090404226823				
423.78662109375	0.2	867915	264	46	2	0	0	77	90	stimuli\Videos_short_600ms_horflip\1.repeated_touch_with_finger_fast_short_horflip_short_600ms.mp4	1.repeated_touch_with_finger_fast_short_horflip_short_600ms.mp4	318.78544343199974	319.39374924672666	0.6083058147269185				
424.5869140625	0.2	869554	265	46	2	0	0	78	109	stimuli\Videos_short_600ms_horflip\27.single_push_with_a_plastic_whisk_short_horflip_short_600ms.mp4	27.single_push_with_a_plastic_whisk_short_horflip_short_600ms.mp4	319.5854007355174	320.19375346945526	0.6083527339378634				
425.38671875	0.2	871192	266	46	2	0	0	79	94	stimuli\Videos_short_600ms_horflip\13.single_touch_with_pen_short_horflip_short_600ms.mp4	13.single_touch_with_pen_short_horflip_short_600ms.mp4	320.38538501758194	320.9937362852943	0.6083512677123508				
426.1865234375	0.2	872830	267	46	2	0	0	80	207	stimuli\Videos_short_600ms_horvertflip\34.repeated_punch_with_hand_short_horvertflip_short_600ms.mp4	34.repeated_punch_with_hand_short_horvertflip_short_600ms.mp4	321.18537457805724	321.7937152889481	0.6083407108908432				
426.98681640625	0.2	874469	268	46	2	0	0	81	86	stimuli\Videos_short_600ms\88.repeated_stroke_with_plastic_brush_short_short_600ms.mp4	88.repeated_stroke_with_plastic_brush_short_short_600ms.mp4	321.9853744021093	322.5936916533956	0.6083172512862802				
427.78662109375	0.2	876107	269	46	2	0	0	82	50	stimuli\Videos_short_600ms\55.touch_top_to_bottom_with_nail_file_short_short_600ms.mp4	55.touch_top_to_bottom_with_nail_file_short_short_600ms.mp4	322.78538038431	323.3936815071156	0.6083011228056421				
428.58642578125	0.2	877745	270	46	2	0	0	83	239	stimuli\Videos_short_600ms_horvertflip\63.stroke_top_to_bottom_with_screwdriver_short_horvertflip_short_600ms.mp4	63.stroke_top_to_bottom_with_screwdriver_short_horvertflip_short_600ms.mp4	323.5853728772363	324.1936590445439	0.6082861673075968				
429.38671875	0.2	879384	271	46	2	0	0	84	151	stimuli\Videos_short_600ms_horflip\65.stroke_top_to_bottom_with_stanley_knife_short_horflip_short_600ms.mp4	65.stroke_top_to_bottom_with_stanley_knife_short_horflip_short_600ms.mp4	324.3853096535986	324.9936418603829	0.6083322067843255				
430.1865234375	0.2	881022	272	46	2	0	0	85	58	stimuli\Videos_short_600ms\62.touch_top_to_bottom_with_scissors_short_short_600ms.mp4	62.touch_top_to_bottom_with_scissors_short_short_600ms.mp4	325.1857478790316	325.79362672893694	0.6078788499053189				
430.986328125	0.2	882660	273	46	2	0	0	86	253	stimuli\Videos_short_600ms_horvertflip\76.tickle_with_fingers_from_top_to_bottom_short_horvertflip_short_600ms.mp4	76.tickle_with_fingers_from_top_to_bottom_short_horvertflip_short_600ms.mp4	325.9856887608257	326.59362127457825	0.6079325137525302				
431.78662109375	0.2	884299	274	46	2	0	0	87	194	stimuli\Videos_short_600ms_horvertflip\22.single_touch_with_metal_chopstick_short_horvertflip_short_600ms.mp4	22.single_touch_with_metal_chopstick_short_horvertflip_short_600ms.mp4	326.7852616200562	327.39359148087897	0.6083298608227778				
432.58642578125	0.2	885937	275	46	2	0	0	88	46	stimuli\Videos_short_600ms\51.repeated_touch_with_hammer_short_short_600ms.mp4	51.repeated_touch_with_hammer_short_short_600ms.mp4	327.5857760892086	328.1935766426777	0.6078005534691329				
433.38623046875	0.2	887575	276	46	2	0	0	89	53	stimuli\Videos_short_600ms\58.single_slap_with_pencil_short_short_600ms.mp4	58.single_slap_with_pencil_short_short_600ms.mp4	328.385227544979	328.9935603382528	0.608332793273803				
434.1865234375	0.2	889214	277	46	2	0	0	90	356	stimuli\Videos_short_600ms_vertflip\88.repeated_stroke_with_plastic_brush_short_vertflip_short_600ms.mp4	88.repeated_stroke_with_plastic_brush_short_vertflip_short_600ms.mp4	329.1852059621415	329.7935431540918	0.6083371919503406				
434.986328125	0.2	890852	278	46	2	0	0	91	133	stimuli\Videos_short_600ms_horflip\49.repeated_slap_with_hand_short_horflip_short_600ms.mp4	49.repeated_slap_with_hand_short_horflip_short_600ms.mp4	329.9852116510956	330.5935286091353	0.6083169580397225				
435.7861328125	0.2	892490	279	46	2	0	0	92	240	stimuli\Videos_short_600ms_horvertflip\64.repeated_touch_with_screwdriver_short_horvertflip_short_600ms.mp4	64.repeated_touch_with_screwdriver_short_horvertflip_short_600ms.mp4	330.78518977501335	331.39348767212323	0.6082978971098782	3.0	2.0	2.1032644920978782	0.0
469.79345703125	0.2	962137	280	46	3	0	0	0	208	stimuli\Videos_short_600ms_horvertflip\35.single_punch_with_hand_short_horvertflip_short_600ms.mp4	35.single_punch_with_hand_short_horvertflip_short_600ms.mp4	364.79287660804584	365.40111761561275	0.6082410075669031				
470.59375	0.2	963776	281	46	3	0	0	1	185	stimuli\Videos_short_600ms_horvertflip\14.repeated_touch_with_pencil_short_horvertflip_short_600ms.mp4	14.repeated_touch_with_pencil_short_horvertflip_short_600ms.mp4	365.5929286297214	366.2011256505284	0.6081970208069833				
471.3935546875	0.2	965414	282	46	3	0	0	2	128	stimuli\Videos_short_600ms_horflip\44.pushing_top_to_bottom_with_finger_short_horflip_short_600ms.mp4	44.pushing_top_to_bottom_with_finger_short_horflip_short_600ms.mp4	366.3930307963037	367.001072103978	0.6080413076742843				
472.193359375	0.2	967052	283	46	3	0	0	3	308	stimuli\Videos_short_600ms_vertflip\44.pushing_top_to_bottom_with_finger_short_vertflip_short_600ms.mp4	44.pushing_top_to_bottom_with_finger_short_vertflip_short_600ms.mp4	367.1928089270841	367.80102647504464	0.6082175479605212				
472.99365234375	0.2	968691	284	46	3	0	0	4	270	stimuli\Videos_short_600ms_vertflip\1.repeated_touch_with_finger_fast_short_vertflip_short_600ms.mp4	1.repeated_touch_with_finger_fast_short_vertflip_short_600ms.mp4	367.9927325074186	368.60103568293925	0.6083031755206321				
473.79345703125	0.2	970329	285	46	3	0	0	5	227	stimuli\Videos_short_600ms_horvertflip\52.touch_top_to_bottom_with_hammer_short_horvertflip_short_600ms.mp4	52.touch_top_to_bottom_with_hammer_short_horvertflip_short_600ms.mp4	368.7927156165024	369.40102436368034	0.6083087471779436				
474.59326171875	0.2	971967	286	46	3	0	0	6	203	stimuli\Videos_short_600ms_horvertflip\30.finger_pulling_back_another_finger_short_horvertflip_short_600ms.mp4	30.finger_pulling_back_another_finger_short_horvertflip_short_600ms.mp4	369.5927025377732	370.2010051268044	0.6083025890311546				
475.3935546875	0.2	973606	287	46	3	0	1	7	380	stimuli\Targets_short_600ms_vertflip\chopstickwood-tap_short_horvertflip_short_600ms.mp4	chopstickwood-tap_short_horvertflip_short_600ms.mp4	370.3926879928167	371.0010075900627	0.6083195972460089				
476.193359375	0.2	975244	288	46	3	0	0	8	256	stimuli\Videos_short_600ms_horvertflip\79.long_with_soft_brush_all_over_the_hand_short_horvertflip_short_600ms.mp4	79.long_with_soft_brush_all_over_the_hand_short_horvertflip_short_600ms.mp4	371.1926661167345	371.80098893967624	0.6083228229417728				
476.9931640625	0.2	976882	289	46	3	0	0	9	214	stimuli\Videos_short_600ms_horvertflip\40.repeated_push_with_finger_short_horvertflip_short_600ms.mp4	40.repeated_push_with_finger_short_horvertflip_short_600ms.mp4	371.99264805283747	372.60096970279847	0.6083216499609989				
477.79345703125	0.2	978521	290	46	3	0	0	10	92	stimuli\Videos_short_600ms_horflip\11.single_touch_with_lighter_short_horflip_short_600ms.mp4	11.single_touch_with_lighter_short_horflip_short_600ms.mp4	372.7926314551678	373.4009507591672	0.6083193039994512				
478.59326171875	0.2	980159	291	46	3	0	0	11	124	stimuli\Videos_short_600ms_horflip\40.repeated_push_with_finger_short_horflip_short_600ms.mp4	40.repeated_push_with_finger_short_horflip_short_600ms.mp4	373.5925711639811	374.20093621421256	0.6083650502314413				
479.39306640625	0.2	981797	292	46	3	0	0	12	154	stimuli\Videos_short_600ms_horflip\68.stroke_top_to_bottom_with_shawl_short_horflip_short_600ms.mp4	68.stroke_top_to_bottom_with_shawl_short_horflip_short_600ms.mp4	374.39259796658007	375.0009178570708	0.6083198904907476				
480.193359375	0.2	983436	293	46	3	0	0	13	246	stimuli\Videos_short_600ms_horvertflip\7.repeated_touch_with_hairbrush_short_horvertflip_short_600ms.mp4	7.repeated_touch_with_hairbrush_short_horvertflip_short_600ms.mp4	375.19255468360825	375.80090213913536	0.6083474555271096				
480.9931640625	0.2	985074	294	46	3	0	0	14	175	stimuli\Videos_short_600ms_horflip\87.single_stroke_top_to_bottom_with_plastic_brush_short_horflip_short_600ms.mp4	87.single_stroke_top_to_bottom_with_plastic_brush_short_horflip_short_600ms.mp4	375.99252958183024	376.6008846617297	0.6083550798994111				
481.79296875	0.2	986712	295	46	3	0	0	15	148	stimuli\Videos_short_600ms_horflip\62.touch_top_to_bottom_with_scissors_short_horflip_short_600ms.mp4	62.touch_top_to_bottom_with_scissors_short_horflip_short_600ms.mp4	376.7926557945084	377.4008677708134	0.6082119763050287				
482.59326171875	0.2	988351	296	46	3	0	0	16	186	stimuli\Videos_short_600ms_horvertflip\15.single_stroke_top_to_bottom_with_a_plastic_whisk_short_horvertflip_short_600ms.mp4	15.single_stroke_top_to_bottom_with_a_plastic_whisk_short_horvertflip_short_600ms.mp4	377.5924881756255	378.2008488271804	0.6083606515549036				
483.39306640625	0.2	989989	297	46	3	0	0	17	81	stimuli\Videos_short_600ms\83.single_stroke_top_to_bottom_with_cotton_bud_short_short_600ms.mp4	83.single_stroke_top_to_bottom_with_cotton_bud_short_short_600ms.mp4	378.3924777361008	379.0008345754704	0.6083568393696623				
484.19287109375	0.2	991627	298	46	3	0	0	18	258	stimuli\Videos_short_600ms_horvertflip\80.stroke_with_sharp_stick_all_over_the_hand_short_horvertflip_short_600ms.mp4	80.stroke_with_sharp_stick_all_over_the_hand_short_horvertflip_short_600ms.mp4	379.19248870346746	379.8008170980647	0.6083283945972653				
484.9931640625	0.2	993266	299	46	3	0	0	19	158	stimuli\Videos_short_600ms_horflip\71.single_stroke_with_finger_top_to_bottom_short_horflip_short_600ms.mp4	71.single_stroke_with_finger_top_to_bottom_short_horflip_short_600ms.mp4	379.9924715193065	380.6008031395995	0.6083316202930291				
485.79296875	0.2	994904	300	46	3	0	0	20	59	stimuli\Videos_short_600ms\63.stroke_top_to_bottom_with_screwdriver_short_short_600ms.mp4	63.stroke_top_to_bottom_with_screwdriver_short_short_600ms.mp4	380.79247750150535	381.4007888878896	0.60831138638423				
486.5927734375	0.2	996542	301	46	3	0	0	21	24	stimuli\Videos_short_600ms\31.hand_grabbing_wrist_short_short_600ms.mp4	31.hand_grabbing_wrist_short_short_600ms.mp4	381.5924550389336	382.200758507699	0.6083034687653708				
487.39306640625	0.2	998181	302	46	3	0	0	22	44	stimuli\Videos_short_600ms\5.repeated_tap_with_finger_moving_from_top_to_bottom_short_short_600ms.mp4	5.repeated_tap_with_finger_moving_from_top_to_bottom_short_short_600ms.mp4	382.39243111013457	383.000733405921	0.6083022957864159				
488.19287109375	0.2	999819	303	46	3	0	0	23	60	stimuli\Videos_short_600ms\64.repeated_touch_with_screwdriver_short_short_600ms.mp4	64.repeated_touch_with_screwdriver_short_short_600ms.mp4	383.1923957447798	383.8006874837429	0.6082917389630893				
488.99267578125	0.2	1001457	304	46	3	0	0	24	316	stimuli\Videos_short_600ms_vertflip\51.repeated_touch_with_hammer_short_vertflip_short_600ms.mp4	51.repeated_touch_with_hammer_short_vertflip_short_600ms.mp4	383.99240935135094	384.6006972781288	0.608287926777848				
489.79296875	0.2	1003096	305	46	3	0	0	25	75	stimuli\Videos_short_600ms\78.single_stroke_top_to_bottom_with_soft_brush_short_short_600ms.mp4	78.single_stroke_top_to_bottom_with_soft_brush_short_short_600ms.mp4	384.79237955765166	385.4006862521146	0.6083066944629536				
490.5927734375	0.2	1004734	306	46	3	0	0	26	150	stimuli\Videos_short_600ms_horflip\64.repeated_touch_with_screwdriver_short_horflip_short_600ms.mp4	64.repeated_touch_with_screwdriver_short_horflip_short_600ms.mp4	385.5923424328266	386.2006763990794	0.6083339662527578				
491.39306640625	0.2	1006373	307	46	3	0	0	27	152	stimuli\Videos_short_600ms_horflip\66.stroke_top_to_bottom_with_sponge_short_horflip_short_600ms.mp4	66.stroke_top_to_bottom_with_sponge_short_horflip_short_600ms.mp4	386.39234342985947	387.0006776893588	0.6083342594993155				
492.19287109375	0.2	1008011	308	46	3	0	0	28	104	stimuli\Videos_short_600ms_horflip\22.single_touch_with_metal_chopstick_short_horflip_short_600ms.mp4	22.single_touch_with_metal_chopstick_short_horflip_short_600ms.mp4	387.1924860642612	387.8006490686385	0.6081630043772748				
492.99267578125	0.2	1009649	309	46	3	0	1	29	367	stimuli\Targets_short_600ms_horflip\chopstick-silver-tap_short_horflip_short_600ms.mp4	chopstick-silver-tap_short_horflip_short_600ms.mp4	387.9924565638066	388.60062953851775	0.608172974711124				
493.79296875	0.2	1011288	310	46	3	0	0	30	21	stimuli\Videos_short_600ms\29.single_pinch_with_tweezers_short_short_600ms.mp4	29.single_pinch_with_tweezers_short_short_600ms.mp4	388.7923968591113	389.4006158732973	0.6082190141860337				
494.5927734375	0.2	1012926	311	46	3	0	0	31	249	stimuli\Videos_short_600ms_horvertflip\72.(short)stroke_with_finger_all_over_the_hand_short_horvertflip_short_600ms.mp4	72.(short)stroke_with_finger_all_over_the_hand_short_horvertflip_short_600ms.mp4	389.5922700012925	390.2005966364213	0.608326635128833				
495.392578125	0.2	1014564	312	46	3	0	1	32	383	stimuli\Targets_short_600ms_vertflip\hand-stroke_short_horvertflip_short_600ms.mp4	hand-stroke_short_horvertflip_short_600ms.mp4	390.392366889464	391.0005785725243	0.6082116830602899				
496.19287109375	0.2	1016203	313	46	3	0	0	33	254	stimuli\Videos_short_600ms_horvertflip\77.tapping_with_all_fingers_short_horvertflip_short_600ms.mp4	77.tapping_with_all_fingers_short_horvertflip_short_600ms.mp4	391.1923763906052	391.80055992213784	0.6081835315326316				
496.99267578125	0.2	1017841	314	46	3	0	0	34	171	stimuli\Videos_short_600ms_horflip\83.single_stroke_top_to_bottom_with_cotton_bud_short_horflip_short_600ms.mp4	83.single_stroke_top_to_bottom_with_cotton_bud_short_horflip_short_600ms.mp4	391.9923618456487	392.6005456704279	0.6081838247791893				
497.79248046875	0.2	1019479	315	46	3	0	0	35	298	stimuli\Videos_short_600ms_vertflip\35.single_punch_with_hand_short_vertflip_short_600ms.mp4	35.single_punch_with_hand_short_vertflip_short_600ms.mp4	392.7921801510038	393.4005276065309	0.6083474555271096				
498.5927734375	0.2	1021118	316	46	3	0	0	36	305	stimuli\Videos_short_600ms_vertflip\41.injection_with_blunt_syringe_short_vertflip_short_600ms.mp4	41.injection_with_blunt_syringe_short_vertflip_short_600ms.mp4	393.5921735236643	394.2005095426339	0.6083360189695668				
499.392578125	0.2	1022756	317	46	3	0	0	37	15	stimuli\Videos_short_600ms\23.single_push_with_a_spoon_short_short_600ms.mp4	23.single_push_with_a_spoon_short_short_600ms.mp4	394.3921768666587	395.0004935314537	0.6083166647949838				
500.1923828125	0.2	1024394	318	46	3	0	0	38	99	stimuli\Videos_short_600ms_horflip\18.single_stroke_from_top_to_bottom_with_rolling_pin_short_horflip_short_600ms.mp4	18.single_stroke_from_top_to_bottom_with_rolling_pin_short_horflip_short_600ms.mp4	395.1921233201083	395.800478986499	0.6083556663907075				
500.99267578125	0.2	1026033	319	46	3	0	0	39	236	stimuli\Videos_short_600ms_horvertflip\60.single_push_with_tip_of_pencil_short_horvertflip_short_600ms.mp4	60.single_push_with_tip_of_pencil_short_horvertflip_short_600ms.mp4	395.9921281293282	396.60045652392546	0.6083283945972653				
501.79248046875	0.2	1027671	320	46	3	0	1	40	375	stimuli\Targets_short_600ms_horvertflip\finger-tap_short_vertflip_short_600ms.mp4	finger-tap_short_vertflip_short_600ms.mp4	396.7924484702434	397.40039945843455	0.6079509881910781				
502.59228515625	0.2	1029309	321	46	3	0	0	41	314	stimuli\Videos_short_600ms_vertflip\5.repeated_tap_with_finger_moving_from_top_to_bottom_short_vertflip_short_600ms.mp4	5.repeated_tap_with_finger_moving_from_top_to_bottom_short_vertflip_short_600ms.mp4	397.59209522723177	398.20040690686074	0.6083116796289687				
503.392578125	0.2	1030948	322	46	3	0	0	42	85	stimuli\Videos_short_600ms\87.single_stroke_top_to_bottom_with_plastic_brush_short_short_600ms.mp4	87.single_stroke_top_to_bottom_with_plastic_brush_short_short_600ms.mp4	398.3920976904901	399.000390602434	0.6082929119438631				
504.1923828125	0.2	1032586	323	46	3	0	0	43	12	stimuli\Videos_short_600ms\20.single_touch_with_screwdriver_short_short_600ms.mp4	20.single_touch_with_screwdriver_short_short_600ms.mp4	399.19207200222263	399.80037723045825	0.608305228235622				
504.9921875	0.2	1034224	324	46	3	0	0	44	163	stimuli\Videos_short_600ms_horflip\76.tickle_with_fingers_from_top_to_bottom_short_horflip_short_600ms.mp4	76.tickle_with_fingers_from_top_to_bottom_short_horflip_short_600ms.mp4	399.99205540455114	400.6003579935823	0.6083025890311546				
505.79248046875	0.2	1035863	325	46	3	0	0	45	132	stimuli\Videos_short_600ms_horflip\48.single_slap_with_hand_short_horflip_short_600ms.mp4	48.single_slap_with_hand_short_horflip_short_600ms.mp4	400.7920370474094	401.4003672014769	0.6083301540675166				
506.59228515625	0.2	1037501	326	46	3	0	1	46	376	stimuli\Targets_short_600ms_horvertflip\hand-pinch_short_vertflip_short_600ms.mp4	hand-pinch_short_vertflip_short_600ms.mp4	401.5919972833781	402.2003485510904	0.6083512677123508				
507.39208984375	0.2	1039139	327	46	3	0	0	47	295	stimuli\Videos_short_600ms_vertflip\32.single_(long)pinch_with_fingers_short_vertflip_short_600ms.mp4	32.single_(long)pinch_with_fingers_short_vertflip_short_600ms.mp4	402.39200326557693	403.0003246222932	0.6083213567162602				
508.1923828125	0.2	1040778	328	46	3	0	0	48	17	stimuli\Videos_short_600ms\25.single_touch_with_stanley_knife_short_short_600ms.mp4	25.single_touch_with_stanley_knife_short_short_600ms.mp4	403.1919878408862	403.800310663828	0.6083228229417728				
509.00048828125	0.2	1042433	329	46	3	0	0	49	31	stimuli\Videos_short_600ms\38.double_slap_with_pencil_short_short_600ms.mp4	38.double_slap_with_pencil_short_short_600ms.mp4	404.0002624543376	404.6086060976795	0.6083436433418683				
509.80078125	0.2	1044072	330	46	3	0	0	50	196	stimuli\Videos_short_600ms_horvertflip\24.single_stroke_top_to_bottom_with_a_spoon_short_horvertflip_short_600ms.mp4	24.single_stroke_top_to_bottom_with_a_spoon_short_horvertflip_short_600ms.mp4	404.8002470296469	405.4085892067633	0.6083421771163557				
510.6005859375	0.2	1045710	331	46	3	0	0	51	325	stimuli\Videos_short_600ms_vertflip\6.single_touch_with_flat_hand_short_vertflip_short_600ms.mp4	6.single_touch_with_flat_hand_short_vertflip_short_600ms.mp4	405.6002685538351	406.20857231584705	0.6083037620119285				
511.400390625	0.2	1047348	332	46	3	0	0	52	69	stimuli\Videos_short_600ms\72.(short)stroke_with_finger_all_over_the_hand_short_short_600ms.mp4	72.(short)stroke_with_finger_all_over_the_hand_short_short_600ms.mp4	406.40023113576535	407.0085747791054	0.6083436433400493				
512.20068359375	0.2	1048987	333	46	3	0	0	53	7	stimuli\Videos_short_600ms\16.repeated_touch_with_plastic_brush_short_short_600ms.mp4	16.repeated_touch_with_plastic_brush_short_short_600ms.mp4	407.2002347720045	407.80855906116994	0.6083242891654663				
513.00048828125	0.2	1050625	334	46	3	0	0	54	280	stimuli\Videos_short_600ms_vertflip\19.single_touch_with_rolling_pin_short_vertflip_short_600ms.mp4	19.single_touch_with_rolling_pin_short_vertflip_short_600ms.mp4	408.0002190540672	408.60855155409627	0.6083325000290642				
513.80029296875	0.2	1052263	335	46	3	0	0	55	140	stimuli\Videos_short_600ms_horflip\55.touch_top_to_bottom_with_nail_file_short_horflip_short_600ms.mp4	55.touch_top_to_bottom_with_nail_file_short_horflip_short_600ms.mp4	408.8003083178664	409.408522640133	0.6082143222665763				
514.6005859375	0.2	1053902	336	46	3	0	0	56	245	stimuli\Videos_short_600ms_horvertflip\69.stroke_with_soft_sock_short_horvertflip_short_600ms.mp4	69.stroke_with_soft_sock_short_horvertflip_short_600ms.mp4	409.60016034640466	410.208505455972	0.6083451095673809				
515.400390625	0.2	1055540	337	46	3	0	0	57	342	stimuli\Videos_short_600ms_vertflip\75.(long)stroke_with_fingers_all_over_the_hand_short_vertflip_short_600ms.mp4	75.(long)stroke_with_fingers_all_over_the_hand_short_vertflip_short_600ms.mp4	410.4001701407906	411.0084912042603	0.6083210634697025				
516.2001953125	0.2	1057178	338	46	3	0	0	58	265	stimuli\Videos_short_600ms_horvertflip\87.single_stroke_top_to_bottom_with_plastic_brush_short_horvertflip_short_600ms.mp4	87.single_stroke_top_to_bottom_with_plastic_brush_short_horvertflip_short_600ms.mp4	411.2001119023189	411.8084719673843	0.6083600650654262				
517.00048828125	0.2	1058817	339	46	3	0	0	59	263	stimuli\Videos_short_600ms_horvertflip\85.touch_top_to_bottom_with_fabric_short_horvertflip_short_600ms.mp4	85.touch_top_to_bottom_with_fabric_short_horvertflip_short_600ms.mp4	412.00011993723456	412.6084524372618	0.6083325000272453				
517.80029296875	0.2	1060455	340	46	3	0	0	60	322	stimuli\Videos_short_600ms_vertflip\57.single_touch_with_nail_file_short_vertflip_short_600ms.mp4	57.single_touch_with_nail_file_short_vertflip_short_600ms.mp4	412.80017489135935	413.40843613283687	0.6082612414775213				
518.60009765625	0.2	1062093	341	46	3	0	0	61	328	stimuli\Videos_short_600ms_vertflip\62.touch_top_to_bottom_with_scissors_short_vertflip_short_600ms.mp4	62.touch_top_to_bottom_with_scissors_short_vertflip_short_600ms.mp4	413.60007325261904	414.2084218811269	0.6083486285078834				
519.400390625	0.2	1063732	342	46	3	0	0	62	233	stimuli\Videos_short_600ms_horvertflip\58.single_slap_with_pencil_short_horvertflip_short_600ms.mp4	58.single_slap_with_pencil_short_horvertflip_short_600ms.mp4	414.4001346581372	415.0083871022616	0.6082524441244459				
520.2001953125	0.2	1065370	343	46	3	0	0	63	312	stimuli\Videos_short_600ms_vertflip\48.single_slap_with_hand_short_vertflip_short_600ms.mp4	48.single_slap_with_hand_short_vertflip_short_600ms.mp4	415.2000453356886	415.8083892722752	0.608343936586607				
521.0	0.2	1067008	344	46	3	0	1	64	360	stimuli\Targets_short_600ms\brush-stroke_short_short_600ms.mp4	brush-stroke_short_short_600ms.mp4	416.00005307735773	416.6083709151335	0.6083178377757577				
521.80029296875	0.2	1068647	345	46	3	0	0	65	216	stimuli\Videos_short_600ms_horvertflip\42.single_slap_with_plastic_whisk_short_horvertflip_short_600ms.mp4	42.single_slap_with_plastic_whisk_short_horvertflip_short_600ms.mp4	416.800039705382	417.4083616485896	0.6083219432075566				
522.60009765625	0.2	1070285	346	46	3	0	0	66	157	stimuli\Videos_short_600ms_horflip\70.(long)stroke_with_finger_all_over_the_hand_short_horflip_short_600ms.mp4	70.(long)stroke_with_finger_all_over_the_hand_short_horflip_short_600ms.mp4	417.6000213482421	418.20831513992016	0.6082937916780793				
523.39990234375	0.2	1071923	347	46	3	0	0	67	40	stimuli\Videos_short_600ms\46.scratching_top_to_bottom_with_finger_nails_short_short_600ms.mp4	46.scratching_top_to_bottom_with_finger_nails_short_short_600ms.mp4	418.400043165675	419.0082953165547	0.6082521508797072				
524.2001953125	0.2	1073562	348	46	3	0	0	68	247	stimuli\Videos_short_600ms_horvertflip\70.(long)stroke_with_finger_all_over_the_hand_short_horvertflip_short_600ms.mp4	70.(long)stroke_with_finger_all_over_the_hand_short_horvertflip_short_600ms.mp4	419.2001676188829	419.80828165133426	0.6081140324513399				
525.0	0.2	1075200	349	46	3	0	0	69	223	stimuli\Videos_short_600ms_horvertflip\49.repeated_slap_with_hand_short_horvertflip_short_600ms.mp4	49.repeated_slap_with_hand_short_horvertflip_short_600ms.mp4	419.9999624646316	420.60826857260327	0.6083061079716572				
525.7998046875	0.2	1076838	350	46	3	0	0	70	347	stimuli\Videos_short_600ms_vertflip\8.single_touch_with_hairbrush_short_vertflip_short_600ms.mp4	8.single_touch_with_hairbrush_short_vertflip_short_600ms.mp4	420.7999458669601	421.4082502154615	0.6083043485014059				
526.60009765625	0.2	1078477	351	46	3	0	0	71	195	stimuli\Videos_short_600ms_horvertflip\23.single_push_with_a_spoon_short_horvertflip_short_600ms.mp4	23.single_push_with_a_spoon_short_horvertflip_short_600ms.mp4	421.5999046367033	422.2082608895834	0.6083562528801849				
527.39990234375	0.2	1080115	352	46	3	0	0	72	149	stimuli\Videos_short_600ms_horflip\63.stroke_top_to_bottom_with_screwdriver_short_horflip_short_600ms.mp4	63.stroke_top_to_bottom_with_screwdriver_short_horflip_short_600ms.mp4	422.3999114986382	423.0082349080694	0.6083234094312502				
528.2001953125	0.2	1081754	353	46	3	0	0	73	220	stimuli\Videos_short_600ms_horvertflip\46.scratching_top_to_bottom_with_finger_nails_short_horvertflip_short_600ms.mp4	46.scratching_top_to_bottom_with_finger_nails_short_horvertflip_short_600ms.mp4	423.1998963671922	423.80822241582973	0.6083260486375366				
529.0	0.2	1083392	354	46	3	0	0	74	88	stimuli\Videos_short_600ms\9.single_touch_with_hammer_short_short_600ms.mp4	9.single_touch_with_hammer_short_short_600ms.mp4	423.99988006276726	424.608199073522	0.6083190107547125				
529.7998046875	0.2	1085030	355	46	3	0	0	75	355	stimuli\Videos_short_600ms_vertflip\87.single_stroke_top_to_bottom_with_plastic_brush_short_vertflip_short_600ms.mp4	87.single_stroke_top_to_bottom_with_plastic_brush_short_vertflip_short_600ms.mp4	424.7999177154343	425.40818364883125	0.6082659333969787				
530.60009765625	0.2	1086669	356	46	3	0	0	76	357	stimuli\Videos_short_600ms_vertflip\89.single_touch_with_plastic_brush_short_vertflip_short_600ms.mp4	89.single_touch_with_plastic_brush_short_vertflip_short_600ms.mp4	425.59985302557106	426.2081647052	0.6083116796289687				
531.39990234375	0.2	1088307	357	46	3	0	0	77	22	stimuli\Videos_short_600ms\3.single_push_with_finger_short_short_600ms.mp4	3.single_push_with_finger_short_short_600ms.mp4	426.399929679832	427.0081484007733	0.608218720941295				
532.19970703125	0.2	1089945	358	46	3	0	0	78	8	stimuli\Videos_short_600ms\17.repeated_touch_with_rolling_pin_short_short_600ms.mp4	17.repeated_touch_with_rolling_pin_short_short_600ms.mp4	427.1998280410917	427.80813356257386	0.6083055214821798				
533.0	0.2	1091584	359	46	3	0	0	79	19	stimuli\Videos_short_600ms\27.single_push_with_a_plastic_whisk_short_short_600ms.mp4	27.single_push_with_a_plastic_whisk_short_short_600ms.mp4	427.9997495687094	428.60811403245134	0.6083644637419638				
533.7998046875	0.2	1093222	360	46	3	0	0	80	162	stimuli\Videos_short_600ms_horflip\75.(long)stroke_with_fingers_all_over_the_hand_short_horflip_short_600ms.mp4	75.(long)stroke_with_fingers_all_over_the_hand_short_horflip_short_600ms.mp4	428.79977930375935	429.40810007398613	0.6083207702267828				
534.599609375	0.2	1094860	361	46	3	0	0	81	349	stimuli\Videos_short_600ms_vertflip\81.single_stroke_top_to_bottom_with_cotton_pad_short_vertflip_short_600ms.mp4	81.single_stroke_top_to_bottom_with_cotton_pad_short_vertflip_short_600ms.mp4	429.5997154936322	430.2080817168444	0.6083662232122151				
535.39990234375	0.2	1096499	362	46	3	0	0	82	327	stimuli\Videos_short_600ms_vertflip\61.single_hit_with_rolling_pin_short_vertflip_short_600ms.mp4	61.single_hit_with_rolling_pin_short_vertflip_short_600ms.mp4	430.3998551955847	431.0080680516239	0.6082128560392448				
536.19970703125	0.2	1098137	363	46	3	0	0	83	301	stimuli\Videos_short_600ms_vertflip\38.double_slap_with_pencil_short_vertflip_short_600ms.mp4	38.double_slap_with_pencil_short_vertflip_short_600ms.mp4	431.1997057578956	431.808046762033	0.6083410041374009				
536.99951171875	0.2	1099775	364	46	3	0	0	84	27	stimuli\Videos_short_600ms\34.repeated_punch_with_hand_short_short_600ms.mp4	34.repeated_punch_with_hand_short_short_600ms.mp4	431.9997137928112	432.6079885235613	0.608274730750054				
537.7998046875	0.2	1101414	365	46	3	0	0	85	259	stimuli\Videos_short_600ms_horvertflip\81.single_stroke_top_to_bottom_with_cotton_pad_short_horvertflip_short_600ms.mp4	81.single_stroke_top_to_bottom_with_cotton_pad_short_horvertflip_short_600ms.mp4	432.799696901895	433.4079824827131	0.6082855808181193				
538.599609375	0.2	1103052	366	46	3	0	0	86	61	stimuli\Videos_short_600ms\65.stroke_top_to_bottom_with_stanley_knife_short_short_600ms.mp4	65.stroke_top_to_bottom_with_stanley_knife_short_short_600ms.mp4	433.59964452832537	434.2079752688842	0.608330740558813				
539.3994140625	0.2	1104690	367	46	3	0	0	87	341	stimuli\Videos_short_600ms_vertflip\74.fingers_walking_from_top_to_bottom_short_vertflip_short_600ms.mp4	74.fingers_walking_from_top_to_bottom_short_vertflip_short_600ms.mp4	434.3996628268178	435.00795896445743	0.608296137639627				
540.19970703125	0.2	1106329	368	46	3	0	0	88	315	stimuli\Videos_short_600ms_vertflip\50.single_(long)hard_push_with_thumb_short_vertflip_short_600ms.mp4	50.single_(long)hard_push_with_thumb_short_vertflip_short_600ms.mp4	435.1996330331185	435.807953216854	0.6083201837354864				
540.99951171875	0.2	1107967	369	46	3	0	0	89	307	stimuli\Videos_short_600ms_vertflip\43.touch_top_to_bottom_with_sharp_wooden_stick_short_vertflip_short_600ms.mp4	43.touch_top_to_bottom_with_sharp_wooden_stick_short_vertflip_short_600ms.mp4	435.9996035326658	436.6079462962716	0.6083427636058332				
541.79931640625	0.2	1109605	370	46	3	0	0	90	283	stimuli\Videos_short_600ms_vertflip\21.repeated_touch_with_metal_chopstick_short_vertflip_short_600ms.mp4	21.repeated_touch_with_metal_chopstick_short_vertflip_short_600ms.mp4	436.799580190358	437.4079405486682	0.6083603583101649				
542.599609375	0.2	1111244	371	46	3	0	0	91	190	stimuli\Videos_short_600ms_horvertflip\19.single_touch_with_rolling_pin_short_horvertflip_short_600ms.mp4	19.single_touch_with_rolling_pin_short_horvertflip_short_600ms.mp4	437.5995888117632	438.2079142739094	0.6083254621462402				
543.3994140625	0.2	1112882	372	46	3	0	0	92	277	stimuli\Videos_short_600ms_vertflip\16.repeated_touch_with_plastic_brush_short_vertflip_short_600ms.mp4	16.repeated_touch_with_plastic_brush_short_vertflip_short_600ms.mp4	438.3996211860176	439.0078938640527	0.608272678035064				
544.19921875	0.2	1114520	373	46	3	0	0	93	141	stimuli\Videos_short_600ms_horflip\56.repeated_touch_with_nail_file_short_horflip_short_600ms.mp4	56.repeated_touch_with_nail_file_short_horflip_short_600ms.mp4	439.1995535637052	439.8078285877	0.6082750239947927				
