onset	duration	onsetsample	eventnumber	subjectnr	sequencenumber	blocksequencenumber	istarget	presentationnumber	stimnumber	stim	stimname	time_stimon	time_stimoff	stimdur	cresp	resp	rt	correct
33.36669921875	0.2	68335	0	28	0	0	0	0	274	stimuli\Videos_short_600ms_vertflip\13.single_touch_with_pen_short_vertflip_short_600ms.mp4	13.single_touch_with_pen_short_vertflip_short_600ms.mp4	108.89672903732662	109.50437685496944	0.6076478176428282	n/a	n/a	n/a	n/a
34.16650390625	0.2	69973	1	28	0	0	0	1	78	stimuli\Videos_short_600ms\80.stroke_with_sharp_stick_all_over_the_hand_short_short_600ms.mp4	80.stroke_with_sharp_stick_all_over_the_hand_short_short_600ms.mp4	109.69608753064811	110.30436143018824	0.6082738995401087	n/a	n/a	n/a	n/a
34.966796875	0.2	71612	2	28	0	0	0	2	308	stimuli\Videos_short_600ms_vertflip\44.pushing_top_to_bottom_with_finger_short_vertflip_short_600ms.mp4	44.pushing_top_to_bottom_with_finger_short_vertflip_short_600ms.mp4	110.4960489393702	111.10435626904471	0.608307329674517	n/a	n/a	n/a	n/a
35.7666015625	0.2	73250	3	28	0	0	0	3	311	stimuli\Videos_short_600ms_vertflip\47.(long)scratching_with_finger_nails_short_vertflip_short_600ms.mp4	47.(long)scratching_with_finger_nails_short_vertflip_short_600ms.mp4	111.29603586056328	111.90434964166708	0.6083137811037886	n/a	n/a	n/a	n/a
36.56689453125	0.2	74889	4	28	0	0	0	4	192	stimuli\Videos_short_600ms_horvertflip\20.single_touch_with_screwdriver_short_horvertflip_short_600ms.mp4	20.single_touch_with_screwdriver_short_horvertflip_short_600ms.mp4	112.09602571422464	112.70434975896568	0.608324044741039	n/a	n/a	n/a	n/a
37.36669921875	0.2	76527	5	28	0	0	0	5	279	stimuli\Videos_short_600ms_vertflip\18.single_stroke_from_top_to_bottom_with_rolling_pin_short_vertflip_short_600ms.mp4	18.single_stroke_from_top_to_bottom_with_rolling_pin_short_vertflip_short_600ms.mp4	112.89601556788556	113.50434606405634	0.6083304961707654	n/a	n/a	n/a	n/a
38.16650390625	0.2	78165	6	28	0	0	0	6	241	stimuli\Videos_short_600ms_horvertflip\65.stroke_top_to_bottom_with_stanley_knife_short_horvertflip_short_600ms.mp4	65.stroke_top_to_bottom_with_stanley_knife_short_horvertflip_short_600ms.mp4	113.69600014310436	114.30433122576868	0.6083310826643356	n/a	n/a	n/a	n/a
38.966796875	0.2	79804	7	28	0	0	0	7	206	stimuli\Videos_short_600ms_horvertflip\33.scratch_top_to_bottom_with_scissors_short_horvertflip_short_600ms.mp4	33.scratch_top_to_bottom_with_scissors_short_horvertflip_short_600ms.mp4	114.49598970351872	115.1043131617662	0.6083234582474688	n/a	n/a	n/a	n/a
39.7666015625	0.2	81442	8	28	0	0	1	8	368	stimuli\Targets_short_600ms_horflip\chopstickwood-tap_short_horflip_short_600ms.mp4	chopstickwood-tap_short_horflip_short_600ms.mp4	115.29597750445237	115.90429861672555	0.6083211122731882	n/a	n/a	n/a	n/a
40.56640625	0.2	83080	9	28	0	0	0	9	129	stimuli\Videos_short_600ms_horflip\45.scratching_with_finger_nails_short_horflip_short_600ms.mp4	45.scratching_with_finger_nails_short_horflip_short_600ms.mp4	116.09596735811328	116.70428847038647	0.6083211122731882	n/a	n/a	n/a	n/a
41.36669921875	0.2	84719	10	28	0	0	0	10	2	stimuli\Videos_short_600ms\11.single_touch_with_lighter_short_short_600ms.mp4	11.single_touch_with_lighter_short_short_600ms.mp4	116.89595222657908	117.50427597807357	0.6083237514944813	n/a	n/a	n/a	n/a
42.16650390625	0.2	86357	11	28	0	0	0	11	76	stimuli\Videos_short_600ms\79.long_with_soft_brush_all_over_the_hand_short_short_600ms.mp4	79.long_with_soft_brush_all_over_the_hand_short_short_600ms.mp4	117.6959344558236	118.3042649519939	0.6083304961703107	n/a	n/a	n/a	n/a
42.96630859375	0.2	87995	12	28	0	0	0	12	168	stimuli\Videos_short_600ms_horflip\80.stroke_with_sharp_stick_all_over_the_hand_short_horflip_short_600ms.mp4	80.stroke_with_sharp_stick_all_over_the_hand_short_horflip_short_600ms.mp4	118.4958706453217	119.10425216643398	0.6083815211122783	n/a	n/a	n/a	n/a
43.7666015625	0.2	89634	13	28	0	0	0	13	52	stimuli\Videos_short_600ms\57.single_touch_with_nail_file_short_short_600ms.mp4	57.single_touch_with_nail_file_short_short_600ms.mp4	119.29588102625804	119.90423908762703	0.6083580613690174	n/a	n/a	n/a	n/a
44.56640625	0.2	91272	14	28	0	0	0	14	39	stimuli\Videos_short_600ms\45.scratching_with_finger_nails_short_short_600ms.mp4	45.scratching_with_finger_nails_short_short_600ms.mp4	120.09585856355396	120.70422600882011	0.6083674452661398	n/a	n/a	n/a	n/a
45.3662109375	0.2	92910	15	28	0	0	0	15	99	stimuli\Videos_short_600ms_horflip\18.single_stroke_from_top_to_bottom_with_rolling_pin_short_horflip_short_600ms.mp4	18.single_stroke_from_top_to_bottom_with_rolling_pin_short_horflip_short_600ms.mp4	120.89587187695815	121.50421644897506	0.6083445720169038	n/a	n/a	n/a	n/a
46.16650390625	0.2	94549	16	28	0	0	0	16	191	stimuli\Videos_short_600ms_horvertflip\2.single_touch_with_finger_short_horvertflip_short_600ms.mp4	2.single_touch_with_finger_short_horvertflip_short_600ms.mp4	121.6958766862058	122.30420688912956	0.608330202923753	n/a	n/a	n/a	n/a
46.96630859375	0.2	96187	17	28	0	0	0	17	222	stimuli\Videos_short_600ms_horvertflip\48.single_slap_with_hand_short_horvertflip_short_600ms.mp4	48.single_slap_with_hand_short_horvertflip_short_600ms.mp4	122.49585539648888	123.10418677239976	0.6083313759108933	n/a	n/a	n/a	n/a
47.76611328125	0.2	97825	18	28	0	0	0	18	0	stimuli\Videos_short_600ms\1.repeated_touch_with_finger_fast_short_short_600ms.mp4	1.repeated_touch_with_finger_fast_short_short_600ms.mp4	123.29586343145093	123.90416518943584	0.6083017579849184	n/a	n/a	n/a	n/a
48.56640625	0.2	99464	19	28	0	0	0	19	104	stimuli\Videos_short_600ms_horflip\22.single_touch_with_metal_chopstick_short_horflip_short_600ms.mp4	22.single_touch_with_metal_chopstick_short_horflip_short_600ms.mp4	124.09584302147414	124.70414331322536	0.6083002917512204	n/a	n/a	n/a	n/a
49.3662109375	0.2	101102	20	28	0	0	0	20	179	stimuli\Videos_short_600ms_horflip\90.repeated_touch_with_sponge_short_horflip_short_600ms.mp4	90.repeated_touch_with_sponge_short_horflip_short_600ms.mp4	124.89584665773418	125.50413023441844	0.6082835766842436	n/a	n/a	n/a	n/a
50.166015625	0.2	102740	21	28	0	0	0	21	229	stimuli\Videos_short_600ms_horvertflip\54.repeated_touch_with_knife_short_horvertflip_short_600ms.mp4	54.repeated_touch_with_knife_short_horvertflip_short_600ms.mp4	125.69582126256228	126.30414501405676	0.6083237514944813	n/a	n/a	n/a	n/a
50.96630859375	0.2	104379	22	28	0	0	0	22	280	stimuli\Videos_short_600ms_vertflip\19.single_touch_with_rolling_pin_short_vertflip_short_600ms.mp4	19.single_touch_with_rolling_pin_short_vertflip_short_600ms.mp4	126.49581023648308	127.10411375394916	0.6083035174660836	n/a	n/a	n/a	n/a
51.76611328125	0.2	106017	23	28	0	0	0	23	216	stimuli\Videos_short_600ms_horvertflip\42.single_slap_with_plastic_whisk_short_horvertflip_short_600ms.mp4	42.single_slap_with_plastic_whisk_short_horvertflip_short_600ms.mp4	127.29579363871473	127.90411123202648	0.6083175933117673	n/a	n/a	n/a	n/a
52.56591796875	0.2	107655	24	28	0	0	0	24	36	stimuli\Videos_short_600ms\42.single_slap_with_plastic_whisk_short_short_600ms.mp4	42.single_slap_with_plastic_whisk_short_short_600ms.mp4	128.09578114640135	128.70411457503997	0.6083334286386162	n/a	n/a	n/a	n/a
53.3662109375	0.2	109294	25	28	0	0	0	25	197	stimuli\Videos_short_600ms_horvertflip\25.single_touch_with_stanley_knife_short_horvertflip_short_600ms.mp4	25.single_touch_with_stanley_knife_short_horvertflip_short_600ms.mp4	128.89576513512657	129.50409299207604	0.6083278569494723	n/a	n/a	n/a	n/a
54.166015625	0.2	110932	26	28	0	0	1	26	363	stimuli\Targets_short_600ms\finger-tap_short_short_600ms.mp4	finger-tap_short_short_600ms.mp4	129.69575997398306	130.30408167275027	0.6083216987672131	n/a	n/a	n/a	n/a
54.96630859375	0.2	112571	27	28	0	0	0	27	87	stimuli\Videos_short_600ms\89.single_touch_with_plastic_brush_short_short_600ms.mp4	89.single_touch_with_plastic_brush_short_short_600ms.mp4	130.4957442559553	131.10406771420276	0.6083234582474688	n/a	n/a	n/a	n/a
55.76611328125	0.2	114209	28	28	0	0	0	28	225	stimuli\Videos_short_600ms_horvertflip\50.single_(long)hard_push_with_thumb_short_horvertflip_short_600ms.mp4	50.single_(long)hard_push_with_thumb_short_horvertflip_short_600ms.mp4	131.2957314703949	131.90406108682555	0.6083296164306375	n/a	n/a	n/a	n/a
56.56591796875	0.2	115847	29	28	0	0	0	29	325	stimuli\Videos_short_600ms_vertflip\6.single_touch_with_flat_hand_short_vertflip_short_600ms.mp4	6.single_touch_with_flat_hand_short_vertflip_short_600ms.mp4	132.09571839158843	132.7040444890572	0.6083260974687619	n/a	n/a	n/a	n/a
57.3662109375	0.2	117486	30	28	0	0	0	30	170	stimuli\Videos_short_600ms_horflip\82.repeated_touch_with_cotton_bud_short_horflip_short_600ms.mp4	82.repeated_touch_with_cotton_bud_short_horflip_short_600ms.mp4	132.8957053127815	133.50403287648396	0.6083275637024599	n/a	n/a	n/a	n/a
58.166015625	0.2	119124	31	28	0	0	0	31	299	stimuli\Videos_short_600ms_vertflip\36.single_slap_with_full_hand_short_vertflip_short_600ms.mp4	36.single_slap_with_full_hand_short_vertflip_short_600ms.mp4	133.6956696539719	134.3040215571582	0.6083519031863034	n/a	n/a	n/a	n/a
58.9658203125	0.2	120762	32	28	0	0	0	32	207	stimuli\Videos_short_600ms_horvertflip\34.repeated_punch_with_hand_short_horvertflip_short_600ms.mp4	34.repeated_punch_with_hand_short_horvertflip_short_600ms.mp4	134.49568355386964	135.10401082432554	0.6083272704559022	n/a	n/a	n/a	n/a
59.76611328125	0.2	122401	33	28	0	0	0	33	32	stimuli\Videos_short_600ms\39.single_stab_with_scissors_short_short_600ms.mp4	39.single_stab_with_scissors_short_short_600ms.mp4	135.29569188207824	135.90399891850575	0.6083070364275045	n/a	n/a	n/a	n/a
60.56591796875	0.2	124039	34	28	0	0	0	34	148	stimuli\Videos_short_600ms_horflip\62.touch_top_to_bottom_with_scissors_short_horflip_short_600ms.mp4	62.touch_top_to_bottom_with_scissors_short_horflip_short_600ms.mp4	136.09562484586195	136.7039840802181	0.6083592343561577	n/a	n/a	n/a	n/a
61.36572265625	0.2	125677	35	28	0	0	0	35	35	stimuli\Videos_short_600ms\41.injection_with_blunt_syringe_short_short_600ms.mp4	41.injection_with_blunt_syringe_short_short_600ms.mp4	136.89563200108387	137.50396924193046	0.6083372408465948	n/a	n/a	n/a	n/a
62.166015625	0.2	127316	36	28	0	0	0	36	259	stimuli\Videos_short_600ms_horvertflip\81.single_stroke_top_to_bottom_with_cotton_pad_short_horvertflip_short_600ms.mp4	81.single_stroke_top_to_bottom_with_cotton_pad_short_horvertflip_short_600ms.mp4	137.6956239074725	138.30394238052486	0.6083184730523499	n/a	n/a	n/a	n/a
62.9658203125	0.2	128954	37	28	0	0	0	37	29	stimuli\Videos_short_600ms\36.single_slap_with_full_hand_short_short_600ms.mp4	36.single_slap_with_full_hand_short_short_600ms.mp4	138.49563340866823	139.10394103158933	0.6083076229210747	n/a	n/a	n/a	n/a
63.765625	0.2	130592	38	28	0	0	0	38	96	stimuli\Videos_short_600ms_horflip\15.single_stroke_top_to_bottom_with_a_plastic_whisk_short_horflip_short_600ms.mp4	15.single_stroke_top_to_bottom_with_a_plastic_whisk_short_horflip_short_600ms.mp4	139.29561651765334	139.9039188621323	0.6083023444789433	n/a	n/a	n/a	n/a
64.56591796875	0.2	132231	39	28	0	0	0	39	355	stimuli\Videos_short_600ms_vertflip\87.single_stroke_top_to_bottom_with_plastic_brush_short_vertflip_short_600ms.mp4	87.single_stroke_top_to_bottom_with_plastic_brush_short_vertflip_short_600ms.mp4	140.09560842404198	140.70392191189876	0.6083134878567762	n/a	n/a	n/a	n/a
65.36572265625	0.2	133869	40	28	0	0	0	40	60	stimuli\Videos_short_600ms\64.repeated_touch_with_screwdriver_short_short_600ms.mp4	64.repeated_touch_with_screwdriver_short_short_600ms.mp4	140.8955883073122	141.50391000607897	0.6083216987667583	n/a	n/a	n/a	n/a
66.16552734375	0.2	135507	41	28	0	0	0	41	88	stimuli\Videos_short_600ms\9.single_touch_with_hammer_short_short_600ms.mp4	9.single_touch_with_hammer_short_short_600ms.mp4	141.69557640149242	142.30388343791992	0.6083070364275045	n/a	n/a	n/a	n/a
66.9658203125	0.2	137146	42	28	0	0	0	42	336	stimuli\Videos_short_600ms_vertflip\7.repeated_touch_with_hairbrush_short_vertflip_short_600ms.mp4	7.repeated_touch_with_hairbrush_short_vertflip_short_600ms.mp4	142.4955753458039	143.103870359113	0.608295013309089	n/a	n/a	n/a	n/a
67.765625	0.2	138784	43	28	0	0	0	43	133	stimuli\Videos_short_600ms_horflip\49.repeated_slap_with_hand_short_horflip_short_600ms.mp4	49.repeated_slap_with_hand_short_horflip_short_600ms.mp4	143.29555816154198	143.9038871914786	0.6083290299366126	n/a	n/a	n/a	n/a
68.5654296875	0.2	140422	44	28	0	0	0	44	221	stimuli\Videos_short_600ms_horvertflip\47.(long)scratching_with_finger_nails_short_horvertflip_short_600ms.mp4	47.(long)scratching_with_finger_nails_short_horvertflip_short_600ms.mp4	144.0955406840335	144.70386766124238	0.6083269772088897	n/a	n/a	n/a	n/a
69.36572265625	0.2	142061	45	28	0	0	0	45	20	stimuli\Videos_short_600ms\28.single_injection_with_sharp_needle_short_short_600ms.mp4	28.single_injection_with_sharp_needle_short_short_600ms.mp4	144.89552555249884	145.5038501837339	0.6083246312350639	n/a	n/a	n/a	n/a
70.16552734375	0.2	143699	46	28	0	0	0	46	265	stimuli\Videos_short_600ms_horvertflip\87.single_stroke_top_to_bottom_with_plastic_brush_short_horvertflip_short_600ms.mp4	87.single_stroke_top_to_bottom_with_plastic_brush_short_horvertflip_short_600ms.mp4	145.69551599265378	146.3038409171354	0.6083249244816216	n/a	n/a	n/a	n/a
70.96533203125	0.2	145337	47	28	0	0	0	47	42	stimuli\Videos_short_600ms\48.single_slap_with_hand_short_short_600ms.mp4	48.single_slap_with_hand_short_short_600ms.mp4	146.49550262059984	147.1038269585879	0.6083243379880514	n/a	n/a	n/a	n/a
71.765625	0.2	146976	48	28	0	0	0	48	139	stimuli\Videos_short_600ms_horflip\54.repeated_touch_with_knife_short_horflip_short_600ms.mp4	54.repeated_touch_with_knife_short_horflip_short_600ms.mp4	147.29549100802706	147.90381739874283	0.6083263907157743	n/a	n/a	n/a	n/a
72.5654296875	0.2	148614	49	28	0	0	0	49	77	stimuli\Videos_short_600ms\8.single_touch_with_hairbrush_short_short_600ms.mp4	8.single_touch_with_hairbrush_short_short_600ms.mp4	148.09548262116869	148.70380344019532	0.6083208190266305	n/a	n/a	n/a	n/a
73.365234375	0.2	150252	50	28	0	0	0	50	54	stimuli\Videos_short_600ms\59.single_push_with_long_side_pencil_short_short_600ms.mp4	59.single_push_with_long_side_pencil_short_short_600ms.mp4	148.89544256365707	149.50377687203627	0.6083343083791988	n/a	n/a	n/a	n/a
74.16552734375	0.2	151891	51	28	0	0	0	51	211	stimuli\Videos_short_600ms_horvertflip\38.double_slap_with_pencil_short_horvertflip_short_600ms.mp4	38.double_slap_with_pencil_short_horvertflip_short_600ms.mp4	149.69543183082487	150.3037582215402	0.6083263907153196	n/a	n/a	n/a	n/a
74.96533203125	0.2	153529	52	28	0	0	0	52	40	stimuli\Videos_short_600ms\46.scratching_top_to_bottom_with_finger_nails_short_short_600ms.mp4	46.scratching_top_to_bottom_with_finger_nails_short_short_600ms.mp4	150.49542432370708	151.1037694822171	0.6083451585100192	n/a	n/a	n/a	n/a
75.765625	0.2	155168	53	28	0	0	0	53	324	stimuli\Videos_short_600ms_vertflip\59.single_push_with_long_side_pencil_short_vertflip_short_600ms.mp4	59.single_push_with_long_side_pencil_short_vertflip_short_600ms.mp4	151.29540860567886	151.90375933587802	0.6083507301991631	n/a	n/a	n/a	n/a
76.5654296875	0.2	156806	54	28	0	0	0	54	91	stimuli\Videos_short_600ms_horflip\10.single_touch_with_knife_short_horflip_short_600ms.mp4	10.single_touch_with_knife_short_horflip_short_600ms.mp4	152.09540373778236	152.70373951239526	0.6083357746128968	n/a	n/a	n/a	n/a
77.365234375	0.2	158444	55	28	0	0	0	55	264	stimuli\Videos_short_600ms_horvertflip\86.touch_top_to_bottom_with_hair_brush_short_horvertflip_short_600ms.mp4	86.touch_top_to_bottom_with_hair_brush_short_horvertflip_short_600ms.mp4	152.8953938846903	153.50373611073246	0.6083422260421685	n/a	n/a	n/a	n/a
78.16552734375	0.2	160083	56	28	0	0	0	56	186	stimuli\Videos_short_600ms_horvertflip\15.single_stroke_top_to_bottom_with_a_plastic_whisk_short_horvertflip_short_600ms.mp4	15.single_stroke_top_to_bottom_with_a_plastic_whisk_short_horvertflip_short_600ms.mp4	153.6954083710816	154.30371159530068	0.6083032242190711	n/a	n/a	n/a	n/a
78.96533203125	0.2	161721	57	28	0	0	0	57	240	stimuli\Videos_short_600ms_horvertflip\64.repeated_touch_with_screwdriver_short_horvertflip_short_600ms.mp4	64.repeated_touch_with_screwdriver_short_horvertflip_short_600ms.mp4	154.49538326915626	155.10368444064807	0.608301171491803	n/a	n/a	n/a	n/a
79.76513671875	0.2	163359	58	28	0	0	0	58	163	stimuli\Videos_short_600ms_horflip\76.tickle_with_fingers_from_top_to_bottom_short_horflip_short_600ms.mp4	76.tickle_with_fingers_from_top_to_bottom_short_horflip_short_600ms.mp4	155.29533353450051	155.9036505413187	0.6083170068181971	n/a	n/a	n/a	n/a
80.5654296875	0.2	164998	59	28	0	0	0	59	248	stimuli\Videos_short_600ms_horvertflip\71.single_stroke_with_finger_top_to_bottom_short_horvertflip_short_600ms.mp4	71.single_stroke_with_finger_top_to_bottom_short_horvertflip_short_600ms.mp4	156.09529464997604	156.70366121550205	0.608366565526012	n/a	n/a	n/a	n/a
81.365234375	0.2	166636	60	28	0	0	0	60	127	stimuli\Videos_short_600ms_horflip\43.touch_top_to_bottom_with_sharp_wooden_stick_short_horflip_short_600ms.mp4	43.touch_top_to_bottom_with_sharp_wooden_stick_short_horflip_short_600ms.mp4	156.8953666127386	157.50365341513725	0.6082868023986521	n/a	n/a	n/a	n/a
82.1650390625	0.2	168274	61	28	0	0	0	61	31	stimuli\Videos_short_600ms\38.double_slap_with_pencil_short_short_600ms.mp4	38.double_slap_with_pencil_short_short_600ms.mp4	157.69533505938398	158.3036453215259	0.608310262141913	n/a	n/a	n/a	n/a
82.96533203125	0.2	169913	62	28	0	0	0	62	277	stimuli\Videos_short_600ms_vertflip\16.repeated_touch_with_plastic_brush_short_vertflip_short_600ms.mp4	16.repeated_touch_with_plastic_brush_short_vertflip_short_600ms.mp4	158.4953234468112	159.10365687544936	0.6083334286381614	n/a	n/a	n/a	n/a
83.76513671875	0.2	171551	63	28	0	0	0	63	245	stimuli\Videos_short_600ms_horvertflip\69.stroke_with_soft_sock_short_horvertflip_short_600ms.mp4	69.stroke_with_soft_sock_short_horvertflip_short_600ms.mp4	159.29531036800427	159.9036367587196	0.6083263907153196	n/a	n/a	n/a	n/a
84.56494140625	0.2	173189	64	28	0	0	0	64	103	stimuli\Videos_short_600ms_horflip\21.repeated_touch_with_metal_chopstick_short_horflip_short_600ms.mp4	21.repeated_touch_with_metal_chopstick_short_horflip_short_600ms.mp4	160.0953005149122	160.7036292516018	0.6083287366896002	n/a	n/a	n/a	n/a
85.365234375	0.2	174828	65	28	0	0	0	65	105	stimuli\Videos_short_600ms_horflip\23.single_push_with_a_spoon_short_horflip_short_600ms.mp4	23.single_push_with_a_spoon_short_horflip_short_600ms.mp4	160.89528978207954	161.503613240327	0.6083234582474688	n/a	n/a	n/a	n/a
86.1650390625	0.2	176466	66	28	0	0	0	66	162	stimuli\Videos_short_600ms_horflip\75.(long)stroke_with_fingers_all_over_the_hand_short_horflip_short_600ms.mp4	75.(long)stroke_with_fingers_all_over_the_hand_short_horflip_short_600ms.mp4	161.6952749437919	162.30360016152054	0.608325217728634	n/a	n/a	n/a	n/a
86.96484375	0.2	178104	67	28	0	0	0	67	304	stimuli\Videos_short_600ms_vertflip\40.repeated_push_with_finger_short_vertflip_short_600ms.mp4	40.repeated_push_with_finger_short_vertflip_short_600ms.mp4	162.49526274472555	163.10358473673932	0.6083219920137708	n/a	n/a	n/a	n/a
87.76513671875	0.2	179743	68	28	0	0	0	68	37	stimuli\Videos_short_600ms\43.touch_top_to_bottom_with_sharp_wooden_stick_short_short_600ms.mp4	43.touch_top_to_bottom_with_sharp_wooden_stick_short_short_600ms.mp4	163.29526139579002	163.9035760566344	0.6083146608443712	n/a	n/a	n/a	n/a
88.56494140625	0.2	181381	69	28	0	0	0	69	313	stimuli\Videos_short_600ms_vertflip\49.repeated_slap_with_hand_short_vertflip_short_600ms.mp4	49.repeated_slap_with_hand_short_vertflip_short_600ms.mp4	164.09523629386513	164.70356444406116	0.60832815019603	n/a	n/a	n/a	n/a
89.36474609375	0.2	183019	70	28	0	0	0	70	146	stimuli\Videos_short_600ms_horflip\60.single_push_with_tip_of_pencil_short_horflip_short_600ms.mp4	60.single_push_with_tip_of_pencil_short_horflip_short_600ms.mp4	164.8952088459655	165.5035504855141	0.6083416395485983	n/a	n/a	n/a	n/a
90.1650390625	0.2	184658	71	28	0	0	0	71	126	stimuli\Videos_short_600ms_horflip\42.single_slap_with_plastic_whisk_short_horflip_short_600ms.mp4	42.single_slap_with_plastic_whisk_short_horflip_short_600ms.mp4	165.69520016586057	166.30353887294132	0.6083387070807476	n/a	n/a	n/a	n/a
90.96484375	0.2	186296	72	28	0	0	0	72	93	stimuli\Videos_short_600ms_horflip\12.repeated_touch_with_nail_file_short_horflip_short_600ms.mp4	12.repeated_touch_with_nail_file_short_horflip_short_600ms.mp4	166.49521025354989	167.10352989958938	0.6083196460394902	n/a	n/a	n/a	n/a
91.7646484375	0.2	187934	73	28	0	0	0	73	351	stimuli\Videos_short_600ms_vertflip\83.single_stroke_top_to_bottom_with_cotton_bud_short_vertflip_short_600ms.mp4	83.single_stroke_top_to_bottom_with_cotton_bud_short_vertflip_short_600ms.mp4	167.29520509240638	167.90351183558687	0.608306743180492	n/a	n/a	n/a	n/a
92.56494140625	0.2	189573	74	28	0	0	1	74	360	stimuli\Targets_short_600ms\brush-stroke_short_short_600ms.mp4	brush-stroke_short_short_600ms.mp4	168.09516122268678	168.70350168924824	0.608340466561458	n/a	n/a	n/a	n/a
93.36474609375	0.2	191211	75	28	0	0	0	75	285	stimuli\Videos_short_600ms_vertflip\23.single_push_with_a_spoon_short_vertflip_short_600ms.mp4	23.single_push_with_a_spoon_short_vertflip_short_600ms.mp4	168.89516163323196	169.50350004706615	0.6083384138341899	n/a	n/a	n/a	n/a
94.1650390625	0.2	192850	76	28	0	0	0	76	28	stimuli\Videos_short_600ms\35.single_punch_with_hand_short_short_600ms.mp4	35.single_punch_with_hand_short_short_600ms.mp4	169.6951638032583	170.30343565007115	0.6082718468128405	n/a	n/a	n/a	n/a
94.96484375	0.2	194488	77	28	0	0	0	77	159	stimuli\Videos_short_600ms_horflip\72.(short)stroke_with_finger_all_over_the_hand_short_horflip_short_600ms.mp4	72.(short)stroke_with_finger_all_over_the_hand_short_horflip_short_600ms.mp4	170.4951425135414	171.1034436850332	0.608301171491803	n/a	n/a	n/a	n/a
95.7646484375	0.2	196126	78	28	0	0	0	78	353	stimuli\Videos_short_600ms_vertflip\85.touch_top_to_bottom_with_fabric_short_vertflip_short_600ms.mp4	85.touch_top_to_bottom_with_fabric_short_vertflip_short_600ms.mp4	171.29513119421517	171.90345347947596	0.6083222852607832	n/a	n/a	n/a	n/a
96.56494140625	0.2	197765	79	28	0	0	0	79	205	stimuli\Videos_short_600ms_horvertflip\32.single_(long)pinch_with_fingers_short_horvertflip_short_600ms.mp4	32.single_(long)pinch_with_fingers_short_horvertflip_short_600ms.mp4	172.09511899514882	172.70342720456347	0.6083082094146448	n/a	n/a	n/a	n/a
97.36474609375	0.2	199403	80	28	0	0	0	80	70	stimuli\Videos_short_600ms\73.single_stroke_with_flat_hand_short_short_600ms.mp4	73.single_stroke_with_flat_hand_short_short_600ms.mp4	172.89510650283546	173.50341764471796	0.6083111418824956	n/a	n/a	n/a	n/a
98.16455078125	0.2	201041	81	28	0	0	1	81	364	stimuli\Targets_short_600ms\hand-pinch_short_short_600ms.mp4	hand-pinch_short_short_600ms.mp4	173.69509811597754	174.30342714591416	0.6083290299366126	n/a	n/a	n/a	n/a
98.96484375	0.2	202680	82	28	0	0	0	82	18	stimuli\Videos_short_600ms\26.single_touch_with_a_blunt_syringe_short_short_600ms.mp4	26.single_touch_with_a_blunt_syringe_short_short_600ms.mp4	174.49508855613203	175.10340702918438	0.6083184730523499	n/a	n/a	n/a	n/a
99.7646484375	0.2	204318	83	28	0	0	0	83	284	stimuli\Videos_short_600ms_vertflip\22.single_touch_with_metal_chopstick_short_vertflip_short_600ms.mp4	22.single_touch_with_metal_chopstick_short_vertflip_short_600ms.mp4	175.2950693191424	175.90339746933887	0.6083281501964848	n/a	n/a	n/a	n/a
100.564453125	0.2	205956	84	28	0	0	0	84	84	stimuli\Videos_short_600ms\86.touch_top_to_bottom_with_hair_brush_short_short_600ms.mp4	86.touch_top_to_bottom_with_hair_brush_short_short_600ms.mp4	176.09505799981662	176.70338292429824	0.6083249244816216	n/a	n/a	n/a	n/a
101.36474609375	0.2	207595	85	28	0	0	0	85	74	stimuli\Videos_short_600ms\77.tapping_with_all_fingers_short_short_600ms.mp4	77.tapping_with_all_fingers_short_short_600ms.mp4	176.8950466804904	177.5033721914656	0.6083255109751917	n/a	n/a	n/a	n/a
102.16455078125	0.2	209233	86	28	0	0	0	86	237	stimuli\Videos_short_600ms_horvertflip\61.single_hit_with_rolling_pin_short_horvertflip_short_600ms.mp4	61.single_hit_with_rolling_pin_short_horvertflip_short_600ms.mp4	177.69503506791762	178.30335940590567	0.6083243379880514	n/a	n/a	n/a	n/a
102.96435546875	0.2	210871	87	28	0	0	0	87	135	stimuli\Videos_short_600ms_horflip\50.single_(long)hard_push_with_thumb_short_horflip_short_600ms.mp4	50.single_(long)hard_push_with_thumb_short_horflip_short_600ms.mp4	178.49502316209782	179.10334779333243	0.6083246312346091	n/a	n/a	n/a	n/a
103.7646484375	0.2	212510	88	28	0	0	0	88	276	stimuli\Videos_short_600ms_vertflip\15.single_stroke_top_to_bottom_with_a_plastic_whisk_short_vertflip_short_600ms.mp4	15.single_stroke_top_to_bottom_with_a_plastic_whisk_short_vertflip_short_600ms.mp4	179.2950136022523	179.90333530101952	0.6083216987672131	n/a	n/a	n/a	n/a
104.564453125	0.2	214148	89	28	0	0	0	89	246	stimuli\Videos_short_600ms_horvertflip\7.repeated_touch_with_hairbrush_short_horvertflip_short_600ms.mp4	7.repeated_touch_with_hairbrush_short_horvertflip_short_600ms.mp4	180.09498879357398	180.70332456818687	0.6083357746128968	n/a	n/a	n/a	n/a
105.3642578125	0.2	215786	90	28	0	0	0	90	14	stimuli\Videos_short_600ms\22.single_touch_with_metal_chopstick_short_short_600ms.mp4	22.single_touch_with_metal_chopstick_short_short_600ms.mp4	180.89496339840207	181.50331090288637	0.6083475044842999	n/a	n/a	n/a	n/a
106.16455078125	0.2	217425	91	28	0	0	0	91	217	stimuli\Videos_short_600ms_horvertflip\43.touch_top_to_bottom_with_sharp_wooden_stick_short_horvertflip_short_600ms.mp4	43.touch_top_to_bottom_with_sharp_wooden_stick_short_horvertflip_short_600ms.mp4	181.69495383855656	182.30329987680716	0.6083460382506019	n/a	n/a	n/a	n/a
106.96435546875	0.2	219063	92	28	0	0	0	92	266	stimuli\Videos_short_600ms_horvertflip\88.repeated_stroke_with_plastic_brush_short_horvertflip_short_600ms.mp4	88.repeated_stroke_with_plastic_brush_short_horvertflip_short_600ms.mp4	182.49494281247735	183.1032847452725	0.608341932795156	n/a	n/a	n/a	n/a
107.76416015625	0.2	220701	93	28	0	0	0	93	334	stimuli\Videos_short_600ms_vertflip\68.stroke_top_to_bottom_with_shawl_short_vertflip_short_600ms.mp4	68.stroke_top_to_bottom_with_shawl_short_vertflip_short_600ms.mp4	183.2949326661383	183.90327254620615	0.6083398800678879	4.0	4.0	1.9024907502630413	1.0
140.85498046875	0.2	288471	94	28	1	0	0	0	200	stimuli\Videos_short_600ms_horvertflip\28.single_injection_with_sharp_needle_short_horvertflip_short_600ms.mp4	28.single_injection_with_sharp_needle_short_horvertflip_short_600ms.mp4	217.1860926536692	217.79443898516683	0.6083463314976143	n/a	n/a	n/a	n/a
141.65478515625	0.2	290109	95	28	1	0	0	1	215	stimuli\Videos_short_600ms_horvertflip\41.injection_with_blunt_syringe_short_horvertflip_short_600ms.mp4	41.injection_with_blunt_syringe_short_horvertflip_short_600ms.mp4	217.98609804941043	218.5944215076579	0.6083234582474688	n/a	n/a	n/a	n/a
142.455078125	0.2	291748	96	28	1	0	0	2	289	stimuli\Videos_short_600ms_vertflip\27.single_push_with_a_plastic_whisk_short_vertflip_short_600ms.mp4	27.single_push_with_a_plastic_whisk_short_vertflip_short_600ms.mp4	218.7860876098248	219.39441018833168	0.6083225785068862	n/a	n/a	n/a	n/a
143.2548828125	0.2	293386	97	28	1	0	0	3	22	stimuli\Videos_short_600ms\3.single_push_with_finger_short_short_600ms.mp4	3.single_push_with_finger_short_short_600ms.mp4	219.5860748242644	220.19439740277176	0.608322578507341	n/a	n/a	n/a	n/a
144.0546875	0.2	295024	98	28	1	0	0	4	24	stimuli\Videos_short_600ms\31.hand_grabbing_wrist_short_short_600ms.mp4	31.hand_grabbing_wrist_short_short_600ms.mp4	220.38602333012795	220.99438901591384	0.6083656857858841	n/a	n/a	n/a	n/a
144.85498046875	0.2	296663	99	28	1	0	0	5	213	stimuli\Videos_short_600ms_horvertflip\4.repeated_tap_with_finger_slow_short_horvertflip_short_600ms.mp4	4.repeated_tap_with_finger_slow_short_horvertflip_short_600ms.mp4	221.1860363502856	221.79437535061336	0.60833900032776	n/a	n/a	n/a	n/a
145.65478515625	0.2	298301	100	28	1	0	0	6	8	stimuli\Videos_short_600ms\17.repeated_touch_with_rolling_pin_short_short_600ms.mp4	17.repeated_touch_with_rolling_pin_short_short_600ms.mp4	221.98607634914788	222.5943619785594	0.6082856294115118	n/a	n/a	n/a	n/a
146.45458984375	0.2	299939	101	28	1	0	0	7	59	stimuli\Videos_short_600ms\63.stroke_top_to_bottom_with_screwdriver_short_short_600ms.mp4	63.stroke_top_to_bottom_with_screwdriver_short_short_600ms.mp4	222.78600901968457	223.39435007274005	0.6083410530554829	n/a	n/a	n/a	n/a
147.2548828125	0.2	301578	102	28	1	0	0	8	49	stimuli\Videos_short_600ms\54.repeated_touch_with_knife_short_short_600ms.mp4	54.repeated_touch_with_knife_short_short_600ms.mp4	223.58597658658985	224.19433728717968	0.6083607005898557	n/a	n/a	n/a	n/a
148.0546875	0.2	303216	103	28	1	0	0	9	56	stimuli\Videos_short_600ms\60.single_push_with_tip_of_pencil_short_short_600ms.mp4	60.single_push_with_tip_of_pencil_short_short_600ms.mp4	224.3859822755776	224.99432274213905	0.608340466561458	n/a	n/a	n/a	n/a
148.8544921875	0.2	304854	104	28	1	0	0	10	164	stimuli\Videos_short_600ms_horflip\77.tapping_with_all_fingers_short_horflip_short_600ms.mp4	77.tapping_with_all_fingers_short_horflip_short_600ms.mp4	225.18598004690193	225.79431024982568	0.608330202923753	n/a	n/a	n/a	n/a
149.65478515625	0.2	306493	105	28	1	0	0	11	124	stimuli\Videos_short_600ms_horflip\40.repeated_push_with_finger_short_horflip_short_600ms.mp4	40.repeated_push_with_finger_short_horflip_short_600ms.mp4	225.98599072108527	226.5943086076436	0.608317886558325	n/a	n/a	n/a	n/a
150.45458984375	0.2	308131	106	28	1	0	0	12	48	stimuli\Videos_short_600ms\53.touch_top_to_bottom_with_knife_short_short_600ms.mp4	53.touch_top_to_bottom_with_knife_short_short_600ms.mp4	226.7859670853936	227.39426591091112	0.6082988255175223	n/a	n/a	n/a	n/a
151.25439453125	0.2	309769	107	28	1	0	0	13	55	stimuli\Videos_short_600ms\6.single_touch_with_flat_hand_short_short_600ms.mp4	6.single_touch_with_flat_hand_short_short_600ms.mp4	227.58595752554857	228.1942548848319	0.6082973592833696	n/a	n/a	n/a	n/a
152.0546875	0.2	311408	108	28	1	0	0	14	130	stimuli\Videos_short_600ms_horflip\46.scratching_top_to_bottom_with_finger_nails_short_horflip_short_600ms.mp4	46.scratching_top_to_bottom_with_finger_nails_short_horflip_short_600ms.mp4	228.38594415349465	228.99426702524897	0.6083228717543534	n/a	n/a	n/a	n/a
152.8544921875	0.2	313046	109	28	1	0	0	15	323	stimuli\Videos_short_600ms_vertflip\58.single_slap_with_pencil_short_vertflip_short_600ms.mp4	58.single_slap_with_pencil_short_vertflip_short_600ms.mp4	229.18591406637415	229.79425922488417	0.6083451585100192	n/a	n/a	n/a	n/a
153.65478515625	0.2	314685	110	28	1	0	0	16	47	stimuli\Videos_short_600ms\52.touch_top_to_bottom_with_hammer_short_short_600ms.mp4	52.touch_top_to_bottom_with_hammer_short_short_600ms.mp4	229.9859423353646	230.5942402811415	0.6082979457769397	n/a	n/a	n/a	n/a
154.45458984375	0.2	316323	111	28	1	0	1	17	383	stimuli\Targets_short_600ms_vertflip\hand-stroke_short_horvertflip_short_600ms.mp4	hand-stroke_short_horvertflip_short_600ms.mp4	230.78590638330795	231.3942368794787	0.6083304961707654	n/a	n/a	n/a	n/a
155.25439453125	0.2	317961	112	28	1	0	0	18	255	stimuli\Videos_short_600ms_horvertflip\78.single_stroke_top_to_bottom_with_soft_brush_short_horvertflip_short_600ms.mp4	78.single_stroke_top_to_bottom_with_soft_brush_short_horvertflip_short_600ms.mp4	231.58589565047575	232.1942202817104	0.6083246312346091	n/a	n/a	n/a	n/a
156.0546875	0.2	319600	113	28	1	0	0	19	5	stimuli\Videos_short_600ms\14.repeated_touch_with_pencil_short_short_600ms.mp4	14.repeated_touch_with_pencil_short_short_600ms.mp4	232.3858831581624	232.99420573666976	0.608322578507341	n/a	n/a	n/a	n/a
156.8544921875	0.2	321238	114	28	1	0	0	20	219	stimuli\Videos_short_600ms_horvertflip\45.scratching_with_finger_nails_short_horvertflip_short_600ms.mp4	45.scratching_with_finger_nails_short_horvertflip_short_600ms.mp4	233.1858721320832	233.79419383084996	0.6083216987667583	n/a	n/a	n/a	n/a
157.654296875	0.2	322876	115	28	1	0	0	21	257	stimuli\Videos_short_600ms_horvertflip\8.single_touch_with_hairbrush_short_horvertflip_short_600ms.mp4	8.single_touch_with_hairbrush_short_horvertflip_short_600ms.mp4	233.9858599330164	234.59418251152377	0.608322578507341	n/a	n/a	n/a	n/a
158.45458984375	0.2	324515	116	28	1	0	0	22	58	stimuli\Videos_short_600ms\62.touch_top_to_bottom_with_scissors_short_short_600ms.mp4	62.touch_top_to_bottom_with_scissors_short_short_600ms.mp4	234.78586738148488	235.3941706057044	0.6083032242195259	n/a	n/a	n/a	n/a
159.25439453125	0.2	326153	117	28	1	0	0	23	53	stimuli\Videos_short_600ms\58.single_slap_with_pencil_short_short_600ms.mp4	58.single_slap_with_pencil_short_short_600ms.mp4	235.58583260241585	236.1941572336505	0.6083246312346091	n/a	n/a	n/a	n/a
160.05419921875	0.2	327791	118	28	1	0	0	24	242	stimuli\Videos_short_600ms_horvertflip\66.stroke_top_to_bottom_with_sponge_short_horvertflip_short_600ms.mp4	66.stroke_top_to_bottom_with_sponge_short_horvertflip_short_600ms.mp4	236.3857852137344	236.9941447413371	0.6083595276027154	n/a	n/a	n/a	n/a
160.8544921875	0.2	329430	119	28	1	0	0	25	346	stimuli\Videos_short_600ms_vertflip\79.long_with_soft_brush_all_over_the_hand_short_vertflip_short_600ms.mp4	79.long_with_soft_brush_all_over_the_hand_short_vertflip_short_600ms.mp4	237.18579324869643	237.79413488824505	0.6083416395485983	n/a	n/a	n/a	n/a
161.654296875	0.2	331068	120	28	1	0	0	26	214	stimuli\Videos_short_600ms_horvertflip\40.repeated_push_with_finger_short_horvertflip_short_600ms.mp4	40.repeated_push_with_finger_short_horvertflip_short_600ms.mp4	237.9857784104088	238.59412327567225	0.6083448652634615	n/a	n/a	n/a	n/a
162.4541015625	0.2	332706	121	28	1	0	0	27	94	stimuli\Videos_short_600ms_horflip\13.single_touch_with_pen_short_horflip_short_600ms.mp4	13.single_touch_with_pen_short_horflip_short_600ms.mp4	238.78576855731671	239.3941101968653	0.6083416395485983	n/a	n/a	n/a	n/a
163.25439453125	0.2	334345	122	28	1	0	0	28	155	stimuli\Videos_short_600ms_horflip\69.stroke_with_soft_sock_short_horflip_short_600ms.mp4	69.stroke_with_soft_sock_short_horflip_short_600ms.mp4	239.5857821639679	240.19409594507124	0.6083137811033339	n/a	n/a	n/a	n/a
164.05419921875	0.2	335983	123	28	1	0	0	29	142	stimuli\Videos_short_600ms_horflip\57.single_touch_with_nail_file_short_horflip_short_600ms.mp4	57.single_touch_with_nail_file_short_horflip_short_600ms.mp4	240.3857470916519	240.99409049068117	0.6083433990293088	n/a	n/a	n/a	n/a
164.85400390625	0.2	337621	124	28	1	0	0	30	132	stimuli\Videos_short_600ms_horflip\48.single_slap_with_hand_short_horflip_short_600ms.mp4	48.single_slap_with_hand_short_horflip_short_600ms.mp4	241.18576714973233	241.7940762388871	0.6083090891547727	n/a	n/a	n/a	n/a
165.654296875	0.2	339260	125	28	1	0	0	31	140	stimuli\Videos_short_600ms_horflip\55.touch_top_to_bottom_with_nail_file_short_horflip_short_600ms.mp4	55.touch_top_to_bottom_with_nail_file_short_horflip_short_600ms.mp4	241.9857397018327	242.5940584681316	0.6083187662989076	n/a	n/a	n/a	n/a
166.4541015625	0.2	340898	126	28	1	0	0	32	83	stimuli\Videos_short_600ms\85.touch_top_to_bottom_with_fabric_short_short_600ms.mp4	85.touch_top_to_bottom_with_fabric_short_short_600ms.mp4	242.78573864614415	243.3940547732218	0.6083161270776145	n/a	n/a	n/a	n/a
167.25390625	0.2	342536	127	28	1	0	0	33	326	stimuli\Videos_short_600ms_vertflip\60.single_push_with_tip_of_pencil_short_vertflip_short_600ms.mp4	60.single_push_with_tip_of_pencil_short_vertflip_short_600ms.mp4	243.5857167699337	244.1940396416876	0.6083228717538987	n/a	n/a	n/a	n/a
168.05419921875	0.2	344175	128	28	1	0	0	34	359	stimuli\Videos_short_600ms_vertflip\90.repeated_touch_with_sponge_short_vertflip_short_600ms.mp4	90.repeated_touch_with_sponge_short_vertflip_short_600ms.mp4	244.3857042776203	244.99402978859553	0.6083255109751917	n/a	n/a	n/a	n/a
168.85400390625	0.2	345813	129	28	1	0	0	35	315	stimuli\Videos_short_600ms_vertflip\50.single_(long)hard_push_with_thumb_short_vertflip_short_600ms.mp4	50.single_(long)hard_push_with_thumb_short_vertflip_short_600ms.mp4	245.18569237180057	245.7939982352409	0.6083058634403642	n/a	n/a	n/a	n/a
169.65380859375	0.2	347451	130	28	1	0	1	36	370	stimuli\Targets_short_600ms_horflip\hand-pinch_short_horflip_short_600ms.mp4	hand-pinch_short_horflip_short_600ms.mp4	245.98567841325348	246.5940141878664	0.6083357746128968	n/a	n/a	n/a	n/a
170.4541015625	0.2	349090	131	28	1	0	0	37	295	stimuli\Videos_short_600ms_vertflip\32.single_(long)pinch_with_fingers_short_vertflip_short_600ms.mp4	32.single_(long)pinch_with_fingers_short_vertflip_short_600ms.mp4	246.7856336637933	247.39399201840888	0.6083583546155751	n/a	n/a	n/a	n/a
171.25390625	0.2	350728	132	28	1	0	0	38	128	stimuli\Videos_short_600ms_horflip\44.pushing_top_to_bottom_with_finger_short_horflip_short_600ms.mp4	44.pushing_top_to_bottom_with_finger_short_horflip_short_600ms.mp4	247.5856604665496	248.19397952609552	0.60831905954592	n/a	n/a	n/a	n/a
172.05419921875	0.2	352367	133	28	1	0	0	39	46	stimuli\Videos_short_600ms\51.repeated_touch_with_hammer_short_short_600ms.mp4	51.repeated_touch_with_hammer_short_short_600ms.mp4	248.38564064306684	248.99396703378216	0.6083263907153196	n/a	n/a	n/a	n/a
172.85400390625	0.2	354005	134	28	1	0	0	40	316	stimuli\Videos_short_600ms_vertflip\51.repeated_touch_with_hammer_short_vertflip_short_600ms.mp4	51.repeated_touch_with_hammer_short_vertflip_short_600ms.mp4	249.18563049672775	249.7939548347158	0.6083243379880514	n/a	n/a	n/a	n/a
173.65380859375	0.2	355643	135	28	1	0	0	41	157	stimuli\Videos_short_600ms_horflip\70.(long)stroke_with_finger_all_over_the_hand_short_horflip_short_600ms.mp4	70.(long)stroke_with_finger_all_over_the_hand_short_horflip_short_600ms.mp4	249.98562035038867	250.5939455681173	0.608325217728634	n/a	n/a	n/a	n/a
174.4541015625	0.2	357282	136	28	1	0	0	42	121	stimuli\Videos_short_600ms_horflip\38.double_slap_with_pencil_short_horflip_short_600ms.mp4	38.double_slap_with_pencil_short_horflip_short_600ms.mp4	250.78558703755337	251.39392897034895	0.6083419327956108	n/a	n/a	n/a	n/a
175.25390625	0.2	358920	137	28	1	0	0	43	296	stimuli\Videos_short_600ms_vertflip\33.scratch_top_to_bottom_with_scissors_short_vertflip_short_600ms.mp4	33.scratch_top_to_bottom_with_scissors_short_vertflip_short_600ms.mp4	251.58561296056996	252.19391794426977	0.6083049836997816	n/a	n/a	n/a	n/a
176.0537109375	0.2	360558	138	28	1	0	0	44	333	stimuli\Videos_short_600ms_vertflip\67.single_touch_with_sponge_short_vertflip_short_600ms.mp4	67.single_touch_with_sponge_short_vertflip_short_600ms.mp4	252.3855591204592	252.99390867767124	0.6083495572120228	n/a	n/a	n/a	n/a
176.85400390625	0.2	362197	139	28	1	0	0	45	73	stimuli\Videos_short_600ms\76.tickle_with_fingers_from_top_to_bottom_short_short_600ms.mp4	76.tickle_with_fingers_from_top_to_bottom_short_short_600ms.mp4	253.1855469213924	253.79389471912373	0.6083477977313123	n/a	n/a	n/a	n/a
177.65380859375	0.2	363835	140	28	1	0	0	46	154	stimuli\Videos_short_600ms_horflip\68.stroke_top_to_bottom_with_shawl_short_horflip_short_600ms.mp4	68.stroke_top_to_bottom_with_shawl_short_horflip_short_600ms.mp4	253.98560275558157	254.5938816403168	0.6082788847352276	n/a	n/a	n/a	n/a
178.45361328125	0.2	365473	141	28	1	0	0	47	144	stimuli\Videos_short_600ms_horflip\59.single_push_with_long_side_pencil_short_horflip_short_600ms.mp4	59.single_push_with_long_side_pencil_short_horflip_short_600ms.mp4	254.78553014767613	255.39387149397817	0.6083413463020406	n/a	n/a	n/a	n/a
179.25390625	0.2	367112	142	28	1	0	0	48	110	stimuli\Videos_short_600ms_horflip\28.single_injection_with_sharp_needle_short_horflip_short_600ms.mp4	28.single_injection_with_sharp_needle_short_horflip_short_600ms.mp4	255.58652671756863	256.1938537232227	0.6073270056540423	n/a	n/a	n/a	n/a
180.0537109375	0.2	368750	143	28	1	0	0	49	270	stimuli\Videos_short_600ms_vertflip\1.repeated_touch_with_finger_fast_short_vertflip_short_600ms.mp4	1.repeated_touch_with_finger_fast_short_vertflip_short_600ms.mp4	256.3856682082651	256.99385677298915	0.6081885647240597	n/a	n/a	n/a	n/a
180.853515625	0.2	370388	144	28	1	0	0	50	100	stimuli\Videos_short_600ms_horflip\19.single_touch_with_rolling_pin_short_horflip_short_600ms.mp4	19.single_touch_with_rolling_pin_short_horflip_short_600ms.mp4	257.1855111452842	257.7938134897631	0.6083023444789433	n/a	n/a	n/a	n/a
181.65380859375	0.2	372027	145	28	1	0	0	51	115	stimuli\Videos_short_600ms_horflip\32.single_(long)pinch_with_fingers_short_horflip_short_600ms.mp4	32.single_(long)pinch_with_fingers_short_horflip_short_600ms.mp4	257.98549894621783	258.59382387069945	0.6083249244816216	n/a	n/a	n/a	n/a
182.45361328125	0.2	373665	146	28	1	0	1	52	362	stimuli\Targets_short_600ms\chopstickwood-tap_short_short_600ms.mp4	chopstickwood-tap_short_short_600ms.mp4	258.78548440117675	259.39377354955013	0.6082891483733874	n/a	n/a	n/a	n/a
183.25341796875	0.2	375303	147	28	1	0	0	53	26	stimuli\Videos_short_600ms\33.scratch_top_to_bottom_with_scissors_short_short_600ms.mp4	33.scratch_top_to_bottom_with_scissors_short_short_600ms.mp4	259.58547249535695	260.19378451698003	0.6083120216230782	n/a	n/a	n/a	n/a
184.0537109375	0.2	376942	148	28	1	0	0	54	224	stimuli\Videos_short_600ms_horvertflip\5.repeated_tap_with_finger_moving_from_top_to_bottom_short_horvertflip_short_600ms.mp4	5.repeated_tap_with_finger_moving_from_top_to_bottom_short_horvertflip_short_600ms.mp4	260.3854629355119	260.9937896194742	0.608326683962332	n/a	n/a	n/a	n/a
184.853515625	0.2	378580	149	28	1	0	0	55	97	stimuli\Videos_short_600ms_horflip\16.repeated_touch_with_plastic_brush_short_horflip_short_600ms.mp4	16.repeated_touch_with_plastic_brush_short_horflip_short_600ms.mp4	261.18544985670496	261.793782405603	0.6083325488980336	n/a	n/a	n/a	n/a
185.6533203125	0.2	380218	150	28	1	0	0	56	208	stimuli\Videos_short_600ms_horvertflip\35.single_punch_with_hand_short_horvertflip_short_600ms.mp4	35.single_punch_with_hand_short_horvertflip_short_600ms.mp4	261.9854376576386	262.59376580783464	0.60832815019603	n/a	n/a	n/a	n/a
186.45361328125	0.2	381857	151	28	1	0	0	57	173	stimuli\Videos_short_600ms_horflip\85.touch_top_to_bottom_with_fabric_short_horflip_short_600ms.mp4	85.touch_top_to_bottom_with_fabric_short_horflip_short_600ms.mp4	262.7854257518188	263.3937629926654	0.6083372408465948	n/a	n/a	n/a	n/a
187.25341796875	0.2	383495	152	28	1	0	0	58	309	stimuli\Videos_short_600ms_vertflip\45.scratching_with_finger_nails_short_vertflip_short_600ms.mp4	45.scratching_with_finger_nails_short_vertflip_short_600ms.mp4	263.5854153122332	264.19373877048065	0.6083234582474688	n/a	n/a	n/a	n/a
188.05322265625	0.2	385133	153	28	1	0	0	59	357	stimuli\Videos_short_600ms_vertflip\89.single_touch_with_plastic_brush_short_vertflip_short_600ms.mp4	89.single_touch_with_plastic_brush_short_vertflip_short_600ms.mp4	264.38540839160896	264.9937265714143	0.6083181798053374	n/a	n/a	n/a	n/a
188.853515625	0.2	386772	154	28	1	0	0	60	171	stimuli\Videos_short_600ms_horflip\83.single_stroke_top_to_bottom_with_cotton_bud_short_horflip_short_600ms.mp4	83.single_stroke_top_to_bottom_with_cotton_bud_short_horflip_short_600ms.mp4	265.1853917938406	265.7937149588415	0.6083231650009111	n/a	n/a	n/a	n/a
189.6533203125	0.2	388410	155	28	1	0	0	61	9	stimuli\Videos_short_600ms\18.single_stroke_from_top_to_bottom_with_rolling_pin_short_short_600ms.mp4	18.single_stroke_from_top_to_bottom_with_rolling_pin_short_short_600ms.mp4	265.9853746095787	266.5937036395153	0.6083290299366126	n/a	n/a	n/a	n/a
190.45361328125	0.2	390049	156	28	1	0	0	62	322	stimuli\Videos_short_600ms_vertflip\57.single_touch_with_nail_file_short_vertflip_short_600ms.mp4	57.single_touch_with_nail_file_short_vertflip_short_600ms.mp4	266.78537560661744	267.3936934931762	0.6083178865587797	n/a	n/a	n/a	n/a
191.25341796875	0.2	391687	157	28	1	0	0	63	223	stimuli\Videos_short_600ms_horvertflip\49.repeated_slap_with_hand_short_horvertflip_short_600ms.mp4	49.repeated_slap_with_hand_short_horvertflip_short_600ms.mp4	267.5853440532628	268.19367748190143	0.6083334286386162	n/a	n/a	n/a	n/a
192.05322265625	0.2	393325	158	28	1	0	0	64	6	stimuli\Videos_short_600ms\15.single_stroke_top_to_bottom_with_a_plastic_whisk_short_short_600ms.mp4	15.single_stroke_top_to_bottom_with_a_plastic_whisk_short_short_600ms.mp4	268.38535736666745	268.9936661625752	0.6083087959077602	n/a	n/a	n/a	n/a
192.853515625	0.2	394964	159	28	1	0	0	65	184	stimuli\Videos_short_600ms_horvertflip\13.single_touch_with_pen_short_horvertflip_short_600ms.mp4	13.single_touch_with_pen_short_horvertflip_short_600ms.mp4	269.1853041130503	269.7936527905217	0.6083486774714402	n/a	n/a	n/a	n/a
193.6533203125	0.2	396602	160	28	1	0	0	66	348	stimuli\Videos_short_600ms_vertflip\80.stroke_with_sharp_stick_all_over_the_hand_short_vertflip_short_600ms.mp4	80.stroke_with_sharp_stick_all_over_the_hand_short_vertflip_short_600ms.mp4	269.98531390749304	270.5936435239232	0.6083296164301828	n/a	n/a	n/a	n/a
194.453125	0.2	398240	161	28	1	0	0	67	123	stimuli\Videos_short_600ms_horflip\4.repeated_tap_with_finger_slow_short_horflip_short_600ms.mp4	4.repeated_tap_with_finger_slow_short_horflip_short_600ms.mp4	270.78528733933354	271.39359701498233	0.6083096756487976	n/a	n/a	n/a	n/a
195.25341796875	0.2	399879	162	28	1	0	0	68	113	stimuli\Videos_short_600ms_horflip\30.finger_pulling_back_another_finger_short_horflip_short_600ms.mp4	30.finger_pulling_back_another_finger_short_horflip_short_600ms.mp4	271.5853038784526	272.1935713265634	0.608267448110837	n/a	n/a	n/a	n/a
196.05322265625	0.2	401517	163	28	1	0	0	69	261	stimuli\Videos_short_600ms_horvertflip\83.single_stroke_top_to_bottom_with_cotton_bud_short_horvertflip_short_600ms.mp4	83.single_stroke_top_to_bottom_with_cotton_bud_short_horvertflip_short_600ms.mp4	272.38528258873566	272.9935702708749	0.6082876821392347	n/a	n/a	n/a	n/a
196.85302734375	0.2	403155	164	28	1	0	0	70	235	stimuli\Videos_short_600ms_horvertflip\6.single_touch_with_flat_hand_short_horvertflip_short_600ms.mp4	6.single_touch_with_flat_hand_short_horvertflip_short_600ms.mp4	273.18526892343516	273.79354692843026	0.6082780049950998	n/a	n/a	n/a	n/a
197.6533203125	0.2	404794	165	28	1	0	0	71	117	stimuli\Videos_short_600ms_horflip\34.repeated_punch_with_hand_short_horflip_short_600ms.mp4	34.repeated_punch_with_hand_short_horflip_short_600ms.mp4	273.98525613787524	274.5935534971586	0.6082973592833696	n/a	n/a	n/a	n/a
198.453125	0.2	406432	166	28	1	0	0	72	63	stimuli\Videos_short_600ms\67.single_touch_with_sponge_short_short_600ms.mp4	67.single_touch_with_sponge_short_short_600ms.mp4	274.78524452530246	275.3935559604315	0.6083114351290533	n/a	n/a	n/a	n/a
199.2529296875	0.2	408070	167	28	1	0	0	73	111	stimuli\Videos_short_600ms_horflip\29.single_pinch_with_tweezers_short_horflip_short_600ms.mp4	29.single_pinch_with_tweezers_short_horflip_short_600ms.mp4	275.5852320329891	276.19354786682015	0.6083158338310568	n/a	n/a	n/a	n/a
200.05322265625	0.2	409709	168	28	1	0	0	74	297	stimuli\Videos_short_600ms_vertflip\34.repeated_punch_with_hand_short_vertflip_short_600ms.mp4	34.repeated_punch_with_hand_short_vertflip_short_600ms.mp4	276.3852201271693	276.9935526760678	0.6083325488984883	n/a	n/a	n/a	n/a
200.85302734375	0.2	411347	169	28	1	0	0	75	288	stimuli\Videos_short_600ms_vertflip\26.single_touch_with_a_blunt_syringe_short_vertflip_short_600ms.mp4	26.single_touch_with_a_blunt_syringe_short_vertflip_short_600ms.mp4	277.18521027407724	277.7935381310267	0.6083278569494723	n/a	n/a	n/a	n/a
201.65283203125	0.2	412985	170	28	1	0	1	76	361	stimuli\Targets_short_600ms\chopstick-silver-tap_short_short_600ms.mp4	chopstick-silver-tap_short_short_600ms.mp4	277.9851963155302	278.5935288644282	0.6083325488980336	n/a	n/a	n/a	n/a
202.453125	0.2	414624	171	28	1	0	0	77	112	stimuli\Videos_short_600ms_horflip\3.single_push_with_finger_short_horflip_short_600ms.mp4	3.single_push_with_finger_short_horflip_short_600ms.mp4	278.78518411646337	279.3935110936727	0.6083269772093445	n/a	n/a	n/a	n/a
203.2529296875	0.2	416262	172	28	1	0	0	78	57	stimuli\Videos_short_600ms\61.single_hit_with_rolling_pin_short_short_600ms.mp4	61.single_hit_with_rolling_pin_short_short_600ms.mp4	279.58518130129414	280.1934942026578	0.6083129013636608	n/a	n/a	n/a	n/a
204.052734375	0.2	417900	173	28	1	0	0	79	344	stimuli\Videos_short_600ms_vertflip\77.tapping_with_all_fingers_short_vertflip_short_600ms.mp4	77.tapping_with_all_fingers_short_vertflip_short_600ms.mp4	280.38516968872136	280.9934843495653	0.6083146608439165	n/a	n/a	n/a	n/a
204.85302734375	0.2	419539	174	28	1	0	0	80	320	stimuli\Videos_short_600ms_vertflip\55.touch_top_to_bottom_with_nail_file_short_vertflip_short_600ms.mp4	55.touch_top_to_bottom_with_nail_file_short_vertflip_short_600ms.mp4	281.18515690316144	281.7934727369925	0.6083158338310568	n/a	n/a	n/a	n/a
205.65283203125	0.2	421177	175	28	1	0	0	81	273	stimuli\Videos_short_600ms_vertflip\12.repeated_touch_with_nail_file_short_vertflip_short_600ms.mp4	12.repeated_touch_with_nail_file_short_vertflip_short_600ms.mp4	281.9851420648738	282.5934608311727	0.6083187662989076	n/a	n/a	n/a	n/a
206.45263671875	0.2	422815	176	28	1	0	0	82	90	stimuli\Videos_short_600ms_horflip\1.repeated_touch_with_finger_fast_short_horflip_short_600ms.mp4	1.repeated_touch_with_finger_fast_short_horflip_short_600ms.mp4	282.78511139125976	283.3934477523658	0.6083363611060122	n/a	n/a	n/a	n/a
207.2529296875	0.2	424454	177	28	1	0	0	83	151	stimuli\Videos_short_600ms_horflip\65.stroke_top_to_bottom_with_stanley_knife_short_horflip_short_600ms.mp4	65.stroke_top_to_bottom_with_stanley_knife_short_horflip_short_600ms.mp4	283.5850886353087	284.19343496680585	0.6083463314971596	n/a	n/a	n/a	n/a
208.052734375	0.2	426092	178	28	1	0	0	84	232	stimuli\Videos_short_600ms_horvertflip\57.single_touch_with_nail_file_short_horvertflip_short_600ms.mp4	57.single_touch_with_nail_file_short_horvertflip_short_600ms.mp4	284.38505590896693	284.9934224744925	0.6083665655255572	n/a	n/a	n/a	n/a
208.8525390625	0.2	427730	179	28	1	0	0	85	190	stimuli\Videos_short_600ms_horvertflip\19.single_touch_with_rolling_pin_short_horvertflip_short_600ms.mp4	19.single_touch_with_rolling_pin_short_horvertflip_short_600ms.mp4	285.18506687639683	285.79341203490685	0.6083451585100192	n/a	n/a	n/a	n/a
209.65283203125	0.2	429369	180	28	1	0	0	86	226	stimuli\Videos_short_600ms_horvertflip\51.repeated_touch_with_hammer_short_horvertflip_short_600ms.mp4	51.repeated_touch_with_hammer_short_horvertflip_short_600ms.mp4	285.98508576149015	286.59340100882764	0.6083152473374867	n/a	n/a	n/a	n/a
210.45263671875	0.2	431007	181	28	1	0	1	87	366	stimuli\Targets_short_600ms_horflip\brush-stroke_short_horflip_short_600ms.mp4	brush-stroke_short_horflip_short_600ms.mp4	286.78504980943353	287.39338617054	0.6083363611064669	n/a	n/a	n/a	n/a
211.2529296875	0.2	432646	182	28	1	0	0	88	153	stimuli\Videos_short_600ms_horflip\67.single_touch_with_sponge_short_horflip_short_600ms.mp4	67.single_touch_with_sponge_short_horflip_short_600ms.mp4	287.585065762059	288.1933513914705	0.6082856294115118	n/a	n/a	n/a	n/a
212.052734375	0.2	434284	183	28	1	0	0	89	347	stimuli\Videos_short_600ms_vertflip\8.single_touch_with_hairbrush_short_vertflip_short_600ms.mp4	8.single_touch_with_hairbrush_short_vertflip_short_600ms.mp4	288.3850412466272	288.9933447640933	0.6083035174660836	n/a	n/a	n/a	n/a
212.8525390625	0.2	435922	184	28	1	0	0	90	319	stimuli\Videos_short_600ms_vertflip\54.repeated_touch_with_knife_short_vertflip_short_600ms.mp4	54.repeated_touch_with_knife_short_vertflip_short_600ms.mp4	289.1850328597693	289.79335074632763	0.608317886558325	n/a	n/a	n/a	n/a
213.65283203125	0.2	437561	185	28	1	0	0	91	356	stimuli\Videos_short_600ms_vertflip\88.repeated_stroke_with_plastic_brush_short_vertflip_short_600ms.mp4	88.repeated_stroke_with_plastic_brush_short_vertflip_short_600ms.mp4	289.9850215404431	290.59332447141514	0.6083029309720587	n/a	n/a	n/a	n/a
214.45263671875	0.2	439199	186	28	1	0	0	92	79	stimuli\Videos_short_600ms\81.single_stroke_top_to_bottom_with_cotton_pad_short_short_600ms.mp4	81.single_stroke_top_to_bottom_with_cotton_pad_short_short_600ms.mp4	290.78500640890843	291.39330699390666	0.6083005849982328	n/a	n/a	n/a	n/a
215.25244140625	0.2	440837	187	28	1	0	0	93	349	stimuli\Videos_short_600ms_vertflip\81.single_stroke_top_to_bottom_with_cotton_pad_short_vertflip_short_600ms.mp4	81.single_stroke_top_to_bottom_with_cotton_pad_short_vertflip_short_600ms.mp4	291.5849942098421	292.19331796133656	0.6083237514944813	n/a	n/a	n/a	n/a
216.052734375	0.2	442476	188	28	1	0	0	94	293	stimuli\Videos_short_600ms_vertflip\30.finger_pulling_back_another_finger_short_vertflip_short_600ms.mp4	30.finger_pulling_back_another_finger_short_vertflip_short_600ms.mp4	292.384979958048	292.9933031230489	0.6083231650009111	5.0	4.0	2.067707164928379	0.0
249.66796875	0.2	511320	189	28	2	0	1	0	377	stimuli\Targets_short_600ms_horvertflip\hand-stroke_short_vertflip_short_600ms.mp4	hand-stroke_short_vertflip_short_600ms.mp4	326.00121228223134	326.6094603760539	0.6082480938225672	n/a	n/a	n/a	n/a
250.46826171875	0.2	512959	190	28	2	0	0	1	238	stimuli\Videos_short_600ms_horvertflip\62.touch_top_to_bottom_with_scissors_short_horvertflip_short_600ms.mp4	62.touch_top_to_bottom_with_scissors_short_horvertflip_short_600ms.mp4	326.80108513042296	327.40943058218	0.6083454517570317	n/a	n/a	n/a	n/a
251.26806640625	0.2	514597	191	28	2	0	0	2	183	stimuli\Videos_short_600ms_horvertflip\12.repeated_touch_with_nail_file_short_horvertflip_short_600ms.mp4	12.repeated_touch_with_nail_file_short_horvertflip_short_600ms.mp4	327.6010996168143	328.20941808986663	0.6083184730523499	n/a	n/a	n/a	n/a
252.06787109375	0.2	516235	192	28	2	0	0	3	61	stimuli\Videos_short_600ms\65.stroke_top_to_bottom_with_stanley_knife_short_short_600ms.mp4	65.stroke_top_to_bottom_with_stanley_knife_short_short_600ms.mp4	328.40110970450405	329.0094316965178	0.6083219920137708	n/a	n/a	n/a	n/a
252.8681640625	0.2	517874	193	28	2	0	0	4	147	stimuli\Videos_short_600ms_horflip\61.single_hit_with_rolling_pin_short_horflip_short_600ms.mp4	61.single_hit_with_rolling_pin_short_horflip_short_600ms.mp4	329.20108753504655	329.80940542160533	0.6083178865587797	n/a	n/a	n/a	n/a
253.66796875	0.2	519512	194	28	2	0	0	5	182	stimuli\Videos_short_600ms_horvertflip\11.single_touch_with_lighter_short_horvertflip_short_600ms.mp4	11.single_touch_with_lighter_short_horvertflip_short_600ms.mp4	330.0010870658516	330.6094070051381	0.6083199392865026	n/a	n/a	n/a	n/a
254.4677734375	0.2	521150	195	28	2	0	0	6	321	stimuli\Videos_short_600ms_vertflip\56.repeated_touch_with_nail_file_short_vertflip_short_600ms.mp4	56.repeated_touch_with_nail_file_short_vertflip_short_600ms.mp4	330.8010634301604	331.4093660678859	0.608302637725501	n/a	n/a	n/a	n/a
255.26806640625	0.2	522789	196	28	2	0	0	7	137	stimuli\Videos_short_600ms_horflip\52.touch_top_to_bottom_with_hammer_short_horflip_short_600ms.mp4	52.touch_top_to_bottom_with_hammer_short_horflip_short_600ms.mp4	331.60105181758763	332.2093779150564	0.6083260974687619	n/a	n/a	n/a	n/a
256.06787109375	0.2	524427	197	28	2	0	0	8	175	stimuli\Videos_short_600ms_horflip\87.single_stroke_top_to_bottom_with_plastic_brush_short_horflip_short_600ms.mp4	87.single_stroke_top_to_bottom_with_plastic_brush_short_horflip_short_600ms.mp4	332.40103932527427	333.0093601443009	0.6083208190266305	n/a	n/a	n/a	n/a
256.86767578125	0.2	526065	198	28	2	0	0	9	220	stimuli\Videos_short_600ms_horvertflip\46.scratching_top_to_bottom_with_finger_nails_short_horvertflip_short_600ms.mp4	46.scratching_top_to_bottom_with_finger_nails_short_horvertflip_short_600ms.mp4	333.20102653971435	333.80935820887225	0.6083316691579057	n/a	n/a	n/a	n/a
257.66796875	0.2	527704	199	28	2	0	0	10	317	stimuli\Videos_short_600ms_vertflip\52.touch_top_to_bottom_with_hammer_short_vertflip_short_600ms.mp4	52.touch_top_to_bottom_with_hammer_short_vertflip_short_600ms.mp4	334.0010158068817	334.6093395583762	0.6083237514944813	n/a	n/a	n/a	n/a
258.4677734375	0.2	529342	200	28	2	0	0	11	251	stimuli\Videos_short_600ms_horvertflip\74.fingers_walking_from_top_to_bottom_short_horvertflip_short_600ms.mp4	74.fingers_walking_from_top_to_bottom_short_horvertflip_short_600ms.mp4	334.80102560132445	335.40932677281626	0.608301171491803	n/a	n/a	n/a	n/a
259.267578125	0.2	530980	201	28	2	0	0	12	21	stimuli\Videos_short_600ms\29.single_pinch_with_tweezers_short_short_600ms.mp4	29.single_pinch_with_tweezers_short_short_600ms.mp4	335.60098818303413	336.20931486699646	0.608326683962332	n/a	n/a	n/a	n/a
260.06787109375	0.2	532619	202	28	2	0	0	13	230	stimuli\Videos_short_600ms_horvertflip\55.touch_top_to_bottom_with_nail_file_short_horvertflip_short_600ms.mp4	55.touch_top_to_bottom_with_nail_file_short_horvertflip_short_600ms.mp4	336.40098067591634	337.00930384091726	0.6083231650009111	n/a	n/a	n/a	n/a
260.86767578125	0.2	534257	203	28	2	0	0	14	307	stimuli\Videos_short_600ms_vertflip\43.touch_top_to_bottom_with_sharp_wooden_stick_short_vertflip_short_600ms.mp4	43.touch_top_to_bottom_with_sharp_wooden_stick_short_vertflip_short_600ms.mp4	337.2009614389267	337.8092904688633	0.6083290299366126	n/a	n/a	n/a	n/a
261.66796875	0.2	535896	204	28	2	0	0	15	343	stimuli\Videos_short_600ms_vertflip\76.tickle_with_fingers_from_top_to_bottom_short_vertflip_short_600ms.mp4	76.tickle_with_fingers_from_top_to_bottom_short_vertflip_short_600ms.mp4	338.0009369234949	338.60927885629053	0.6083419327956108	n/a	n/a	n/a	n/a
262.4677734375	0.2	537534	205	28	2	0	0	16	253	stimuli\Videos_short_600ms_horvertflip\76.tickle_with_fingers_from_top_to_bottom_short_horvertflip_short_600ms.mp4	76.tickle_with_fingers_from_top_to_bottom_short_horvertflip_short_600ms.mp4	338.8009261906627	339.40926695047074	0.6083407598080157	n/a	n/a	n/a	n/a
263.267578125	0.2	539172	206	28	2	0	0	17	196	stimuli\Videos_short_600ms_horvertflip\24.single_stroke_top_to_bottom_with_a_spoon_short_horvertflip_short_600ms.mp4	24.single_stroke_top_to_bottom_with_a_spoon_short_horvertflip_short_600ms.mp4	339.6009081266602	340.2092524054301	0.6083442787698914	n/a	n/a	n/a	n/a
264.06787109375	0.2	540811	207	28	2	0	0	18	27	stimuli\Videos_short_600ms\34.repeated_punch_with_hand_short_short_600ms.mp4	34.repeated_punch_with_hand_short_short_600ms.mp4	340.40087393408476	341.0092437253252	0.6083697912404205	n/a	n/a	n/a	n/a
264.86767578125	0.2	542449	208	28	2	0	0	19	281	stimuli\Videos_short_600ms_vertflip\2.single_touch_with_finger_short_vertflip_short_600ms.mp4	2.single_touch_with_finger_short_vertflip_short_600ms.mp4	341.2008632012521	341.8092285937905	0.6083653925384169	n/a	n/a	n/a	n/a
265.66748046875	0.2	544087	209	28	2	0	0	20	199	stimuli\Videos_short_600ms_horvertflip\27.single_push_with_a_plastic_whisk_short_horvertflip_short_600ms.mp4	27.single_push_with_a_plastic_whisk_short_horvertflip_short_600ms.mp4	342.0008718227077	342.6092161014776	0.6083442787698914	n/a	n/a	n/a	n/a
266.4677734375	0.2	545726	210	28	2	0	0	21	314	stimuli\Videos_short_600ms_vertflip\5.repeated_tap_with_finger_moving_from_top_to_bottom_short_vertflip_short_600ms.mp4	5.repeated_tap_with_finger_moving_from_top_to_bottom_short_vertflip_short_600ms.mp4	342.80095170313325	343.4092047821514	0.6082530790181409	n/a	n/a	n/a	n/a
267.267578125	0.2	547364	211	28	2	0	0	22	201	stimuli\Videos_short_600ms_horvertflip\29.single_pinch_with_tweezers_short_horvertflip_short_600ms.mp4	29.single_pinch_with_tweezers_short_horvertflip_short_600ms.mp4	343.60087616275996	344.2091843721746	0.6083082094146448	n/a	n/a	n/a	n/a
268.0673828125	0.2	549002	212	28	2	0	0	23	290	stimuli\Videos_short_600ms_vertflip\28.single_injection_with_sharp_needle_short_vertflip_short_600ms.mp4	28.single_injection_with_sharp_needle_short_vertflip_short_600ms.mp4	344.40084900810734	345.009156924275	0.6083079161676324	n/a	n/a	n/a	n/a
268.86767578125	0.2	550641	213	28	2	0	0	24	339	stimuli\Videos_short_600ms_vertflip\72.(short)stroke_with_finger_all_over_the_hand_short_vertflip_short_600ms.mp4	72.(short)stroke_with_finger_all_over_the_hand_short_vertflip_short_600ms.mp4	345.20085587008225	345.80917053092617	0.6083146608439165	n/a	n/a	n/a	n/a
269.66748046875	0.2	552279	214	28	2	0	0	25	330	stimuli\Videos_short_600ms_vertflip\64.repeated_touch_with_screwdriver_short_vertflip_short_600ms.mp4	64.repeated_touch_with_screwdriver_short_vertflip_short_600ms.mp4	346.00083370062475	346.60913487211656	0.608301171491803	n/a	n/a	n/a	n/a
270.46728515625	0.2	553917	215	28	2	0	0	26	25	stimuli\Videos_short_600ms\32.single_(long)pinch_with_fingers_short_short_600ms.mp4	32.single_(long)pinch_with_fingers_short_short_600ms.mp4	346.80081886233756	347.40912707175175	0.6083082094141901	n/a	n/a	n/a	n/a
271.267578125	0.2	555556	216	28	2	0	0	27	247	stimuli\Videos_short_600ms_horvertflip\70.(long)stroke_with_finger_all_over_the_hand_short_horvertflip_short_600ms.mp4	70.(long)stroke_with_finger_all_over_the_hand_short_horvertflip_short_600ms.mp4	347.60080754301134	348.2091148726854	0.6083073296740622	n/a	n/a	n/a	n/a
272.0673828125	0.2	557194	217	28	2	0	0	28	161	stimuli\Videos_short_600ms_horflip\74.fingers_walking_from_top_to_bottom_short_horflip_short_600ms.mp4	74.fingers_walking_from_top_to_bottom_short_horflip_short_600ms.mp4	348.4007968101787	349.0091299455703	0.6083331353916037	n/a	n/a	n/a	n/a
272.8671875	0.2	558832	218	28	2	0	0	29	81	stimuli\Videos_short_600ms\83.single_stroke_top_to_bottom_with_cotton_bud_short_short_600ms.mp4	83.single_stroke_top_to_bottom_with_cotton_bud_short_short_600ms.mp4	349.2007851976059	349.8091083626068	0.6083231650009111	n/a	n/a	n/a	n/a
273.66748046875	0.2	560471	219	28	2	0	0	30	338	stimuli\Videos_short_600ms_vertflip\71.single_stroke_with_finger_top_to_bottom_short_vertflip_short_600ms.mp4	71.single_stroke_with_finger_top_to_bottom_short_vertflip_short_600ms.mp4	350.00077857022825	350.6090946973063	0.6083161270780693	n/a	n/a	n/a	n/a
274.46728515625	0.2	562109	220	28	2	0	1	31	369	stimuli\Targets_short_600ms_horflip\finger-tap_short_horflip_short_600ms.mp4	finger-tap_short_horflip_short_600ms.mp4	350.80076343869405	351.4090813252528	0.6083178865587797	n/a	n/a	n/a	n/a
275.26708984375	0.2	563747	221	28	2	0	0	32	244	stimuli\Videos_short_600ms_horvertflip\68.stroke_top_to_bottom_with_shawl_short_horvertflip_short_600ms.mp4	68.stroke_top_to_bottom_with_shawl_short_horvertflip_short_600ms.mp4	351.60074801391283	352.2090714721603	0.6083234582474688	n/a	n/a	n/a	n/a
276.0673828125	0.2	565386	222	28	2	0	0	33	7	stimuli\Videos_short_600ms\16.repeated_touch_with_plastic_brush_short_short_600ms.mp4	16.repeated_touch_with_plastic_brush_short_short_600ms.mp4	352.400744319003	353.0090604460811	0.6083161270780693	n/a	n/a	n/a	n/a
276.8671875	0.2	567024	223	28	2	0	0	34	138	stimuli\Videos_short_600ms_horflip\53.touch_top_to_bottom_with_knife_short_horflip_short_600ms.mp4	53.touch_top_to_bottom_with_knife_short_horflip_short_600ms.mp4	353.20074062409367	353.80904590104046	0.608305276946794	n/a	n/a	n/a	n/a
277.6669921875	0.2	568662	224	28	2	0	0	35	262	stimuli\Videos_short_600ms_horvertflip\84.single_touch_with_cotton_bud_short_horvertflip_short_600ms.mp4	84.single_touch_with_cotton_bud_short_horvertflip_short_600ms.mp4	354.00071904112974	354.6090354614548	0.6083164203250817	n/a	n/a	n/a	n/a
278.46728515625	0.2	570301	225	28	2	0	1	36	371	stimuli\Targets_short_600ms_horflip\hand-stroke_short_horflip_short_600ms.mp4	hand-stroke_short_horflip_short_600ms.mp4	354.800678103878	355.40902355563503	0.6083454517570317	n/a	n/a	n/a	n/a
279.26708984375	0.2	571939	226	28	2	0	0	37	292	stimuli\Videos_short_600ms_vertflip\3.single_push_with_finger_short_vertflip_short_600ms.mp4	3.single_push_with_finger_short_vertflip_short_600ms.mp4	355.6006647318245	356.20901428903653	0.6083495572120228	n/a	n/a	n/a	n/a
280.0673828125	0.2	573578	227	28	2	0	0	38	327	stimuli\Videos_short_600ms_vertflip\61.single_hit_with_rolling_pin_short_vertflip_short_600ms.mp4	61.single_hit_with_rolling_pin_short_vertflip_short_600ms.mp4	356.40065810444685	357.00899827776175	0.6083401733149003	n/a	n/a	n/a	n/a
280.8671875	0.2	575216	228	28	2	0	0	39	294	stimuli\Videos_short_600ms_vertflip\31.hand_grabbing_wrist_short_vertflip_short_600ms.mp4	31.hand_grabbing_wrist_short_vertflip_short_600ms.mp4	357.20064297291265	357.80896936362797	0.6083263907153196	n/a	n/a	n/a	n/a
281.6669921875	0.2	576854	229	28	2	0	0	40	4	stimuli\Videos_short_600ms\13.single_touch_with_pen_short_short_600ms.mp4	13.single_touch_with_pen_short_short_600ms.mp4	358.0006287211186	358.60895481858734	0.6083260974687619	n/a	n/a	n/a	n/a
282.46728515625	0.2	578493	230	28	2	0	1	41	379	stimuli\Targets_short_600ms_vertflip\chopstick-silver-tap_short_horvertflip_short_600ms.mp4	chopstick-silver-tap_short_horvertflip_short_600ms.mp4	358.8006473129649	359.40896256030237	0.6083152473374867	n/a	n/a	n/a	n/a
283.26708984375	0.2	580131	231	28	2	0	0	42	1	stimuli\Videos_short_600ms\10.single_touch_with_knife_short_short_600ms.mp4	10.single_touch_with_knife_short_short_600ms.mp4	359.60062660974154	360.20892514201205	0.6082985322705099	n/a	n/a	n/a	n/a
284.06689453125	0.2	581769	232	28	2	0	0	43	51	stimuli\Videos_short_600ms\56.repeated_touch_with_nail_file_short_short_600ms.mp4	56.repeated_touch_with_nail_file_short_short_600ms.mp4	360.40061089171377	361.0089229133364	0.6083120216226234	n/a	n/a	n/a	n/a
284.8671875	0.2	583408	233	28	2	0	0	44	337	stimuli\Videos_short_600ms_vertflip\70.(long)stroke_with_finger_all_over_the_hand_short_vertflip_short_600ms.mp4	70.(long)stroke_with_finger_all_over_the_hand_short_vertflip_short_600ms.mp4	361.20059693316625	361.8088998641388	0.6083029309725134	n/a	n/a	n/a	n/a
285.6669921875	0.2	585046	234	28	2	0	0	45	108	stimuli\Videos_short_600ms_horflip\26.single_touch_with_a_blunt_syringe_short_horflip_short_600ms.mp4	26.single_touch_with_a_blunt_syringe_short_horflip_short_600ms.mp4	362.00058766656775	362.6089011544246	0.6083134878567762	n/a	n/a	n/a	n/a
286.466796875	0.2	586684	235	28	2	0	0	46	64	stimuli\Videos_short_600ms\68.stroke_top_to_bottom_with_shawl_short_short_600ms.mp4	68.stroke_top_to_bottom_with_shawl_short_short_600ms.mp4	362.80057634724153	363.40890596367217	0.6083296164306375	n/a	n/a	n/a	n/a
287.26708984375	0.2	588323	236	28	2	0	0	47	291	stimuli\Videos_short_600ms_vertflip\29.single_pinch_with_tweezers_short_vertflip_short_600ms.mp4	29.single_pinch_with_tweezers_short_vertflip_short_600ms.mp4	363.6005635616816	364.2088961105797	0.6083325488980336	n/a	n/a	n/a	n/a
288.06689453125	0.2	589961	237	28	2	0	1	48	382	stimuli\Targets_short_600ms_vertflip\hand-pinch_short_horvertflip_short_600ms.mp4	hand-pinch_short_horvertflip_short_600ms.mp4	364.40054960313455	365.0088742343691	0.6083246312346091	n/a	n/a	n/a	n/a
288.86669921875	0.2	591599	238	28	2	0	0	49	269	stimuli\Videos_short_600ms_horvertflip\90.repeated_touch_with_sponge_short_horvertflip_short_600ms.mp4	90.repeated_touch_with_sponge_short_horvertflip_short_600ms.mp4	365.20054268251033	365.8088646745241	0.6083219920137708	n/a	n/a	n/a	n/a
289.6669921875	0.2	593238	239	28	2	0	0	50	150	stimuli\Videos_short_600ms_horflip\64.repeated_touch_with_screwdriver_short_horflip_short_600ms.mp4	64.repeated_touch_with_screwdriver_short_horflip_short_600ms.mp4	366.00054426604265	366.60885042273	0.6083061566873766	n/a	n/a	n/a	n/a
290.466796875	0.2	594876	240	28	2	0	0	51	43	stimuli\Videos_short_600ms\49.repeated_slap_with_hand_short_short_600ms.mp4	49.repeated_slap_with_hand_short_short_600ms.mp4	366.8005153519093	367.40883851691024	0.6083231650009111	n/a	n/a	n/a	n/a
291.2666015625	0.2	596514	241	28	2	0	0	52	172	stimuli\Videos_short_600ms_horflip\84.single_touch_with_cotton_bud_short_horflip_short_600ms.mp4	84.single_touch_with_cotton_bud_short_horflip_short_600ms.mp4	367.6005022731024	368.2088280773246	0.6083258042222042	n/a	n/a	n/a	n/a
292.06689453125	0.2	598153	242	28	2	0	0	53	250	stimuli\Videos_short_600ms_horvertflip\73.single_stroke_with_flat_hand_short_horvertflip_short_600ms.mp4	73.single_stroke_with_flat_hand_short_horvertflip_short_600ms.mp4	368.4005103080645	369.0088144120241	0.6083041039596537	n/a	n/a	n/a	n/a
292.86669921875	0.2	599791	243	28	2	0	0	54	62	stimuli\Videos_short_600ms\66.stroke_top_to_bottom_with_sponge_short_short_600ms.mp4	66.stroke_top_to_bottom_with_sponge_short_short_600ms.mp4	369.2004755289954	369.8088010399706	0.6083255109751917	n/a	n/a	n/a	n/a
293.66650390625	0.2	601429	244	28	2	0	0	55	256	stimuli\Videos_short_600ms_horvertflip\79.long_with_soft_brush_all_over_the_hand_short_horvertflip_short_600ms.mp4	79.long_with_soft_brush_all_over_the_hand_short_horvertflip_short_600ms.mp4	370.0004454418745	370.6087903071379	0.6083448652634615	n/a	n/a	n/a	n/a
294.466796875	0.2	603068	245	28	2	0	0	56	10	stimuli\Videos_short_600ms\19.single_touch_with_rolling_pin_short_short_600ms.mp4	19.single_touch_with_rolling_pin_short_short_600ms.mp4	370.80044086722455	371.4087760553439	0.6083351881193266	n/a	n/a	n/a	n/a
295.2666015625	0.2	604706	246	28	2	0	0	57	75	stimuli\Videos_short_600ms\78.single_stroke_top_to_bottom_with_soft_brush_short_short_600ms.mp4	78.single_stroke_top_to_bottom_with_soft_brush_short_short_600ms.mp4	371.600422216729	372.2087650292646	0.6083428125357386	n/a	n/a	n/a	n/a
296.06640625	0.2	606344	247	28	2	0	0	58	272	stimuli\Videos_short_600ms_vertflip\11.single_touch_with_lighter_short_vertflip_short_600ms.mp4	11.single_touch_with_lighter_short_vertflip_short_600ms.mp4	372.4004161758448	373.008750190977	0.6083340151321863	n/a	n/a	n/a	n/a
296.86669921875	0.2	607983	248	28	2	0	0	59	11	stimuli\Videos_short_600ms\2.single_touch_with_finger_short_short_600ms.mp4	2.single_touch_with_finger_short_short_600ms.mp4	373.2004195188583	373.808723622818	0.6083041039596537	n/a	n/a	n/a	n/a
297.66650390625	0.2	609621	249	28	2	0	0	60	187	stimuli\Videos_short_600ms_horvertflip\16.repeated_touch_with_plastic_brush_short_horvertflip_short_600ms.mp4	16.repeated_touch_with_plastic_brush_short_horvertflip_short_600ms.mp4	374.00037300991744	374.6086826855658	0.6083096756483428	n/a	n/a	n/a	n/a
298.46630859375	0.2	611259	250	28	2	0	0	61	286	stimuli\Videos_short_600ms_vertflip\24.single_stroke_top_to_bottom_with_a_spoon_short_vertflip_short_600ms.mp4	24.single_stroke_top_to_bottom_with_a_spoon_short_vertflip_short_600ms.mp4	374.8003948274786	375.4086801636436	0.6082853361649541	n/a	n/a	n/a	n/a
299.2666015625	0.2	612898	251	28	2	0	0	62	165	stimuli\Videos_short_600ms_horflip\78.single_stroke_top_to_bottom_with_soft_brush_short_horflip_short_600ms.mp4	78.single_stroke_top_to_bottom_with_soft_brush_short_horflip_short_600ms.mp4	375.600375883736	376.2086582874331	0.6082824036971033	n/a	n/a	n/a	n/a
300.06640625	0.2	614536	252	28	2	0	1	63	381	stimuli\Targets_short_600ms_vertflip\finger-tap_short_horvertflip_short_600ms.mp4	finger-tap_short_horvertflip_short_600ms.mp4	376.4003698428519	377.0086771725264	0.608307329674517	n/a	n/a	n/a	n/a
300.86669921875	0.2	616175	253	28	2	0	0	64	141	stimuli\Videos_short_600ms_horflip\56.repeated_touch_with_nail_file_short_horflip_short_600ms.mp4	56.repeated_touch_with_nail_file_short_horflip_short_600ms.mp4	377.2003555910578	377.8086693721616	0.6083137811037886	n/a	n/a	n/a	n/a
301.66650390625	0.2	617813	254	28	2	0	0	65	174	stimuli\Videos_short_600ms_horflip\86.touch_top_to_bottom_with_hair_brush_short_horflip_short_600ms.mp4	86.touch_top_to_bottom_with_hair_brush_short_horflip_short_600ms.mp4	378.0003448582256	378.60866919621367	0.6083243379880514	n/a	n/a	n/a	n/a
302.46630859375	0.2	619451	255	28	2	0	0	66	203	stimuli\Videos_short_600ms_horvertflip\30.finger_pulling_back_another_finger_short_horvertflip_short_600ms.mp4	30.finger_pulling_back_another_finger_short_horvertflip_short_600ms.mp4	378.80032650097655	379.4086675540316	0.6083410530550282	n/a	n/a	n/a	n/a
303.2666015625	0.2	621090	256	28	2	0	0	67	16	stimuli\Videos_short_600ms\24.single_stroke_top_to_bottom_with_a_spoon_short_short_600ms.mp4	24.single_stroke_top_to_bottom_with_a_spoon_short_short_600ms.mp4	379.60031958035233	380.2086055030104	0.6082859226580695	n/a	n/a	n/a	n/a
304.06640625	0.2	622728	257	28	2	0	1	68	374	stimuli\Targets_short_600ms_horvertflip\chopstickwood-tap_short_vertflip_short_600ms.mp4	chopstickwood-tap_short_vertflip_short_600ms.mp4	380.400306794792	381.0086405166776	0.6083337218856286	n/a	n/a	n/a	n/a
304.8662109375	0.2	624366	258	28	2	0	0	69	92	stimuli\Videos_short_600ms_horflip\11.single_touch_with_lighter_short_horflip_short_600ms.mp4	11.single_touch_with_lighter_short_horflip_short_600ms.mp4	381.20026703052736	381.80861864046665	0.6083516099392909	n/a	n/a	n/a	n/a
305.66650390625	0.2	626005	259	28	2	0	1	70	380	stimuli\Targets_short_600ms_vertflip\chopstickwood-tap_short_horvertflip_short_600ms.mp4	chopstickwood-tap_short_horvertflip_short_600ms.mp4	382.0002818101657	382.60860556166017	0.6083237514944813	n/a	n/a	n/a	n/a
306.46630859375	0.2	627643	260	28	2	0	0	71	218	stimuli\Videos_short_600ms_horvertflip\44.pushing_top_to_bottom_with_finger_short_horvertflip_short_600ms.mp4	44.pushing_top_to_bottom_with_finger_short_horvertflip_short_600ms.mp4	382.80027107733304	383.4085930693468	0.6083219920137708	n/a	n/a	n/a	n/a
307.26611328125	0.2	629281	261	28	2	0	0	72	80	stimuli\Videos_short_600ms\82.repeated_touch_with_cotton_bud_short_short_600ms.mp4	82.repeated_touch_with_cotton_bud_short_short_600ms.mp4	383.6002635702153	384.20858057703344	0.6083170068181971	n/a	n/a	n/a	n/a
308.06640625	0.2	630920	262	28	2	0	0	73	181	stimuli\Videos_short_600ms_horvertflip\10.single_touch_with_knife_short_horvertflip_short_600ms.mp4	10.single_touch_with_knife_short_horvertflip_short_600ms.mp4	384.4002443332256	385.00856867121365	0.6083243379880514	n/a	n/a	n/a	n/a
308.8662109375	0.2	632558	263	28	2	0	0	74	302	stimuli\Videos_short_600ms_vertflip\39.single_stab_with_scissors_short_vertflip_short_600ms.mp4	39.single_stab_with_scissors_short_vertflip_short_600ms.mp4	385.2002541276683	385.8085550059131	0.6083008782447905	n/a	n/a	n/a	n/a
309.666015625	0.2	634196	264	28	2	0	0	75	282	stimuli\Videos_short_600ms_vertflip\20.single_touch_with_screwdriver_short_vertflip_short_600ms.mp4	20.single_touch_with_screwdriver_short_vertflip_short_600ms.mp4	386.0002002875576	386.60854427308095	0.6083439855233337	n/a	n/a	n/a	n/a
310.46630859375	0.2	635835	265	28	2	0	0	76	67	stimuli\Videos_short_600ms\70.(long)stroke_with_finger_all_over_the_hand_short_short_600ms.mp4	70.(long)stroke_with_finger_all_over_the_hand_short_short_600ms.mp4	386.8001933669334	387.4084945384252	0.608301171491803	n/a	n/a	n/a	n/a
311.26611328125	0.2	637473	266	28	2	0	0	77	345	stimuli\Videos_short_600ms_vertflip\78.single_stroke_top_to_bottom_with_soft_brush_short_vertflip_short_600ms.mp4	78.single_stroke_top_to_bottom_with_soft_brush_short_vertflip_short_600ms.mp4	387.60017500968434	388.2085233939092	0.6083483842248825	n/a	n/a	n/a	n/a
312.06591796875	0.2	639111	267	28	2	0	0	78	131	stimuli\Videos_short_600ms_horflip\47.(long)scratching_with_finger_nails_short_horflip_short_600ms.mp4	47.(long)scratching_with_finger_nails_short_horflip_short_600ms.mp4	388.4001639836051	389.00849096081447	0.6083269772093445	n/a	n/a	n/a	n/a
312.8662109375	0.2	640750	268	28	2	0	0	79	71	stimuli\Videos_short_600ms\74.fingers_walking_from_top_to_bottom_short_short_600ms.mp4	74.fingers_walking_from_top_to_bottom_short_short_600ms.mp4	389.2001676198652	389.8084975295424	0.6083299096771952	n/a	n/a	n/a	n/a
313.666015625	0.2	642388	269	28	2	0	0	80	204	stimuli\Videos_short_600ms_horvertflip\31.hand_grabbing_wrist_short_horvertflip_short_600ms.mp4	31.hand_grabbing_wrist_short_horvertflip_short_600ms.mp4	390.0001765345678	390.60845923151146	0.608282696943661	n/a	n/a	n/a	n/a
314.4658203125	0.2	644026	270	28	2	0	0	81	188	stimuli\Videos_short_600ms_horvertflip\17.repeated_touch_with_rolling_pin_short_horvertflip_short_600ms.mp4	17.repeated_touch_with_rolling_pin_short_horvertflip_short_600ms.mp4	390.8001710801773	391.4084681462141	0.6082970660368119	n/a	n/a	n/a	n/a
315.26611328125	0.2	645665	271	28	2	0	0	82	116	stimuli\Videos_short_600ms_horflip\33.scratch_top_to_bottom_with_scissors_short_horflip_short_600ms.mp4	33.scratch_top_to_bottom_with_scissors_short_horflip_short_600ms.mp4	391.6001283834448	392.2084418713016	0.6083134878567762	n/a	n/a	n/a	n/a
316.06591796875	0.2	647303	272	28	2	0	0	83	340	stimuli\Videos_short_600ms_vertflip\73.single_stroke_with_flat_hand_short_vertflip_short_600ms.mp4	73.single_stroke_with_flat_hand_short_vertflip_short_600ms.mp4	392.4001337791856	393.00845078600423	0.6083170068186519	n/a	n/a	n/a	n/a
316.86572265625	0.2	648941	273	28	2	0	0	84	243	stimuli\Videos_short_600ms_horvertflip\67.single_touch_with_sponge_short_horvertflip_short_600ms.mp4	67.single_touch_with_sponge_short_horvertflip_short_600ms.mp4	393.2001180611578	393.80841952589617	0.6083014647383607	n/a	n/a	n/a	n/a
317.666015625	0.2	650580	274	28	2	0	0	85	15	stimuli\Videos_short_600ms\23.single_push_with_a_spoon_short_short_600ms.mp4	23.single_push_with_a_spoon_short_short_600ms.mp4	394.0001046891043	394.60842726761166	0.608322578507341	n/a	n/a	n/a	n/a
318.4658203125	0.2	652218	275	28	2	0	0	86	50	stimuli\Videos_short_600ms\55.touch_top_to_bottom_with_nail_file_short_short_600ms.mp4	55.touch_top_to_bottom_with_nail_file_short_short_600ms.mp4	394.8000637518521	395.408407737375	0.6083439855228789	n/a	n/a	n/a	n/a
319.26611328125	0.2	653857	276	28	2	0	0	87	12	stimuli\Videos_short_600ms\20.single_touch_with_screwdriver_short_short_600ms.mp4	20.single_touch_with_screwdriver_short_short_600ms.mp4	395.60007237330774	396.20841166688206	0.6083392935743177	n/a	n/a	n/a	n/a
320.06591796875	0.2	655495	277	28	2	0	0	88	350	stimuli\Videos_short_600ms_vertflip\82.repeated_touch_with_cotton_bud_short_vertflip_short_600ms.mp4	82.repeated_touch_with_cotton_bud_short_vertflip_short_600ms.mp4	396.4000584147607	397.0083830459953	0.6083246312346091	n/a	n/a	n/a	n/a
320.86572265625	0.2	657133	278	28	2	0	0	89	312	stimuli\Videos_short_600ms_vertflip\48.single_slap_with_hand_short_vertflip_short_600ms.mp4	48.single_slap_with_hand_short_vertflip_short_600ms.mp4	397.20004709543446	397.8083720199161	0.6083249244816216	n/a	n/a	n/a	n/a
321.666015625	0.2	658772	279	28	2	0	0	90	227	stimuli\Videos_short_600ms_horvertflip\52.touch_top_to_bottom_with_hammer_short_horvertflip_short_600ms.mp4	52.touch_top_to_bottom_with_hammer_short_horvertflip_short_600ms.mp4	398.00003870857654	398.60835894110915	0.6083202325326056	n/a	n/a	n/a	n/a
322.4658203125	0.2	660410	280	28	2	0	0	91	189	stimuli\Videos_short_600ms_horvertflip\18.single_stroke_from_top_to_bottom_with_rolling_pin_short_horvertflip_short_600ms.mp4	18.single_stroke_from_top_to_bottom_with_rolling_pin_short_horvertflip_short_600ms.mp4	398.80002445678247	399.4083485015235	0.608324044741039	n/a	n/a	n/a	n/a
323.265625	0.2	662048	281	28	2	0	0	92	278	stimuli\Videos_short_600ms_vertflip\17.repeated_touch_with_rolling_pin_short_vertflip_short_600ms.mp4	17.repeated_touch_with_rolling_pin_short_vertflip_short_600ms.mp4	399.6000184158984	400.2083345429765	0.6083161270780693	n/a	n/a	n/a	n/a
324.06591796875	0.2	663687	282	28	2	0	0	93	119	stimuli\Videos_short_600ms_horflip\36.single_slap_with_full_hand_short_horflip_short_600ms.mp4	36.single_slap_with_full_hand_short_horflip_short_600ms.mp4	400.3999745461788	401.0083232236502	0.6083486774714402	n/a	n/a	n/a	n/a
324.86572265625	0.2	665325	283	28	2	0	0	94	82	stimuli\Videos_short_600ms\84.single_touch_with_cotton_bud_short_short_600ms.mp4	84.single_touch_with_cotton_bud_short_short_600ms.mp4	401.1999726107497	401.8083092651032	0.6083366543534794	n/a	n/a	n/a	n/a
325.66552734375	0.2	666963	284	28	2	0	0	95	145	stimuli\Videos_short_600ms_horflip\6.single_touch_with_flat_hand_short_horflip_short_600ms.mp4	6.single_touch_with_flat_hand_short_horflip_short_600ms.mp4	401.9999533737605	402.60829794577694	0.6083445720164491	n/a	n/a	n/a	n/a
326.4658203125	0.2	668602	285	28	2	0	0	96	114	stimuli\Videos_short_600ms_horflip\31.hand_grabbing_wrist_short_horflip_short_600ms.mp4	31.hand_grabbing_wrist_short_horflip_short_600ms.mp4	402.7999423476808	403.4082854534636	0.6083431057827511	n/a	n/a	n/a	n/a
327.265625	0.2	670240	286	28	2	0	0	97	258	stimuli\Videos_short_600ms_horvertflip\80.stroke_with_sharp_stick_all_over_the_hand_short_horvertflip_short_600ms.mp4	80.stroke_with_sharp_stick_all_over_the_hand_short_horvertflip_short_600ms.mp4	403.5999330810823	404.20826914894224	0.6083360678599092	8.0	8.0	1.820061716719465	1.0
360.28955078125	0.2	737873	287	28	3	0	0	0	352	stimuli\Videos_short_600ms_vertflip\84.single_touch_with_cotton_bud_short_vertflip_short_600ms.mp4	84.single_touch_with_cotton_bud_short_vertflip_short_600ms.mp4	436.6244414748321	437.23275877489687	0.6083173000647548	n/a	n/a	n/a	n/a
361.08935546875	0.2	739511	288	28	3	0	0	1	34	stimuli\Videos_short_600ms\40.repeated_push_with_finger_short_short_600ms.mp4	40.repeated_push_with_finger_short_short_600ms.mp4	437.424426929791	438.032708453748	0.6082815239569754	n/a	n/a	n/a	n/a
361.8896484375	0.2	741150	289	28	3	0	0	2	202	stimuli\Videos_short_600ms_horvertflip\3.single_push_with_finger_short_horvertflip_short_600ms.mp4	3.single_push_with_finger_short_horvertflip_short_600ms.mp4	438.2244147307247	438.8327211806586	0.6083064499339343	n/a	n/a	n/a	n/a
362.689453125	0.2	742788	290	28	3	0	0	3	210	stimuli\Videos_short_600ms_horvertflip\37.single_stab_with_nail_file_short_horvertflip_short_600ms.mp4	37.single_stab_with_nail_file_short_horvertflip_short_600ms.mp4	439.02437965840863	439.63271279380024	0.6083331353916037	n/a	n/a	n/a	n/a
363.4892578125	0.2	744426	291	28	3	0	0	4	254	stimuli\Videos_short_600ms_horvertflip\77.tapping_with_all_fingers_short_horvertflip_short_600ms.mp4	77.tapping_with_all_fingers_short_horvertflip_short_600ms.mp4	439.8243912123321	440.43271701655385	0.6083258042217494	n/a	n/a	n/a	n/a
364.28955078125	0.2	746065	292	28	3	0	0	5	252	stimuli\Videos_short_600ms_horvertflip\75.(long)stroke_with_fingers_all_over_the_hand_short_horvertflip_short_600ms.mp4	75.(long)stroke_with_fingers_all_over_the_hand_short_horvertflip_short_600ms.mp4	440.6243801862529	441.23270452424094	0.6083243379880514	n/a	n/a	n/a	n/a
365.08935546875	0.2	747703	293	28	3	0	0	6	193	stimuli\Videos_short_600ms_horvertflip\21.repeated_touch_with_metal_chopstick_short_horvertflip_short_600ms.mp4	21.repeated_touch_with_metal_chopstick_short_horvertflip_short_600ms.mp4	441.42436974666725	442.0326940846549	0.6083243379875967	n/a	n/a	n/a	n/a
365.88916015625	0.2	749341	294	28	3	0	0	7	358	stimuli\Videos_short_600ms_vertflip\9.single_touch_with_hammer_short_vertflip_short_600ms.mp4	9.single_touch_with_hammer_short_vertflip_short_600ms.mp4	442.2245261645048	442.83267484766566	0.6081486831608345	n/a	n/a	n/a	n/a
366.689453125	0.2	750980	295	28	3	0	0	8	332	stimuli\Videos_short_600ms_vertflip\66.stroke_top_to_bottom_with_sponge_short_vertflip_short_600ms.mp4	66.stroke_top_to_bottom_with_sponge_short_vertflip_short_600ms.mp4	443.0243386038578	443.6326638215865	0.608325217728634	n/a	n/a	n/a	n/a
367.4892578125	0.2	752618	296	28	3	0	0	9	198	stimuli\Videos_short_600ms_horvertflip\26.single_touch_with_a_blunt_syringe_short_horvertflip_short_600ms.mp4	26.single_touch_with_a_blunt_syringe_short_horvertflip_short_600ms.mp4	443.8243296305063	444.4326513292731	0.6083216987667583	n/a	n/a	n/a	n/a
368.2890625	0.2	754256	297	28	3	0	0	10	23	stimuli\Videos_short_600ms\30.finger_pulling_back_another_finger_short_short_600ms.mp4	30.finger_pulling_back_another_finger_short_short_600ms.mp4	444.6243224166351	445.2326403031939	0.6083178865587797	n/a	n/a	n/a	n/a
369.08935546875	0.2	755895	298	28	3	0	0	11	185	stimuli\Videos_short_600ms_horvertflip\14.repeated_touch_with_pencil_short_horvertflip_short_600ms.mp4	14.repeated_touch_with_pencil_short_horvertflip_short_600ms.mp4	445.42428558483834	446.0326283973741	0.6083428125357386	n/a	n/a	n/a	n/a
369.88916015625	0.2	757533	299	28	3	0	0	12	263	stimuli\Videos_short_600ms_horvertflip\85.touch_top_to_bottom_with_fabric_short_horvertflip_short_600ms.mp4	85.touch_top_to_bottom_with_fabric_short_horvertflip_short_600ms.mp4	446.22424904628815	446.8326164915543	0.6083674452661398	n/a	n/a	n/a	n/a
370.68896484375	0.2	759171	300	28	3	0	0	13	69	stimuli\Videos_short_600ms\72.(short)stroke_with_finger_all_over_the_hand_short_short_600ms.mp4	72.(short)stroke_with_finger_all_over_the_hand_short_short_600ms.mp4	447.0242996020347	447.6326013600201	0.6083017579853731	n/a	n/a	n/a	n/a
371.4892578125	0.2	760810	301	28	3	0	0	14	30	stimuli\Videos_short_600ms\37.single_stab_with_nail_file_short_short_600ms.mp4	37.single_stab_with_nail_file_short_short_600ms.mp4	447.8242228886743	448.4325920934216	0.608369204747305	n/a	n/a	n/a	n/a
372.2890625	0.2	762448	302	28	3	0	0	15	287	stimuli\Videos_short_600ms_vertflip\25.single_touch_with_stanley_knife_short_vertflip_short_600ms.mp4	25.single_touch_with_stanley_knife_short_vertflip_short_600ms.mp4	448.6242323898705	449.2325801876018	0.6083477977313123	n/a	n/a	n/a	n/a
373.08935546875	0.2	764087	303	28	3	0	0	16	305	stimuli\Videos_short_600ms_vertflip\41.injection_with_blunt_syringe_short_vertflip_short_600ms.mp4	41.injection_with_blunt_syringe_short_vertflip_short_600ms.mp4	449.42421520560856	450.032543062558	0.6083278569494723	n/a	n/a	n/a	n/a
373.88916015625	0.2	765725	304	28	3	0	0	17	166	stimuli\Videos_short_600ms_horflip\79.long_with_soft_brush_all_over_the_hand_short_horflip_short_600ms.mp4	79.long_with_soft_brush_all_over_the_hand_short_horflip_short_600ms.mp4	450.2242194283622	450.8325074037484	0.6082879753862471	n/a	n/a	n/a	n/a
374.68896484375	0.2	767363	305	28	3	0	0	18	86	stimuli\Videos_short_600ms\88.repeated_stroke_with_plastic_brush_short_short_600ms.mp4	88.repeated_stroke_with_plastic_brush_short_short_600ms.mp4	451.02422541059696	451.6324981371499	0.6082727265529684	n/a	n/a	n/a	n/a
375.4892578125	0.2	769002	306	28	3	0	0	19	283	stimuli\Videos_short_600ms_vertflip\21.repeated_touch_with_metal_chopstick_short_vertflip_short_600ms.mp4	21.repeated_touch_with_metal_chopstick_short_vertflip_short_600ms.mp4	451.82420324113946	452.432484765096	0.6082815239565207	n/a	n/a	n/a	n/a
376.2890625	0.2	770640	307	28	3	0	1	20	375	stimuli\Targets_short_600ms_horvertflip\finger-tap_short_vertflip_short_600ms.mp4	finger-tap_short_vertflip_short_600ms.mp4	452.6241942677875	453.2324878148629	0.608293547075391	n/a	n/a	n/a	n/a
377.0888671875	0.2	772278	308	28	3	0	0	21	120	stimuli\Videos_short_600ms_horflip\37.single_stab_with_nail_file_short_horflip_short_600ms.mp4	37.single_stab_with_nail_file_short_horflip_short_600ms.mp4	453.4241800159939	454.03248969164224	0.6083096756483428	n/a	n/a	n/a	n/a
377.88916015625	0.2	773917	309	28	3	0	0	22	143	stimuli\Videos_short_600ms_horflip\58.single_slap_with_pencil_short_horflip_short_600ms.mp4	58.single_slap_with_pencil_short_horflip_short_600ms.mp4	454.22416693718696	454.8324769060823	0.6083099688953553	n/a	n/a	n/a	n/a
378.68896484375	0.2	775555	310	28	3	0	1	23	372	stimuli\Targets_short_600ms_horvertflip\brush-stroke_short_vertflip_short_600ms.mp4	brush-stroke_short_vertflip_short_600ms.mp4	455.0241550313672	455.6324931519543	0.6083381205871774	n/a	n/a	n/a	n/a
379.48876953125	0.2	777193	311	28	3	0	0	24	300	stimuli\Videos_short_600ms_vertflip\37.single_stab_with_nail_file_short_vertflip_short_600ms.mp4	37.single_stab_with_nail_file_short_vertflip_short_600ms.mp4	455.8241442985345	456.4324701027567	0.6083258042222042	n/a	n/a	n/a	n/a
380.2890625	0.2	778832	312	28	3	0	0	25	68	stimuli\Videos_short_600ms\71.single_stroke_with_finger_top_to_bottom_short_short_600ms.mp4	71.single_stroke_with_finger_top_to_bottom_short_short_600ms.mp4	456.6241356184296	457.2324546779755	0.60831905954592	n/a	n/a	n/a	n/a
381.0888671875	0.2	780470	313	28	3	0	0	26	228	stimuli\Videos_short_600ms_horvertflip\53.touch_top_to_bottom_with_knife_short_horvertflip_short_600ms.mp4	53.touch_top_to_bottom_with_knife_short_horvertflip_short_600ms.mp4	457.4241187274147	458.0324415991686	0.6083228717538987	n/a	n/a	n/a	n/a
381.888671875	0.2	782108	314	28	3	0	0	27	233	stimuli\Videos_short_600ms_horvertflip\58.single_slap_with_pencil_short_horvertflip_short_600ms.mp4	58.single_slap_with_pencil_short_horvertflip_short_600ms.mp4	458.2241294015976	458.8324299865958	0.6083005849982328	n/a	n/a	n/a	n/a
382.68896484375	0.2	783747	315	28	3	0	0	28	13	stimuli\Videos_short_600ms\21.repeated_touch_with_metal_chopstick_short_short_600ms.mp4	21.repeated_touch_with_metal_chopstick_short_short_600ms.mp4	459.0240934495414	459.632417787529	0.6083243379875967	n/a	n/a	n/a	n/a
383.48876953125	0.2	785385	316	28	3	0	0	29	303	stimuli\Videos_short_600ms_vertflip\4.repeated_tap_with_finger_slow_short_vertflip_short_600ms.mp4	4.repeated_tap_with_finger_slow_short_vertflip_short_600ms.mp4	459.8240797842409	460.4324052952161	0.6083255109751917	n/a	n/a	n/a	n/a
384.28857421875	0.2	787023	317	28	3	0	0	30	267	stimuli\Videos_short_600ms_horvertflip\89.single_touch_with_plastic_brush_short_horvertflip_short_600ms.mp4	89.single_touch_with_plastic_brush_short_horvertflip_short_600ms.mp4	460.6240699311484	461.2323933893963	0.6083234582479236	n/a	n/a	n/a	n/a
385.0888671875	0.2	788662	318	28	3	0	0	31	298	stimuli\Videos_short_600ms_vertflip\35.single_punch_with_hand_short_vertflip_short_600ms.mp4	35.single_punch_with_hand_short_vertflip_short_600ms.mp4	461.4240650632519	462.0323806038364	0.6083155405844991	n/a	n/a	n/a	n/a
385.888671875	0.2	790300	319	28	3	0	0	32	109	stimuli\Videos_short_600ms_horflip\27.single_push_with_a_plastic_whisk_short_horflip_short_600ms.mp4	27.single_push_with_a_plastic_whisk_short_horflip_short_600ms.mp4	462.2240197272981	462.8323698710037	0.6083501437055929	n/a	n/a	n/a	n/a
386.6884765625	0.2	791938	320	28	3	0	0	33	160	stimuli\Videos_short_600ms_horflip\73.single_stroke_with_flat_hand_short_horflip_short_600ms.mp4	73.single_stroke_with_flat_hand_short_horflip_short_600ms.mp4	463.02400958095905	463.6323535664819	0.6083439855228789	n/a	n/a	n/a	n/a
387.48876953125	0.2	793577	321	28	3	0	0	34	45	stimuli\Videos_short_600ms\50.single_(long)hard_push_with_thumb_short_short_600ms.mp4	50.single_(long)hard_push_with_thumb_short_short_600ms.mp4	463.8239812533193	464.43233432949273	0.6083530761734437	n/a	n/a	n/a	n/a
388.28857421875	0.2	795215	322	28	3	0	0	35	268	stimuli\Videos_short_600ms_horvertflip\9.single_touch_with_hammer_short_horvertflip_short_600ms.mp4	9.single_touch_with_hammer_short_horvertflip_short_600ms.mp4	464.62399779243833	465.23233004808935	0.6083322556510211	n/a	n/a	n/a	n/a
389.08837890625	0.2	796853	323	28	3	0	0	36	122	stimuli\Videos_short_600ms_horflip\39.single_stab_with_scissors_short_horflip_short_600ms.mp4	39.single_stab_with_scissors_short_horflip_short_600ms.mp4	465.4239806081764	466.0323058259046	0.6083252177281793	n/a	n/a	n/a	n/a
389.888671875	0.2	798492	324	28	3	0	1	37	376	stimuli\Targets_short_600ms_horvertflip\hand-pinch_short_vertflip_short_600ms.mp4	hand-pinch_short_vertflip_short_600ms.mp4	466.22399450807416	466.8322813104728	0.6082868023986521	n/a	n/a	n/a	n/a
390.6884765625	0.2	800130	325	28	3	0	0	38	301	stimuli\Videos_short_600ms_vertflip\38.double_slap_with_pencil_short_vertflip_short_600ms.mp4	38.double_slap_with_pencil_short_vertflip_short_600ms.mp4	467.0240001970619	467.6322582612752	0.6082580642132598	n/a	n/a	n/a	n/a
391.48876953125	0.2	801769	326	28	3	0	0	39	38	stimuli\Videos_short_600ms\44.pushing_top_to_bottom_with_finger_short_short_600ms.mp4	44.pushing_top_to_bottom_with_finger_short_short_600ms.mp4	467.8239589665632	468.43225573935297	0.6082967727897994	n/a	n/a	n/a	n/a
392.28857421875	0.2	803407	327	28	3	0	0	40	180	stimuli\Videos_short_600ms_horvertflip\1.repeated_touch_with_finger_fast_short_horvertflip_short_600ms.mp4	1.repeated_touch_with_finger_fast_short_horvertflip_short_600ms.mp4	468.6239429552884	469.2322429537926	0.6082999985042079	n/a	n/a	n/a	n/a
393.08837890625	0.2	805045	328	28	3	0	0	41	72	stimuli\Videos_short_600ms\75.(long)stroke_with_fingers_all_over_the_hand_short_short_600ms.mp4	75.(long)stroke_with_fingers_all_over_the_hand_short_short_600ms.mp4	469.4239354481706	470.0322416048575	0.6083061566869219	n/a	n/a	n/a	n/a
393.888671875	0.2	806684	329	28	3	0	0	42	342	stimuli\Videos_short_600ms_vertflip\75.(long)stroke_with_fingers_all_over_the_hand_short_vertflip_short_600ms.mp4	75.(long)stroke_with_fingers_all_over_the_hand_short_vertflip_short_600ms.mp4	470.2239194368958	470.8322472938453	0.6083278569494723	n/a	n/a	n/a	n/a
394.6884765625	0.2	808322	330	28	3	0	0	43	158	stimuli\Videos_short_600ms_horflip\71.single_stroke_with_finger_top_to_bottom_short_horflip_short_600ms.mp4	71.single_stroke_with_finger_top_to_bottom_short_horflip_short_600ms.mp4	471.0239057715953	471.6322368542597	0.6083310826643356	n/a	n/a	n/a	n/a
395.48828125	0.2	809960	331	28	3	0	0	44	169	stimuli\Videos_short_600ms_horflip\81.single_stroke_top_to_bottom_with_cotton_pad_short_horflip_short_600ms.mp4	81.single_stroke_top_to_bottom_with_cotton_pad_short_horflip_short_600ms.mp4	471.8238926927884	472.4322184970106	0.6083258042222042	n/a	n/a	n/a	n/a
396.28857421875	0.2	811599	332	28	3	0	0	45	212	stimuli\Videos_short_600ms_horvertflip\39.single_stab_with_scissors_short_horvertflip_short_600ms.mp4	39.single_stab_with_scissors_short_horvertflip_short_600ms.mp4	472.6238834261899	473.2322048317101	0.6083214055202006	n/a	n/a	n/a	n/a
397.08837890625	0.2	813237	333	28	3	0	0	46	3	stimuli\Videos_short_600ms\12.repeated_touch_with_nail_file_short_short_600ms.mp4	12.repeated_touch_with_nail_file_short_short_600ms.mp4	473.42387650556566	474.03219175290315	0.6083152473374867	n/a	n/a	n/a	n/a
397.88818359375	0.2	814875	334	28	3	0	0	47	335	stimuli\Videos_short_600ms_vertflip\69.stroke_with_soft_sock_short_vertflip_short_600ms.mp4	69.stroke_with_soft_sock_short_vertflip_short_600ms.mp4	474.22383674130106	474.8321786740962	0.608341932795156	n/a	n/a	n/a	n/a
398.6884765625	0.2	816514	335	28	3	0	0	48	102	stimuli\Videos_short_600ms_horflip\20.single_touch_with_screwdriver_short_horflip_short_600ms.mp4	20.single_touch_with_screwdriver_short_horflip_short_600ms.mp4	475.0238547466538	475.6321682345106	0.6083134878567762	n/a	n/a	n/a	n/a
399.48828125	0.2	818152	336	28	3	0	0	49	85	stimuli\Videos_short_600ms\87.single_stroke_top_to_bottom_with_plastic_brush_short_short_600ms.mp4	87.single_stroke_top_to_bottom_with_plastic_brush_short_short_600ms.mp4	475.82380765121934	476.4321560354442	0.6083483842248825	n/a	n/a	n/a	n/a
400.2880859375	0.2	819790	337	28	3	0	0	50	66	stimuli\Videos_short_600ms\7.repeated_touch_with_hairbrush_short_short_600ms.mp4	7.repeated_touch_with_hairbrush_short_short_600ms.mp4	476.6237749248776	477.2321438363779	0.6083689115002926	n/a	n/a	n/a	n/a
401.08837890625	0.2	821429	338	28	3	0	0	51	95	stimuli\Videos_short_600ms_horflip\14.repeated_touch_with_pencil_short_horflip_short_600ms.mp4	14.repeated_touch_with_pencil_short_horflip_short_600ms.mp4	477.42377445568263	478.0321310508175	0.6083565951348646	n/a	n/a	n/a	n/a
401.88818359375	0.2	823067	339	28	3	0	0	52	260	stimuli\Videos_short_600ms_horvertflip\82.repeated_touch_with_cotton_bud_short_horvertflip_short_600ms.mp4	82.repeated_touch_with_cotton_bud_short_horvertflip_short_600ms.mp4	478.223751113238	478.83211650577687	0.6083653925388717	n/a	n/a	n/a	n/a
402.68798828125	0.2	824705	340	28	3	0	0	53	331	stimuli\Videos_short_600ms_vertflip\65.stroke_top_to_bottom_with_stanley_knife_short_vertflip_short_600ms.mp4	65.stroke_top_to_bottom_with_stanley_knife_short_vertflip_short_600ms.mp4	479.02376559962977	479.6321092919056	0.6083436922758665	n/a	n/a	n/a	n/a
403.48828125	0.2	826344	341	28	3	0	0	54	271	stimuli\Videos_short_600ms_vertflip\10.single_touch_with_knife_short_vertflip_short_600ms.mp4	10.single_touch_with_knife_short_vertflip_short_600ms.mp4	479.82375398705653	480.4320962130987	0.6083422260421685	n/a	n/a	n/a	n/a
404.2880859375	0.2	827982	342	28	3	0	0	55	118	stimuli\Videos_short_600ms_horflip\35.single_punch_with_hand_short_horflip_short_600ms.mp4	35.single_punch_with_hand_short_horflip_short_600ms.mp4	480.62374237448375	481.2320778558496	0.6083354813658843	n/a	n/a	n/a	n/a
405.087890625	0.2	829620	343	28	3	0	0	56	194	stimuli\Videos_short_600ms_horvertflip\22.single_touch_with_metal_chopstick_short_horvertflip_short_600ms.mp4	22.single_touch_with_metal_chopstick_short_horvertflip_short_600ms.mp4	481.4237580338622	482.03207504068087	0.6083170068186519	n/a	n/a	n/a	n/a
405.88818359375	0.2	831259	344	28	3	0	0	57	101	stimuli\Videos_short_600ms_horflip\2.single_touch_with_finger_short_horflip_short_600ms.mp4	2.single_touch_with_finger_short_horflip_short_600ms.mp4	482.22373205219674	482.83202032082954	0.6082882686328048	n/a	n/a	n/a	n/a
406.68798828125	0.2	832897	345	28	3	0	0	58	65	stimuli\Videos_short_600ms\69.stroke_with_soft_sock_short_short_600ms.mp4	69.stroke_with_soft_sock_short_short_600ms.mp4	483.02372278559824	483.63199844461906	0.6082756590208191	n/a	n/a	n/a	n/a
407.48779296875	0.2	834535	346	28	3	0	0	59	19	stimuli\Videos_short_600ms\27.single_push_with_a_plastic_whisk_short_short_600ms.mp4	27.single_push_with_a_plastic_whisk_short_short_600ms.mp4	483.82370853380417	484.4320299393244	0.6083214055202006	n/a	n/a	n/a	n/a
408.2880859375	0.2	836174	347	28	3	0	0	60	178	stimuli\Videos_short_600ms_horflip\9.single_touch_with_hammer_short_horflip_short_600ms.mp4	9.single_touch_with_hammer_short_horflip_short_600ms.mp4	484.6237010266864	485.232025951168	0.6083249244816216	n/a	n/a	n/a	n/a
409.087890625	0.2	837812	348	28	3	0	0	61	89	stimuli\Videos_short_600ms\90.repeated_touch_with_sponge_short_short_600ms.mp4	90.repeated_touch_with_sponge_short_short_600ms.mp4	485.423684135671	486.0320131656081	0.6083290299370674	n/a	n/a	n/a	n/a
409.8876953125	0.2	839450	349	28	3	0	0	62	306	stimuli\Videos_short_600ms_vertflip\42.single_slap_with_plastic_whisk_short_vertflip_short_600ms.mp4	42.single_slap_with_plastic_whisk_short_vertflip_short_600ms.mp4	486.2236692973838	486.83200360576257	0.608334308378744	n/a	n/a	n/a	n/a
410.68798828125	0.2	841089	350	28	3	0	0	63	134	stimuli\Videos_short_600ms_horflip\5.repeated_tap_with_finger_moving_from_top_to_bottom_short_horflip_short_600ms.mp4	5.repeated_tap_with_finger_moving_from_top_to_bottom_short_horflip_short_600ms.mp4	487.0236606172784	487.6319826092922	0.6083219920137708	n/a	n/a	n/a	n/a
411.48779296875	0.2	842727	351	28	3	0	0	64	275	stimuli\Videos_short_600ms_vertflip\14.repeated_touch_with_pencil_short_vertflip_short_600ms.mp4	14.repeated_touch_with_pencil_short_vertflip_short_600ms.mp4	487.8236457789913	488.43197041022586	0.6083246312346091	n/a	n/a	n/a	n/a
412.2880859375	0.2	844366	352	28	3	0	0	65	231	stimuli\Videos_short_600ms_horvertflip\56.repeated_touch_with_nail_file_short_horvertflip_short_600ms.mp4	56.repeated_touch_with_nail_file_short_horvertflip_short_600ms.mp4	488.6236332866779	489.2319558651852	0.608322578507341	n/a	n/a	n/a	n/a
413.087890625	0.2	846004	353	28	3	0	0	66	329	stimuli\Videos_short_600ms_vertflip\63.stroke_top_to_bottom_with_screwdriver_short_vertflip_short_600ms.mp4	63.stroke_top_to_bottom_with_screwdriver_short_vertflip_short_600ms.mp4	489.4236234335858	490.03194337287186	0.6083199392860479	n/a	n/a	n/a	n/a
413.8876953125	0.2	847642	354	28	3	0	0	67	98	stimuli\Videos_short_600ms_horflip\17.repeated_touch_with_rolling_pin_short_horflip_short_600ms.mp4	17.repeated_touch_with_rolling_pin_short_horflip_short_600ms.mp4	490.223615339974	490.8319329332862	0.608317593312222	n/a	n/a	n/a	n/a
414.68798828125	0.2	849281	355	28	3	0	0	68	234	stimuli\Videos_short_600ms_horvertflip\59.single_push_with_long_side_pencil_short_horvertflip_short_600ms.mp4	59.single_push_with_long_side_pencil_short_horvertflip_short_600ms.mp4	491.0235934637635	491.6319198544793	0.6083263907157743	n/a	n/a	n/a	n/a
415.48779296875	0.2	850919	356	28	3	0	0	69	167	stimuli\Videos_short_600ms_horflip\8.single_touch_with_hairbrush_short_horflip_short_600ms.mp4	8.single_touch_with_hairbrush_short_horflip_short_600ms.mp4	491.82353434521065	492.4319088284001	0.6083744831894364	n/a	n/a	n/a	n/a
416.28759765625	0.2	852557	357	28	3	0	0	70	125	stimuli\Videos_short_600ms_horflip\41.injection_with_blunt_syringe_short_horflip_short_600ms.mp4	41.injection_with_blunt_syringe_short_horflip_short_600ms.mp4	492.6235476586148	493.231894576606	0.6083469179911845	n/a	n/a	n/a	n/a
417.087890625	0.2	854196	358	28	3	0	0	71	318	stimuli\Videos_short_600ms_vertflip\53.touch_top_to_bottom_with_knife_short_vertflip_short_600ms.mp4	53.touch_top_to_bottom_with_knife_short_vertflip_short_600ms.mp4	493.4235137592859	494.0318832572798	0.6083694979938628	n/a	n/a	n/a	n/a
